"consent","trial_type","trial_index","time_elapsed","internal_node_id","subjID","study","MID","cond","drift","rt","responses","key_press","expt_phase","like","value","connected","gems","bombs","no_reward","GemPrChosen","BombPrChosen","GainOverPainPr_0","GainOverPainPr_1","GainOverPainPr_2","GainOverPainPr_3","LosePr_0","LosePr_1","LosePr_2","LosePr_3","WinPr_0","WinPr_1","WinPr_2","WinPr_3","Q0","Q1","Q2","gender","age","ethnicity","target","respCharCode","respKey","respChoiceNum","respChoice","practice","trial_counter","trial_label"
"INL_behavioral_consent_30min_online.html","consent","0","11105","0.0-0.0","65124110","wem/bandit_either_2","ANYB94DHDJKNO","either","8","","","","","","","","","","","","","","","","","","","","","","","","","","","","","","","","","","","","","",""
"","survey-text","1","19673","0.0-1.0","65124110","wem/bandit_either_2","ANYB94DHDJKNO","either","8","7547","{""Q0"":""ANYB94DHDJKNO""}","","","","","","","","","","","","","","","","","","","","","","","","","","","","","","","","","","","",""
"","text","2","29234","0.0-2.0","65124110","wem/bandit_either_2","ANYB94DHDJKNO","either","8","8557","","32","","","","","","","","","","","","","","","","","","","","","","","","","","","","","","","","","","",""
"","text","3","45860","0.0-3.0","65124110","wem/bandit_either_2","ANYB94DHDJKNO","either","8","16624","","32","","","","","","","","","","","","","","","","","","","","","","","","","","","","","","","","","","",""
"","text","4","75971","0.0-4.0","65124110","wem/bandit_either_2","ANYB94DHDJKNO","either","8","30109","","32","","","","","","","","","","","","","","","","","","","","","","","","","","","","","","","","","","",""
"","text","5","87299","0.0-5.0","65124110","wem/bandit_either_2","ANYB94DHDJKNO","either","8","11325","","32","","","","","","","","","","","","","","","","","","","","","","","","","","","","","","","","","","",""
"","text","6","135574","0.0-6.0","65124110","wem/bandit_either_2","ANYB94DHDJKNO","either","8","48271","","32","","","","","","","","","","","","","","","","","","","","","","","","","","","","","","","","","","",""
"","text","7","144172","0.0-7.0","65124110","wem/bandit_either_2","ANYB94DHDJKNO","either","8","8595","","32","","","","","","","","","","","","","","","","","","","","","","","","","","","","","","","","","","",""
"","text","8","147812","0.0-8.0","65124110","wem/bandit_either_2","ANYB94DHDJKNO","either","8","3637","","32","","","","","","","","","","","","","","","","","","","","","","","","","","","","","","","","","","",""
"","identification","9","156359","0.0-9.0-0.0","65124110","wem/bandit_either_2","ANYB94DHDJKNO","either","8","8539","","","","6","6","6","","","","","","","","","","","","","","","","","","","","","","","","the village of Zur","","","","","","",""
"","identification","10","165348","0.0-9.0-1.0","65124110","wem/bandit_either_2","ANYB94DHDJKNO","either","8","7977","","","","0","0","0","","","","","","","","","","","","","","","","","","","","","","","","the village of Nyx","","","","","","",""
"","text","11","173219","0.0-10.0","65124110","wem/bandit_either_2","ANYB94DHDJKNO","either","8","6864","","32","","","","","","","","","","","","","","","","","","","","","","","","","","","","","","","","","","",""
"","text","12","176060","0.0-11.0","65124110","wem/bandit_either_2","ANYB94DHDJKNO","either","8","2839","","32","","","","","","","","","","","","","","","","","","","","","","","","","","","","","","","","","","",""
"","text","13","177747","0.0-12.0","65124110","wem/bandit_either_2","ANYB94DHDJKNO","either","8","1686","","32","","","","","","","","","","","","","","","","","","","","","","","","","","","","","","","","","","",""
"","text","14","181595","0.0-13.0","65124110","wem/bandit_either_2","ANYB94DHDJKNO","either","8","3846","","32","","","","","","","","","","","","","","","","","","","","","","","","","","","","","","","","","","",""
"","bandit","15","186398","0.0-14.0-0.0","65124110","wem/bandit_either_2","ANYB94DHDJKNO","either","8","2946","","","","","","","0","0","1","0","0","","","","","0","","","","0","","","","","","","","","","","74","J","0","img/none_selected_demo.jpg","true","0",""
"","bandit","16","190114","0.0-15.0-0.0","65124110","wem/bandit_either_2","ANYB94DHDJKNO","either","8","2203","","","","","","","0","0","1","0","0","","","","","0","","","","0","","","","","","","","","","","75","K","0","img/none_selected_demo.jpg","true","0",""
"","text","17","196939","0.0-16.0","65124110","wem/bandit_either_2","ANYB94DHDJKNO","either","8","6825","","32","","","","","","","","","","","","","","","","","","","","","","","","","","","","","","","","","","",""
"","text","18","216190","0.0-17.0","65124110","wem/bandit_either_2","ANYB94DHDJKNO","either","8","19248","","32","","","","","","","","","","","","","","","","","","","","","","","","","","","","","","","","","","",""
"","text","19","222516","0.0-18.0","65124110","wem/bandit_either_2","ANYB94DHDJKNO","either","8","6324","","32","","","","","","","","","","","","","","","","","","","","","","","","","","","","","","","","","","",""
"","text","20","225236","0.0-19.0","65124110","wem/bandit_either_2","ANYB94DHDJKNO","either","8","2719","","32","","","","","","","","","","","","","","","","","","","","","","","","","","","","","","","","","","",""
"","bandit","21","228377","0.0-20.0-0.0","65124110","wem/bandit_either_2","ANYB94DHDJKNO","either","8","1625","","","","","","","0","1","0","","0.2","0.5","0.5","","","0.8","0.2","","","","","","","","","","","","","","75","K","1","","true","0","80_20_practice"
"","bandit","22","232241","0.0-20.0-1.0","65124110","wem/bandit_either_2","ANYB94DHDJKNO","either","8","1977","","","","","","","0","0","1","","0.2","0.5","0.5","","","0.8","0.2","","","","","","","","","","","","","","75","K","1","","true","0","80_20_practice"
"","bandit","23","234292","0.0-20.0-2.0","65124110","wem/bandit_either_2","ANYB94DHDJKNO","either","8","536","","","","","","","0","0","1","0.2","","0.5","0.5","","","","","","","0.8","0.2","","","","","","","","","","75","K","1","","true","0","80_20_practice"
"","bandit","24","236501","0.0-20.0-3.0","65124110","wem/bandit_either_2","ANYB94DHDJKNO","either","8","627","","","","","","","0","1","0","","0.8","0.5","0.5","","","0.8","0.2","","","","","","","","","","","","","","74","J","0","img/none_selected_demo.jpg","true","0","80_20_practice"
"","bandit","25","239156","0.0-20.0-4.0","65124110","wem/bandit_either_2","ANYB94DHDJKNO","either","8","742","","","","","","","1","0","0","0.8","","0.5","0.5","","","","","","","0.8","0.2","","","","","","","","","","74","J","0","img/none_selected_demo.jpg","true","0","80_20_practice"
"","bandit","26","241318","0.0-20.0-5.0","65124110","wem/bandit_either_2","ANYB94DHDJKNO","either","8","398","","","","","","","0","1","0","","0.8","0.5","0.5","","","0.8","0.2","","","","","","","","","","","","","","74","J","0","img/none_selected_demo.jpg","true","0","80_20_practice"
"","bandit","27","243825","0.0-20.0-6.0","65124110","wem/bandit_either_2","ANYB94DHDJKNO","either","8","616","","","","","","","0","0","1","","0.2","0.5","0.5","","","0.8","0.2","","","","","","","","","","","","","","75","K","1","","true","0","80_20_practice"
"","bandit","28","245802","0.0-20.0-7.0","65124110","wem/bandit_either_2","ANYB94DHDJKNO","either","8","464","","","","","","","1","0","0","0.8","","0.5","0.5","","","","","","","0.8","0.2","","","","","","","","","","74","J","0","img/none_selected_demo.jpg","true","0","80_20_practice"
"","bandit","29","248126","0.0-20.0-8.0","65124110","wem/bandit_either_2","ANYB94DHDJKNO","either","8","672","","","","","","","0","0","1","","0.8","0.5","0.5","","","0.8","0.2","","","","","","","","","","","","","","74","J","0","img/none_selected_demo.jpg","true","0","80_20_practice"
"","bandit","30","250391","0.0-20.0-9.0","65124110","wem/bandit_either_2","ANYB94DHDJKNO","either","8","621","","","","","","","0","0","1","","0.2","0.5","0.5","","","0.8","0.2","","","","","","","","","","","","","","75","K","1","","true","0","80_20_practice"
"","bandit","31","252298","0.0-20.0-10.0","65124110","wem/bandit_either_2","ANYB94DHDJKNO","either","8","403","","","","","","","0","1","0","","0.8","0.5","0.5","","","0.8","0.2","","","","","","","","","","","","","","74","J","0","img/none_selected_demo.jpg","true","0","80_20_practice"
"","bandit","32","254548","0.0-20.0-11.0","65124110","wem/bandit_either_2","ANYB94DHDJKNO","either","8","580","","","","","","","0","1","0","","0.8","0.5","0.5","","","0.8","0.2","","","","","","","","","","","","","","74","J","0","img/none_selected_demo.jpg","true","0","80_20_practice"
"","bandit","33","256713","0.0-20.0-12.0","65124110","wem/bandit_either_2","ANYB94DHDJKNO","either","8","502","","","","","","","0","0","1","0.8","","0.5","0.5","","","","","","","0.8","0.2","","","","","","","","","","74","J","0","img/none_selected_demo.jpg","true","0","80_20_practice"
"","bandit","34","258713","0.0-20.0-13.0","65124110","wem/bandit_either_2","ANYB94DHDJKNO","either","8","400","","","","","","","0","1","0","","0.8","0.5","0.5","","","0.8","0.2","","","","","","","","","","","","","","74","J","0","img/none_selected_demo.jpg","true","0","80_20_practice"
"","bandit","35","260621","0.0-20.0-14.0","65124110","wem/bandit_either_2","ANYB94DHDJKNO","either","8","394","","","","","","","1","0","0","0.8","","0.5","0.5","","","","","","","0.8","0.2","","","","","","","","","","74","J","0","img/none_selected_demo.jpg","true","0","80_20_practice"
"","bandit","36","263337","0.0-20.0-15.0","65124110","wem/bandit_either_2","ANYB94DHDJKNO","either","8","881","","","","","","","0","0","1","","0.8","0.5","0.5","","","0.8","0.2","","","","","","","","","","","","","","74","J","0","img/none_selected_demo.jpg","true","0","80_20_practice"
"","bandit","37","265168","0.0-20.0-16.0","65124110","wem/bandit_either_2","ANYB94DHDJKNO","either","8","304","","","","","","","0","1","0","","0.8","0.5","0.5","","","0.8","0.2","","","","","","","","","","","","","","74","J","0","img/none_selected_demo.jpg","true","0","80_20_practice"
"","bandit","38","267360","0.0-20.0-17.0","65124110","wem/bandit_either_2","ANYB94DHDJKNO","either","8","346","","","","","","","0","1","0","","0.8","0.5","0.5","","","0.8","0.2","","","","","","","","","","","","","","74","J","0","img/none_selected_demo.jpg","true","0","80_20_practice"
"","bandit","39","269308","0.0-20.0-18.0","65124110","wem/bandit_either_2","ANYB94DHDJKNO","either","8","444","","","","","","","0","1","0","","0.8","0.5","0.5","","","0.8","0.2","","","","","","","","","","","","","","74","J","0","img/none_selected_demo.jpg","true","0","80_20_practice"
"","bandit","40","271401","0.0-20.0-19.0","65124110","wem/bandit_either_2","ANYB94DHDJKNO","either","8","358","","","","","","","1","0","0","0.8","","0.5","0.5","","","","","","","0.8","0.2","","","","","","","","","","74","J","0","img/none_selected_demo.jpg","true","0","80_20_practice"
"","text","41","275338","0.0-21.0","65124110","wem/bandit_either_2","ANYB94DHDJKNO","either","8","3935","","32","","","","","","","","","","","","","","","","","","","","","","","","","","","","","","","","","","",""
"","bandit","42","278003","0.0-22.0-0.0","65124110","wem/bandit_either_2","ANYB94DHDJKNO","either","8","1159","","","","","","","1","0","0","1","0","","","","","0","1","","","1","0","","","","","","","","","","74","J","0","img/none_selected_demo.jpg","true","0",""
"","text","43","286009","0.0-23.0","65124110","wem/bandit_either_2","ANYB94DHDJKNO","either","8","8004","","32","","","","","","","","","","","","","","","","","","","","","","","","","","","","","","","","","","",""
"","text","44","289628","0.0-24.0","65124110","wem/bandit_either_2","ANYB94DHDJKNO","either","8","3618","","32","","","","","","","","","","","","","","","","","","","","","","","","","","","","","","","","","","",""
"","text","45","292180","0.0-25.0","65124110","wem/bandit_either_2","ANYB94DHDJKNO","either","8","2550","","32","","","","","","","","","","","","","","","","","","","","","","","","","","","","","","","","","","",""
"","text","46","294764","0.0-26.0","65124110","wem/bandit_either_2","ANYB94DHDJKNO","either","8","2582","","32","","","","","","","","","","","","","","","","","","","","","","","","","","","","","","","","","","",""
"","text","47","302150","0.0-27.0","65124110","wem/bandit_either_2","ANYB94DHDJKNO","either","8","7384","","32","","","","","","","","","","","","","","","","","","","","","","","","","","","","","","","","","","",""
"","text","48","305007","0.0-28.0","65124110","wem/bandit_either_2","ANYB94DHDJKNO","either","8","2855","","32","","","","","","","","","","","","","","","","","","","","","","","","","","","","","","","","","","",""
"","text","49","308815","0.0-29.0","65124110","wem/bandit_either_2","ANYB94DHDJKNO","either","8","3806","","32","","","","","","","","","","","","","","","","","","","","","","","","","","","","","","","","","","",""
"","text","50","311500","0.0-30.0","65124110","wem/bandit_either_2","ANYB94DHDJKNO","either","8","2683","","32","","","","","","","","","","","","","","","","","","","","","","","","","","","","","","","","","","",""
"","text","51","315677","0.0-31.0","65124110","wem/bandit_either_2","ANYB94DHDJKNO","either","8","4175","","32","","","","","","","","","","","","","","","","","","","","","","","","","","","","","","","","","","",""
"","text","52","317172","0.0-32.0","65124110","wem/bandit_either_2","ANYB94DHDJKNO","either","8","1493","","32","","","","","","","","","","","","","","","","","","","","","","","","","","","","","","","","","","",""
"","text","53","320596","0.0-33.0","65124110","wem/bandit_either_2","ANYB94DHDJKNO","either","8","3422","","32","","","","","","","","","","","","","","","","","","","","","","","","","","","","","","","","","","",""
"","bandit","54","322755","0.0-34.0-0.0","65124110","wem/bandit_either_2","ANYB94DHDJKNO","either","8","589","","","","","","","1","0","0","0.8","","0.5","0.5","0.5","0.5","","","","","0.8","0.2","0.6","0.2","","","","","","","","72","H","0","img/none_selected.jpg","true","0","full_practice"
"","bandit","55","325417","0.0-34.0-1.0","65124110","wem/bandit_either_2","ANYB94DHDJKNO","either","8","1150","","","","","","","1","0","0","0.8","","0.5","0.5","0.5","0.5","","","","","0.8","0.2","0.6","0.2","","","","","","","","72","H","0","img/none_selected.jpg","true","0","full_practice"
"","bandit","56","327566","0.0-34.0-2.0","65124110","wem/bandit_either_2","ANYB94DHDJKNO","either","8","642","","","","","","","0","0","1","0.8","","0.5","0.5","0.5","0.5","","","","","0.8","0.2","0.6","0.2","","","","","","","","72","H","0","img/none_selected.jpg","true","0","full_practice"
"","bandit","57","329673","0.0-34.0-3.0","65124110","wem/bandit_either_2","ANYB94DHDJKNO","either","8","329","","","","","","","1","0","0","0.8","","0.5","0.5","0.5","0.5","","","","","0.8","0.2","0.6","0.2","","","","","","","","72","H","0","img/none_selected.jpg","true","0","full_practice"
"","bandit","58","331708","0.0-34.0-4.0","65124110","wem/bandit_either_2","ANYB94DHDJKNO","either","8","520","","","","","","","1","0","0","0.8","","0.5","0.5","0.5","0.5","","","","","0.8","0.2","0.6","0.2","","","","","","","","72","H","0","img/none_selected.jpg","true","0","full_practice"
"","bandit","59","335190","0.0-34.0-5.0","65124110","wem/bandit_either_2","ANYB94DHDJKNO","either","8","581","","","","","","","0","0","1","","0.8","0.5","0.5","0.5","0.5","0.8","0.2","0.6","0.2","","","","","","","","","","","","72","H","0","img/none_selected.jpg","true","0","full_practice"
"","bandit","60","337206","0.0-34.0-6.0","65124110","wem/bandit_either_2","ANYB94DHDJKNO","either","8","154","","","","","","","1","0","0","0.8","","0.5","0.5","0.5","0.5","","","","","0.8","0.2","0.6","0.2","","","","","","","","72","H","0","img/none_selected.jpg","true","0","full_practice"
"","bandit","61","339325","0.0-34.0-7.0","65124110","wem/bandit_either_2","ANYB94DHDJKNO","either","8","613","","","","","","","0","1","0","","0.8","0.5","0.5","0.5","0.5","0.8","0.2","0.6","0.2","","","","","","","","","","","","72","H","0","img/none_selected.jpg","true","0","full_practice"
"","bandit","62","342055","0.0-34.0-8.0","65124110","wem/bandit_either_2","ANYB94DHDJKNO","either","8","969","","","","","","","0","1","0","","0.8","0.5","0.5","0.5","0.5","0.8","0.2","0.6","0.2","","","","","","","","","","","","72","H","0","img/none_selected.jpg","true","0","full_practice"
"","bandit","63","344165","0.0-34.0-9.0","65124110","wem/bandit_either_2","ANYB94DHDJKNO","either","8","603","","","","","","","0","1","0","","0.8","0.5","0.5","0.5","0.5","0.8","0.2","0.6","0.2","","","","","","","","","","","","72","H","0","img/none_selected.jpg","true","0","full_practice"
"","bandit","64","346233","0.0-34.0-10.0","65124110","wem/bandit_either_2","ANYB94DHDJKNO","either","8","541","","","","","","","1","0","0","0.8","","0.5","0.5","0.5","0.5","","","","","0.8","0.2","0.6","0.2","","","","","","","","72","H","0","img/none_selected.jpg","true","0","full_practice"
"","bandit","65","348496","0.0-34.0-11.0","65124110","wem/bandit_either_2","ANYB94DHDJKNO","either","8","409","","","","","","","0","1","0","","0.8","0.5","0.5","0.5","0.5","0.8","0.2","0.6","0.2","","","","","","","","","","","","72","H","0","img/none_selected.jpg","true","0","full_practice"
"","bandit","66","350737","0.0-34.0-12.0","65124110","wem/bandit_either_2","ANYB94DHDJKNO","either","8","722","","","","","","","0","1","0","","0.8","0.5","0.5","0.5","0.5","0.8","0.2","0.6","0.2","","","","","","","","","","","","72","H","0","img/none_selected.jpg","true","0","full_practice"
"","bandit","67","354104","0.0-34.0-13.0","65124110","wem/bandit_either_2","ANYB94DHDJKNO","either","8","1144","","","","","","","1","0","0","0.8","","0.5","0.5","0.5","0.5","","","","","0.8","0.2","0.6","0.2","","","","","","","","72","H","0","img/none_selected.jpg","true","0","full_practice"
"","bandit","68","356886","0.0-34.0-14.0","65124110","wem/bandit_either_2","ANYB94DHDJKNO","either","8","1264","","","","","","","0","1","0","","0.8","0.5","0.5","0.5","0.5","0.8","0.2","0.6","0.2","","","","","","","","","","","","72","H","0","img/none_selected.jpg","true","0","full_practice"
"","bandit","69","359388","0.0-34.0-15.0","65124110","wem/bandit_either_2","ANYB94DHDJKNO","either","8","847","","","","","","","0","1","0","","0.8","0.5","0.5","0.5","0.5","0.8","0.2","0.6","0.2","","","","","","","","","","","","72","H","0","img/none_selected.jpg","true","0","full_practice"
"","bandit","70","361543","0.0-34.0-16.0","65124110","wem/bandit_either_2","ANYB94DHDJKNO","either","8","646","","","","","","","1","0","0","0.8","","0.5","0.5","0.5","0.5","","","","","0.8","0.2","0.6","0.2","","","","","","","","72","H","0","img/none_selected.jpg","true","0","full_practice"
"","bandit","71","363749","0.0-34.0-17.0","65124110","wem/bandit_either_2","ANYB94DHDJKNO","either","8","700","","","","","","","1","0","0","0.8","","0.5","0.5","0.5","0.5","","","","","0.8","0.2","0.6","0.2","","","","","","","","72","H","0","img/none_selected.jpg","true","0","full_practice"
"","bandit","72","366216","0.0-34.0-18.0","65124110","wem/bandit_either_2","ANYB94DHDJKNO","either","8","478","","","","","","","1","0","0","0.8","","0.5","0.5","0.5","0.5","","","","","0.8","0.2","0.6","0.2","","","","","","","","72","H","0","img/none_selected.jpg","true","0","full_practice"
"","bandit","73","368417","0.0-34.0-19.0","65124110","wem/bandit_either_2","ANYB94DHDJKNO","either","8","682","","","","","","","0","1","0","","0.8","0.5","0.5","0.5","0.5","0.8","0.2","0.6","0.2","","","","","","","","","","","","72","H","0","img/none_selected.jpg","true","0","full_practice"
"","text","74","373877","0.0-35.0","65124110","wem/bandit_either_2","ANYB94DHDJKNO","either","8","5456","","32","","","","","","","","","","","","","","","","","","","","","","","","","","","","","","","","","","",""
"","text","75","389623","0.0-36.0","65124110","wem/bandit_either_2","ANYB94DHDJKNO","either","8","14415","","32","","","","","","","","","","","","","","","","","","","","","","","","","","","","","","","","","","",""
"","text","76","409790","0.0-37.0","65124110","wem/bandit_either_2","ANYB94DHDJKNO","either","8","20164","","32","","","","","","","","","","","","","","","","","","","","","","","","","","","","","","","","","","",""
"","text","77","416449","0.0-38.0","65124110","wem/bandit_either_2","ANYB94DHDJKNO","either","8","6656","","32","","","","","","","","","","","","","","","","","","","","","","","","","","","","","","","","","","",""
"","text","78","422453","0.0-39.0","65124110","wem/bandit_either_2","ANYB94DHDJKNO","either","8","6000","","32","","","","","","","","","","","","","","","","","","","","","","","","","","","","","","","","","","",""
"","text","79","426613","0.0-40.0","65124110","wem/bandit_either_2","ANYB94DHDJKNO","either","8","4158","","32","","","","","","","","","","","","","","","","","","","","","","","","","","","","","","","","","","",""
"","bandit","80","429685","0.0-41.0-0.0","65124110","wem/bandit_either_2","ANYB94DHDJKNO","either","8","1435","","","","","","","0","1","0","","0.2928194041","0.6","0.4","0.8","0.2","0.1351790469","0.3540548627","0.2637293772","0.2928194041","","","","","","","","","","","","76","L","3","","","1","main_expt"
"","bandit","81","432075","0.0-42.0-0.0","65124110","wem/bandit_either_2","ANYB94DHDJKNO","either","8","885","","","","","","","0","1","0","","0.3040419902","0.6","0.4","0.8","0.2","0.125602744","0.3812516843","0.2760013096","0.3040419902","","","","","","","","","","","","76","L","3","","","2","main_expt"
"","bandit","82","434404","0.0-43.0-0.0","65124110","wem/bandit_either_2","ANYB94DHDJKNO","either","8","631","","","","","","","0","1","0","","0.2875251023","0.6","0.4","0.8","0.2","0.09574082279","0.3901316494","0.3240499928","0.2875251023","","","","","","","","","","","","76","L","3","","","3","main_expt"
"","bandit","83","436669","0.0-44.0-0.0","65124110","wem/bandit_either_2","ANYB94DHDJKNO","either","8","494","","","","","","","0","0","1","","0.2965567903","0.6","0.4","0.8","0.2","0.0913382225","0.3945399471","0.3510822359","0.2965567903","","","","","","","","","","","","76","L","3","","","4","main_expt"
"","bandit","84","438634","0.0-45.0-0.0","65124110","wem/bandit_either_2","ANYB94DHDJKNO","either","8","453","","","","","","","0","1","0","","0.2681113314","0.6","0.4","0.8","0.2","0.106177601","0.3997977613","0.3522827721","0.2681113314","","","","","","","","","","","","76","L","3","","","5","main_expt"
"","bandit","85","440777","0.0-46.0-0.0","65124110","wem/bandit_either_2","ANYB94DHDJKNO","either","8","424","","","","","","","0","0","1","","0.2330443498","0.6","0.4","0.8","0.2","0.08998955495","0.390783501","0.382674005","0.2330443498","","","","","","","","","","","","76","L","3","","","6","main_expt"
"","bandit","86","443247","0.0-47.0-0.0","65124110","wem/bandit_either_2","ANYB94DHDJKNO","either","8","963","","","","","","","0","0","1","","0.1630509172","0.6","0.4","0.8","0.2","0.1077526668","0.3305693427","0.3998463606","0.1630509172","","","","","","","","","","","","76","L","3","","","7","main_expt"
"","bandit","87","445744","0.0-48.0-0.0","65124110","wem/bandit_either_2","ANYB94DHDJKNO","either","8","403","","","","","","","0","1","0","","0.2002468685","0.6","0.4","0.8","0.2","0.1243697388","0.3056545716","0.3832029687","0.2002468685","","","","","","","","","","","","76","L","3","","","8","main_expt"
"","bandit","88","448122","0.0-49.0-0.0","65124110","wem/bandit_either_2","ANYB94DHDJKNO","either","8","426","","","","","","","0","0","1","","0.1835034381","0.6","0.4","0.8","0.2","0.1698108096","0.3278889804","0.3796681134","0.1835034381","","","","","","","","","","","","76","L","3","","","9","main_expt"
"","bandit","89","450086","0.0-50.0-0.0","65124110","wem/bandit_either_2","ANYB94DHDJKNO","either","8","447","","","","","","","0","0","1","","0.1939723001","0.6","0.4","0.8","0.2","0.221757114","0.3137855556","0.3614311416","0.1939723001","","","","","","","","","","","","76","L","3","","","10","main_expt"
"","bandit","90","452429","0.0-51.0-0.0","65124110","wem/bandit_either_2","ANYB94DHDJKNO","either","8","444","","","","","","","0","0","1","","0.1949806013","0.6","0.4","0.8","0.2","0.1961062924","0.3253079181","0.3938737051","0.1949806013","","","","","","","","","","","","76","L","3","","","11","main_expt"
"","bandit","91","456313","0.0-52.0-0.0","65124110","wem/bandit_either_2","ANYB94DHDJKNO","either","8","2375","","","","","","","1","0","0","0.1907056259","","0.6","0.4","0.8","0.2","","","","","0.1907056259","0.3298150516","0.3810544723","0.2587943474","","","","","","","","72","H","0","img/none_selected.jpg","","12","main_expt"
"","bandit","92","458277","0.0-53.0-0.0","65124110","wem/bandit_either_2","ANYB94DHDJKNO","either","8","350","","","","","","","1","0","0","0.2162865666","","0.6","0.4","0.8","0.2","","","","","0.2162865666","0.3673307406","0.3707046684","0.3085985727","","","","","","","","72","H","0","img/none_selected.jpg","","13","main_expt"
"","bandit","93","460472","0.0-54.0-0.0","65124110","wem/bandit_either_2","ANYB94DHDJKNO","either","8","367","","","","","","","0","0","1","","0.2399362825","0.6","0.4","0.8","0.2","0.2399362825","0.3679224674","0.3486531997","0.2464992766","","","","","","","","","","","","72","H","0","img/none_selected.jpg","","14","main_expt"
"","bandit","94","462325","0.0-55.0-0.0","65124110","wem/bandit_either_2","ANYB94DHDJKNO","either","8","348","","","","","","","0","0","1","0.1986859052","","0.6","0.4","0.8","0.2","","","","","0.1986859052","0.3062507314","0.3263578384","0.2474611475","","","","","","","","72","H","0","img/none_selected.jpg","","15","main_expt"
"","bandit","95","465234","0.0-56.0-0.0","65124110","wem/bandit_either_2","ANYB94DHDJKNO","either","8","1047","","","","","","","0","0","1","0.1865641621","","0.6","0.4","0.8","0.2","","","","","0.1865641621","0.2892976033","0.3514189979","0.2835538477","","","","","","","","72","H","0","img/none_selected.jpg","","16","main_expt"
"","bandit","96","466812","0.0-57.0-0.0","65124110","wem/bandit_either_2","ANYB94DHDJKNO","either","8","59","","","","","","","0","0","1","","0.3256112075","0.6","0.4","0.8","0.2","0.2035525071","0.2861796528","0.3532592314","0.3256112075","","","","","","","","","","","","76","L","3","","","17","main_expt"
"","bandit","97","468603","0.0-58.0-0.0","65124110","wem/bandit_either_2","ANYB94DHDJKNO","either","8","280","","","","","","","0","0","1","","0.3802227677","0.6","0.4","0.8","0.2","0.2039336531","0.2958570682","0.3858608091","0.3802227677","","","","","","","","","","","","76","L","3","","","18","main_expt"
"","bandit","98","471913","0.0-59.0-0.0","65124110","wem/bandit_either_2","ANYB94DHDJKNO","either","8","1473","","","","","","","0","0","1","0.3837638756","","0.6","0.4","0.8","0.2","","","","","0.1598579642","0.3353028819","0.3837638756","0.360566968","","","","","","","","75","K","2","","","19","main_expt"
"","bandit","99","474483","0.0-60.0-0.0","65124110","wem/bandit_either_2","ANYB94DHDJKNO","either","8","1059","","","","","","","0","0","1","0.3139704528","","0.6","0.4","0.8","0.2","","","","","0.1437622327","0.3139704528","0.2872100501","0.3696799013","","","","","","","","74","J","1","","","20","main_expt"
"","bandit","100","476744","0.0-61.0-0.0","65124110","wem/bandit_either_2","ANYB94DHDJKNO","either","8","541","","","","","","","0","0","1","0.07974703335","","0.6","0.4","0.8","0.2","","","","","0.07974703335","0.2524707143","0.2975414498","0.4006907501","","","","","","","","72","H","0","img/none_selected.jpg","","21","main_expt"
"","bandit","101","478678","0.0-62.0-0.0","65124110","wem/bandit_either_2","ANYB94DHDJKNO","either","8","426","","","","","","","0","0","1","0.1361132429","","0.6","0.4","0.8","0.2","","","","","0.1361132429","0.248326021","0.2741965999","0.4081217326","","","","","","","","72","H","0","img/none_selected.jpg","","22","main_expt"
"","bandit","102","480849","0.0-63.0-0.0","65124110","wem/bandit_either_2","ANYB94DHDJKNO","either","8","398","","","","","","","0","0","1","0.1705973249","","0.6","0.4","0.8","0.2","","","","","0.1705973249","0.2937153481","0.2379064449","0.3740207531","","","","","","","","72","H","0","img/none_selected.jpg","","23","main_expt"
"","bandit","103","482741","0.0-64.0-0.0","65124110","wem/bandit_either_2","ANYB94DHDJKNO","either","8","386","","","","","","","0","0","1","0.1392759225","","0.6","0.4","0.8","0.2","","","","","0.1392759225","0.2625315469","0.2078598572","0.3913756451","","","","","","","","72","H","0","img/none_selected.jpg","","24","main_expt"
"","bandit","104","484637","0.0-65.0-0.0","65124110","wem/bandit_either_2","ANYB94DHDJKNO","either","8","383","","","","","","","0","0","1","0.2405651368","","0.6","0.4","0.8","0.2","","","","","0.1800538527","0.2405651368","0.2764850733","0.4100905738","","","","","","","","74","J","1","","","25","main_expt"
"","bandit","105","486586","0.0-66.0-0.0","65124110","wem/bandit_either_2","ANYB94DHDJKNO","either","8","370","","","","","","","0","0","1","0.3080191348","","0.6","0.4","0.8","0.2","","","","","0.2146400533","0.2503350336","0.3080191348","0.3600668969","","","","","","","","75","K","2","","","26","main_expt"
"","bandit","106","488427","0.0-67.0-0.0","65124110","wem/bandit_either_2","ANYB94DHDJKNO","either","8","322","","","","","","","1","0","0","0.3703096079","","0.6","0.4","0.8","0.2","","","","","0.1948367851","0.354091838","0.3606197488","0.3703096079","","","","","","","","76","L","3","","","27","main_expt"
"","bandit","107","490381","0.0-68.0-0.0","65124110","wem/bandit_either_2","ANYB94DHDJKNO","either","8","440","","","","","","","1","0","0","0.3527269899","","0.6","0.4","0.8","0.2","","","","","0.2282666016","0.3419366675","0.3696097963","0.3527269899","","","","","","","","76","L","3","","","28","main_expt"
"","bandit","108","492416","0.0-69.0-0.0","65124110","wem/bandit_either_2","ANYB94DHDJKNO","either","8","526","","","","","","","0","0","1","0.2854860911","","0.6","0.4","0.8","0.2","","","","","0.1842618798","0.361896517","0.3434444954","0.2854860911","","","","","","","","76","L","3","","","29","main_expt"
"","bandit","109","494318","0.0-70.0-0.0","65124110","wem/bandit_either_2","ANYB94DHDJKNO","either","8","396","","","","","","","0","1","0","","0.2971434158","0.6","0.4","0.8","0.2","0.1930267653","0.3701160785","0.3528183973","0.2971434158","","","","","","","","","","","","76","L","3","","","30","main_expt"
"","bandit","110","496536","0.0-71.0-0.0","65124110","wem/bandit_either_2","ANYB94DHDJKNO","either","8","692","","","","","","","0","1","0","","0.3192935598","0.6","0.4","0.8","0.2","0.2279264959","0.3602312343","0.3436926249","0.3192935598","","","","","","","","","","","","76","L","3","","","31","main_expt"
"","bandit","111","498582","0.0-72.0-0.0","65124110","wem/bandit_either_2","ANYB94DHDJKNO","either","8","474","","","","","","","0","0","1","","0.2910845839","0.6","0.4","0.8","0.2","0.1922668126","0.3550043818","0.3392376576","0.2910845839","","","","","","","","","","","","76","L","3","","","32","main_expt"
"","bandit","112","501010","0.0-73.0-0.0","65124110","wem/bandit_either_2","ANYB94DHDJKNO","either","8","716","","","","","","","0","0","1","","0.1503247695","0.6","0.4","0.8","0.2","0.1503247695","0.3927862597","0.2524106513","0.2956883229","","","","","","","","","","","","72","H","0","img/none_selected.jpg","","33","main_expt"
"","bandit","113","502909","0.0-74.0-0.0","65124110","wem/bandit_either_2","ANYB94DHDJKNO","either","8","393","","","","","","","1","0","0","0.1875072744","","0.6","0.4","0.8","0.2","","","","","0.1875072744","0.4185963197","0.2378308988","0.2918182698","","","","","","","","72","H","0","img/none_selected.jpg","","34","main_expt"
"","bandit","114","504926","0.0-75.0-0.0","65124110","wem/bandit_either_2","ANYB94DHDJKNO","either","8","444","","","","","","","0","0","1","0.2135507624","","0.6","0.4","0.8","0.2","","","","","0.2135507624","0.441983755","0.2683654211","0.3063909307","","","","","","","","72","H","0","img/none_selected.jpg","","35","main_expt"
"","bandit","115","507194","0.0-76.0-0.0","65124110","wem/bandit_either_2","ANYB94DHDJKNO","either","8","717","","","","","","","0","0","1","","0.2042402853","0.6","0.4","0.8","0.2","0.2042402853","0.4352827683","0.2645223933","0.2820805085","","","","","","","","","","","","72","H","0","img/none_selected.jpg","","36","main_expt"
"","bandit","116","509078","0.0-77.0-0.0","65124110","wem/bandit_either_2","ANYB94DHDJKNO","either","8","357","","","","","","","1","0","0","0.2610370824","","0.6","0.4","0.8","0.2","","","","","0.2024605481","0.450520142","0.2360561858","0.2610370824","","","","","","","","76","L","3","","","37","main_expt"
"","bandit","117","511501","0.0-78.0-0.0","65124110","wem/bandit_either_2","ANYB94DHDJKNO","either","8","616","","","","","","","0","0","1","","0.1896233007","0.6","0.4","0.8","0.2","0.1677713785","0.4681224698","0.2001865083","0.1896233007","","","","","","","","","","","","76","L","3","","","38","main_expt"
"","bandit","118","513561","0.0-79.0-0.0","65124110","wem/bandit_either_2","ANYB94DHDJKNO","either","8","544","","","","","","","0","0","1","0.221779122","","0.6","0.4","0.8","0.2","","","","","0.221779122","0.4711022053","0.1687915361","0.168851025","","","","","","","","72","H","0","img/none_selected.jpg","","39","main_expt"
"","bandit","119","515848","0.0-80.0-0.0","65124110","wem/bandit_either_2","ANYB94DHDJKNO","either","8","778","","","","","","","0","0","1","","0.4559447699","0.6","0.4","0.8","0.2","0.2722397218","0.4559447699","0.1503151413","0.1615787635","","","","","","","","","","","","74","J","1","","","40","main_expt"
"","bandit","120","518387","0.0-81.0-0.0","65124110","wem/bandit_either_2","ANYB94DHDJKNO","either","8","485","","","","","","","0","0","1","0.4412687596","","0.6","0.4","0.8","0.2","","","","","0.3298230943","0.4412687596","0.08168262283","0.1472326003","","","","","","","","74","J","1","","","41","main_expt"
"","bandit","121","520462","0.0-82.0-0.0","65124110","wem/bandit_either_2","ANYB94DHDJKNO","either","8","570","","","","","","","0","1","0","","0.4457751761","0.6","0.4","0.8","0.2","0.3104885444","0.4457751761","0.07668629145","0.1533480506","","","","","","","","","","","","74","J","1","","","42","main_expt"
"","bandit","122","523144","0.0-83.0-0.0","65124110","wem/bandit_either_2","ANYB94DHDJKNO","either","8","1165","","","","","","","0","0","1","","0.4298378352","0.6","0.4","0.8","0.2","0.3005355489","0.4298378352","0.07394587158","0.1414351437","","","","","","","","","","","","74","J","1","","","43","main_expt"
"","bandit","123","525484","0.0-84.0-0.0","65124110","wem/bandit_either_2","ANYB94DHDJKNO","either","8","820","","","","","","","0","0","1","0.4416915379","","0.6","0.4","0.8","0.2","","","","","0.2456242138","0.4416915379","0.1192337685","0.1067646429","","","","","","","","74","J","1","","","44","main_expt"
"","bandit","124","527671","0.0-85.0-0.0","65124110","wem/bandit_either_2","ANYB94DHDJKNO","either","8","673","","","","","","","0","0","1","","0.1250796286","0.6","0.4","0.8","0.2","0.2839901561","0.3915522423","0.1285724119","0.1250796286","","","","","","","","","","","","76","L","3","","","45","main_expt"
"","bandit","125","529842","0.0-86.0-0.0","65124110","wem/bandit_either_2","ANYB94DHDJKNO","either","8","539","","","","","","","0","0","1","0.1927264636","","0.6","0.4","0.8","0.2","","","","","0.2353621531","0.4318427431","0.1112684106","0.1927264636","","","","","","","","76","L","3","","","46","main_expt"
"","bandit","126","532070","0.0-87.0-0.0","65124110","wem/bandit_either_2","ANYB94DHDJKNO","either","8","698","","","","","","","0","0","1","","0.1804488412","0.6","0.4","0.8","0.2","0.2405257196","0.4395998441","0.1207340475","0.1804488412","","","","","","","","","","","","76","L","3","","","47","main_expt"
"","bandit","127","535157","0.0-88.0-0.0","65124110","wem/bandit_either_2","ANYB94DHDJKNO","either","8","1574","","","","","","","0","0","1","","0.168268176","0.6","0.4","0.8","0.2","0.2629408555","0.4630443269","0.1182533935","0.168268176","","","","","","","","","","","","76","L","3","","","48","main_expt"
"","bandit","128","537346","0.0-89.0-0.0","65124110","wem/bandit_either_2","ANYB94DHDJKNO","either","8","667","","","","","","","0","0","1","0.1460801474","","0.6","0.4","0.8","0.2","","","","","0.2902453213","0.4794982466","0.1460801474","0.1466838001","","","","","","","","75","K","2","","","49","main_expt"
"","bandit","129","539570","0.0-90.0-0.0","65124110","wem/bandit_either_2","ANYB94DHDJKNO","either","8","706","","","","","","","0","0","1","0.1765155983","","0.6","0.4","0.8","0.2","","","","","0.3033715012","0.4562783041","0.1765155983","0.1336340117","","","","","","","","75","K","2","","","50","main_expt"
"","bandit","130","542116","0.0-91.0-0.0","65124110","wem/bandit_either_2","ANYB94DHDJKNO","either","8","898","","","","","","","0","1","0","","0.1614266163","0.6","0.4","0.8","0.2","0.3536831403","0.4515646323","0.1614266163","0.1067821754","","","","","","","","","","","","75","K","2","","","51","main_expt"
"","bandit","131","544238","0.0-92.0-0.0","65124110","wem/bandit_either_2","ANYB94DHDJKNO","either","8","616","","","","","","","0","0","1","0.1938643747","","0.6","0.4","0.8","0.2","","","","","0.3058792917","0.4344137529","0.1938643747","0.07294577227","","","","","","","","75","K","2","","","52","main_expt"
"","bandit","132","547313","0.0-93.0-0.0","65124110","wem/bandit_either_2","ANYB94DHDJKNO","either","8","1206","","","","","","","0","0","1","0.1721886996","","0.6","0.4","0.8","0.2","","","","","0.3466820038","0.4421766306","0.1721886996","0.07676454597","","","","","","","","75","K","2","","","53","main_expt"
"","bandit","133","549295","0.0-94.0-0.0","65124110","wem/bandit_either_2","ANYB94DHDJKNO","either","8","473","","","","","","","0","0","1","0.1542880765","","0.6","0.4","0.8","0.2","","","","","0.3159173384","0.4591875032","0.1542880765","0.07707135067","","","","","","","","75","K","2","","","54","main_expt"
"","bandit","134","552668","0.0-95.0-0.0","65124110","wem/bandit_either_2","ANYB94DHDJKNO","either","8","1790","","","","","","","0","0","1","0.2155598061","","0.6","0.4","0.8","0.2","","","","","0.3205246683","0.4455250987","0.2155598061","0.08227932488","","","","","","","","75","K","2","","","55","main_expt"
"","bandit","135","554705","0.0-96.0-0.0","65124110","wem/bandit_either_2","ANYB94DHDJKNO","either","8","529","","","","","","","0","0","1","","0.09013031375","0.6","0.4","0.8","0.2","0.3067659888","0.4200701886","0.199350645","0.09013031375","","","","","","","","","","","","76","L","3","","","56","main_expt"
"","bandit","136","556961","0.0-97.0-0.0","65124110","wem/bandit_either_2","ANYB94DHDJKNO","either","8","747","","","","","","","0","0","1","0.106866739","","0.6","0.4","0.8","0.2","","","","","0.3786279545","0.3635567377","0.1991981904","0.106866739","","","","","","","","76","L","3","","","57","main_expt"
"","bandit","137","559620","0.0-98.0-0.0","65124110","wem/bandit_either_2","ANYB94DHDJKNO","either","8","882","","","","","","","0","0","1","","0.0915584437","0.6","0.4","0.8","0.2","0.3796022377","0.3647217687","0.1307276253","0.0915584437","","","","","","","","","","","","76","L","3","","","58","main_expt"
"","bandit","138","562029","0.0-99.0-0.0","65124110","wem/bandit_either_2","ANYB94DHDJKNO","either","8","591","","","","","","","0","0","1","","0.1036540812","0.6","0.4","0.8","0.2","0.3570845549","0.3975499765","0.1540949786","0.1036540812","","","","","","","","","","","","76","L","3","","","59","main_expt"
"","bandit","139","565855","0.0-100.0-0.0","65124110","wem/bandit_either_2","ANYB94DHDJKNO","either","8","2293","","","","","","","0","0","1","","0.398525789","0.6","0.4","0.8","0.2","0.398525789","0.376383165","0.1187181044","0.07948280662","","","","","","","","","","","","72","H","0","img/none_selected.jpg","","60","main_expt"
"","bandit","140","567915","0.0-101.0-0.0","65124110","wem/bandit_either_2","ANYB94DHDJKNO","either","8","549","","","","","","","0","0","1","0.380986593","","0.6","0.4","0.8","0.2","","","","","0.380986593","0.3384437455","0.1734870435","0.0685056185","","","","","","","","72","H","0","img/none_selected.jpg","","61","main_expt"
"","bandit","141","570545","0.0-102.0-0.0","65124110","wem/bandit_either_2","ANYB94DHDJKNO","either","8","568","","","","","","","0","0","1","0.3928002855","","0.6","0.4","0.8","0.2","","","","","0.3928002855","0.3086389155","0.2056999461","0.04196312691","","","","","","","","72","H","0","img/none_selected.jpg","","62","main_expt"
"","bandit","142","572567","0.0-103.0-0.0","65124110","wem/bandit_either_2","ANYB94DHDJKNO","either","8","510","","","","","","","0","0","1","","0.3098998428","0.6","0.4","0.8","0.2","0.4097838671","0.3098998428","0.2421495796","0.06524357318","","","","","","","","","","","","74","J","1","","","63","main_expt"
"","bandit","143","575231","0.0-104.0-0.0","65124110","wem/bandit_either_2","ANYB94DHDJKNO","either","8","1153","","","","","","","0","0","1","0.2859800092","","0.6","0.4","0.8","0.2","","","","","0.3942475769","0.2859800092","0.2678986655","0.04599317762","","","","","","","","74","J","1","","","64","main_expt"
"","bandit","144","577699","0.0-105.0-0.0","65124110","wem/bandit_either_2","ANYB94DHDJKNO","either","8","912","","","","","","","0","0","1","0.2780623804","","0.6","0.4","0.8","0.2","","","","","0.3756823908","0.2780623804","0.2780805564","0.04738713632","","","","","","","","74","J","1","","","65","main_expt"
"","bandit","145","579706","0.0-106.0-0.0","65124110","wem/bandit_either_2","ANYB94DHDJKNO","either","8","488","","","","","","","0","0","1","","0.2923516192","0.6","0.4","0.8","0.2","0.3780323226","0.2740889186","0.2923516192","0.02873144913","","","","","","","","","","","","75","K","2","","","66","main_expt"
"","bandit","146","581666","0.0-107.0-0.0","65124110","wem/bandit_either_2","ANYB94DHDJKNO","either","8","433","","","","","","","0","0","1","0.3481747094","","0.6","0.4","0.8","0.2","","","","","0.382091886","0.3122756929","0.3481747094","0.0355516853","","","","","","","","75","K","2","","","67","main_expt"
"","bandit","147","584053","0.0-108.0-0.0","65124110","wem/bandit_either_2","ANYB94DHDJKNO","either","8","794","","","","","","","0","0","1","","0.04483006882","0.6","0.4","0.8","0.2","0.4080562953","0.3004294993","0.3540590834","0.04483006882","","","","","","","","","","","","76","L","3","","","68","main_expt"
"","bandit","148","586702","0.0-109.0-0.0","65124110","wem/bandit_either_2","ANYB94DHDJKNO","either","8","1142","","","","","","","0","0","1","","0.04300650393","0.6","0.4","0.8","0.2","0.419826639","0.3312842332","0.3348318208","0.04300650393","","","","","","","","","","","","76","L","3","","","69","main_expt"
"","bandit","149","588662","0.0-110.0-0.0","65124110","wem/bandit_either_2","ANYB94DHDJKNO","either","8","446","","","","","","","0","0","1","","0.03960880855","0.6","0.4","0.8","0.2","0.3889643965","0.2362018798","0.3844983113","0.03960880855","","","","","","","","","","","","76","L","3","","","70","main_expt"
"","bandit","150","591390","0.0-111.0-0.0","65124110","wem/bandit_either_2","ANYB94DHDJKNO","either","8","1215","","","","","","","0","0","1","","0.02401392238","0.6","0.4","0.8","0.2","0.3492343966","0.1838323472","0.3753843975","0.02401392238","","","","","","","","","","","","76","L","3","","","71","main_expt"
"","bandit","151","593340","0.0-112.0-0.0","65124110","wem/bandit_either_2","ANYB94DHDJKNO","either","8","437","","","","","","","1","0","0","0.3861429343","","0.6","0.4","0.8","0.2","","","","","0.3502155883","0.1749810972","0.3861429343","0.008756159955","","","","","","","","75","K","2","","","72","main_expt"
"","bandit","152","595567","0.0-113.0-0.0","65124110","wem/bandit_either_2","ANYB94DHDJKNO","either","8","409","","","","","","","1","0","0","0.3978436086","","0.6","0.4","0.8","0.2","","","","","0.3568691787","0.1664097112","0.3978436086","0.006257651783","","","","","","","","75","K","2","","","73","main_expt"
"","bandit","153","598738","0.0-114.0-0.0","65124110","wem/bandit_either_2","ANYB94DHDJKNO","either","8","1654","","","","","","","0","1","0","","0.3847979518","0.6","0.4","0.8","0.2","0.3303653739","0.2001176207","0.3847979518","0.004732084297","","","","","","","","","","","","75","K","2","","","74","main_expt"
"","bandit","154","600705","0.0-115.0-0.0","65124110","wem/bandit_either_2","ANYB94DHDJKNO","either","8","450","","","","","","","1","0","0","0.3974319157","","0.6","0.4","0.8","0.2","","","","","0.3353283381","0.1848717924","0.3974319157","0.006967558871","","","","","","","","75","K","2","","","75","main_expt"
"","bandit","155","603198","0.0-116.0-0.0","65124110","wem/bandit_either_2","ANYB94DHDJKNO","either","8","753","","","","","","","1","0","0","0.3987985884","","0.6","0.4","0.8","0.2","","","","","0.3009524994","0.1510178238","0.3987985884","0.004525860487","","","","","","","","75","K","2","","","76","main_expt"
"","bandit","156","605525","0.0-117.0-0.0","65124110","wem/bandit_either_2","ANYB94DHDJKNO","either","8","799","","","","","","","1","0","0","0.4127312768","","0.6","0.4","0.8","0.2","","","","","0.3316028908","0.2089633591","0.4127312768","0.007245535115","","","","","","","","75","K","2","","","77","main_expt"
"","bandit","157","607480","0.0-118.0-0.0","65124110","wem/bandit_either_2","ANYB94DHDJKNO","either","8","440","","","","","","","0","0","1","0.4257675477","","0.6","0.4","0.8","0.2","","","","","0.3571024926","0.2285147345","0.4257675477","0.00483057751","","","","","","","","75","K","2","","","78","main_expt"
"","bandit","158","609352","0.0-119.0-0.0","65124110","wem/bandit_either_2","ANYB94DHDJKNO","either","8","363","","","","","","","1","0","0","0.4331167668","","0.6","0.4","0.8","0.2","","","","","0.3542776451","0.2246975601","0.4331167668","0.005956317848","","","","","","","","75","K","2","","","79","main_expt"
"","bandit","159","611335","0.0-120.0-0.0","65124110","wem/bandit_either_2","ANYB94DHDJKNO","either","8","476","","","","","","","1","0","0","0.4294395537","","0.6","0.4","0.8","0.2","","","","","0.3201174307","0.1878766281","0.4294395537","0.0076590047","","","","","","","","75","K","2","","","80","main_expt"
"","bandit","160","613606","0.0-121.0-0.0","65124110","wem/bandit_either_2","ANYB94DHDJKNO","either","8","517","","","","","","","0","0","1","","0.009115568074","0.6","0.4","0.8","0.2","0.3503003334","0.2436254364","0.4234249918","0.009115568074","","","","","","","","","","","","76","L","3","","","81","main_expt"
"","bandit","161","615854","0.0-122.0-0.0","65124110","wem/bandit_either_2","ANYB94DHDJKNO","either","8","423","","","","","","","1","0","0","0.3956977209","","0.6","0.4","0.8","0.2","","","","","0.3509066846","0.2627531714","0.3956977209","0.01382977225","","","","","","","","75","K","2","","","82","main_expt"
"","bandit","162","617774","0.0-123.0-0.0","65124110","wem/bandit_either_2","ANYB94DHDJKNO","either","8","413","","","","","","","0","0","1","0.2672212524","","0.6","0.4","0.8","0.2","","","","","0.3951868033","0.2672212524","0.4248650233","0.01500629599","","","","","","","","74","J","1","","","83","main_expt"
"","bandit","163","619878","0.0-124.0-0.0","65124110","wem/bandit_either_2","ANYB94DHDJKNO","either","8","437","","","","","","","0","0","1","0.4196907627","","0.6","0.4","0.8","0.2","","","","","0.4131477378","0.2817484998","0.4196907627","0.02310127573","","","","","","","","75","K","2","","","84","main_expt"
"","bandit","164","621785","0.0-125.0-0.0","65124110","wem/bandit_either_2","ANYB94DHDJKNO","either","8","385","","","","","","","0","1","0","","0.435633498","0.6","0.4","0.8","0.2","0.3889697292","0.3074775227","0.435633498","0.02639065846","","","","","","","","","","","","75","K","2","","","85","main_expt"
"","bandit","165","623669","0.0-126.0-0.0","65124110","wem/bandit_either_2","ANYB94DHDJKNO","either","8","378","","","","","","","1","0","0","0.3885636443","","0.6","0.4","0.8","0.2","","","","","0.3885636443","0.2717847629","0.4322222521","0.01746441632","","","","","","","","72","H","0","img/none_selected.jpg","","86","main_expt"
"","bandit","166","625580","0.0-127.0-0.0","65124110","wem/bandit_either_2","ANYB94DHDJKNO","either","8","399","","","","","","","0","0","1","","0.4028282504","0.6","0.4","0.8","0.2","0.4028282504","0.2183858348","0.4476119451","0.01256144444","","","","","","","","","","","","72","H","0","img/none_selected.jpg","","87","main_expt"
"","bandit","167","627691","0.0-128.0-0.0","65124110","wem/bandit_either_2","ANYB94DHDJKNO","either","8","346","","","","","","","0","0","1","0.4073123198","","0.6","0.4","0.8","0.2","","","","","0.4306890759","0.2054961256","0.4073123198","0.01178158386","","","","","","","","75","K","2","","","88","main_expt"
"","bandit","168","629615","0.0-129.0-0.0","65124110","wem/bandit_either_2","ANYB94DHDJKNO","either","8","417","","","","","","","0","0","1","0.3862301724","","0.6","0.4","0.8","0.2","","","","","0.4103738654","0.1452714398","0.3862301724","0.008722555822","","","","","","","","75","K","2","","","89","main_expt"
"","bandit","169","632025","0.0-130.0-0.0","65124110","wem/bandit_either_2","ANYB94DHDJKNO","either","8","377","","","","","","","0","0","1","","0.3980827974","0.6","0.4","0.8","0.2","0.3980827974","0.1077779513","0.3596745144","0.008232471735","","","","","","","","","","","","72","H","0","img/none_selected.jpg","","90","main_expt"
"","bandit","170","634388","0.0-131.0-0.0","65124110","wem/bandit_either_2","ANYB94DHDJKNO","either","8","443","","","","","","","0","0","1","0.4040531024","","0.6","0.4","0.8","0.2","","","","","0.4040531024","0.1308407065","0.3082854458","0.01249180717","","","","","","","","72","H","0","img/none_selected.jpg","","91","main_expt"
"","bandit","171","636211","0.0-132.0-0.0","65124110","wem/bandit_either_2","ANYB94DHDJKNO","either","8","312","","","","","","","0","1","0","","0.312225492","0.6","0.4","0.8","0.2","0.3462944796","0.1652322036","0.312225492","0.01470986316","","","","","","","","","","","","75","K","2","","","92","main_expt"
"","bandit","172","638354","0.0-133.0-0.0","65124110","wem/bandit_either_2","ANYB94DHDJKNO","either","8","637","","","","","","","0","0","1","0.3671658277","","0.6","0.4","0.8","0.2","","","","","0.3411451966","0.1344678182","0.3671658277","0.02655281846","","","","","","","","75","K","2","","","93","main_expt"
"","bandit","173","640385","0.0-134.0-0.0","65124110","wem/bandit_either_2","ANYB94DHDJKNO","either","8","444","","","","","","","0","0","1","","0.1301314301","0.6","0.4","0.8","0.2","0.3384154489","0.1301314301","0.3401731108","0.02575246025","","","","","","","","","","","","74","J","1","","","94","main_expt"
"","bandit","174","642670","0.0-135.0-0.0","65124110","wem/bandit_either_2","ANYB94DHDJKNO","either","8","371","","","","","","","0","0","1","0.3413923724","","0.6","0.4","0.8","0.2","","","","","0.3126988266","0.1746055711","0.3413923724","0.02262355665","","","","","","","","75","K","2","","","95","main_expt"
"","bandit","175","644662","0.0-136.0-0.0","65124110","wem/bandit_either_2","ANYB94DHDJKNO","either","8","456","","","","","","","0","1","0","","0.1994244555","0.6","0.4","0.8","0.2","0.3800019137","0.1994244555","0.3570420485","0.02047181149","","","","","","","","","","","","74","J","1","","","96","main_expt"
"","bandit","176","646671","0.0-137.0-0.0","65124110","wem/bandit_either_2","ANYB94DHDJKNO","either","8","484","","","","","","","0","0","1","","0.1834602947","0.6","0.4","0.8","0.2","0.3328121005","0.1834602947","0.3435474977","0.0207754381","","","","","","","","","","","","74","J","1","","","97","main_expt"
"","bandit","177","648621","0.0-138.0-0.0","65124110","wem/bandit_either_2","ANYB94DHDJKNO","either","8","438","","","","","","","1","0","0","0.3614714926","","0.6","0.4","0.8","0.2","","","","","0.332228596","0.1719221531","0.3614714926","0.02955834597","","","","","","","","75","K","2","","","98","main_expt"
"","bandit","178","651054","0.0-139.0-0.0","65124110","wem/bandit_either_2","ANYB94DHDJKNO","either","8","467","","","","","","","0","0","1","","0.1183399241","0.6","0.4","0.8","0.2","0.2843854285","0.1183399241","0.3176405447","0.0383131093","","","","","","","","","","","","74","J","1","","","99","main_expt"
"","bandit","179","653070","0.0-140.0-0.0","65124110","wem/bandit_either_2","ANYB94DHDJKNO","either","8","415","","","","","","","0","1","0","","0.3586553183","0.6","0.4","0.8","0.2","0.309751149","0.1558635017","0.3586553183","0.03580757471","","","","","","","","","","","","75","K","2","","","100","main_expt"
"","bandit","180","655167","0.0-141.0-0.0","65124110","wem/bandit_either_2","ANYB94DHDJKNO","either","8","375","","","","","","","0","0","1","0.2951503345","","0.6","0.4","0.8","0.2","","","","","0.2993195944","0.1389665978","0.2951503345","0.04899620691","","","","","","","","75","K","2","","","101","main_expt"
"","bandit","181","656760","0.0-142.0-0.0","65124110","wem/bandit_either_2","ANYB94DHDJKNO","either","8","85","","","","","","","0","0","1","","0.08055650644","0.6","0.4","0.8","0.2","0.3551890872","0.1377203561","0.2998391809","0.08055650644","","","","","","","","","","","","76","L","3","","","102","main_expt"
"","bandit","182","658737","0.0-143.0-0.0","65124110","wem/bandit_either_2","ANYB94DHDJKNO","either","8","470","","","","","","","0","0","1","0.1040447627","","0.6","0.4","0.8","0.2","","","","","0.3148404956","0.1285548106","0.2791823827","0.1040447627","","","","","","","","76","L","3","","","103","main_expt"
"","bandit","183","660838","0.0-144.0-0.0","65124110","wem/bandit_either_2","ANYB94DHDJKNO","either","8","283","","","","","","","0","0","1","0.3382769334","","0.6","0.4","0.8","0.2","","","","","0.3286912191","0.1555523735","0.3382769334","0.1143547335","","","","","","","","75","K","2","","","104","main_expt"
"","bandit","184","662695","0.0-145.0-0.0","65124110","wem/bandit_either_2","ANYB94DHDJKNO","either","8","350","","","","","","","1","0","0","0.3339697125","","0.6","0.4","0.8","0.2","","","","","0.298340497","0.1775592141","0.3339697125","0.1487676438","","","","","","","","75","K","2","","","105","main_expt"
"","bandit","185","664699","0.0-146.0-0.0","65124110","wem/bandit_either_2","ANYB94DHDJKNO","either","8","485","","","","","","","0","0","1","","0.3124129253","0.6","0.4","0.8","0.2","0.3504464386","0.2263451353","0.3124129253","0.152088545","","","","","","","","","","","","75","K","2","","","106","main_expt"
"","bandit","186","666521","0.0-147.0-0.0","65124110","wem/bandit_either_2","ANYB94DHDJKNO","either","8","210","","","","","","","0","0","1","0.3400683723","","0.6","0.4","0.8","0.2","","","","","0.3510410077","0.1679769802","0.3400683723","0.2406734145","","","","","","","","75","K","2","","","107","main_expt"
"","bandit","187","668535","0.0-148.0-0.0","65124110","wem/bandit_either_2","ANYB94DHDJKNO","either","8","507","","","","","","","0","0","1","0.3557340834","","0.6","0.4","0.8","0.2","","","","","0.3282766846","0.1999870147","0.3557340834","0.3048040024","","","","","","","","75","K","2","","","108","main_expt"
"","bandit","188","672600","0.0-149.0-0.0","65124110","wem/bandit_either_2","ANYB94DHDJKNO","either","8","2204","","","","","","","0","0","1","0.3846418901","","0.6","0.4","0.8","0.2","","","","","0.3561186451","0.208992856","0.3846418901","0.3418503096","","","","","","","","75","K","2","","","109","main_expt"
"","bandit","189","674496","0.0-150.0-0.0","65124110","wem/bandit_either_2","ANYB94DHDJKNO","either","8","383","","","","","","","0","0","1","0.1716040471","","0.6","0.4","0.8","0.2","","","","","0.3576445865","0.1716040471","0.4057962062","0.3198501315","","","","","","","","74","J","1","","","110","main_expt"
"","bandit","190","676712","0.0-151.0-0.0","65124110","wem/bandit_either_2","ANYB94DHDJKNO","either","8","684","","","","","","","1","0","0","0.3377543854","","0.6","0.4","0.8","0.2","","","","","0.3377543854","0.08984071331","0.3692451483","0.3681534847","","","","","","","","72","H","0","img/none_selected.jpg","","111","main_expt"
"","bandit","191","678920","0.0-152.0-0.0","65124110","wem/bandit_either_2","ANYB94DHDJKNO","either","8","612","","","","","","","1","0","0","0.286234052","","0.6","0.4","0.8","0.2","","","","","0.286234052","0.1243463141","0.3577317973","0.3757830796","","","","","","","","72","H","0","img/none_selected.jpg","","112","main_expt"
"","bandit","192","684418","0.0-153.0-0.0","65124110","wem/bandit_either_2","ANYB94DHDJKNO","either","8","3638","","","","","","","0","0","1","0.1932674395","","0.6","0.4","0.8","0.2","","","","","0.1932674395","0.1433440675","0.3328808086","0.3838999828","","","","","","","","72","H","0","img/none_selected.jpg","","113","main_expt"
"","bandit","193","686647","0.0-154.0-0.0","65124110","wem/bandit_either_2","ANYB94DHDJKNO","either","8","703","","","","","","","1","0","0","0.3416979579","","0.6","0.4","0.8","0.2","","","","","0.2403040534","0.1510662198","0.3416979579","0.4157938717","","","","","","","","75","K","2","","","114","main_expt"
"","bandit","194","688280","0.0-155.0-0.0","65124110","wem/bandit_either_2","ANYB94DHDJKNO","either","8","94","","","","","","","0","0","1","0.3377137281","","0.6","0.4","0.8","0.2","","","","","0.254937398","0.09845245139","0.3377137281","0.4055870595","","","","","","","","75","K","2","","","115","main_expt"
"","bandit","195","691564","0.0-156.0-0.0","65124110","wem/bandit_either_2","ANYB94DHDJKNO","either","8","1768","","","","","","","1","0","0","0.3039448029","","0.6","0.4","0.8","0.2","","","","","0.2605063941","0.107393795","0.3039448029","0.4161015278","","","","","","","","75","K","2","","","116","main_expt"
"","bandit","196","693085","0.0-157.0-0.0","65124110","wem/bandit_either_2","ANYB94DHDJKNO","either","8","15","","","","","","","0","0","1","0.2974336912","","0.6","0.4","0.8","0.2","","","","","0.2161328783","0.07879800556","0.2974336912","0.414877819","","","","","","","","75","K","2","","","117","main_expt"
"","bandit","197","695467","0.0-158.0-0.0","65124110","wem/bandit_either_2","ANYB94DHDJKNO","either","8","583","","","","","","","0","0","1","","0.2651867246","0.6","0.4","0.8","0.2","0.1931197841","0.08383735875","0.2651867246","0.3968259953","","","","","","","","","","","","75","K","2","","","118","main_expt"
"","bandit","198","698732","0.0-159.0-0.0","65124110","wem/bandit_either_2","ANYB94DHDJKNO","either","8","1749","","","","","","","0","0","1","0.1392474383","","0.6","0.4","0.8","0.2","","","","","0.1638183597","0.1392474383","0.3131666206","0.4198241006","","","","","","","","74","J","1","","","119","main_expt"
"","bandit","199","700717","0.0-160.0-0.0","65124110","wem/bandit_either_2","ANYB94DHDJKNO","either","8","466","","","","","","","0","0","1","0.358829095","","0.6","0.4","0.8","0.2","","","","","0.1893282748","0.1649404926","0.358829095","0.4286088018","","","","","","","","75","K","2","","","120","main_expt"
"","bandit","200","703493","0.0-161.0-0.0","65124110","wem/bandit_either_2","ANYB94DHDJKNO","either","8","535","","","","","","","0","0","1","0.3189860171","","0.6","0.4","0.8","0.2","","","","","0.2290368179","0.1764152442","0.3189860171","0.4253829576","","","","","","","","75","K","2","","","121","main_expt"
"","bandit","201","705120","0.0-162.0-0.0","65124110","wem/bandit_either_2","ANYB94DHDJKNO","either","8","120","","","","","","","0","0","1","","0.4235175979","0.6","0.4","0.8","0.2","0.2445441383","0.2092397698","0.3011672979","0.4235175979","","","","","","","","","","","","76","L","3","","","122","main_expt"
"","bandit","202","709260","0.0-163.0-0.0","65124110","wem/bandit_either_2","ANYB94DHDJKNO","either","8","2227","","","","","","","0","0","1","0.4182090072","","0.6","0.4","0.8","0.2","","","","","0.2091075756","0.1884058447","0.3037948063","0.4182090072","","","","","","","","76","L","3","","","123","main_expt"
"","bandit","203","711671","0.0-164.0-0.0","65124110","wem/bandit_either_2","ANYB94DHDJKNO","either","8","905","","","","","","","0","0","1","","0.2446200253","0.6","0.4","0.8","0.2","0.2216111921","0.1876417206","0.2446200253","0.4356016004","","","","","","","","","","","","75","K","2","","","124","main_expt"
"","bandit","204","713861","0.0-165.0-0.0","65124110","wem/bandit_either_2","ANYB94DHDJKNO","either","8","389","","","","","","","0","0","1","0.1622020501","","0.6","0.4","0.8","0.2","","","","","0.1622020501","0.1890564589","0.2464628806","0.403953628","","","","","","","","72","H","0","img/none_selected.jpg","","125","main_expt"
"","bandit","205","716160","0.0-166.0-0.0","65124110","wem/bandit_either_2","ANYB94DHDJKNO","either","8","403","","","","","","","0","1","0","","0.1659850756","0.6","0.4","0.8","0.2","0.173533554","0.1659850756","0.281169445","0.4020675328","","","","","","","","","","","","74","J","1","","","126","main_expt"
"","bandit","206","718088","0.0-167.0-0.0","65124110","wem/bandit_either_2","ANYB94DHDJKNO","either","8","413","","","","","","","0","0","1","","0.2006343121","0.6","0.4","0.8","0.2","0.189829559","0.2006343121","0.290080064","0.338443572","","","","","","","","","","","","74","J","1","","","127","main_expt"
"","bandit","207","720050","0.0-168.0-0.0","65124110","wem/bandit_either_2","ANYB94DHDJKNO","either","8","454","","","","","","","0","1","0","","0.2637444583","0.6","0.4","0.8","0.2","0.1764696366","0.2637444583","0.3280989756","0.323123489","","","","","","","","","","","","74","J","1","","","128","main_expt"
"","bandit","208","722458","0.0-169.0-0.0","65124110","wem/bandit_either_2","ANYB94DHDJKNO","either","8","603","","","","","","","0","0","1","0.2783394686","","0.6","0.4","0.8","0.2","","","","","0.172709194","0.2783394686","0.3052704822","0.3615310162","","","","","","","","74","J","1","","","129","main_expt"
"","bandit","209","724449","0.0-170.0-0.0","65124110","wem/bandit_either_2","ANYB94DHDJKNO","either","8","467","","","","","","","0","0","1","0.314718742","","0.6","0.4","0.8","0.2","","","","","0.1407460215","0.2674474002","0.314718742","0.3667448715","","","","","","","","75","K","2","","","130","main_expt"
"","bandit","210","727238","0.0-171.0-0.0","65124110","wem/bandit_either_2","ANYB94DHDJKNO","either","8","620","","","","","","","0","0","1","0.2492347367","","0.6","0.4","0.8","0.2","","","","","0.143826562","0.2122920843","0.2492347367","0.341745941","","","","","","","","75","K","2","","","131","main_expt"
"","bandit","211","729327","0.0-172.0-0.0","65124110","wem/bandit_either_2","ANYB94DHDJKNO","either","8","563","","","","","","","0","0","1","0.2495736985","","0.6","0.4","0.8","0.2","","","","","0.1862992663","0.1969346152","0.2495736985","0.2615325727","","","","","","","","75","K","2","","","132","main_expt"
"","bandit","212","731855","0.0-173.0-0.0","65124110","wem/bandit_either_2","ANYB94DHDJKNO","either","8","590","","","","","","","0","0","1","","0.27905624","0.6","0.4","0.8","0.2","0.185648564","0.1390835973","0.2487120015","0.27905624","","","","","","","","","","","","76","L","3","","","133","main_expt"
"","bandit","213","734264","0.0-174.0-0.0","65124110","wem/bandit_either_2","ANYB94DHDJKNO","either","8","45","","","","","","","1","0","0","0.3239420422","","0.6","0.4","0.8","0.2","","","","","0.2002276213","0.1437640715","0.3239420422","0.2751163123","","","","","","","","75","K","2","","","134","main_expt"
"","bandit","214","736699","0.0-175.0-0.0","65124110","wem/bandit_either_2","ANYB94DHDJKNO","either","8","918","","","","","","","1","0","0","0.3903525049","","0.6","0.4","0.8","0.2","","","","","0.2474552851","0.1175999949","0.3903525049","0.2586507773","","","","","","","","75","K","2","","","135","main_expt"
"","bandit","215","739631","0.0-176.0-0.0","65124110","wem/bandit_either_2","ANYB94DHDJKNO","either","8","1062","","","","","","","0","0","1","","0.3703049055","0.6","0.4","0.8","0.2","0.2454982057","0.1108499649","0.3703049055","0.2385277364","","","","","","","","","","","","75","K","2","","","136","main_expt"
"","bandit","216","741991","0.0-177.0-0.0","65124110","wem/bandit_either_2","ANYB94DHDJKNO","either","8","845","","","","","","","1","0","0","0.2708690816","","0.6","0.4","0.8","0.2","","","","","0.2708690816","0.1208727618","0.3657944308","0.1935782534","","","","","","","","72","H","0","img/none_selected.jpg","","137","main_expt"
"","bandit","217","744518","0.0-178.0-0.0","65124110","wem/bandit_either_2","ANYB94DHDJKNO","either","8","718","","","","","","","0","0","1","0.2219039101","","0.6","0.4","0.8","0.2","","","","","0.2219039101","0.1098805161","0.3452946514","0.14087624","","","","","","","","72","H","0","img/none_selected.jpg","","138","main_expt"
"","bandit","218","746872","0.0-179.0-0.0","65124110","wem/bandit_either_2","ANYB94DHDJKNO","either","8","843","","","","","","","0","0","1","","0.2485571535","0.6","0.4","0.8","0.2","0.2485571535","0.1359731218","0.3225052804","0.1340930794","","","","","","","","","","","","72","H","0","img/none_selected.jpg","","139","main_expt"
"","bandit","219","749357","0.0-180.0-0.0","65124110","wem/bandit_either_2","ANYB94DHDJKNO","either","8","965","","","","","","","0","0","1","0.2997250911","","0.6","0.4","0.8","0.2","","","","","0.2605640439","0.1419248406","0.2997250911","0.1170750994","","","","","","","","75","K","2","","","140","main_expt"
"","bandit","220","751581","0.0-181.0-0.0","65124110","wem/bandit_either_2","ANYB94DHDJKNO","either","8","704","","","","","","","0","1","0","","0.311933389","0.6","0.4","0.8","0.2","0.2260680923","0.1269577117","0.311933389","0.1316830279","","","","","","","","","","","","75","K","2","","","141","main_expt"
"","bandit","221","755273","0.0-182.0-0.0","65124110","wem/bandit_either_2","ANYB94DHDJKNO","either","8","1736","","","","","","","0","0","1","","0.3442568425","0.6","0.4","0.8","0.2","0.2354846983","0.1073819056","0.3442568425","0.09490366034","","","","","","","","","","","","75","K","2","","","142","main_expt"
"","bandit","222","758157","0.0-183.0-0.0","65124110","wem/bandit_either_2","ANYB94DHDJKNO","either","8","1278","","","","","","","0","0","1","0.3117203045","","0.6","0.4","0.8","0.2","","","","","0.2089358464","0.1152767294","0.3117203045","0.1246024154","","","","","","","","75","K","2","","","143","main_expt"
"","bandit","223","760312","0.0-184.0-0.0","65124110","wem/bandit_either_2","ANYB94DHDJKNO","either","8","456","","","","","","","0","0","1","","0.1844607625","0.6","0.4","0.8","0.2","0.1844607625","0.1317444946","0.3080771123","0.1179874238","","","","","","","","","","","","72","H","0","img/none_selected.jpg","","144","main_expt"
"","bandit","224","763038","0.0-185.0-0.0","65124110","wem/bandit_either_2","ANYB94DHDJKNO","either","8","541","","","","","","","0","0","1","0.1940384654","","0.6","0.4","0.8","0.2","","","","","0.1940384654","0.1058600218","0.3146876691","0.1211842963","","","","","","","","72","H","0","img/none_selected.jpg","","145","main_expt"
"","bandit","225","765225","0.0-186.0-0.0","65124110","wem/bandit_either_2","ANYB94DHDJKNO","either","8","654","","","","","","","0","0","1","0.2532022814","","0.6","0.4","0.8","0.2","","","","","0.2532022814","0.1862633901","0.3526806189","0.06212451067","","","","","","","","72","H","0","img/none_selected.jpg","","146","main_expt"
"","bandit","226","767679","0.0-187.0-0.0","65124110","wem/bandit_either_2","ANYB94DHDJKNO","either","8","908","","","","","","","0","0","1","","0.1944793183","0.6","0.4","0.8","0.2","0.272856749","0.1944793183","0.3859334927","0.05826033827","","","","","","","","","","","","74","J","1","","","147","main_expt"
"","bandit","227","770453","0.0-188.0-0.0","65124110","wem/bandit_either_2","ANYB94DHDJKNO","either","8","1261","","","","","","","0","0","1","","0.1572605535","0.6","0.4","0.8","0.2","0.2441255329","0.1572605535","0.4089873985","0.04847575149","","","","","","","","","","","","74","J","1","","","148","main_expt"
"","bandit","228","772831","0.0-189.0-0.0","65124110","wem/bandit_either_2","ANYB94DHDJKNO","either","8","864","","","","","","","0","0","1","0.3317076441","","0.6","0.4","0.8","0.2","","","","","0.2304797635","0.1632070519","0.3317076441","0.07397138717","","","","","","","","75","K","2","","","149","main_expt"
"","bandit","229","775139","0.0-190.0-0.0","65124110","wem/bandit_either_2","ANYB94DHDJKNO","either","8","615","","","","","","","0","0","1","0.2514439341","","0.6","0.4","0.8","0.2","","","","","0.2645424191","0.2162169298","0.2514439341","0.1178437277","","","","","","","","75","K","2","","","150","main_expt"
"","bandit","230","776969","0.0-191.0-0.0","65124110","wem/bandit_either_2","ANYB94DHDJKNO","either","8","322","","","","","","","0","0","1","","0.1116740648","0.6","0.4","0.8","0.2","0.2919476008","0.2806681102","0.2209696772","0.1116740648","","","","","","","","","","","","76","L","3","","","151","main_expt"
"","bandit","231","779246","0.0-192.0-0.0","65124110","wem/bandit_either_2","ANYB94DHDJKNO","either","8","459","","","","","","","1","0","0","0.2004300668","","0.6","0.4","0.8","0.2","","","","","0.3004198658","0.25223767","0.2004300668","0.09681320826","","","","","","","","75","K","2","","","152","main_expt"
"","bandit","232","781488","0.0-193.0-0.0","65124110","wem/bandit_either_2","ANYB94DHDJKNO","either","8","491","","","","","","","0","0","1","","0.1803159607","0.6","0.4","0.8","0.2","0.2910243242","0.2259503681","0.1803159607","0.1162344283","","","","","","","","","","","","75","K","2","","","153","main_expt"
"","bandit","233","783478","0.0-194.0-0.0","65124110","wem/bandit_either_2","ANYB94DHDJKNO","either","8","468","","","","","","","0","0","1","0.1793353988","","0.6","0.4","0.8","0.2","","","","","0.2858680692","0.2520515582","0.1793353988","0.1441765144","","","","","","","","75","K","2","","","154","main_expt"
"","bandit","234","786012","0.0-195.0-0.0","65124110","wem/bandit_either_2","ANYB94DHDJKNO","either","8","694","","","","","","","0","0","1","0.175125938","","0.6","0.4","0.8","0.2","","","","","0.276906037","0.246895917","0.175125938","0.1506434262","","","","","","","","75","K","2","","","155","main_expt"
"","bandit","235","787710","0.0-196.0-0.0","65124110","wem/bandit_either_2","ANYB94DHDJKNO","either","8","191","","","","","","","0","0","1","0.1691825384","","0.6","0.4","0.8","0.2","","","","","0.3087514371","0.2067462234","0.19004546","0.1691825384","","","","","","","","76","L","3","","","156","main_expt"
"","bandit","236","791069","0.0-197.0-0.0","65124110","wem/bandit_either_2","ANYB94DHDJKNO","either","8","983","","","","","","","0","0","1","","0.1736677602","0.6","0.4","0.8","0.2","0.3400763937","0.1736677602","0.1538528063","0.1465267651","","","","","","","","","","","","74","J","1","","","157","main_expt"
"","bandit","237","792868","0.0-198.0-0.0","65124110","wem/bandit_either_2","ANYB94DHDJKNO","either","8","0","","","","","","","0","0","1","0.3388441277","","0.6","0.4","0.8","0.2","","","","","0.3388441277","0.2437422656","0.1624419901","0.1517260174","","","","","","","","72","H","0","img/none_selected.jpg","","158","main_expt"
"","bandit","238","794883","0.0-199.0-0.0","65124110","wem/bandit_either_2","ANYB94DHDJKNO","either","8","497","","","","","","","0","1","0","","0.3496437485","0.6","0.4","0.8","0.2","0.3496437485","0.2627628197","0.1749682205","0.143579764","","","","","","","","","","","","72","H","0","img/none_selected.jpg","","159","main_expt"
"","bandit","239","796792","0.0-200.0-0.0","65124110","wem/bandit_either_2","ANYB94DHDJKNO","either","8","402","","","","","","","0","0","1","0.3347491532","","0.6","0.4","0.8","0.2","","","","","0.3347491532","0.2532756584","0.2227833177","0.1701049762","","","","","","","","72","H","0","img/none_selected.jpg","","160","main_expt"
"","bandit","240","799286","0.0-201.0-0.0","65124110","wem/bandit_either_2","ANYB94DHDJKNO","either","8","986","","","","","","","0","0","1","0.3036625801","","0.6","0.4","0.8","0.2","","","","","0.3036625801","0.2846030245","0.1616195486","0.1596038406","","","","","","","","72","H","0","img/none_selected.jpg","","161","main_expt"
"","bandit","241","802407","0.0-202.0-0.0","65124110","wem/bandit_either_2","ANYB94DHDJKNO","either","8","1182","","","","","","","0","0","1","","0.2735804545","0.6","0.4","0.8","0.2","0.2735804545","0.2480450928","0.1440802068","0.1186271452","","","","","","","","","","","","72","H","0","img/none_selected.jpg","","162","main_expt"
"","bandit","242","805158","0.0-203.0-0.0","65124110","wem/bandit_either_2","ANYB94DHDJKNO","either","8","381","","","","","","","0","0","1","","0.2219233964","0.6","0.4","0.8","0.2","0.2219233964","0.3217860246","0.1349250059","0.1460830151","","","","","","","","","","","","72","H","0","img/none_selected.jpg","","163","main_expt"
"","bandit","243","807158","0.0-204.0-0.0","65124110","wem/bandit_either_2","ANYB94DHDJKNO","either","8","478","","","","","","","0","0","1","0.1482528248","","0.6","0.4","0.8","0.2","","","","","0.2489701673","0.3528623486","0.1482528248","0.1924179555","","","","","","","","75","K","2","","","164","main_expt"
"","bandit","244","810021","0.0-205.0-0.0","65124110","wem/bandit_either_2","ANYB94DHDJKNO","either","8","887","","","","","","","0","0","1","0.1444116863","","0.6","0.4","0.8","0.2","","","","","0.2424219606","0.3113737792","0.1444116863","0.1909643941","","","","","","","","75","K","2","","","165","main_expt"
"","bandit","245","812320","0.0-206.0-0.0","65124110","wem/bandit_either_2","ANYB94DHDJKNO","either","8","445","","","","","","","0","0","1","","0.1621449425","0.6","0.4","0.8","0.2","0.1899742571","0.2820045276","0.1621449425","0.1917506842","","","","","","","","","","","","75","K","2","","","166","main_expt"
"","bandit","246","815269","0.0-207.0-0.0","65124110","wem/bandit_either_2","ANYB94DHDJKNO","either","8","1424","","","","","","","0","1","0","","0.2539690707","0.6","0.4","0.8","0.2","0.2298880826","0.2539690707","0.1695256229","0.2238056512","","","","","","","","","","","","74","J","1","","","167","main_expt"
"","bandit","247","817345","0.0-208.0-0.0","65124110","wem/bandit_either_2","ANYB94DHDJKNO","either","8","557","","","","","","","0","0","1","","0.2177565821","0.6","0.4","0.8","0.2","0.241220494","0.2177565821","0.1712445676","0.2132240521","","","","","","","","","","","","74","J","1","","","168","main_expt"
"","bandit","248","820199","0.0-209.0-0.0","65124110","wem/bandit_either_2","ANYB94DHDJKNO","either","8","740","","","","","","","0","0","1","","0.183214586","0.6","0.4","0.8","0.2","0.2113351254","0.183214586","0.191079104","0.1363713625","","","","","","","","","","","","74","J","1","","","169","main_expt"
"","bandit","249","822074","0.0-210.0-0.0","65124110","wem/bandit_either_2","ANYB94DHDJKNO","either","8","343","","","","","","","1","0","0","0.1757282231","","0.6","0.4","0.8","0.2","","","","","0.2224744884","0.1757282231","0.2227666825","0.2007690262","","","","","","","","74","J","1","","","170","main_expt"
"","bandit","250","824199","0.0-211.0-0.0","65124110","wem/bandit_either_2","ANYB94DHDJKNO","either","8","612","","","","","","","0","0","1","","0.1679331046","0.6","0.4","0.8","0.2","0.262177911","0.1679331046","0.2719914804","0.1238998316","","","","","","","","","","","","74","J","1","","","171","main_expt"
"","bandit","251","825980","0.0-212.0-0.0","65124110","wem/bandit_either_2","ANYB94DHDJKNO","either","8","215","","","","","","","0","0","1","","0.14560319","0.6","0.4","0.8","0.2","0.2822992514","0.14560319","0.2330128459","0.09746419185","","","","","","","","","","","","74","J","1","","","172","main_expt"
"","bandit","252","828772","0.0-213.0-0.0","65124110","wem/bandit_either_2","ANYB94DHDJKNO","either","8","1276","","","","","","","1","0","0","0.1018164217","","0.6","0.4","0.8","0.2","","","","","0.2545762091","0.1341549344","0.2840251313","0.1018164217","","","","","","","","76","L","3","","","173","main_expt"
"","bandit","253","831290","0.0-214.0-0.0","65124110","wem/bandit_either_2","ANYB94DHDJKNO","either","8","777","","","","","","","0","0","1","","0.1401689619","0.6","0.4","0.8","0.2","0.2838184637","0.1471305278","0.2739042306","0.1401689619","","","","","","","","","","","","76","L","3","","","174","main_expt"
"","bandit","254","833289","0.0-215.0-0.0","65124110","wem/bandit_either_2","ANYB94DHDJKNO","either","8","487","","","","","","","0","0","1","0.1697524679","","0.6","0.4","0.8","0.2","","","","","0.3002790513","0.173963405","0.3444735506","0.1697524679","","","","","","","","76","L","3","","","175","main_expt"
"","bandit","255","835579","0.0-216.0-0.0","65124110","wem/bandit_either_2","ANYB94DHDJKNO","either","8","771","","","","","","","0","0","1","0.1896898672","","0.6","0.4","0.8","0.2","","","","","0.3771690292","0.1821857965","0.3223017316","0.1896898672","","","","","","","","76","L","3","","","176","main_expt"
"","bandit","256","838011","0.0-217.0-0.0","65124110","wem/bandit_either_2","ANYB94DHDJKNO","either","8","715","","","","","","","0","0","1","0.2964924158","","0.6","0.4","0.8","0.2","","","","","0.4047809956","0.1444884472","0.2964924158","0.2441254625","","","","","","","","75","K","2","","","177","main_expt"
"","bandit","257","840092","0.0-218.0-0.0","65124110","wem/bandit_either_2","ANYB94DHDJKNO","either","8","362","","","","","","","0","0","1","","0.1207783293","0.6","0.4","0.8","0.2","0.4344960837","0.1207783293","0.2780576925","0.2427722412","","","","","","","","","","","","74","J","1","","","178","main_expt"
"","bandit","258","841993","0.0-219.0-0.0","65124110","wem/bandit_either_2","ANYB94DHDJKNO","either","8","362","","","","","","","0","0","1","0.4287912686","","0.6","0.4","0.8","0.2","","","","","0.4287912686","0.111585665","0.2859751729","0.2284650367","","","","","","","","72","H","0","img/none_selected.jpg","","179","main_expt"
"","bandit","259","844240","0.0-220.0-0.0","65124110","wem/bandit_either_2","ANYB94DHDJKNO","either","8","730","","","","","","","0","0","1","0.4294180747","","0.6","0.4","0.8","0.2","","","","","0.4294180747","0.06891525065","0.283533164","0.2694081366","","","","","","","","72","H","0","img/none_selected.jpg","","180","main_expt"
"","bandit","260","846282","0.0-221.0-0.0","65124110","wem/bandit_either_2","ANYB94DHDJKNO","either","8","522","","","","","","","0","0","1","","0.07407739619","0.6","0.4","0.8","0.2","0.3887332701","0.07407739619","0.2430023428","0.2471628034","","","","","","","","","","","","74","J","1","","","181","main_expt"
"","bandit","261","848633","0.0-222.0-0.0","65124110","wem/bandit_either_2","ANYB94DHDJKNO","either","8","355","","","","","","","0","1","0","","0.223254837","0.6","0.4","0.8","0.2","0.3910635387","0.07501704201","0.223254837","0.275372354","","","","","","","","","","","","75","K","2","","","182","main_expt"
"","bandit","262","850595","0.0-223.0-0.0","65124110","wem/bandit_either_2","ANYB94DHDJKNO","either","8","340","","","","","","","0","0","1","0.2274286797","","0.6","0.4","0.8","0.2","","","","","0.3957792538","0.09354103142","0.2274286797","0.2378950907","","","","","","","","75","K","2","","","183","main_expt"
"","bandit","263","852519","0.0-224.0-0.0","65124110","wem/bandit_either_2","ANYB94DHDJKNO","either","8","399","","","","","","","0","0","1","0.2485964068","","0.6","0.4","0.8","0.2","","","","","0.3777829694","0.06673830493","0.2485964068","0.2611999536","","","","","","","","75","K","2","","","184","main_expt"
"","bandit","264","854890","0.0-225.0-0.0","65124110","wem/bandit_either_2","ANYB94DHDJKNO","either","8","580","","","","","","","0","0","1","","0.2799245071","0.6","0.4","0.8","0.2","0.4130939835","0.08617836821","0.2080173303","0.2799245071","","","","","","","","","","","","76","L","3","","","185","main_expt"
"","bandit","265","856834","0.0-226.0-0.0","65124110","wem/bandit_either_2","ANYB94DHDJKNO","either","8","421","","","","","","","0","0","1","0.2275386122","","0.6","0.4","0.8","0.2","","","","","0.376930599","0.05054014018","0.2538883687","0.2275386122","","","","","","","","76","L","3","","","186","main_expt"
"","bandit","266","858781","0.0-227.0-0.0","65124110","wem/bandit_either_2","ANYB94DHDJKNO","either","8","435","","","","","","","0","1","0","","0.2558518805","0.6","0.4","0.8","0.2","0.3934592684","0.1101456656","0.2267652077","0.2558518805","","","","","","","","","","","","76","L","3","","","187","main_expt"
"","bandit","267","861224","0.0-228.0-0.0","65124110","wem/bandit_either_2","ANYB94DHDJKNO","either","8","569","","","","","","","1","0","0","0.2757393749","","0.6","0.4","0.8","0.2","","","","","0.4086060551","0.1076418148","0.2583789709","0.2757393749","","","","","","","","76","L","3","","","188","main_expt"
"","bandit","268","863223","0.0-229.0-0.0","65124110","wem/bandit_either_2","ANYB94DHDJKNO","either","8","450","","","","","","","0","1","0","","0.3326758055","0.6","0.4","0.8","0.2","0.447145564","0.1230456027","0.2329768584","0.3326758055","","","","","","","","","","","","76","L","3","","","189","main_expt"
"","bandit","269","865257","0.0-230.0-0.0","65124110","wem/bandit_either_2","ANYB94DHDJKNO","either","8","526","","","","","","","0","0","1","0.332927569","","0.6","0.4","0.8","0.2","","","","","0.386091063","0.1872873117","0.2002510669","0.332927569","","","","","","","","76","L","3","","","190","main_expt"
"","bandit","270","868438","0.0-231.0-0.0","65124110","wem/bandit_either_2","ANYB94DHDJKNO","either","8","1328","","","","","","","0","0","1","0.2182600554","","0.6","0.4","0.8","0.2","","","","","0.4221145333","0.1413073252","0.2182600554","0.3859199101","","","","","","","","75","K","2","","","191","main_expt"
"","bandit","271","870553","0.0-232.0-0.0","65124110","wem/bandit_either_2","ANYB94DHDJKNO","either","8","606","","","","","","","0","0","1","0.2681613901","","0.6","0.4","0.8","0.2","","","","","0.3913199708","0.1868627967","0.2681613901","0.392668484","","","","","","","","75","K","2","","","192","main_expt"
"","bandit","272","873042","0.0-233.0-0.0","65124110","wem/bandit_either_2","ANYB94DHDJKNO","either","8","863","","","","","","","0","0","1","","0.3789843676","0.6","0.4","0.8","0.2","0.4013624592","0.2312719224","0.3035027483","0.3789843676","","","","","","","","","","","","76","L","3","","","193","main_expt"
"","bandit","273","875213","0.0-234.0-0.0","65124110","wem/bandit_either_2","ANYB94DHDJKNO","either","8","565","","","","","","","0","0","1","0.3689216281","","0.6","0.4","0.8","0.2","","","","","0.3668237699","0.2585201677","0.275531754","0.3689216281","","","","","","","","76","L","3","","","194","main_expt"
"","bandit","274","877188","0.0-235.0-0.0","65124110","wem/bandit_either_2","ANYB94DHDJKNO","either","8","463","","","","","","","0","0","1","","0.2786104129","0.6","0.4","0.8","0.2","0.3856266791","0.2786104129","0.2716401532","0.4136905162","","","","","","","","","","","","74","J","1","","","195","main_expt"
"","bandit","275","879377","0.0-236.0-0.0","65124110","wem/bandit_either_2","ANYB94DHDJKNO","either","8","683","","","","","","","0","0","1","0.2407834285","","0.6","0.4","0.8","0.2","","","","","0.3702439493","0.2407834285","0.2814611543","0.4258575101","","","","","","","","74","J","1","","","196","main_expt"
"","bandit","276","881326","0.0-237.0-0.0","65124110","wem/bandit_either_2","ANYB94DHDJKNO","either","8","443","","","","","","","0","0","1","","0.2550568011","0.6","0.4","0.8","0.2","0.3665926528","0.2550568011","0.2588010394","0.3976178043","","","","","","","","","","","","74","J","1","","","197","main_expt"
"","bandit","277","883840","0.0-238.0-0.0","65124110","wem/bandit_either_2","ANYB94DHDJKNO","either","8","864","","","","","","","0","0","1","","0.3432124584","0.6","0.4","0.8","0.2","0.3432124584","0.3094863904","0.3094610495","0.3802378075","","","","","","","","","","","","72","H","0","img/none_selected.jpg","","198","main_expt"
"","bandit","278","886163","0.0-239.0-0.0","65124110","wem/bandit_either_2","ANYB94DHDJKNO","either","8","805","","","","","","","1","0","0","0.4096574544","","0.6","0.4","0.8","0.2","","","","","0.4096574544","0.3012985694","0.3139278769","0.3926800246","","","","","","","","72","H","0","img/none_selected.jpg","","199","main_expt"
"","bandit","279","895675","0.0-240.0-0.0","65124110","wem/bandit_either_2","ANYB94DHDJKNO","either","8","7791","","","","","","","0","0","1","0.3799023259","","0.6","0.4","0.8","0.2","","","","","0.3799023259","0.3149132519","0.3459706187","0.3814844917","","","","","","","","72","H","0","img/none_selected.jpg","","200","main_expt"
"","bandit","280","897713","0.0-241.0-0.0","65124110","wem/bandit_either_2","ANYB94DHDJKNO","either","8","451","","","","","","","0","0","1","0.3513783521","","0.6","0.4","0.8","0.2","","","","","0.3513783521","0.3236307962","0.3038365479","0.3831630738","","","","","","","","72","H","0","img/none_selected.jpg","","201","main_expt"
"","bandit","281","899850","0.0-242.0-0.0","65124110","wem/bandit_either_2","ANYB94DHDJKNO","either","8","630","","","","","","","1","0","0","0.3439351057","","0.6","0.4","0.8","0.2","","","","","0.3439351057","0.3163717903","0.2964599608","0.3957430938","","","","","","","","72","H","0","img/none_selected.jpg","","202","main_expt"
"","bandit","282","902235","0.0-243.0-0.0","65124110","wem/bandit_either_2","ANYB94DHDJKNO","either","8","452","","","","","","","1","0","0","0.2615327891","","0.6","0.4","0.8","0.2","","","","","0.2615327891","0.3165936227","0.280336616","0.4175506619","","","","","","","","72","H","0","img/none_selected.jpg","","203","main_expt"
"","bandit","283","904741","0.0-244.0-0.0","65124110","wem/bandit_either_2","ANYB94DHDJKNO","either","8","803","","","","","","","0","0","1","0.2211517471","","0.6","0.4","0.8","0.2","","","","","0.2211517471","0.3166231072","0.262900641","0.4356800279","","","","","","","","72","H","0","img/none_selected.jpg","","204","main_expt"
"","bandit","284","907403","0.0-245.0-0.0","65124110","wem/bandit_either_2","ANYB94DHDJKNO","either","8","912","","","","","","","1","0","0","0.1955747294","","0.6","0.4","0.8","0.2","","","","","0.1955747294","0.2983153058","0.3403150927","0.4342993254","","","","","","","","72","H","0","img/none_selected.jpg","","205","main_expt"
"","bandit","285","910039","0.0-246.0-0.0","65124110","wem/bandit_either_2","ANYB94DHDJKNO","either","8","683","","","","","","","0","0","1","","0.3137251184","0.6","0.4","0.8","0.2","0.3137251184","0.255573156","0.3407188883","0.4515967499","","","","","","","","","","","","72","H","0","img/none_selected.jpg","","206","main_expt"
"","bandit","286","912286","0.0-247.0-0.0","65124110","wem/bandit_either_2","ANYB94DHDJKNO","either","8","718","","","","","","","1","0","0","0.2982459604","","0.6","0.4","0.8","0.2","","","","","0.2982459604","0.2816724171","0.2955601217","0.4559700358","","","","","","","","72","H","0","img/none_selected.jpg","","207","main_expt"
"","bandit","287","914803","0.0-248.0-0.0","65124110","wem/bandit_either_2","ANYB94DHDJKNO","either","8","1008","","","","","","","0","0","1","","0.2359404152","0.6","0.4","0.8","0.2","0.2359404152","0.2462622089","0.2832193826","0.4711787588","","","","","","","","","","","","72","H","0","img/none_selected.jpg","","208","main_expt"
"","bandit","288","916974","0.0-249.0-0.0","65124110","wem/bandit_either_2","ANYB94DHDJKNO","either","8","447","","","","","","","0","0","1","0.2396635106","","0.6","0.4","0.8","0.2","","","","","0.2396635106","0.2608633631","0.25637755","0.4859779177","","","","","","","","72","H","0","img/none_selected.jpg","","209","main_expt"
"","bandit","289","919137","0.0-250.0-0.0","65124110","wem/bandit_either_2","ANYB94DHDJKNO","either","8","656","","","","","","","0","0","1","0.2649708152","","0.6","0.4","0.8","0.2","","","","","0.2320506775","0.2649708152","0.2500912527","0.4798195452","","","","","","","","74","J","1","","","210","main_expt"
"","bandit","290","921138","0.0-251.0-0.0","65124110","wem/bandit_either_2","ANYB94DHDJKNO","either","8","493","","","","","","","0","0","1","0.1894847828","","0.6","0.4","0.8","0.2","","","","","0.1894847828","0.2658594566","0.2481129288","0.4754072522","","","","","","","","72","H","0","img/none_selected.jpg","","211","main_expt"
"","bandit","291","923323","0.0-252.0-0.0","65124110","wem/bandit_either_2","ANYB94DHDJKNO","either","8","669","","","","","","","0","0","1","0.2648449814","","0.6","0.4","0.8","0.2","","","","","0.2330804604","0.2648449814","0.3192168596","0.4780703898","","","","","","","","74","J","1","","","212","main_expt"
"","bandit","292","925182","0.0-253.0-0.0","65124110","wem/bandit_either_2","ANYB94DHDJKNO","either","8","339","","","","","","","0","1","0","","0.2484053244","0.6","0.4","0.8","0.2","0.2484053244","0.286492297","0.2361953268","0.4883488692","","","","","","","","","","","","72","H","0","img/none_selected.jpg","","213","main_expt"
"","bandit","293","927163","0.0-254.0-0.0","65124110","wem/bandit_either_2","ANYB94DHDJKNO","either","8","455","","","","","","","0","0","1","","0.2182548364","0.6","0.4","0.8","0.2","0.2182548364","0.2540339129","0.2308921763","0.4872562331","","","","","","","","","","","","72","H","0","img/none_selected.jpg","","214","main_expt"
"","bandit","294","929277","0.0-255.0-0.0","65124110","wem/bandit_either_2","ANYB94DHDJKNO","either","8","451","","","","","","","0","0","1","0.1824073789","","0.6","0.4","0.8","0.2","","","","","0.1824073789","0.254651127","0.2161033537","0.4749609167","","","","","","","","72","H","0","img/none_selected.jpg","","215","main_expt"
"","bandit","295","931598","0.0-256.0-0.0","65124110","wem/bandit_either_2","ANYB94DHDJKNO","either","8","417","","","","","","","0","0","1","0.1923730387","","0.6","0.4","0.8","0.2","","","","","0.1923730387","0.3140517816","0.1896756427","0.4798413464","","","","","","","","72","H","0","img/none_selected.jpg","","216","main_expt"
"","bandit","296","933512","0.0-257.0-0.0","65124110","wem/bandit_either_2","ANYB94DHDJKNO","either","8","326","","","","","","","0","0","1","","0.3338676317","0.6","0.4","0.8","0.2","0.2266612446","0.3338676317","0.1724286307","0.4865144435","","","","","","","","","","","","74","J","1","","","217","main_expt"
"","bandit","297","935569","0.0-258.0-0.0","65124110","wem/bandit_either_2","ANYB94DHDJKNO","either","8","545","","","","","","","0","1","0","","0.3397001125","0.6","0.4","0.8","0.2","0.1702705737","0.3397001125","0.161168334","0.4789145001","","","","","","","","","","","","74","J","1","","","218","main_expt"
"","bandit","298","937449","0.0-259.0-0.0","65124110","wem/bandit_either_2","ANYB94DHDJKNO","either","8","124","","","","","","","0","0","1","0.2982528089","","0.6","0.4","0.8","0.2","","","","","0.1159766116","0.2982528089","0.2021763003","0.4834748692","","","","","","","","74","J","1","","","219","main_expt"
"","bandit","299","939486","0.0-260.0-0.0","65124110","wem/bandit_either_2","ANYB94DHDJKNO","either","8","509","","","","","","","0","1","0","","0.2770934022","0.6","0.4","0.8","0.2","0.09529473055","0.2770934022","0.2142164272","0.4722371777","","","","","","","","","","","","74","J","1","","","220","main_expt"
"","bandit","300","941498","0.0-261.0-0.0","65124110","wem/bandit_either_2","ANYB94DHDJKNO","either","8","504","","","","","","","0","1","0","","0.2696770889","0.6","0.4","0.8","0.2","0.09060922323","0.2696770889","0.189068297","0.4654689219","","","","","","","","","","","","74","J","1","","","221","main_expt"
"","bandit","301","943706","0.0-262.0-0.0","65124110","wem/bandit_either_2","ANYB94DHDJKNO","either","8","698","","","","","","","0","0","1","","0.3103502417","0.6","0.4","0.8","0.2","0.1250772464","0.3103502417","0.2120997892","0.4533789701","","","","","","","","","","","","74","J","1","","","222","main_expt"
"","bandit","302","946119","0.0-263.0-0.0","65124110","wem/bandit_either_2","ANYB94DHDJKNO","either","8","692","","","","","","","1","0","0","0.3477728299","","0.6","0.4","0.8","0.2","","","","","0.1177235221","0.3477728299","0.1937664477","0.4473019993","","","","","","","","74","J","1","","","223","main_expt"
"","bandit","303","948446","0.0-264.0-0.0","65124110","wem/bandit_either_2","ANYB94DHDJKNO","either","8","799","","","","","","","0","0","1","","0.3230244909","0.6","0.4","0.8","0.2","0.1589673504","0.3230244909","0.2195846313","0.4651086175","","","","","","","","","","","","74","J","1","","","224","main_expt"
"","bandit","304","950876","0.0-265.0-0.0","65124110","wem/bandit_either_2","ANYB94DHDJKNO","either","8","583","","","","","","","0","0","1","","0.3641913847","0.6","0.4","0.8","0.2","0.1582937281","0.3641913847","0.1973587738","0.4704934375","","","","","","","","","","","","74","J","1","","","225","main_expt"
"","bandit","305","955511","0.0-266.0-0.0","65124110","wem/bandit_either_2","ANYB94DHDJKNO","either","8","2791","","","","","","","0","0","1","0.2029059012","","0.6","0.4","0.8","0.2","","","","","0.1585786296","0.3211822138","0.2029059012","0.4545632724","","","","","","","","75","K","2","","","226","main_expt"
"","bandit","306","958135","0.0-267.0-0.0","65124110","wem/bandit_either_2","ANYB94DHDJKNO","either","8","1099","","","","","","","1","0","0","0.3318596792","","0.6","0.4","0.8","0.2","","","","","0.1614007709","0.3318596792","0.1677618241","0.4313330006","","","","","","","","74","J","1","","","227","main_expt"
"","bandit","307","960219","0.0-268.0-0.0","65124110","wem/bandit_either_2","ANYB94DHDJKNO","either","8","559","","","","","","","0","1","0","","0.3715738924","0.6","0.4","0.8","0.2","0.1160982884","0.3715738924","0.2079318551","0.4253897179","","","","","","","","","","","","74","J","1","","","228","main_expt"
"","bandit","308","962594","0.0-269.0-0.0","65124110","wem/bandit_either_2","ANYB94DHDJKNO","either","8","866","","","","","","","0","0","1","0.3571583743","","0.6","0.4","0.8","0.2","","","","","0.1327168588","0.3571583743","0.1860779256","0.4416009531","","","","","","","","74","J","1","","","229","main_expt"
"","bandit","309","964756","0.0-270.0-0.0","65124110","wem/bandit_either_2","ANYB94DHDJKNO","either","8","580","","","","","","","0","0","1","0.3455313741","","0.6","0.4","0.8","0.2","","","","","0.1751239199","0.3455313741","0.1294985144","0.4612445757","","","","","","","","74","J","1","","","230","main_expt"
"","bandit","310","966850","0.0-271.0-0.0","65124110","wem/bandit_either_2","ANYB94DHDJKNO","either","8","552","","","","","","","0","0","1","0.3114256563","","0.6","0.4","0.8","0.2","","","","","0.2080149414","0.3114256563","0.1424139305","0.4455927364","","","","","","","","74","J","1","","","231","main_expt"
"","bandit","311","968711","0.0-272.0-0.0","65124110","wem/bandit_either_2","ANYB94DHDJKNO","either","8","349","","","","","","","0","0","1","","0.2305008548","0.6","0.4","0.8","0.2","0.2305008548","0.3127001645","0.1777617008","0.4449483857","","","","","","","","","","","","72","H","0","img/none_selected.jpg","","232","main_expt"
"","bandit","312","970970","0.0-273.0-0.0","65124110","wem/bandit_either_2","ANYB94DHDJKNO","either","8","727","","","","","","","0","0","1","0.2331895239","","0.6","0.4","0.8","0.2","","","","","0.2331895239","0.2953609795","0.1408291819","0.4570404202","","","","","","","","72","H","0","img/none_selected.jpg","","233","main_expt"
"","bandit","313","973182","0.0-274.0-0.0","65124110","wem/bandit_either_2","ANYB94DHDJKNO","either","8","584","","","","","","","0","0","1","","0.2743769666","0.6","0.4","0.8","0.2","0.2007149185","0.2743769666","0.09563300426","0.4785018613","","","","","","","","","","","","74","J","1","","","234","main_expt"
"","bandit","314","975666","0.0-275.0-0.0","65124110","wem/bandit_either_2","ANYB94DHDJKNO","either","8","964","","","","","","","0","0","1","0.2842570603","","0.6","0.4","0.8","0.2","","","","","0.1428876463","0.2842570603","0.06508254785","0.4708517218","","","","","","","","74","J","1","","","235","main_expt"
"","bandit","315","978028","0.0-276.0-0.0","65124110","wem/bandit_either_2","ANYB94DHDJKNO","either","8","582","","","","","","","0","0","1","0.05272484418","","0.6","0.4","0.8","0.2","","","","","0.1327756685","0.3536106974","0.05272484418","0.4721911582","","","","","","","","75","K","2","","","236","main_expt"
"","bandit","316","980180","0.0-277.0-0.0","65124110","wem/bandit_either_2","ANYB94DHDJKNO","either","8","642","","","","","","","0","0","1","0.05000735717","","0.6","0.4","0.8","0.2","","","","","0.1969646424","0.3777879982","0.05000735717","0.4567984566","","","","","","","","75","K","2","","","237","main_expt"
"","bandit","317","982398","0.0-278.0-0.0","65124110","wem/bandit_either_2","ANYB94DHDJKNO","either","8","698","","","","","","","0","0","1","0.03409798278","","0.6","0.4","0.8","0.2","","","","","0.2040955009","0.3819628943","0.03409798278","0.4601910044","","","","","","","","75","K","2","","","238","main_expt"
"","bandit","318","984585","0.0-279.0-0.0","65124110","wem/bandit_either_2","ANYB94DHDJKNO","either","8","670","","","","","","","0","0","1","0.03555143528","","0.6","0.4","0.8","0.2","","","","","0.1885012088","0.3590612953","0.03555143528","0.4663275819","","","","","","","","75","K","2","","","239","main_expt"
"","bandit","319","987271","0.0-280.0-0.0","65124110","wem/bandit_either_2","ANYB94DHDJKNO","either","8","573","","","","","","","0","1","0","","0.4781926851","0.6","0.4","0.8","0.2","0.1779850251","0.3943681209","0.06633834621","0.4781926851","","","","","","","","","","","","76","L","3","","","240","main_expt"
"","bandit","320","989515","0.0-281.0-0.0","65124110","wem/bandit_either_2","ANYB94DHDJKNO","either","8","727","","","","","","","0","0","1","","0.4813407325","0.6","0.4","0.8","0.2","0.2132761508","0.4178476804","0.0332650027","0.4813407325","","","","","","","","","","","","76","L","3","","","241","main_expt"
"","bandit","321","992164","0.0-282.0-0.0","65124110","wem/bandit_either_2","ANYB94DHDJKNO","either","8","682","","","","","","","0","0","1","","0.4758201438","0.6","0.4","0.8","0.2","0.2181708985","0.4083523659","0.03674005559","0.4758201438","","","","","","","","","","","","76","L","3","","","242","main_expt"
"","bandit","322","994280","0.0-283.0-0.0","65124110","wem/bandit_either_2","ANYB94DHDJKNO","either","8","595","","","","","","","0","0","1","","0.4739127226","0.6","0.4","0.8","0.2","0.1880751836","0.4107673147","0.02732183546","0.4739127226","","","","","","","","","","","","76","L","3","","","243","main_expt"
"","bandit","323","996589","0.0-284.0-0.0","65124110","wem/bandit_either_2","ANYB94DHDJKNO","either","8","801","","","","","","","0","0","1","","0.4467527753","0.6","0.4","0.8","0.2","0.2693527465","0.3914084711","0.02742276317","0.4467527753","","","","","","","","","","","","76","L","3","","","244","main_expt"
"","bandit","324","998378","0.0-285.0-0.0","65124110","wem/bandit_either_2","ANYB94DHDJKNO","either","8","273","","","","","","","0","0","1","","0.4117032301","0.6","0.4","0.8","0.2","0.2474629182","0.4117032301","0.03322496416","0.4492118003","","","","","","","","","","","","74","J","1","","","245","main_expt"
"","bandit","325","1000521","0.0-286.0-0.0","65124110","wem/bandit_either_2","ANYB94DHDJKNO","either","8","617","","","","","","","1","0","0","0.4225436654","","0.6","0.4","0.8","0.2","","","","","0.3019125269","0.4225436654","0.0538648904","0.4702058379","","","","","","","","74","J","1","","","246","main_expt"
"","bandit","326","1003102","0.0-287.0-0.0","65124110","wem/bandit_either_2","ANYB94DHDJKNO","either","8","1064","","","","","","","0","0","1","","0.4327875568","0.6","0.4","0.8","0.2","0.3013832462","0.4327875568","0.05538537946","0.4717010128","","","","","","","","","","","","74","J","1","","","247","main_expt"
"","bandit","327","1005274","0.0-288.0-0.0","65124110","wem/bandit_either_2","ANYB94DHDJKNO","either","8","648","","","","","","","0","1","0","","0.4478523955","0.6","0.4","0.8","0.2","0.2917300956","0.4478523955","0.07377210468","0.4750055548","","","","","","","","","","","","74","J","1","","","248","main_expt"
