"consent","trial_type","trial_index","time_elapsed","internal_node_id","subjID","study","MID","cond","drift","rt","responses","key_press","expt_phase","like","value","connected","gems","bombs","no_reward","GemPrChosen","BombPrChosen","GainOverPainPr_0","GainOverPainPr_1","GainOverPainPr_2","GainOverPainPr_3","LosePr_0","LosePr_1","LosePr_2","LosePr_3","WinPr_0","WinPr_1","WinPr_2","WinPr_3","Q0","Q1","Q2","gender","age","ethnicity","target","respCharCode","respKey","respChoiceNum","respChoice","practice","trial_counter","trial_label"
"INL_behavioral_consent_30min_online.html","consent","0","32339","0.0-0.0","67987676","wem/bandit_either_2","A81J8KZ80P13V","either","7","","","","","","","","","","","","","","","","","","","","","","","","","","","","","","","","","","","","","",""
"","survey-text","1","42467","0.0-1.0","67987676","wem/bandit_either_2","A81J8KZ80P13V","either","7","9078","{""Q0"":""A81J8KZ80P13V""}","","","","","","","","","","","","","","","","","","","","","","","","","","","","","","","","","","","",""
"","text","2","78463","0.0-2.0","67987676","wem/bandit_either_2","A81J8KZ80P13V","either","7","34980","","32","","","","","","","","","","","","","","","","","","","","","","","","","","","","","","","","","","",""
"","text","3","93370","0.0-3.0","67987676","wem/bandit_either_2","A81J8KZ80P13V","either","7","14896","","32","","","","","","","","","","","","","","","","","","","","","","","","","","","","","","","","","","",""
"","text","4","143730","0.0-4.0","67987676","wem/bandit_either_2","A81J8KZ80P13V","either","7","50348","","32","","","","","","","","","","","","","","","","","","","","","","","","","","","","","","","","","","",""
"","text","5","170559","0.0-5.0","67987676","wem/bandit_either_2","A81J8KZ80P13V","either","7","26816","","32","","","","","","","","","","","","","","","","","","","","","","","","","","","","","","","","","","",""
"","text","6","206472","0.0-6.0","67987676","wem/bandit_either_2","A81J8KZ80P13V","either","7","35898","","32","","","","","","","","","","","","","","","","","","","","","","","","","","","","","","","","","","",""
"","text","7","217338","0.0-7.0","67987676","wem/bandit_either_2","A81J8KZ80P13V","either","7","10853","","32","","","","","","","","","","","","","","","","","","","","","","","","","","","","","","","","","","",""
"","text","8","224585","0.0-8.0","67987676","wem/bandit_either_2","A81J8KZ80P13V","either","7","7227","","32","","","","","","","","","","","","","","","","","","","","","","","","","","","","","","","","","","",""
"","identification","9","253902","0.0-9.0-0.0","67987676","wem/bandit_either_2","A81J8KZ80P13V","either","7","29185","","","","5","3","4","","","","","","","","","","","","","","","","","","","","","","","","the village of Zur","","","","","","",""
"","identification","10","273274","0.0-9.0-1.0","67987676","wem/bandit_either_2","A81J8KZ80P13V","either","7","18259","","","","1","1","0","","","","","","","","","","","","","","","","","","","","","","","","the village of Nyx","","","","","","",""
"","text","11","282366","0.0-10.0","67987676","wem/bandit_either_2","A81J8KZ80P13V","either","7","8054","","32","","","","","","","","","","","","","","","","","","","","","","","","","","","","","","","","","","",""
"","text","12","287794","0.0-11.0","67987676","wem/bandit_either_2","A81J8KZ80P13V","either","7","5418","","32","","","","","","","","","","","","","","","","","","","","","","","","","","","","","","","","","","",""
"","text","13","290764","0.0-12.0","67987676","wem/bandit_either_2","A81J8KZ80P13V","either","7","2956","","32","","","","","","","","","","","","","","","","","","","","","","","","","","","","","","","","","","",""
"","text","14","297083","0.0-13.0","67987676","wem/bandit_either_2","A81J8KZ80P13V","either","7","6309","","32","","","","","","","","","","","","","","","","","","","","","","","","","","","","","","","","","","",""
"","bandit","15","301514","0.0-14.0-0.0","67987676","wem/bandit_either_2","A81J8KZ80P13V","either","7","2885","","","","","","","0","0","1","0","0","","","","","0","","","","0","","","","","","","","","","","74","J","0","img/none_selected_demo.jpg","true","0",""
"","bandit","16","304873","0.0-15.0-0.0","67987676","wem/bandit_either_2","A81J8KZ80P13V","either","7","1818","","","","","","","0","0","1","0","0","","","","","0","","","","0","","","","","","","","","","","75","K","0","img/none_selected_demo.jpg","true","0",""
"","text","17","320051","0.0-16.0","67987676","wem/bandit_either_2","A81J8KZ80P13V","either","7","15163","","32","","","","","","","","","","","","","","","","","","","","","","","","","","","","","","","","","","",""
"","text","18","336535","0.0-17.0","67987676","wem/bandit_either_2","A81J8KZ80P13V","either","7","16471","","32","","","","","","","","","","","","","","","","","","","","","","","","","","","","","","","","","","",""
"","text","19","348229","0.0-18.0","67987676","wem/bandit_either_2","A81J8KZ80P13V","either","7","11686","","32","","","","","","","","","","","","","","","","","","","","","","","","","","","","","","","","","","",""
"","text","20","355955","0.0-19.0","67987676","wem/bandit_either_2","A81J8KZ80P13V","either","7","7720","","32","","","","","","","","","","","","","","","","","","","","","","","","","","","","","","","","","","",""
"","bandit","21","359274","0.0-20.0-0.0","67987676","wem/bandit_either_2","A81J8KZ80P13V","either","7","1741","","","","","","","0","0","1","0.2","","0.5","0.5","","","","","","","0.8","0.2","","","","","","","","","","75","K","1","","true","0","80_20_practice"
"","bandit","22","363871","0.0-20.0-1.0","67987676","wem/bandit_either_2","A81J8KZ80P13V","either","7","2561","","","","","","","1","0","0","0.8","","0.5","0.5","","","","","","","0.8","0.2","","","","","","","","","","74","J","0","img/none_selected_demo.jpg","true","0","80_20_practice"
"","bandit","23","366901","0.0-20.0-2.0","67987676","wem/bandit_either_2","A81J8KZ80P13V","either","7","1498","","","","","","","0","0","1","0.8","","0.5","0.5","","","","","","","0.8","0.2","","","","","","","","","","74","J","0","img/none_selected_demo.jpg","true","0","80_20_practice"
"","bandit","24","369571","0.0-20.0-3.0","67987676","wem/bandit_either_2","A81J8KZ80P13V","either","7","1141","","","","","","","1","0","0","0.8","","0.5","0.5","","","","","","","0.8","0.2","","","","","","","","","","74","J","0","img/none_selected_demo.jpg","true","0","80_20_practice"
"","bandit","25","372314","0.0-20.0-4.0","67987676","wem/bandit_either_2","A81J8KZ80P13V","either","7","1113","","","","","","","0","1","0","","0.8","0.5","0.5","","","0.8","0.2","","","","","","","","","","","","","","74","J","0","img/none_selected_demo.jpg","true","0","80_20_practice"
"","bandit","26","374563","0.0-20.0-5.0","67987676","wem/bandit_either_2","A81J8KZ80P13V","either","7","718","","","","","","","0","0","1","0.2","","0.5","0.5","","","","","","","0.8","0.2","","","","","","","","","","75","K","1","","true","0","80_20_practice"
"","bandit","27","376759","0.0-20.0-6.0","67987676","wem/bandit_either_2","A81J8KZ80P13V","either","7","553","","","","","","","0","0","1","0.8","","0.5","0.5","","","","","","","0.8","0.2","","","","","","","","","","74","J","0","img/none_selected_demo.jpg","true","0","80_20_practice"
"","bandit","28","378850","0.0-20.0-7.0","67987676","wem/bandit_either_2","A81J8KZ80P13V","either","7","412","","","","","","","0","1","0","","0.8","0.5","0.5","","","0.8","0.2","","","","","","","","","","","","","","74","J","0","img/none_selected_demo.jpg","true","0","80_20_practice"
"","bandit","29","381255","0.0-20.0-8.0","67987676","wem/bandit_either_2","A81J8KZ80P13V","either","7","879","","","","","","","0","0","1","","0.8","0.5","0.5","","","0.8","0.2","","","","","","","","","","","","","","74","J","0","img/none_selected_demo.jpg","true","0","80_20_practice"
"","bandit","30","383271","0.0-20.0-9.0","67987676","wem/bandit_either_2","A81J8KZ80P13V","either","7","476","","","","","","","0","0","1","","0.2","0.5","0.5","","","0.8","0.2","","","","","","","","","","","","","","75","K","1","","true","0","80_20_practice"
"","bandit","31","385527","0.0-20.0-10.0","67987676","wem/bandit_either_2","A81J8KZ80P13V","either","7","594","","","","","","","0","0","1","0.2","","0.5","0.5","","","","","","","0.8","0.2","","","","","","","","","","75","K","1","","true","0","80_20_practice"
"","bandit","32","387731","0.0-20.0-11.0","67987676","wem/bandit_either_2","A81J8KZ80P13V","either","7","648","","","","","","","0","1","0","","0.8","0.5","0.5","","","0.8","0.2","","","","","","","","","","","","","","74","J","0","img/none_selected_demo.jpg","true","0","80_20_practice"
"","bandit","33","389974","0.0-20.0-12.0","67987676","wem/bandit_either_2","A81J8KZ80P13V","either","7","716","","","","","","","0","1","0","","0.8","0.5","0.5","","","0.8","0.2","","","","","","","","","","","","","","74","J","0","img/none_selected_demo.jpg","true","0","80_20_practice"
"","bandit","34","392028","0.0-20.0-13.0","67987676","wem/bandit_either_2","A81J8KZ80P13V","either","7","517","","","","","","","0","1","0","","0.8","0.5","0.5","","","0.8","0.2","","","","","","","","","","","","","","74","J","0","img/none_selected_demo.jpg","true","0","80_20_practice"
"","bandit","35","394135","0.0-20.0-14.0","67987676","wem/bandit_either_2","A81J8KZ80P13V","either","7","569","","","","","","","0","0","1","0.2","","0.5","0.5","","","","","","","0.8","0.2","","","","","","","","","","75","K","1","","true","0","80_20_practice"
"","bandit","36","396023","0.0-20.0-15.0","67987676","wem/bandit_either_2","A81J8KZ80P13V","either","7","353","","","","","","","0","0","1","0.8","","0.5","0.5","","","","","","","0.8","0.2","","","","","","","","","","74","J","0","img/none_selected_demo.jpg","true","0","80_20_practice"
"","bandit","37","398221","0.0-20.0-16.0","67987676","wem/bandit_either_2","A81J8KZ80P13V","either","7","610","","","","","","","1","0","0","0.8","","0.5","0.5","","","","","","","0.8","0.2","","","","","","","","","","74","J","0","img/none_selected_demo.jpg","true","0","80_20_practice"
"","bandit","38","401165","0.0-20.0-17.0","67987676","wem/bandit_either_2","A81J8KZ80P13V","either","7","1383","","","","","","","0","1","0","","0.8","0.5","0.5","","","0.8","0.2","","","","","","","","","","","","","","74","J","0","img/none_selected_demo.jpg","true","0","80_20_practice"
"","bandit","39","403601","0.0-20.0-18.0","67987676","wem/bandit_either_2","A81J8KZ80P13V","either","7","925","","","","","","","0","0","1","0.8","","0.5","0.5","","","","","","","0.8","0.2","","","","","","","","","","74","J","0","img/none_selected_demo.jpg","true","0","80_20_practice"
"","bandit","40","405751","0.0-20.0-19.0","67987676","wem/bandit_either_2","A81J8KZ80P13V","either","7","617","","","","","","","0","0","1","0.8","","0.5","0.5","","","","","","","0.8","0.2","","","","","","","","","","74","J","0","img/none_selected_demo.jpg","true","0","80_20_practice"
"","text","41","411650","0.0-21.0","67987676","wem/bandit_either_2","A81J8KZ80P13V","either","7","5884","","32","","","","","","","","","","","","","","","","","","","","","","","","","","","","","","","","","","",""
"","bandit","42","415184","0.0-22.0-0.0","67987676","wem/bandit_either_2","A81J8KZ80P13V","either","7","1951","","","","","","","1","0","0","1","0","","","","","0","1","","","1","0","","","","","","","","","","74","J","0","img/none_selected_demo.jpg","true","0",""
"","text","43","427047","0.0-23.0","67987676","wem/bandit_either_2","A81J8KZ80P13V","either","7","11850","","32","","","","","","","","","","","","","","","","","","","","","","","","","","","","","","","","","","",""
"","text","44","430117","0.0-24.0","67987676","wem/bandit_either_2","A81J8KZ80P13V","either","7","3048","","32","","","","","","","","","","","","","","","","","","","","","","","","","","","","","","","","","","",""
"","text","45","433850","0.0-25.0","67987676","wem/bandit_either_2","A81J8KZ80P13V","either","7","3718","","32","","","","","","","","","","","","","","","","","","","","","","","","","","","","","","","","","","",""
"","text","46","440768","0.0-26.0","67987676","wem/bandit_either_2","A81J8KZ80P13V","either","7","6887","","32","","","","","","","","","","","","","","","","","","","","","","","","","","","","","","","","","","",""
"","text","47","457953","0.0-27.0","67987676","wem/bandit_either_2","A81J8KZ80P13V","either","7","17147","","32","","","","","","","","","","","","","","","","","","","","","","","","","","","","","","","","","","",""
"","text","48","462996","0.0-28.0","67987676","wem/bandit_either_2","A81J8KZ80P13V","either","7","5020","","32","","","","","","","","","","","","","","","","","","","","","","","","","","","","","","","","","","",""
"","text","49","471170","0.0-29.0","67987676","wem/bandit_either_2","A81J8KZ80P13V","either","7","8160","","32","","","","","","","","","","","","","","","","","","","","","","","","","","","","","","","","","","",""
"","text","50","476665","0.0-30.0","67987676","wem/bandit_either_2","A81J8KZ80P13V","either","7","5473","","32","","","","","","","","","","","","","","","","","","","","","","","","","","","","","","","","","","",""
"","text","51","484273","0.0-31.0","67987676","wem/bandit_either_2","A81J8KZ80P13V","either","7","7587","","32","","","","","","","","","","","","","","","","","","","","","","","","","","","","","","","","","","",""
"","text","52","487395","0.0-32.0","67987676","wem/bandit_either_2","A81J8KZ80P13V","either","7","3101","","32","","","","","","","","","","","","","","","","","","","","","","","","","","","","","","","","","","",""
"","text","53","490517","0.0-33.0","67987676","wem/bandit_either_2","A81J8KZ80P13V","either","7","3103","","32","","","","","","","","","","","","","","","","","","","","","","","","","","","","","","","","","","",""
"","bandit","54","494311","0.0-34.0-0.0","67987676","wem/bandit_either_2","A81J8KZ80P13V","either","7","2244","","","","","","","0","1","0","","0.6","0.5","0.5","0.5","0.5","0.8","0.2","0.6","0.2","","","","","","","","","","","","75","K","2","","true","0","full_practice"
"","bandit","55","496723","0.0-34.0-1.0","67987676","wem/bandit_either_2","A81J8KZ80P13V","either","7","858","","","","","","","0","1","0","","0.8","0.5","0.5","0.5","0.5","0.8","0.2","0.6","0.2","","","","","","","","","","","","72","H","0","img/none_selected.jpg","true","0","full_practice"
"","bandit","56","499463","0.0-34.0-2.0","67987676","wem/bandit_either_2","A81J8KZ80P13V","either","7","1187","","","","","","","1","0","0","0.8","","0.5","0.5","0.5","0.5","","","","","0.8","0.2","0.6","0.2","","","","","","","","72","H","0","img/none_selected.jpg","true","0","full_practice"
"","bandit","57","501475","0.0-34.0-3.0","67987676","wem/bandit_either_2","A81J8KZ80P13V","either","7","455","","","","","","","1","0","0","0.8","","0.5","0.5","0.5","0.5","","","","","0.8","0.2","0.6","0.2","","","","","","","","72","H","0","img/none_selected.jpg","true","0","full_practice"
"","bandit","58","503549","0.0-34.0-4.0","67987676","wem/bandit_either_2","A81J8KZ80P13V","either","7","392","","","","","","","1","0","0","0.8","","0.5","0.5","0.5","0.5","","","","","0.8","0.2","0.6","0.2","","","","","","","","72","H","0","img/none_selected.jpg","true","0","full_practice"
"","bandit","59","505592","0.0-34.0-5.0","67987676","wem/bandit_either_2","A81J8KZ80P13V","either","7","517","","","","","","","1","0","0","0.8","","0.5","0.5","0.5","0.5","","","","","0.8","0.2","0.6","0.2","","","","","","","","72","H","0","img/none_selected.jpg","true","0","full_practice"
"","bandit","60","507534","0.0-34.0-6.0","67987676","wem/bandit_either_2","A81J8KZ80P13V","either","7","392","","","","","","","1","0","0","0.8","","0.5","0.5","0.5","0.5","","","","","0.8","0.2","0.6","0.2","","","","","","","","72","H","0","img/none_selected.jpg","true","0","full_practice"
"","bandit","61","509453","0.0-34.0-7.0","67987676","wem/bandit_either_2","A81J8KZ80P13V","either","7","368","","","","","","","1","0","0","0.8","","0.5","0.5","0.5","0.5","","","","","0.8","0.2","0.6","0.2","","","","","","","","72","H","0","img/none_selected.jpg","true","0","full_practice"
"","bandit","62","511381","0.0-34.0-8.0","67987676","wem/bandit_either_2","A81J8KZ80P13V","either","7","350","","","","","","","0","1","0","","0.8","0.5","0.5","0.5","0.5","0.8","0.2","0.6","0.2","","","","","","","","","","","","72","H","0","img/none_selected.jpg","true","0","full_practice"
"","bandit","63","513287","0.0-34.0-9.0","67987676","wem/bandit_either_2","A81J8KZ80P13V","either","7","332","","","","","","","1","0","0","0.8","","0.5","0.5","0.5","0.5","","","","","0.8","0.2","0.6","0.2","","","","","","","","72","H","0","img/none_selected.jpg","true","0","full_practice"
"","bandit","64","515095","0.0-34.0-10.0","67987676","wem/bandit_either_2","A81J8KZ80P13V","either","7","276","","","","","","","0","1","0","","0.8","0.5","0.5","0.5","0.5","0.8","0.2","0.6","0.2","","","","","","","","","","","","72","H","0","img/none_selected.jpg","true","0","full_practice"
"","bandit","65","517082","0.0-34.0-11.0","67987676","wem/bandit_either_2","A81J8KZ80P13V","either","7","335","","","","","","","0","0","1","0.8","","0.5","0.5","0.5","0.5","","","","","0.8","0.2","0.6","0.2","","","","","","","","72","H","0","img/none_selected.jpg","true","0","full_practice"
"","bandit","66","519538","0.0-34.0-12.0","67987676","wem/bandit_either_2","A81J8KZ80P13V","either","7","933","","","","","","","0","0","1","","0.2","0.5","0.5","0.5","0.5","0.8","0.2","0.6","0.2","","","","","","","","","","","","76","L","3","","true","0","full_practice"
"","bandit","67","521559","0.0-34.0-13.0","67987676","wem/bandit_either_2","A81J8KZ80P13V","either","7","483","","","","","","","0","0","1","0.2","","0.5","0.5","0.5","0.5","","","","","0.8","0.2","0.6","0.2","","","","","","","","76","L","3","","true","0","full_practice"
"","bandit","68","524640","0.0-34.0-14.0","67987676","wem/bandit_either_2","A81J8KZ80P13V","either","7","1519","","","","","","","1","0","0","0.6","","0.5","0.5","0.5","0.5","","","","","0.8","0.2","0.6","0.2","","","","","","","","75","K","2","","true","0","full_practice"
"","bandit","69","527146","0.0-34.0-15.0","67987676","wem/bandit_either_2","A81J8KZ80P13V","either","7","945","","","","","","","0","0","1","","0.2","0.5","0.5","0.5","0.5","0.8","0.2","0.6","0.2","","","","","","","","","","","","74","J","1","","true","0","full_practice"
"","bandit","70","529210","0.0-34.0-16.0","67987676","wem/bandit_either_2","A81J8KZ80P13V","either","7","523","","","","","","","0","0","1","","0.6","0.5","0.5","0.5","0.5","0.8","0.2","0.6","0.2","","","","","","","","","","","","75","K","2","","true","0","full_practice"
"","bandit","71","531269","0.0-34.0-17.0","67987676","wem/bandit_either_2","A81J8KZ80P13V","either","7","471","","","","","","","0","0","1","0.8","","0.5","0.5","0.5","0.5","","","","","0.8","0.2","0.6","0.2","","","","","","","","72","H","0","img/none_selected.jpg","true","0","full_practice"
"","bandit","72","533257","0.0-34.0-18.0","67987676","wem/bandit_either_2","A81J8KZ80P13V","either","7","429","","","","","","","1","0","0","0.8","","0.5","0.5","0.5","0.5","","","","","0.8","0.2","0.6","0.2","","","","","","","","72","H","0","img/none_selected.jpg","true","0","full_practice"
"","bandit","73","535436","0.0-34.0-19.0","67987676","wem/bandit_either_2","A81J8KZ80P13V","either","7","651","","","","","","","0","1","0","","0.8","0.5","0.5","0.5","0.5","0.8","0.2","0.6","0.2","","","","","","","","","","","","72","H","0","img/none_selected.jpg","true","0","full_practice"
"","text","74","538852","0.0-35.0","67987676","wem/bandit_either_2","A81J8KZ80P13V","either","7","3341","","32","","","","","","","","","","","","","","","","","","","","","","","","","","","","","","","","","","",""
"","text","75","555685","0.0-36.0","67987676","wem/bandit_either_2","A81J8KZ80P13V","either","7","15794","","32","","","","","","","","","","","","","","","","","","","","","","","","","","","","","","","","","","",""
"","text","76","572775","0.0-37.0","67987676","wem/bandit_either_2","A81J8KZ80P13V","either","7","17058","","32","","","","","","","","","","","","","","","","","","","","","","","","","","","","","","","","","","",""
"","text","77","583946","0.0-38.0","67987676","wem/bandit_either_2","A81J8KZ80P13V","either","7","11130","","32","","","","","","","","","","","","","","","","","","","","","","","","","","","","","","","","","","",""
"","text","78","590411","0.0-39.0","67987676","wem/bandit_either_2","A81J8KZ80P13V","either","7","6421","","32","","","","","","","","","","","","","","","","","","","","","","","","","","","","","","","","","","",""
"","text","79","599965","0.0-40.0","67987676","wem/bandit_either_2","A81J8KZ80P13V","either","7","9515","","32","","","","","","","","","","","","","","","","","","","","","","","","","","","","","","","","","","",""
"","bandit","80","603777","0.0-41.0-0.0","67987676","wem/bandit_either_2","A81J8KZ80P13V","either","7","2171","","","","","","","0","0","1","","0.01738065524","0.6","0.8","0.4","0.2","0.06530018083","0.01738065524","0.1952616071","0.1480066451","","","","","","","","","","","","74","J","1","","","1","main_expt"
"","bandit","81","605865","0.0-42.0-0.0","67987676","wem/bandit_either_2","A81J8KZ80P13V","either","7","549","","","","","","","1","0","0","0.1053714073","","0.6","0.8","0.4","0.2","","","","","0.1011701763","0.0196943787","0.1652234336","0.1053714073","","","","","","","","76","L","3","","","2","main_expt"
"","bandit","82","607844","0.0-43.0-0.0","67987676","wem/bandit_either_2","A81J8KZ80P13V","either","7","396","","","","","","","0","1","0","","0.1460078221","0.6","0.8","0.4","0.2","0.09486719381","0.01678573497","0.1347382479","0.1460078221","","","","","","","","","","","","76","L","3","","","3","main_expt"
"","bandit","83","609767","0.0-44.0-0.0","67987676","wem/bandit_either_2","A81J8KZ80P13V","either","7","364","","","","","","","0","0","1","","0.1866138214","0.6","0.8","0.4","0.2","0.06705802814","0.02981965743","0.1684625442","0.1866138214","","","","","","","","","","","","76","L","3","","","4","main_expt"
"","bandit","84","612018","0.0-45.0-0.0","67987676","wem/bandit_either_2","A81J8KZ80P13V","either","7","611","","","","","","","0","0","1","0.0822298525","","0.6","0.8","0.4","0.2","","","","","0.0822298525","0.02600208211","0.1792029032","0.2445348717","","","","","","","","72","H","0","img/none_selected.jpg","","5","main_expt"
"","bandit","85","613987","0.0-46.0-0.0","67987676","wem/bandit_either_2","A81J8KZ80P13V","either","7","392","","","","","","","0","0","1","0.2153873139","","0.6","0.8","0.4","0.2","","","","","0.09162209411","0.02332436933","0.2153873139","0.2546962146","","","","","","","","75","K","2","","","6","main_expt"
"","bandit","86","616033","0.0-47.0-0.0","67987676","wem/bandit_either_2","A81J8KZ80P13V","either","7","363","","","","","","","0","0","1","","0.2344841702","0.6","0.8","0.4","0.2","0.1028820098","0.02864040813","0.1757762721","0.2344841702","","","","","","","","","","","","76","L","3","","","7","main_expt"
"","bandit","87","617978","0.0-48.0-0.0","67987676","wem/bandit_either_2","A81J8KZ80P13V","either","7","343","","","","","","","0","0","1","0.2473344203","","0.6","0.8","0.4","0.2","","","","","0.1532270122","0.02951264166","0.2241229746","0.2473344203","","","","","","","","76","L","3","","","8","main_expt"
"","bandit","88","619849","0.0-49.0-0.0","67987676","wem/bandit_either_2","A81J8KZ80P13V","either","7","352","","","","","","","0","0","1","","0.2642160399","0.6","0.8","0.4","0.2","0.2131450397","0.02997011939","0.2199426203","0.2642160399","","","","","","","","","","","","76","L","3","","","9","main_expt"
"","bandit","89","621857","0.0-50.0-0.0","67987676","wem/bandit_either_2","A81J8KZ80P13V","either","7","448","","","","","","","0","0","1","0.02489651457","","0.6","0.8","0.4","0.2","","","","","0.2985754635","0.02489651457","0.1520686932","0.2104627424","","","","","","","","74","J","1","","","10","main_expt"
"","bandit","90","623874","0.0-51.0-0.0","67987676","wem/bandit_either_2","A81J8KZ80P13V","either","7","465","","","","","","","0","1","0","","0.2013349999","0.6","0.8","0.4","0.2","0.2924640086","0.01651058827","0.2013349999","0.219372878","","","","","","","","","","","","75","K","2","","","11","main_expt"
"","bandit","91","625791","0.0-52.0-0.0","67987676","wem/bandit_either_2","A81J8KZ80P13V","either","7","371","","","","","","","0","0","1","","0.2156800105","0.6","0.8","0.4","0.2","0.3264291113","0.02341729431","0.2156800105","0.2105839871","","","","","","","","","","","","75","K","2","","","12","main_expt"
"","bandit","92","627705","0.0-53.0-0.0","67987676","wem/bandit_either_2","A81J8KZ80P13V","either","7","346","","","","","","","0","1","0","","0.1833947696","0.6","0.8","0.4","0.2","0.3254913314","0.0257410372","0.1833947696","0.2511698571","","","","","","","","","","","","75","K","2","","","13","main_expt"
"","bandit","93","629703","0.0-54.0-0.0","67987676","wem/bandit_either_2","A81J8KZ80P13V","either","7","457","","","","","","","0","0","1","","0.243643366","0.6","0.8","0.4","0.2","0.3428504842","0.02570014082","0.243643366","0.2158977649","","","","","","","","","","","","75","K","2","","","14","main_expt"
"","bandit","94","631743","0.0-55.0-0.0","67987676","wem/bandit_either_2","A81J8KZ80P13V","either","7","482","","","","","","","0","0","1","","0.2265365198","0.6","0.8","0.4","0.2","0.3244047679","0.04268316416","0.2265365198","0.2762480727","","","","","","","","","","","","75","K","2","","","15","main_expt"
"","bandit","95","633731","0.0-56.0-0.0","67987676","wem/bandit_either_2","A81J8KZ80P13V","either","7","388","","","","","","","0","1","0","","0.3025313629","0.6","0.8","0.4","0.2","0.3025313629","0.04667408308","0.2484951132","0.3202890724","","","","","","","","","","","","72","H","0","img/none_selected.jpg","","16","main_expt"
"","bandit","96","636140","0.0-57.0-0.0","67987676","wem/bandit_either_2","A81J8KZ80P13V","either","7","825","","","","","","","0","0","1","0.3291216938","","0.6","0.8","0.4","0.2","","","","","0.3291216938","0.0506688767","0.2570267238","0.3680552247","","","","","","","","72","H","0","img/none_selected.jpg","","17","main_expt"
"","bandit","97","638506","0.0-58.0-0.0","67987676","wem/bandit_either_2","A81J8KZ80P13V","either","7","756","","","","","","","0","1","0","","0.287418789","0.6","0.8","0.4","0.2","0.2987881532","0.02988526167","0.287418789","0.3968593921","","","","","","","","","","","","75","K","2","","","18","main_expt"
"","bandit","98","640427","0.0-59.0-0.0","67987676","wem/bandit_either_2","A81J8KZ80P13V","either","7","349","","","","","","","0","0","1","0.281207523","","0.6","0.8","0.4","0.2","","","","","0.281207523","0.03476350355","0.2338710899","0.4192996399","","","","","","","","72","H","0","img/none_selected.jpg","","19","main_expt"
"","bandit","99","642434","0.0-60.0-0.0","67987676","wem/bandit_either_2","A81J8KZ80P13V","either","7","435","","","","","","","0","0","1","0.0233687216","","0.6","0.8","0.4","0.2","","","","","0.291129981","0.0233687216","0.2335293464","0.4362768361","","","","","","","","74","J","1","","","20","main_expt"
"","bandit","100","644649","0.0-61.0-0.0","67987676","wem/bandit_either_2","A81J8KZ80P13V","either","7","607","","","","","","","0","0","1","","0.2434826965","0.6","0.8","0.4","0.2","0.2729578326","0.01272547494","0.2434826965","0.4599691003","","","","","","","","","","","","75","K","2","","","21","main_expt"
"","bandit","101","646857","0.0-62.0-0.0","67987676","wem/bandit_either_2","A81J8KZ80P13V","either","7","640","","","","","","","0","1","0","","0.2702300591","0.6","0.8","0.4","0.2","0.2805141014","0.01739491555","0.2702300591","0.44353765","","","","","","","","","","","","75","K","2","","","22","main_expt"
"","bandit","102","649139","0.0-63.0-0.0","67987676","wem/bandit_either_2","A81J8KZ80P13V","either","7","707","","","","","","","0","0","1","","0.2424740502","0.6","0.8","0.4","0.2","0.3016389313","0.006692102231","0.2424740502","0.4105594395","","","","","","","","","","","","75","K","2","","","23","main_expt"
"","bandit","103","651179","0.0-64.0-0.0","67987676","wem/bandit_either_2","A81J8KZ80P13V","either","7","468","","","","","","","0","0","1","0.1754503809","","0.6","0.8","0.4","0.2","","","","","0.2475621169","0.01209419849","0.1754503809","0.4243351486","","","","","","","","75","K","2","","","24","main_expt"
"","bandit","104","653257","0.0-65.0-0.0","67987676","wem/bandit_either_2","A81J8KZ80P13V","either","7","491","","","","","","","0","1","0","","0.2023019753","0.6","0.8","0.4","0.2","0.2607476102","0.009734580702","0.2023019753","0.4172780312","","","","","","","","","","","","75","K","2","","","25","main_expt"
"","bandit","105","655229","0.0-66.0-0.0","67987676","wem/bandit_either_2","A81J8KZ80P13V","either","7","393","","","","","","","0","0","1","0.1887270612","","0.6","0.8","0.4","0.2","","","","","0.292589008","0.008596148908","0.1887270612","0.3981062588","","","","","","","","75","K","2","","","26","main_expt"
"","bandit","106","657238","0.0-67.0-0.0","67987676","wem/bandit_either_2","A81J8KZ80P13V","either","7","440","","","","","","","0","0","1","","0.2526986378","0.6","0.8","0.4","0.2","0.2978950393","0.01380650739","0.2526986378","0.3889188119","","","","","","","","","","","","75","K","2","","","27","main_expt"
"","bandit","107","660459","0.0-68.0-0.0","67987676","wem/bandit_either_2","A81J8KZ80P13V","either","7","1617","","","","","","","0","0","1","","0.3699095679","0.6","0.8","0.4","0.2","0.337392419","0.01160852189","0.2536033627","0.3699095679","","","","","","","","","","","","76","L","3","","","28","main_expt"
"","bandit","108","662554","0.0-69.0-0.0","67987676","wem/bandit_either_2","A81J8KZ80P13V","either","7","492","","","","","","","0","0","1","","0.4087832773","0.6","0.8","0.4","0.2","0.3830759015","0.02858314752","0.258258936","0.4087832773","","","","","","","","","","","","76","L","3","","","29","main_expt"
"","bandit","109","664761","0.0-70.0-0.0","67987676","wem/bandit_either_2","A81J8KZ80P13V","either","7","508","","","","","","","0","1","0","","0.3778881599","0.6","0.8","0.4","0.2","0.3778881599","0.0265596094","0.3152574144","0.4162513677","","","","","","","","","","","","72","H","0","img/none_selected.jpg","","30","main_expt"
"","bandit","110","667092","0.0-71.0-0.0","67987676","wem/bandit_either_2","A81J8KZ80P13V","either","7","616","","","","","","","0","0","1","","0.3585458117","0.6","0.8","0.4","0.2","0.3585458117","0.02828816112","0.3508579725","0.43337534","","","","","","","","","","","","72","H","0","img/none_selected.jpg","","31","main_expt"
"","bandit","111","669379","0.0-72.0-0.0","67987676","wem/bandit_either_2","A81J8KZ80P13V","either","7","751","","","","","","","0","1","0","","0.3511664436","0.6","0.8","0.4","0.2","0.3511664436","0.03857304495","0.3902021543","0.4399105216","","","","","","","","","","","","72","H","0","img/none_selected.jpg","","32","main_expt"
"","bandit","112","671686","0.0-73.0-0.0","67987676","wem/bandit_either_2","A81J8KZ80P13V","either","7","720","","","","","","","0","1","0","","0.3924960189","0.6","0.8","0.4","0.2","0.3924960189","0.02642959278","0.4112626521","0.3859623535","","","","","","","","","","","","72","H","0","img/none_selected.jpg","","33","main_expt"
"","bandit","113","673867","0.0-74.0-0.0","67987676","wem/bandit_either_2","A81J8KZ80P13V","either","7","564","","","","","","","0","0","1","0.3713907517","","0.6","0.8","0.4","0.2","","","","","0.3713907517","0.06800028167","0.3912589523","0.4231921331","","","","","","","","72","H","0","img/none_selected.jpg","","34","main_expt"
"","bandit","114","676281","0.0-75.0-0.0","67987676","wem/bandit_either_2","A81J8KZ80P13V","either","7","848","","","","","","","0","0","1","0.3929004689","","0.6","0.8","0.4","0.2","","","","","0.3929004689","0.05710280771","0.3663646496","0.3950458867","","","","","","","","72","H","0","img/none_selected.jpg","","35","main_expt"
"","bandit","115","679169","0.0-76.0-0.0","67987676","wem/bandit_either_2","A81J8KZ80P13V","either","7","1307","","","","","","","0","0","1","0.3820467604","","0.6","0.8","0.4","0.2","","","","","0.3820467604","0.07756943076","0.3045225128","0.4005306787","","","","","","","","72","H","0","img/none_selected.jpg","","36","main_expt"
"","bandit","116","681240","0.0-77.0-0.0","67987676","wem/bandit_either_2","A81J8KZ80P13V","either","7","517","","","","","","","0","0","1","0.06074629621","","0.6","0.8","0.4","0.2","","","","","0.3948022939","0.06074629621","0.2806474599","0.3972735937","","","","","","","","74","J","1","","","37","main_expt"
"","bandit","117","683526","0.0-78.0-0.0","67987676","wem/bandit_either_2","A81J8KZ80P13V","either","7","705","","","","","","","0","0","1","","0.38339591","0.6","0.8","0.4","0.2","0.3769579019","0.07063042774","0.3558759705","0.38339591","","","","","","","","","","","","76","L","3","","","38","main_expt"
"","bandit","118","685921","0.0-79.0-0.0","67987676","wem/bandit_either_2","A81J8KZ80P13V","either","7","823","","","","","","","0","1","0","","0.3194138052","0.6","0.8","0.4","0.2","0.4030344636","0.06209293178","0.3194138052","0.3906354184","","","","","","","","","","","","75","K","2","","","39","main_expt"
"","bandit","119","688427","0.0-80.0-0.0","67987676","wem/bandit_either_2","A81J8KZ80P13V","either","7","970","","","","","","","1","0","0","0.3549086085","","0.6","0.8","0.4","0.2","","","","","0.3622335218","0.06952578958","0.3549086085","0.3623676206","","","","","","","","75","K","2","","","40","main_expt"
"","bandit","120","690593","0.0-81.0-0.0","67987676","wem/bandit_either_2","A81J8KZ80P13V","either","7","536","","","","","","","1","0","0","0.3452113815","","0.6","0.8","0.4","0.2","","","","","0.3911596719","0.1291245709","0.3452113815","0.3873704927","","","","","","","","75","K","2","","","41","main_expt"
"","bandit","121","692847","0.0-82.0-0.0","67987676","wem/bandit_either_2","A81J8KZ80P13V","either","7","683","","","","","","","0","1","0","","0.3522960267","0.6","0.8","0.4","0.2","0.3921858285","0.1174523948","0.3522960267","0.359823116","","","","","","","","","","","","75","K","2","","","42","main_expt"
"","bandit","122","694883","0.0-83.0-0.0","67987676","wem/bandit_either_2","A81J8KZ80P13V","either","7","471","","","","","","","0","0","1","","0.3093122096","0.6","0.8","0.4","0.2","0.3831213528","0.1201484523","0.3093122096","0.3710191411","","","","","","","","","","","","75","K","2","","","43","main_expt"
"","bandit","123","696850","0.0-84.0-0.0","67987676","wem/bandit_either_2","A81J8KZ80P13V","either","7","411","","","","","","","0","0","1","0.3026159556","","0.6","0.8","0.4","0.2","","","","","0.3518708159","0.09958360536","0.3026159556","0.3874065465","","","","","","","","75","K","2","","","44","main_expt"
"","bandit","124","698860","0.0-85.0-0.0","67987676","wem/bandit_either_2","A81J8KZ80P13V","either","7","459","","","","","","","0","0","1","","0.3336294247","0.6","0.8","0.4","0.2","0.3122870636","0.05173655998","0.3336294247","0.3851533971","","","","","","","","","","","","75","K","2","","","45","main_expt"
"","bandit","125","700848","0.0-86.0-0.0","67987676","wem/bandit_either_2","A81J8KZ80P13V","either","7","399","","","","","","","0","0","1","0.2635721956","","0.6","0.8","0.4","0.2","","","","","0.2635721956","0.05945041096","0.3400222736","0.4055883719","","","","","","","","72","H","0","img/none_selected.jpg","","46","main_expt"
"","bandit","126","702952","0.0-87.0-0.0","67987676","wem/bandit_either_2","A81J8KZ80P13V","either","7","525","","","","","","","0","0","1","0.04375763727","","0.6","0.8","0.4","0.2","","","","","0.2856785865","0.04375763727","0.328707825","0.3671593179","","","","","","","","74","J","1","","","47","main_expt"
"","bandit","127","705350","0.0-88.0-0.0","67987676","wem/bandit_either_2","A81J8KZ80P13V","either","7","824","","","","","","","0","0","1","","0.3198203038","0.6","0.8","0.4","0.2","0.2649087478","0.0666370861","0.3307690822","0.3198203038","","","","","","","","","","","","76","L","3","","","48","main_expt"
"","bandit","128","707342","0.0-89.0-0.0","67987676","wem/bandit_either_2","A81J8KZ80P13V","either","7","398","","","","","","","0","0","1","","0.3111357295","0.6","0.8","0.4","0.2","0.2462979357","0.08266213623","0.3438067684","0.3111357295","","","","","","","","","","","","76","L","3","","","49","main_expt"
"","bandit","129","710177","0.0-90.0-0.0","67987676","wem/bandit_either_2","A81J8KZ80P13V","either","7","1262","","","","","","","0","0","1","0.08795051988","","0.6","0.8","0.4","0.2","","","","","0.2490076798","0.08795051988","0.4037002216","0.3196682981","","","","","","","","74","J","1","","","50","main_expt"
"","bandit","130","712203","0.0-91.0-0.0","67987676","wem/bandit_either_2","A81J8KZ80P13V","either","7","475","","","","","","","0","0","1","","0.305209751","0.6","0.8","0.4","0.2","0.305209751","0.07533366945","0.3557518394","0.3088596379","","","","","","","","","","","","72","H","0","img/none_selected.jpg","","51","main_expt"
"","bandit","131","714536","0.0-92.0-0.0","67987676","wem/bandit_either_2","A81J8KZ80P13V","either","7","748","","","","","","","0","0","1","","0.3254324358","0.6","0.8","0.4","0.2","0.3087204988","0.06506638851","0.3254324358","0.3060924957","","","","","","","","","","","","75","K","2","","","52","main_expt"
"","bandit","132","716851","0.0-93.0-0.0","67987676","wem/bandit_either_2","A81J8KZ80P13V","either","7","698","","","","","","","0","0","1","0.2952150256","","0.6","0.8","0.4","0.2","","","","","0.2984188648","0.06562792832","0.2952150256","0.3229319808","","","","","","","","75","K","2","","","53","main_expt"
"","bandit","133","719184","0.0-94.0-0.0","67987676","wem/bandit_either_2","A81J8KZ80P13V","either","7","731","","","","","","","1","0","0","0.3353917468","","0.6","0.8","0.4","0.2","","","","","0.3353917468","0.04630081711","0.300320608","0.3280138586","","","","","","","","72","H","0","img/none_selected.jpg","","54","main_expt"
"","bandit","134","721371","0.0-95.0-0.0","67987676","wem/bandit_either_2","A81J8KZ80P13V","either","7","604","","","","","","","1","0","0","0.3259144651","","0.6","0.8","0.4","0.2","","","","","0.3259144651","0.03868373719","0.2985084879","0.2777260571","","","","","","","","72","H","0","img/none_selected.jpg","","55","main_expt"
"","bandit","135","723787","0.0-96.0-0.0","67987676","wem/bandit_either_2","A81J8KZ80P13V","either","7","849","","","","","","","0","0","1","0.3259049121","","0.6","0.8","0.4","0.2","","","","","0.3259049121","0.06235362297","0.2607009345","0.1791004868","","","","","","","","72","H","0","img/none_selected.jpg","","56","main_expt"
"","bandit","136","726193","0.0-97.0-0.0","67987676","wem/bandit_either_2","A81J8KZ80P13V","either","7","836","","","","","","","1","0","0","0.3687904078","","0.6","0.8","0.4","0.2","","","","","0.3687904078","0.04639461243","0.2565854794","0.2182265394","","","","","","","","72","H","0","img/none_selected.jpg","","57","main_expt"
"","bandit","137","728643","0.0-98.0-0.0","67987676","wem/bandit_either_2","A81J8KZ80P13V","either","7","876","","","","","","","0","0","1","0.3422038875","","0.6","0.8","0.4","0.2","","","","","0.3422038875","0.08954448139","0.319121847","0.2970860181","","","","","","","","72","H","0","img/none_selected.jpg","","58","main_expt"
"","bandit","138","730678","0.0-99.0-0.0","67987676","wem/bandit_either_2","A81J8KZ80P13V","either","7","433","","","","","","","0","0","1","0.07390342289","","0.6","0.8","0.4","0.2","","","","","0.3771421139","0.07390342289","0.3269923399","0.3249685468","","","","","","","","74","J","1","","","59","main_expt"
"","bandit","139","732931","0.0-100.0-0.0","67987676","wem/bandit_either_2","A81J8KZ80P13V","either","7","656","","","","","","","0","1","0","","0.2931470039","0.6","0.8","0.4","0.2","0.3620124399","0.05801548519","0.3150968823","0.2931470039","","","","","","","","","","","","76","L","3","","","60","main_expt"
"","bandit","140","735062","0.0-101.0-0.0","67987676","wem/bandit_either_2","A81J8KZ80P13V","either","7","548","","","","","","","0","0","1","","0.2646536279","0.6","0.8","0.4","0.2","0.3958116198","0.07333263924","0.324539239","0.2646536279","","","","","","","","","","","","76","L","3","","","61","main_expt"
"","bandit","141","737549","0.0-102.0-0.0","67987676","wem/bandit_either_2","A81J8KZ80P13V","either","7","914","","","","","","","0","0","1","","0.242461968","0.6","0.8","0.4","0.2","0.3615218546","0.07563430262","0.3066306166","0.242461968","","","","","","","","","","","","76","L","3","","","62","main_expt"
"","bandit","142","740454","0.0-103.0-0.0","67987676","wem/bandit_either_2","A81J8KZ80P13V","either","7","1294","","","","","","","0","0","1","0.3068900116","","0.6","0.8","0.4","0.2","","","","","0.3574266064","0.06826526778","0.3068900116","0.2206683029","","","","","","","","75","K","2","","","63","main_expt"
"","bandit","143","742629","0.0-104.0-0.0","67987676","wem/bandit_either_2","A81J8KZ80P13V","either","7","592","","","","","","","0","0","1","","0.2936494982","0.6","0.8","0.4","0.2","0.3541915859","0.1175271989","0.2936494982","0.2288959862","","","","","","","","","","","","75","K","2","","","64","main_expt"
"","bandit","144","744568","0.0-105.0-0.0","67987676","wem/bandit_either_2","A81J8KZ80P13V","either","7","402","","","","","","","0","0","1","0.1273865191","","0.6","0.8","0.4","0.2","","","","","0.3339820985","0.1273865191","0.290236101","0.2346523549","","","","","","","","74","J","1","","","65","main_expt"
"","bandit","145","746672","0.0-106.0-0.0","67987676","wem/bandit_either_2","A81J8KZ80P13V","either","7","500","","","","","","","0","1","0","","0.3195467083","0.6","0.8","0.4","0.2","0.3195467083","0.09075088943","0.2512036594","0.1881688105","","","","","","","","","","","","72","H","0","img/none_selected.jpg","","66","main_expt"
"","bandit","146","749199","0.0-107.0-0.0","67987676","wem/bandit_either_2","A81J8KZ80P13V","either","7","951","","","","","","","1","0","0","0.3477383846","","0.6","0.8","0.4","0.2","","","","","0.3477383846","0.08077075725","0.263747572","0.231043846","","","","","","","","72","H","0","img/none_selected.jpg","","67","main_expt"
"","bandit","147","751805","0.0-108.0-0.0","67987676","wem/bandit_either_2","A81J8KZ80P13V","either","7","1013","","","","","","","1","0","0","0.3365352069","","0.6","0.8","0.4","0.2","","","","","0.3365352069","0.08810311296","0.2892519303","0.2576664243","","","","","","","","72","H","0","img/none_selected.jpg","","68","main_expt"
"","bandit","148","753924","0.0-109.0-0.0","67987676","wem/bandit_either_2","A81J8KZ80P13V","either","7","542","","","","","","","0","0","1","","0.3148812039","0.6","0.8","0.4","0.2","0.3148812039","0.1260156682","0.2383664846","0.2183283259","","","","","","","","","","","","72","H","0","img/none_selected.jpg","","69","main_expt"
"","bandit","149","755950","0.0-110.0-0.0","67987676","wem/bandit_either_2","A81J8KZ80P13V","either","7","456","","","","","","","0","1","0","","0.3154014692","0.6","0.8","0.4","0.2","0.3154014692","0.08773951932","0.2497111545","0.2260484764","","","","","","","","","","","","72","H","0","img/none_selected.jpg","","70","main_expt"
"","bandit","150","758189","0.0-111.0-0.0","67987676","wem/bandit_either_2","A81J8KZ80P13V","either","7","591","","","","","","","0","0","1","0.219815459","","0.6","0.8","0.4","0.2","","","","","0.219815459","0.1154304285","0.2095843002","0.3196469567","","","","","","","","72","H","0","img/none_selected.jpg","","71","main_expt"
"","bandit","151","760219","0.0-112.0-0.0","67987676","wem/bandit_either_2","A81J8KZ80P13V","either","7","472","","","","","","","0","0","1","","0.2623730272","0.6","0.8","0.4","0.2","0.2623730272","0.10097247","0.1972488467","0.3644141189","","","","","","","","","","","","72","H","0","img/none_selected.jpg","","72","main_expt"
"","bandit","152","762256","0.0-113.0-0.0","67987676","wem/bandit_either_2","A81J8KZ80P13V","either","7","381","","","","","","","0","0","1","0.2639805735","","0.6","0.8","0.4","0.2","","","","","0.2639805735","0.0746930591","0.15494396","0.4081842109","","","","","","","","72","H","0","img/none_selected.jpg","","73","main_expt"
"","bandit","153","764368","0.0-114.0-0.0","67987676","wem/bandit_either_2","A81J8KZ80P13V","either","7","557","","","","","","","0","0","1","0.1124392477","","0.6","0.8","0.4","0.2","","","","","0.2770925356","0.1124392477","0.1324790415","0.4506698749","","","","","","","","74","J","1","","","74","main_expt"
"","bandit","154","767255","0.0-115.0-0.0","67987676","wem/bandit_either_2","A81J8KZ80P13V","either","7","1267","","","","","","","0","0","1","","0.454520075","0.6","0.8","0.4","0.2","0.2796652475","0.113494578","0.179195356","0.454520075","","","","","","","","","","","","76","L","3","","","75","main_expt"
"","bandit","155","769691","0.0-116.0-0.0","67987676","wem/bandit_either_2","A81J8KZ80P13V","either","7","822","","","","","","","0","0","1","","0.466199952","0.6","0.8","0.4","0.2","0.3153427244","0.1469344428","0.215808919","0.466199952","","","","","","","","","","","","76","L","3","","","76","main_expt"
"","bandit","156","772087","0.0-117.0-0.0","67987676","wem/bandit_either_2","A81J8KZ80P13V","either","7","828","","","","","","","0","0","1","","0.2312347408","0.6","0.8","0.4","0.2","0.3676911864","0.2152215887","0.2312347408","0.4402141775","","","","","","","","","","","","75","K","2","","","77","main_expt"
"","bandit","157","774191","0.0-118.0-0.0","67987676","wem/bandit_either_2","A81J8KZ80P13V","either","7","464","","","","","","","0","1","0","","0.2197025874","0.6","0.8","0.4","0.2","0.3434277392","0.2055177618","0.2197025874","0.4525957793","","","","","","","","","","","","75","K","2","","","78","main_expt"
"","bandit","158","777154","0.0-119.0-0.0","67987676","wem/bandit_either_2","A81J8KZ80P13V","either","7","1384","","","","","","","0","0","1","","0.2227420924","0.6","0.8","0.4","0.2","0.3758616161","0.222262525","0.2227420924","0.4630799716","","","","","","","","","","","","75","K","2","","","79","main_expt"
"","bandit","159","779294","0.0-120.0-0.0","67987676","wem/bandit_either_2","A81J8KZ80P13V","either","7","553","","","","","","","0","0","1","","0.2283057493","0.6","0.8","0.4","0.2","0.3862393514","0.2700860438","0.2283057493","0.423693353","","","","","","","","","","","","75","K","2","","","80","main_expt"
"","bandit","160","781241","0.0-121.0-0.0","67987676","wem/bandit_either_2","A81J8KZ80P13V","either","7","362","","","","","","","0","0","1","0.3593770893","","0.6","0.8","0.4","0.2","","","","","0.3593770893","0.2642688004","0.2721525977","0.4319112677","","","","","","","","72","H","0","img/none_selected.jpg","","81","main_expt"
"","bandit","161","783162","0.0-122.0-0.0","67987676","wem/bandit_either_2","A81J8KZ80P13V","either","7","366","","","","","","","1","0","0","0.4035110645","","0.6","0.8","0.4","0.2","","","","","0.4035110645","0.2824164754","0.2850237184","0.441827487","","","","","","","","72","H","0","img/none_selected.jpg","","82","main_expt"
"","bandit","162","785674","0.0-123.0-0.0","67987676","wem/bandit_either_2","A81J8KZ80P13V","either","7","921","","","","","","","0","0","1","0.3719627038","","0.6","0.8","0.4","0.2","","","","","0.3719627038","0.2819095575","0.3236436683","0.4288861504","","","","","","","","72","H","0","img/none_selected.jpg","","83","main_expt"
"","bandit","163","787820","0.0-124.0-0.0","67987676","wem/bandit_either_2","A81J8KZ80P13V","either","7","572","","","","","","","0","0","1","0.2589745902","","0.6","0.8","0.4","0.2","","","","","0.3349288927","0.2589745902","0.3339638593","0.4350385517","","","","","","","","74","J","1","","","84","main_expt"
"","bandit","164","789791","0.0-125.0-0.0","67987676","wem/bandit_either_2","A81J8KZ80P13V","either","7","364","","","","","","","0","0","1","0.3247899262","","0.6","0.8","0.4","0.2","","","","","0.3247899262","0.3626504113","0.3795022601","0.4255505645","","","","","","","","72","H","0","img/none_selected.jpg","","85","main_expt"
"","bandit","165","792403","0.0-126.0-0.0","67987676","wem/bandit_either_2","A81J8KZ80P13V","either","7","1036","","","","","","","0","1","0","","0.3443557019","0.6","0.8","0.4","0.2","0.3443557019","0.3598915268","0.3835523064","0.4330938692","","","","","","","","","","","","72","H","0","img/none_selected.jpg","","86","main_expt"
"","bandit","166","795220","0.0-127.0-0.0","67987676","wem/bandit_either_2","A81J8KZ80P13V","either","7","1096","","","","","","","0","0","1","0.3648776167","","0.6","0.8","0.4","0.2","","","","","0.3648776167","0.3433052933","0.3772514457","0.4548398529","","","","","","","","72","H","0","img/none_selected.jpg","","87","main_expt"
"","bandit","167","798448","0.0-128.0-0.0","67987676","wem/bandit_either_2","A81J8KZ80P13V","either","7","1675","","","","","","","0","0","1","","0.4493124031","0.6","0.8","0.4","0.2","0.3609631839","0.4022938878","0.3766830519","0.4493124031","","","","","","","","","","","","76","L","3","","","88","main_expt"
"","bandit","168","800577","0.0-129.0-0.0","67987676","wem/bandit_either_2","A81J8KZ80P13V","either","7","545","","","","","","","0","0","1","","0.4161110063","0.6","0.8","0.4","0.2","0.3636167192","0.4141493151","0.3537755119","0.4161110063","","","","","","","","","","","","76","L","3","","","89","main_expt"
"","bandit","169","802624","0.0-130.0-0.0","67987676","wem/bandit_either_2","A81J8KZ80P13V","either","7","442","","","","","","","0","0","1","","0.3014761449","0.6","0.8","0.4","0.2","0.3563441379","0.4136124289","0.3014761449","0.405260856","","","","","","","","","","","","75","K","2","","","90","main_expt"
"","bandit","170","804744","0.0-131.0-0.0","67987676","wem/bandit_either_2","A81J8KZ80P13V","either","7","557","","","","","","","0","0","1","0.3389138503","","0.6","0.8","0.4","0.2","","","","","0.3389138503","0.4184852842","0.2694038268","0.3827048226","","","","","","","","72","H","0","img/none_selected.jpg","","91","main_expt"
"","bandit","171","806896","0.0-132.0-0.0","67987676","wem/bandit_either_2","A81J8KZ80P13V","either","7","580","","","","","","","0","1","0","","0.4456808576","0.6","0.8","0.4","0.2","0.3263360165","0.4456808576","0.2651536323","0.3552182969","","","","","","","","","","","","74","J","1","","","92","main_expt"
"","bandit","172","809138","0.0-133.0-0.0","67987676","wem/bandit_either_2","A81J8KZ80P13V","either","7","664","","","","","","","1","0","0","0.4355219805","","0.6","0.8","0.4","0.2","","","","","0.2844131911","0.4355219805","0.1997208586","0.3286897504","","","","","","","","74","J","1","","","93","main_expt"
"","bandit","173","811528","0.0-134.0-0.0","67987676","wem/bandit_either_2","A81J8KZ80P13V","either","7","789","","","","","","","0","0","1","0.4609821192","","0.6","0.8","0.4","0.2","","","","","0.2978465223","0.4609821192","0.2442555344","0.3422490236","","","","","","","","74","J","1","","","94","main_expt"
"","bandit","174","813631","0.0-135.0-0.0","67987676","wem/bandit_either_2","A81J8KZ80P13V","either","7","488","","","","","","","1","0","0","0.4419374505","","0.6","0.8","0.4","0.2","","","","","0.2638723705","0.4419374505","0.2638839348","0.3160161054","","","","","","","","74","J","1","","","95","main_expt"
"","bandit","175","816106","0.0-136.0-0.0","67987676","wem/bandit_either_2","A81J8KZ80P13V","either","7","904","","","","","","","1","0","0","0.39438674","","0.6","0.8","0.4","0.2","","","","","0.2276010735","0.39438674","0.2265245807","0.2945538732","","","","","","","","74","J","1","","","96","main_expt"
"","bandit","176","818362","0.0-137.0-0.0","67987676","wem/bandit_either_2","A81J8KZ80P13V","either","7","672","","","","","","","0","1","0","","0.3617668419","0.6","0.8","0.4","0.2","0.2045446072","0.3617668419","0.1969189177","0.393563827","","","","","","","","","","","","74","J","1","","","97","main_expt"
"","bandit","177","820427","0.0-138.0-0.0","67987676","wem/bandit_either_2","A81J8KZ80P13V","either","7","509","","","","","","","1","0","0","0.3737913853","","0.6","0.8","0.4","0.2","","","","","0.2436418828","0.3737913853","0.1761144245","0.4046254927","","","","","","","","74","J","1","","","98","main_expt"
"","bandit","178","822540","0.0-139.0-0.0","67987676","wem/bandit_either_2","A81J8KZ80P13V","either","7","547","","","","","","","0","1","0","","0.4221129479","0.6","0.8","0.4","0.2","0.2473144087","0.4221129479","0.1211630765","0.3659012549","","","","","","","","","","","","74","J","1","","","99","main_expt"
"","bandit","179","824694","0.0-140.0-0.0","67987676","wem/bandit_either_2","A81J8KZ80P13V","either","7","580","","","","","","","0","0","1","0.3857893684","","0.6","0.8","0.4","0.2","","","","","0.2707360286","0.3857893684","0.1257326749","0.400368336","","","","","","","","74","J","1","","","100","main_expt"
"","bandit","180","826832","0.0-141.0-0.0","67987676","wem/bandit_either_2","A81J8KZ80P13V","either","7","549","","","","","","","1","0","0","0.3250409822","","0.6","0.8","0.4","0.2","","","","","0.3250409822","0.3635527264","0.09975532208","0.4367931528","","","","","","","","72","H","0","img/none_selected.jpg","","101","main_expt"
"","bandit","181","828818","0.0-142.0-0.0","67987676","wem/bandit_either_2","A81J8KZ80P13V","either","7","413","","","","","","","0","0","1","0.3088580598","","0.6","0.8","0.4","0.2","","","","","0.3088580598","0.3738375489","0.1127414424","0.4371155326","","","","","","","","72","H","0","img/none_selected.jpg","","102","main_expt"
"","bandit","182","830751","0.0-143.0-0.0","67987676","wem/bandit_either_2","A81J8KZ80P13V","either","7","385","","","","","","","0","1","0","","0.3860163181","0.6","0.8","0.4","0.2","0.2901001995","0.3860163181","0.1232600734","0.388648264","","","","","","","","","","","","74","J","1","","","103","main_expt"
"","bandit","183","833894","0.0-144.0-0.0","67987676","wem/bandit_either_2","A81J8KZ80P13V","either","7","1564","","","","","","","0","0","1","0.390692362","","0.6","0.8","0.4","0.2","","","","","0.309645936","0.390692362","0.08156843846","0.3718469433","","","","","","","","74","J","1","","","104","main_expt"
"","bandit","184","836117","0.0-145.0-0.0","67987676","wem/bandit_either_2","A81J8KZ80P13V","either","7","658","","","","","","","0","0","1","0.4139082553","","0.6","0.8","0.4","0.2","","","","","0.3386062745","0.4139082553","0.08245659199","0.3920304628","","","","","","","","74","J","1","","","105","main_expt"
"","bandit","185","838423","0.0-146.0-0.0","67987676","wem/bandit_either_2","A81J8KZ80P13V","either","7","630","","","","","","","0","0","1","","0.3295275825","0.6","0.8","0.4","0.2","0.3827539061","0.3295275825","0.1276639339","0.3733497125","","","","","","","","","","","","74","J","1","","","106","main_expt"
"","bandit","186","840673","0.0-147.0-0.0","67987676","wem/bandit_either_2","A81J8KZ80P13V","either","7","577","","","","","","","0","1","0","","0.3878439861","0.6","0.8","0.4","0.2","0.3401355396","0.3499712774","0.1812689745","0.3878439861","","","","","","","","","","","","76","L","3","","","107","main_expt"
"","bandit","187","843235","0.0-148.0-0.0","67987676","wem/bandit_either_2","A81J8KZ80P13V","either","7","937","","","","","","","0","0","1","","0.3529013302","0.6","0.8","0.4","0.2","0.3258039352","0.2666891207","0.2187982558","0.3529013302","","","","","","","","","","","","76","L","3","","","108","main_expt"
"","bandit","188","845554","0.0-149.0-0.0","67987676","wem/bandit_either_2","A81J8KZ80P13V","either","7","697","","","","","","","0","0","1","","0.3457683734","0.6","0.8","0.4","0.2","0.374919859","0.2575067634","0.2201216928","0.3457683734","","","","","","","","","","","","76","L","3","","","109","main_expt"
"","bandit","189","848253","0.0-150.0-0.0","67987676","wem/bandit_either_2","A81J8KZ80P13V","either","7","989","","","","","","","0","0","1","0.3656186065","","0.6","0.8","0.4","0.2","","","","","0.3656186065","0.2664913793","0.1789817232","0.3316873257","","","","","","","","72","H","0","img/none_selected.jpg","","110","main_expt"
"","bandit","190","849998","0.0-151.0-0.0","67987676","wem/bandit_either_2","A81J8KZ80P13V","either","7","139","","","","","","","0","0","1","","0.3649701027","0.6","0.8","0.4","0.2","0.3649701027","0.2233446911","0.2404947452","0.3434945318","","","","","","","","","","","","72","H","0","img/none_selected.jpg","","111","main_expt"
"","bandit","191","851954","0.0-152.0-0.0","67987676","wem/bandit_either_2","A81J8KZ80P13V","either","7","345","","","","","","","0","0","1","0.3371716456","","0.6","0.8","0.4","0.2","","","","","0.3371716456","0.2170082082","0.2959558532","0.2729480053","","","","","","","","72","H","0","img/none_selected.jpg","","112","main_expt"
"","bandit","192","853709","0.0-153.0-0.0","67987676","wem/bandit_either_2","A81J8KZ80P13V","either","7","149","","","","","","","0","0","1","0.1912277411","","0.6","0.8","0.4","0.2","","","","","0.2587224119","0.1912277411","0.2966985553","0.2579672073","","","","","","","","74","J","1","","","113","main_expt"
"","bandit","193","855993","0.0-154.0-0.0","67987676","wem/bandit_either_2","A81J8KZ80P13V","either","7","613","","","","","","","0","1","0","","0.24654084","0.6","0.8","0.4","0.2","0.2384324947","0.1691995451","0.3289730608","0.24654084","","","","","","","","","","","","76","L","3","","","114","main_expt"
"","bandit","194","858781","0.0-155.0-0.0","67987676","wem/bandit_either_2","A81J8KZ80P13V","either","7","1155","","","","","","","0","0","1","","0.246649757","0.6","0.8","0.4","0.2","0.2705755989","0.1263730162","0.2783705844","0.246649757","","","","","","","","","","","","76","L","3","","","115","main_expt"
"","bandit","195","860536","0.0-156.0-0.0","67987676","wem/bandit_either_2","A81J8KZ80P13V","either","7","98","","","","","","","0","1","0","","0.2666822","0.6","0.8","0.4","0.2","0.2666822","0.1130092975","0.2990421824","0.2190482835","","","","","","","","","","","","72","H","0","img/none_selected.jpg","","116","main_expt"
"","bandit","196","863618","0.0-157.0-0.0","67987676","wem/bandit_either_2","A81J8KZ80P13V","either","7","1516","","","","","","","0","0","1","0.2664749026","","0.6","0.8","0.4","0.2","","","","","0.2664749026","0.1317362661","0.3214730448","0.1860086181","","","","","","","","72","H","0","img/none_selected.jpg","","117","main_expt"
"","bandit","197","865928","0.0-158.0-0.0","67987676","wem/bandit_either_2","A81J8KZ80P13V","either","7","720","","","","","","","0","0","1","","0.1765749983","0.6","0.8","0.4","0.2","0.285497096","0.08460291254","0.3996160597","0.1765749983","","","","","","","","","","","","76","L","3","","","118","main_expt"
"","bandit","198","868207","0.0-159.0-0.0","67987676","wem/bandit_either_2","A81J8KZ80P13V","either","7","710","","","","","","","0","0","1","","0.09168363065","0.6","0.8","0.4","0.2","0.3004427434","0.09168363065","0.4143362638","0.1840588368","","","","","","","","","","","","74","J","1","","","119","main_expt"
"","bandit","199","870533","0.0-160.0-0.0","67987676","wem/bandit_either_2","A81J8KZ80P13V","either","7","637","","","","","","","0","1","0","","0.372340151","0.6","0.8","0.4","0.2","0.2419855731","0.06729372802","0.372340151","0.1988357929","","","","","","","","","","","","75","K","2","","","120","main_expt"
"","bandit","200","872885","0.0-161.0-0.0","67987676","wem/bandit_either_2","A81J8KZ80P13V","either","7","631","","","","","","","0","0","1","","0.3910424524","0.6","0.8","0.4","0.2","0.3054132847","0.08346408207","0.3910424524","0.2315674","","","","","","","","","","","","75","K","2","","","121","main_expt"
"","bandit","201","874711","0.0-162.0-0.0","67987676","wem/bandit_either_2","A81J8KZ80P13V","either","7","235","","","","","","","0","0","1","","0.3813410711","0.6","0.8","0.4","0.2","0.2473202095","0.05632743158","0.3813410711","0.2041322171","","","","","","","","","","","","75","K","2","","","122","main_expt"
"","bandit","202","876712","0.0-163.0-0.0","67987676","wem/bandit_either_2","A81J8KZ80P13V","either","7","351","","","","","","","1","0","0","0.4247291795","","0.6","0.8","0.4","0.2","","","","","0.2909195989","0.05516745574","0.4247291795","0.1945268209","","","","","","","","75","K","2","","","123","main_expt"
"","bandit","203","879443","0.0-164.0-0.0","67987676","wem/bandit_either_2","A81J8KZ80P13V","either","7","1169","","","","","","","0","0","1","0.4311179713","","0.6","0.8","0.4","0.2","","","","","0.3493750294","0.05528311039","0.4311179713","0.2206749142","","","","","","","","75","K","2","","","124","main_expt"
"","bandit","204","881385","0.0-165.0-0.0","67987676","wem/bandit_either_2","A81J8KZ80P13V","either","7","357","","","","","","","1","0","0","0.3883668019","","0.6","0.8","0.4","0.2","","","","","0.3883668019","0.07149807259","0.4085782939","0.212012295","","","","","","","","72","H","0","img/none_selected.jpg","","125","main_expt"
"","bandit","205","883471","0.0-166.0-0.0","67987676","wem/bandit_either_2","A81J8KZ80P13V","either","7","465","","","","","","","0","0","1","","0.3888129637","0.6","0.8","0.4","0.2","0.3888129637","0.1137803622","0.4110861309","0.1656684785","","","","","","","","","","","","72","H","0","img/none_selected.jpg","","126","main_expt"
"","bandit","206","886107","0.0-167.0-0.0","67987676","wem/bandit_either_2","A81J8KZ80P13V","either","7","1052","","","","","","","1","0","0","0.3659195129","","0.6","0.8","0.4","0.2","","","","","0.3659195129","0.1003054442","0.4214671818","0.1685301808","","","","","","","","72","H","0","img/none_selected.jpg","","127","main_expt"
"","bandit","207","888893","0.0-168.0-0.0","67987676","wem/bandit_either_2","A81J8KZ80P13V","either","7","1167","","","","","","","0","0","1","","0.3689954399","0.6","0.8","0.4","0.2","0.3689954399","0.1378169536","0.36889317","0.1703551811","","","","","","","","","","","","72","H","0","img/none_selected.jpg","","128","main_expt"
"","bandit","208","891693","0.0-169.0-0.0","67987676","wem/bandit_either_2","A81J8KZ80P13V","either","7","1178","","","","","","","0","0","1","","0.3600340942","0.6","0.8","0.4","0.2","0.3600340942","0.1333081235","0.3840267129","0.1624753709","","","","","","","","","","","","72","H","0","img/none_selected.jpg","","129","main_expt"
"","bandit","209","893909","0.0-170.0-0.0","67987676","wem/bandit_either_2","A81J8KZ80P13V","either","7","650","","","","","","","0","1","0","","0.2335662737","0.6","0.8","0.4","0.2","0.3580797835","0.1682212827","0.3809677701","0.2335662737","","","","","","","","","","","","76","L","3","","","130","main_expt"
"","bandit","210","896256","0.0-171.0-0.0","67987676","wem/bandit_either_2","A81J8KZ80P13V","either","7","743","","","","","","","0","1","0","","0.240441026","0.6","0.8","0.4","0.2","0.3785893338","0.2193829955","0.3681933818","0.240441026","","","","","","","","","","","","76","L","3","","","131","main_expt"
"","bandit","211","899456","0.0-172.0-0.0","67987676","wem/bandit_either_2","A81J8KZ80P13V","either","7","1571","","","","","","","0","0","1","","0.2266699971","0.6","0.8","0.4","0.2","0.3764735404","0.2693349046","0.3664045944","0.2266699971","","","","","","","","","","","","76","L","3","","","132","main_expt"
"","bandit","212","901936","0.0-173.0-0.0","67987676","wem/bandit_either_2","A81J8KZ80P13V","either","7","850","","","","","","","0","1","0","","0.1994193025","0.6","0.8","0.4","0.2","0.3433534211","0.2576546077","0.4046437197","0.1994193025","","","","","","","","","","","","76","L","3","","","133","main_expt"
"","bandit","213","904856","0.0-174.0-0.0","67987676","wem/bandit_either_2","A81J8KZ80P13V","either","7","1303","","","","","","","0","0","1","","0.1891464922","0.6","0.8","0.4","0.2","0.3606247271","0.2412372273","0.364490756","0.1891464922","","","","","","","","","","","","76","L","3","","","134","main_expt"
"","bandit","214","907201","0.0-175.0-0.0","67987676","wem/bandit_either_2","A81J8KZ80P13V","either","7","762","","","","","","","0","0","1","0.1614798668","","0.6","0.8","0.4","0.2","","","","","0.3268624306","0.2198641054","0.311914316","0.1614798668","","","","","","","","76","L","3","","","135","main_expt"
"","bandit","215","909001","0.0-176.0-0.0","67987676","wem/bandit_either_2","A81J8KZ80P13V","either","7","208","","","","","","","0","1","0","","0.2854606769","0.6","0.8","0.4","0.2","0.2854606769","0.2504132697","0.2653901568","0.1880386222","","","","","","","","","","","","72","H","0","img/none_selected.jpg","","136","main_expt"
"","bandit","216","911120","0.0-177.0-0.0","67987676","wem/bandit_either_2","A81J8KZ80P13V","either","7","508","","","","","","","0","0","1","","0.3311747399","0.6","0.8","0.4","0.2","0.3311747399","0.1912230989","0.2413295316","0.1961818793","","","","","","","","","","","","72","H","0","img/none_selected.jpg","","137","main_expt"
"","bandit","217","913147","0.0-178.0-0.0","67987676","wem/bandit_either_2","A81J8KZ80P13V","either","7","425","","","","","","","0","0","1","0.2570785188","","0.6","0.8","0.4","0.2","","","","","0.2570785188","0.1576256809","0.2060295423","0.2857678963","","","","","","","","72","H","0","img/none_selected.jpg","","138","main_expt"
"","bandit","218","915212","0.0-179.0-0.0","67987676","wem/bandit_either_2","A81J8KZ80P13V","either","7","479","","","","","","","0","0","1","","0.2858060749","0.6","0.8","0.4","0.2","0.2858060749","0.1019788138","0.1809645164","0.3449131854","","","","","","","","","","","","72","H","0","img/none_selected.jpg","","139","main_expt"
"","bandit","219","917554","0.0-180.0-0.0","67987676","wem/bandit_either_2","A81J8KZ80P13V","either","7","760","","","","","","","0","0","1","","0.1843216893","0.6","0.8","0.4","0.2","0.2975559752","0.07754087054","0.1843216893","0.2537716732","","","","","","","","","","","","75","K","2","","","140","main_expt"
"","bandit","220","919682","0.0-181.0-0.0","67987676","wem/bandit_either_2","A81J8KZ80P13V","either","7","461","","","","","","","0","0","1","0.09489610577","","0.6","0.8","0.4","0.2","","","","","0.2802168405","0.09489610577","0.1651876155","0.2858111263","","","","","","","","74","J","1","","","141","main_expt"
"","bandit","221","922009","0.0-182.0-0.0","67987676","wem/bandit_either_2","A81J8KZ80P13V","either","7","771","","","","","","","0","0","1","0.1536427928","","0.6","0.8","0.4","0.2","","","","","0.2231986748","0.09601428546","0.1536427928","0.303049367","","","","","","","","75","K","2","","","142","main_expt"
"","bandit","222","924023","0.0-183.0-0.0","67987676","wem/bandit_either_2","A81J8KZ80P13V","either","7","431","","","","","","","1","0","0","0.2032880393","","0.6","0.8","0.4","0.2","","","","","0.2032880393","0.08301142993","0.1546140226","0.2969419413","","","","","","","","72","H","0","img/none_selected.jpg","","143","main_expt"
"","bandit","223","926208","0.0-184.0-0.0","67987676","wem/bandit_either_2","A81J8KZ80P13V","either","7","608","","","","","","","0","0","1","","0.1967741464","0.6","0.8","0.4","0.2","0.1967741464","0.09599686985","0.1746031107","0.3128690494","","","","","","","","","","","","72","H","0","img/none_selected.jpg","","144","main_expt"
"","bandit","224","928562","0.0-185.0-0.0","67987676","wem/bandit_either_2","A81J8KZ80P13V","either","7","745","","","","","","","0","0","1","","0.2991796355","0.6","0.8","0.4","0.2","0.2283154954","0.07499383622","0.2021387556","0.2991796355","","","","","","","","","","","","76","L","3","","","145","main_expt"
"","bandit","225","930666","0.0-186.0-0.0","67987676","wem/bandit_either_2","A81J8KZ80P13V","either","7","455","","","","","","","0","0","1","","0.2118700154","0.6","0.8","0.4","0.2","0.2118700154","0.09566861","0.2504344391","0.3163763193","","","","","","","","","","","","72","H","0","img/none_selected.jpg","","146","main_expt"
"","bandit","226","933105","0.0-187.0-0.0","67987676","wem/bandit_either_2","A81J8KZ80P13V","either","7","881","","","","","","","0","0","1","0.210437557","","0.6","0.8","0.4","0.2","","","","","0.210437557","0.08578591382","0.2437718569","0.3198025905","","","","","","","","72","H","0","img/none_selected.jpg","","147","main_expt"
"","bandit","227","935151","0.0-188.0-0.0","67987676","wem/bandit_either_2","A81J8KZ80P13V","either","7","430","","","","","","","0","1","0","","0.1147887709","0.6","0.8","0.4","0.2","0.2370661354","0.1147887709","0.2446677265","0.2588245921","","","","","","","","","","","","74","J","1","","","148","main_expt"
"","bandit","228","937212","0.0-189.0-0.0","67987676","wem/bandit_either_2","A81J8KZ80P13V","either","7","406","","","","","","","0","0","1","0.1378203382","","0.6","0.8","0.4","0.2","","","","","0.2430363771","0.1378203382","0.2911002833","0.248712437","","","","","","","","74","J","1","","","149","main_expt"
"","bandit","229","939126","0.0-190.0-0.0","67987676","wem/bandit_either_2","A81J8KZ80P13V","either","7","304","","","","","","","0","0","1","0.1414499273","","0.6","0.8","0.4","0.2","","","","","0.2242182381","0.1414499273","0.3529655025","0.179144869","","","","","","","","74","J","1","","","150","main_expt"
"","bandit","230","941165","0.0-191.0-0.0","67987676","wem/bandit_either_2","A81J8KZ80P13V","either","7","439","","","","","","","0","0","1","0.07852348772","","0.6","0.8","0.4","0.2","","","","","0.1997145133","0.07852348772","0.3885741111","0.1545669956","","","","","","","","74","J","1","","","151","main_expt"
"","bandit","231","943353","0.0-192.0-0.0","67987676","wem/bandit_either_2","A81J8KZ80P13V","either","7","591","","","","","","","0","0","1","","0.1651714415","0.6","0.8","0.4","0.2","0.2195927633","0.08485793113","0.3690499696","0.1651714415","","","","","","","","","","","","76","L","3","","","152","main_expt"
"","bandit","232","945515","0.0-193.0-0.0","67987676","wem/bandit_either_2","A81J8KZ80P13V","either","7","562","","","","","","","0","0","1","0.3710492515","","0.6","0.8","0.4","0.2","","","","","0.2121816628","0.1083789561","0.3710492515","0.2396245514","","","","","","","","75","K","2","","","153","main_expt"
"","bandit","233","947553","0.0-194.0-0.0","67987676","wem/bandit_either_2","A81J8KZ80P13V","either","7","456","","","","","","","0","0","1","","0.3483335413","0.6","0.8","0.4","0.2","0.1830588608","0.109098481","0.3483335413","0.2085838567","","","","","","","","","","","","75","K","2","","","154","main_expt"
"","bandit","234","949699","0.0-195.0-0.0","67987676","wem/bandit_either_2","A81J8KZ80P13V","either","7","543","","","","","","","0","0","1","","0.2031423662","0.6","0.8","0.4","0.2","0.2031423662","0.1758262092","0.3343760247","0.1864274254","","","","","","","","","","","","72","H","0","img/none_selected.jpg","","155","main_expt"
"","bandit","235","952202","0.0-196.0-0.0","67987676","wem/bandit_either_2","A81J8KZ80P13V","either","7","876","","","","","","","0","0","1","","0.2046597001","0.6","0.8","0.4","0.2","0.2022731065","0.2046597001","0.3742013553","0.1750870897","","","","","","","","","","","","74","J","1","","","156","main_expt"
"","bandit","236","954132","0.0-197.0-0.0","67987676","wem/bandit_either_2","A81J8KZ80P13V","either","7","240","","","","","","","0","0","1","","0.1826661219","0.6","0.8","0.4","0.2","0.1826661219","0.1774751899","0.3620366094","0.1321985386","","","","","","","","","","","","72","H","0","img/none_selected.jpg","","157","main_expt"
"","bandit","237","956009","0.0-198.0-0.0","67987676","wem/bandit_either_2","A81J8KZ80P13V","either","7","279","","","","","","","0","0","1","","0.3671714071","0.6","0.8","0.4","0.2","0.1658993888","0.1612033886","0.3671714071","0.1341899746","","","","","","","","","","","","75","K","2","","","158","main_expt"
"","bandit","238","958224","0.0-199.0-0.0","67987676","wem/bandit_either_2","A81J8KZ80P13V","either","7","553","","","","","","","1","0","0","0.1586838935","","0.6","0.8","0.4","0.2","","","","","0.1620079643","0.1586838935","0.4015988616","0.1567784951","","","","","","","","74","J","1","","","159","main_expt"
"","bandit","239","960406","0.0-200.0-0.0","67987676","wem/bandit_either_2","A81J8KZ80P13V","either","7","511","","","","","","","0","1","0","","0.2159944071","0.6","0.8","0.4","0.2","0.2453635642","0.2159944071","0.4004877553","0.1615549635","","","","","","","","","","","","74","J","1","","","160","main_expt"
"","bandit","240","962795","0.0-201.0-0.0","67987676","wem/bandit_either_2","A81J8KZ80P13V","either","7","772","","","","","","","0","0","1","0.2105769377","","0.6","0.8","0.4","0.2","","","","","0.2456373749","0.2105769377","0.4095849454","0.1854631015","","","","","","","","74","J","1","","","161","main_expt"
"","bandit","241","965684","0.0-202.0-0.0","67987676","wem/bandit_either_2","A81J8KZ80P13V","either","7","1272","","","","","","","0","0","1","0.2006925765","","0.6","0.8","0.4","0.2","","","","","0.2460125232","0.2006925765","0.3978002783","0.21229469","","","","","","","","74","J","1","","","162","main_expt"
"","bandit","242","967987","0.0-203.0-0.0","67987676","wem/bandit_either_2","A81J8KZ80P13V","either","7","742","","","","","","","1","0","0","0.2365124807","","0.6","0.8","0.4","0.2","","","","","0.2013568893","0.2365124807","0.4180552148","0.162194177","","","","","","","","74","J","1","","","163","main_expt"
"","bandit","243","970879","0.0-204.0-0.0","67987676","wem/bandit_either_2","A81J8KZ80P13V","either","7","1345","","","","","","","0","0","1","0.2157370886","","0.6","0.8","0.4","0.2","","","","","0.1933595846","0.2157370886","0.4407560021","0.1535707797","","","","","","","","74","J","1","","","164","main_expt"
"","bandit","244","973229","0.0-205.0-0.0","67987676","wem/bandit_either_2","A81J8KZ80P13V","either","7","740","","","","","","","0","1","0","","0.2166787898","0.6","0.8","0.4","0.2","0.167552211","0.2166787898","0.4582960521","0.2315934193","","","","","","","","","","","","74","J","1","","","165","main_expt"
"","bandit","245","976705","0.0-206.0-0.0","67987676","wem/bandit_either_2","A81J8KZ80P13V","either","7","1859","","","","","","","0","1","0","","0.1846262972","0.6","0.8","0.4","0.2","0.1311237951","0.1846262972","0.4337500892","0.2579087381","","","","","","","","","","","","74","J","1","","","166","main_expt"
"","bandit","246","980136","0.0-207.0-0.0","67987676","wem/bandit_either_2","A81J8KZ80P13V","either","7","1754","","","","","","","0","0","1","","0.1888750078","0.6","0.8","0.4","0.2","0.1714029316","0.1888750078","0.4537582576","0.2496457694","","","","","","","","","","","","74","J","1","","","167","main_expt"
"","bandit","247","982391","0.0-208.0-0.0","67987676","wem/bandit_either_2","A81J8KZ80P13V","either","7","654","","","","","","","0","0","1","0.4473485534","","0.6","0.8","0.4","0.2","","","","","0.1494402723","0.2315683769","0.4473485534","0.234558796","","","","","","","","75","K","2","","","168","main_expt"
"","bandit","248","984280","0.0-209.0-0.0","67987676","wem/bandit_either_2","A81J8KZ80P13V","either","7","305","","","","","","","0","0","1","0.2018123945","","0.6","0.8","0.4","0.2","","","","","0.1819888556","0.2018123945","0.4471591033","0.2458600006","","","","","","","","74","J","1","","","169","main_expt"
"","bandit","249","986305","0.0-210.0-0.0","67987676","wem/bandit_either_2","A81J8KZ80P13V","either","7","446","","","","","","","0","0","1","","0.4581839475","0.6","0.8","0.4","0.2","0.2329206984","0.139238222","0.4581839475","0.2214583157","","","","","","","","","","","","75","K","2","","","170","main_expt"
"","bandit","250","988305","0.0-211.0-0.0","67987676","wem/bandit_either_2","A81J8KZ80P13V","either","7","396","","","","","","","0","0","1","","0.296208115","0.6","0.8","0.4","0.2","0.2000607923","0.1466511374","0.4674995421","0.296208115","","","","","","","","","","","","76","L","3","","","171","main_expt"
"","bandit","251","990142","0.0-212.0-0.0","67987676","wem/bandit_either_2","A81J8KZ80P13V","either","7","130","","","","","","","0","0","1","0.2342957318","","0.6","0.8","0.4","0.2","","","","","0.2342957318","0.1348290388","0.4455620345","0.3062379281","","","","","","","","72","H","0","img/none_selected.jpg","","172","main_expt"
"","bandit","252","992557","0.0-213.0-0.0","67987676","wem/bandit_either_2","A81J8KZ80P13V","either","7","796","","","","","","","0","0","1","0.2189308077","","0.6","0.8","0.4","0.2","","","","","0.2189308077","0.1521691919","0.4471610379","0.2498067723","","","","","","","","72","H","0","img/none_selected.jpg","","173","main_expt"
"","bandit","253","995052","0.0-214.0-0.0","67987676","wem/bandit_either_2","A81J8KZ80P13V","either","7","858","","","","","","","1","0","0","0.2191935525","","0.6","0.8","0.4","0.2","","","","","0.2373932689","0.2191935525","0.4496576915","0.1803522277","","","","","","","","74","J","1","","","174","main_expt"
"","bandit","254","997230","0.0-215.0-0.0","67987676","wem/bandit_either_2","A81J8KZ80P13V","either","7","525","","","","","","","0","0","1","0.219961305","","0.6","0.8","0.4","0.2","","","","","0.2160264752","0.219961305","0.4715297358","0.2014319342","","","","","","","","74","J","1","","","175","main_expt"
"","bandit","255","1000110","0.0-216.0-0.0","67987676","wem/bandit_either_2","A81J8KZ80P13V","either","7","1300","","","","","","","0","0","1","0.1882485239","","0.6","0.8","0.4","0.2","","","","","0.1990604306","0.1882485239","0.477956151","0.2122003168","","","","","","","","74","J","1","","","176","main_expt"
"","bandit","256","1002781","0.0-217.0-0.0","67987676","wem/bandit_either_2","A81J8KZ80P13V","either","7","1008","","","","","","","0","0","1","0.1644902553","","0.6","0.8","0.4","0.2","","","","","0.1729978196","0.1644902553","0.4563721206","0.2629069455","","","","","","","","74","J","1","","","177","main_expt"
"","bandit","257","1005069","0.0-218.0-0.0","67987676","wem/bandit_either_2","A81J8KZ80P13V","either","7","721","","","","","","","0","0","1","0.1713669852","","0.6","0.8","0.4","0.2","","","","","0.1633080779","0.1713669852","0.4409869931","0.2336104206","","","","","","","","74","J","1","","","178","main_expt"
"","bandit","258","1007178","0.0-219.0-0.0","67987676","wem/bandit_either_2","A81J8KZ80P13V","either","7","487","","","","","","","1","0","0","0.1887504226","","0.6","0.8","0.4","0.2","","","","","0.1243251356","0.2263400462","0.4243126063","0.1887504226","","","","","","","","76","L","3","","","179","main_expt"
"","bandit","259","1009200","0.0-220.0-0.0","67987676","wem/bandit_either_2","A81J8KZ80P13V","either","7","443","","","","","","","0","1","0","","0.138376641","0.6","0.8","0.4","0.2","0.1150149055","0.2036870175","0.4312830743","0.138376641","","","","","","","","","","","","76","L","3","","","180","main_expt"
"","bandit","260","1011476","0.0-221.0-0.0","67987676","wem/bandit_either_2","A81J8KZ80P13V","either","7","688","","","","","","","0","0","1","","0.1883992559","0.6","0.8","0.4","0.2","0.1407924877","0.1934599198","0.4433127893","0.1883992559","","","","","","","","","","","","76","L","3","","","181","main_expt"
"","bandit","261","1013785","0.0-222.0-0.0","67987676","wem/bandit_either_2","A81J8KZ80P13V","either","7","704","","","","","","","0","0","1","","0.128889003","0.6","0.8","0.4","0.2","0.09672650852","0.2424515525","0.440136403","0.128889003","","","","","","","","","","","","76","L","3","","","182","main_expt"
"","bandit","262","1015795","0.0-223.0-0.0","67987676","wem/bandit_either_2","A81J8KZ80P13V","either","7","407","","","","","","","0","0","1","","0.1748769843","0.6","0.8","0.4","0.2","0.09888002855","0.1961777535","0.4347693449","0.1748769843","","","","","","","","","","","","76","L","3","","","183","main_expt"
"","bandit","263","1018040","0.0-224.0-0.0","67987676","wem/bandit_either_2","A81J8KZ80P13V","either","7","636","","","","","","","1","0","0","0.4277130926","","0.6","0.8","0.4","0.2","","","","","0.07200145298","0.1489283113","0.4277130926","0.1945994373","","","","","","","","75","K","2","","","184","main_expt"
"","bandit","264","1020115","0.0-225.0-0.0","67987676","wem/bandit_either_2","A81J8KZ80P13V","either","7","463","","","","","","","0","1","0","","0.3956248437","0.6","0.8","0.4","0.2","0.09476413333","0.1499965078","0.3956248437","0.1644748654","","","","","","","","","","","","75","K","2","","","185","main_expt"
"","bandit","265","1022230","0.0-226.0-0.0","67987676","wem/bandit_either_2","A81J8KZ80P13V","either","7","493","","","","","","","0","1","0","","0.3748928266","0.6","0.8","0.4","0.2","0.06556422103","0.2169832988","0.3748928266","0.1504635592","","","","","","","","","","","","75","K","2","","","186","main_expt"
"","bandit","266","1024347","0.0-227.0-0.0","67987676","wem/bandit_either_2","A81J8KZ80P13V","either","7","533","","","","","","","0","0","1","","0.3848139325","0.6","0.8","0.4","0.2","0.08901149072","0.2655186329","0.3848139325","0.1760039214","","","","","","","","","","","","75","K","2","","","187","main_expt"
"","bandit","267","1026520","0.0-228.0-0.0","67987676","wem/bandit_either_2","A81J8KZ80P13V","either","7","563","","","","","","","1","0","0","0.3990176401","","0.6","0.8","0.4","0.2","","","","","0.09471428588","0.2738785118","0.3990176401","0.1203267588","","","","","","","","75","K","2","","","188","main_expt"
"","bandit","268","1028834","0.0-229.0-0.0","67987676","wem/bandit_either_2","A81J8KZ80P13V","either","7","696","","","","","","","0","0","1","","0.3581396838","0.6","0.8","0.4","0.2","0.05118235823","0.3041874674","0.3581396838","0.1171540391","","","","","","","","","","","","75","K","2","","","189","main_expt"
"","bandit","269","1030809","0.0-230.0-0.0","67987676","wem/bandit_either_2","A81J8KZ80P13V","either","7","313","","","","","","","0","0","1","0.2882972244","","0.6","0.8","0.4","0.2","","","","","0.05788318751","0.3229453735","0.2882972244","0.1535230761","","","","","","","","75","K","2","","","190","main_expt"
"","bandit","270","1032676","0.0-231.0-0.0","67987676","wem/bandit_either_2","A81J8KZ80P13V","either","7","280","","","","","","","0","0","1","","0.08736915481","0.6","0.8","0.4","0.2","0.08736915481","0.3818249757","0.3145326233","0.1372750947","","","","","","","","","","","","72","H","0","img/none_selected.jpg","","191","main_expt"
"","bandit","271","1034665","0.0-232.0-0.0","67987676","wem/bandit_either_2","A81J8KZ80P13V","either","7","384","","","","","","","0","0","1","0.4157726243","","0.6","0.8","0.4","0.2","","","","","0.08251019118","0.4157726243","0.3270603702","0.1047771501","","","","","","","","74","J","1","","","192","main_expt"
"","bandit","272","1037025","0.0-233.0-0.0","67987676","wem/bandit_either_2","A81J8KZ80P13V","either","7","773","","","","","","","0","1","0","","0.1100845432","0.6","0.8","0.4","0.2","0.06897628064","0.4611608212","0.3604030797","0.1100845432","","","","","","","","","","","","76","L","3","","","193","main_expt"
"","bandit","273","1039697","0.0-234.0-0.0","67987676","wem/bandit_either_2","A81J8KZ80P13V","either","7","1086","","","","","","","0","0","1","","0.1468163818","0.6","0.8","0.4","0.2","0.06801266305","0.4508818777","0.357423186","0.1468163818","","","","","","","","","","","","76","L","3","","","194","main_expt"
"","bandit","274","1041761","0.0-235.0-0.0","67987676","wem/bandit_either_2","A81J8KZ80P13V","either","7","469","","","","","","","0","0","1","","0.09923709358","0.6","0.8","0.4","0.2","0.09923709358","0.4278921451","0.3697779856","0.1495594621","","","","","","","","","","","","72","H","0","img/none_selected.jpg","","195","main_expt"
"","bandit","275","1044035","0.0-236.0-0.0","67987676","wem/bandit_either_2","A81J8KZ80P13V","either","7","635","","","","","","","0","0","1","0.2263220537","","0.6","0.8","0.4","0.2","","","","","0.1103063831","0.4256293003","0.3617177512","0.2263220537","","","","","","","","76","L","3","","","196","main_expt"
"","bandit","276","1046244","0.0-237.0-0.0","67987676","wem/bandit_either_2","A81J8KZ80P13V","either","7","624","","","","","","","0","0","1","","0.2204718804","0.6","0.8","0.4","0.2","0.07377144043","0.4476975038","0.3775990084","0.2204718804","","","","","","","","","","","","76","L","3","","","197","main_expt"
"","bandit","277","1048503","0.0-238.0-0.0","67987676","wem/bandit_either_2","A81J8KZ80P13V","either","7","668","","","","","","","0","0","1","0.4144042571","","0.6","0.8","0.4","0.2","","","","","0.08863448313","0.4434357272","0.4144042571","0.2401118457","","","","","","","","75","K","2","","","198","main_expt"
"","bandit","278","1050643","0.0-239.0-0.0","67987676","wem/bandit_either_2","A81J8KZ80P13V","either","7","482","","","","","","","1","0","0","0.2673724497","","0.6","0.8","0.4","0.2","","","","","0.1082179128","0.4245114622","0.4081775392","0.2673724497","","","","","","","","76","L","3","","","199","main_expt"
"","bandit","279","1055003","0.0-240.0-0.0","67987676","wem/bandit_either_2","A81J8KZ80P13V","either","7","2757","","","","","","","0","1","0","","0.3125307902","0.6","0.8","0.4","0.2","0.09350688576","0.4087100315","0.4166156547","0.3125307902","","","","","","","","","","","","76","L","3","","","200","main_expt"
"","bandit","280","1058760","0.0-241.0-0.0","67987676","wem/bandit_either_2","A81J8KZ80P13V","either","7","2103","","","","","","","0","0","1","0.2914574258","","0.6","0.8","0.4","0.2","","","","","0.1036625099","0.4361521275","0.4306537176","0.2914574258","","","","","","","","76","L","3","","","201","main_expt"
"","bandit","281","1060961","0.0-242.0-0.0","67987676","wem/bandit_either_2","A81J8KZ80P13V","either","7","583","","","","","","","0","0","1","","0.2550600684","0.6","0.8","0.4","0.2","0.1216733889","0.3332596158","0.449382563","0.2550600684","","","","","","","","","","","","76","L","3","","","202","main_expt"
"","bandit","282","1063630","0.0-243.0-0.0","67987676","wem/bandit_either_2","A81J8KZ80P13V","either","7","1095","","","","","","","0","0","1","","0.3581848779","0.6","0.8","0.4","0.2","0.120655788","0.3581848779","0.4506576586","0.2769745997","","","","","","","","","","","","74","J","1","","","203","main_expt"
"","bandit","283","1066160","0.0-244.0-0.0","67987676","wem/bandit_either_2","A81J8KZ80P13V","either","7","828","","","","","","","0","1","0","","0.454839243","0.6","0.8","0.4","0.2","0.1082970726","0.3597133043","0.454839243","0.2752990059","","","","","","","","","","","","75","K","2","","","204","main_expt"
"","bandit","284","1068342","0.0-245.0-0.0","67987676","wem/bandit_either_2","A81J8KZ80P13V","either","7","624","","","","","","","0","1","0","","0.4512889682","0.6","0.8","0.4","0.2","0.09143681274","0.3630183988","0.4512889682","0.2901512169","","","","","","","","","","","","75","K","2","","","205","main_expt"
"","bandit","285","1071202","0.0-246.0-0.0","67987676","wem/bandit_either_2","A81J8KZ80P13V","either","7","1215","","","","","","","1","0","0","0.4591490044","","0.6","0.8","0.4","0.2","","","","","0.08377413986","0.3737494834","0.4591490044","0.2823763913","","","","","","","","75","K","2","","","206","main_expt"
"","bandit","286","1073915","0.0-247.0-0.0","67987676","wem/bandit_either_2","A81J8KZ80P13V","either","7","1081","","","","","","","0","0","1","","0.4650593633","0.6","0.8","0.4","0.2","0.1585073664","0.3668784438","0.4650593633","0.2708062506","","","","","","","","","","","","75","K","2","","","207","main_expt"
"","bandit","287","1075911","0.0-248.0-0.0","67987676","wem/bandit_either_2","A81J8KZ80P13V","either","7","401","","","","","","","0","1","0","","0.4641513068","0.6","0.8","0.4","0.2","0.162299901","0.4045351895","0.4641513068","0.2641553663","","","","","","","","","","","","75","K","2","","","208","main_expt"
"","bandit","288","1078162","0.0-249.0-0.0","67987676","wem/bandit_either_2","A81J8KZ80P13V","either","7","619","","","","","","","0","0","1","0.4567807332","","0.6","0.8","0.4","0.2","","","","","0.1542266077","0.4402386934","0.4567807332","0.2704675845","","","","","","","","75","K","2","","","209","main_expt"
"","bandit","289","1080087","0.0-250.0-0.0","67987676","wem/bandit_either_2","A81J8KZ80P13V","either","7","309","","","","","","","0","0","1","0.428253188","","0.6","0.8","0.4","0.2","","","","","0.1890415559","0.4483623408","0.428253188","0.3420868926","","","","","","","","75","K","2","","","210","main_expt"
"","bandit","290","1081743","0.0-251.0-0.0","67987676","wem/bandit_either_2","A81J8KZ80P13V","either","7","20","","","","","","","0","0","1","","0.410271385","0.6","0.8","0.4","0.2","0.1818133019","0.4471415093","0.410271385","0.3069688952","","","","","","","","","","","","75","K","2","","","211","main_expt"
"","bandit","291","1084244","0.0-252.0-0.0","67987676","wem/bandit_either_2","A81J8KZ80P13V","either","7","904","","","","","","","0","0","1","","0.4065587724","0.6","0.8","0.4","0.2","0.1782747956","0.4374655127","0.4065587724","0.3005379093","","","","","","","","","","","","75","K","2","","","212","main_expt"
"","bandit","292","1086179","0.0-253.0-0.0","67987676","wem/bandit_either_2","A81J8KZ80P13V","either","7","358","","","","","","","0","1","0","","0.1935195711","0.6","0.8","0.4","0.2","0.1935195711","0.4381457257","0.4007116542","0.213882915","","","","","","","","","","","","72","H","0","img/none_selected.jpg","","213","main_expt"
"","bandit","293","1088472","0.0-254.0-0.0","67987676","wem/bandit_either_2","A81J8KZ80P13V","either","7","679","","","","","","","0","0","1","","0.2421176173","0.6","0.8","0.4","0.2","0.2421176173","0.4643769008","0.4246209323","0.2138557204","","","","","","","","","","","","72","H","0","img/none_selected.jpg","","214","main_expt"
"","bandit","294","1090643","0.0-255.0-0.0","67987676","wem/bandit_either_2","A81J8KZ80P13V","either","7","566","","","","","","","0","1","0","","0.2629876012","0.6","0.8","0.4","0.2","0.2629876012","0.4328812357","0.3993057066","0.2142566612","","","","","","","","","","","","72","H","0","img/none_selected.jpg","","215","main_expt"
"","bandit","295","1093380","0.0-256.0-0.0","67987676","wem/bandit_either_2","A81J8KZ80P13V","either","7","1102","","","","","","","0","0","1","","0.2977714141","0.6","0.8","0.4","0.2","0.2977714141","0.4064507999","0.3987772474","0.1900351118","","","","","","","","","","","","72","H","0","img/none_selected.jpg","","216","main_expt"
"","bandit","296","1095722","0.0-257.0-0.0","67987676","wem/bandit_either_2","A81J8KZ80P13V","either","7","680","","","","","","","0","0","1","0.4197961641","","0.6","0.8","0.4","0.2","","","","","0.3017601552","0.4197961641","0.4101433534","0.2185169477","","","","","","","","74","J","1","","","217","main_expt"
"","bandit","297","1098319","0.0-258.0-0.0","67987676","wem/bandit_either_2","A81J8KZ80P13V","either","7","778","","","","","","","0","1","0","","0.2240895604","0.6","0.8","0.4","0.2","0.2888566207","0.4167397569","0.4448029092","0.2240895604","","","","","","","","","","","","76","L","3","","","218","main_expt"
"","bandit","298","1101246","0.0-259.0-0.0","67987676","wem/bandit_either_2","A81J8KZ80P13V","either","7","1305","","","","","","","0","0","1","","0.1990808675","0.6","0.8","0.4","0.2","0.2844008008","0.4250944588","0.4454766299","0.1990808675","","","","","","","","","","","","76","L","3","","","219","main_expt"
"","bandit","299","1103124","0.0-260.0-0.0","67987676","wem/bandit_either_2","A81J8KZ80P13V","either","7","236","","","","","","","1","0","0","0.4173336587","","0.6","0.8","0.4","0.2","","","","","0.2225062479","0.4173336587","0.4610997771","0.266602996","","","","","","","","74","J","1","","","220","main_expt"
"","bandit","300","1105673","0.0-261.0-0.0","67987676","wem/bandit_either_2","A81J8KZ80P13V","either","7","797","","","","","","","0","0","1","","0.2443661227","0.6","0.8","0.4","0.2","0.2409900116","0.3944711005","0.4642289789","0.2443661227","","","","","","","","","","","","76","L","3","","","221","main_expt"
"","bandit","301","1107908","0.0-262.0-0.0","67987676","wem/bandit_either_2","A81J8KZ80P13V","either","7","625","","","","","","","0","0","1","0.3619306912","","0.6","0.8","0.4","0.2","","","","","0.1989678636","0.3619306912","0.4641270597","0.2205922116","","","","","","","","74","J","1","","","222","main_expt"
"","bandit","302","1109981","0.0-263.0-0.0","67987676","wem/bandit_either_2","A81J8KZ80P13V","either","7","474","","","","","","","0","0","1","0.4117842179","","0.6","0.8","0.4","0.2","","","","","0.1902867071","0.4117842179","0.4697433819","0.1861223506","","","","","","","","74","J","1","","","223","main_expt"
"","bandit","303","1112136","0.0-264.0-0.0","67987676","wem/bandit_either_2","A81J8KZ80P13V","either","7","513","","","","","","","0","0","1","","0.460898083","0.6","0.8","0.4","0.2","0.2076415522","0.3965092367","0.460898083","0.1668884863","","","","","","","","","","","","75","K","2","","","224","main_expt"
"","bandit","304","1114481","0.0-265.0-0.0","67987676","wem/bandit_either_2","A81J8KZ80P13V","either","7","677","","","","","","","1","0","0","0.4084477862","","0.6","0.8","0.4","0.2","","","","","0.2393469174","0.4084477862","0.4394890665","0.1481472712","","","","","","","","74","J","1","","","225","main_expt"
"","bandit","305","1116397","0.0-266.0-0.0","67987676","wem/bandit_either_2","A81J8KZ80P13V","either","7","317","","","","","","","0","0","1","0.4104601526","","0.6","0.8","0.4","0.2","","","","","0.2425440376","0.4104601526","0.4520955237","0.1140846591","","","","","","","","74","J","1","","","226","main_expt"
"","bandit","306","1118270","0.0-267.0-0.0","67987676","wem/bandit_either_2","A81J8KZ80P13V","either","7","308","","","","","","","0","0","1","0.2365603363","","0.6","0.8","0.4","0.2","","","","","0.2365603363","0.3899733519","0.4324220164","0.1074218354","","","","","","","","72","H","0","img/none_selected.jpg","","227","main_expt"
"","bandit","307","1120113","0.0-268.0-0.0","67987676","wem/bandit_either_2","A81J8KZ80P13V","either","7","230","","","","","","","0","0","1","","0.08065165665","0.6","0.8","0.4","0.2","0.2127958296","0.3796730737","0.4220482421","0.08065165665","","","","","","","","","","","","76","L","3","","","228","main_expt"
"","bandit","308","1122009","0.0-269.0-0.0","67987676","wem/bandit_either_2","A81J8KZ80P13V","either","7","238","","","","","","","0","0","1","","0.3885749154","0.6","0.8","0.4","0.2","0.2207861463","0.4046866514","0.3885749154","0.07774059362","","","","","","","","","","","","75","K","2","","","229","main_expt"
"","bandit","309","1123842","0.0-270.0-0.0","67987676","wem/bandit_either_2","A81J8KZ80P13V","either","7","191","","","","","","","0","0","1","0.3988793555","","0.6","0.8","0.4","0.2","","","","","0.2589226453","0.3988793555","0.4023755806","0.1109483114","","","","","","","","74","J","1","","","230","main_expt"
"","bandit","310","1125987","0.0-271.0-0.0","67987676","wem/bandit_either_2","A81J8KZ80P13V","either","7","541","","","","","","","1","0","0","0.3981898202","","0.6","0.8","0.4","0.2","","","","","0.2956158432","0.3981898202","0.3768725222","0.05902300203","","","","","","","","74","J","1","","","231","main_expt"
"","bandit","311","1128099","0.0-272.0-0.0","67987676","wem/bandit_either_2","A81J8KZ80P13V","either","7","491","","","","","","","0","0","1","0.4411941832","","0.6","0.8","0.4","0.2","","","","","0.3202484073","0.4411941832","0.3619917427","0.06675855664","","","","","","","","74","J","1","","","232","main_expt"
"","bandit","312","1130092","0.0-273.0-0.0","67987676","wem/bandit_either_2","A81J8KZ80P13V","either","7","388","","","","","","","0","0","1","","0.3833578816","0.6","0.8","0.4","0.2","0.2933644042","0.42967461","0.3833578816","0.06703699679","","","","","","","","","","","","75","K","2","","","233","main_expt"
"","bandit","313","1132168","0.0-274.0-0.0","67987676","wem/bandit_either_2","A81J8KZ80P13V","either","7","441","","","","","","","0","0","1","0.4242798354","","0.6","0.8","0.4","0.2","","","","","0.3106154811","0.4242798354","0.3552131768","0.05331023031","","","","","","","","74","J","1","","","234","main_expt"
"","bandit","314","1134255","0.0-275.0-0.0","67987676","wem/bandit_either_2","A81J8KZ80P13V","either","7","475","","","","","","","0","0","1","0.4617388459","","0.6","0.8","0.4","0.2","","","","","0.3158990995","0.4617388459","0.3135084543","0.05187545802","","","","","","","","74","J","1","","","235","main_expt"
"","bandit","315","1136250","0.0-276.0-0.0","67987676","wem/bandit_either_2","A81J8KZ80P13V","either","7","364","","","","","","","1","0","0","0.3036927748","","0.6","0.8","0.4","0.2","","","","","0.3036927748","0.4619510484","0.244945467","0.06939909985","","","","","","","","72","H","0","img/none_selected.jpg","","236","main_expt"
"","bandit","316","1138397","0.0-277.0-0.0","67987676","wem/bandit_either_2","A81J8KZ80P13V","either","7","532","","","","","","","0","0","1","","0.3491021326","0.6","0.8","0.4","0.2","0.3491021326","0.4482398789","0.1823839079","0.1210409879","","","","","","","","","","","","72","H","0","img/none_selected.jpg","","237","main_expt"
"","bandit","317","1140532","0.0-278.0-0.0","67987676","wem/bandit_either_2","A81J8KZ80P13V","either","7","492","","","","","","","1","0","0","0.3939254097","","0.6","0.8","0.4","0.2","","","","","0.3939254097","0.4193969143","0.1685050226","0.1147840357","","","","","","","","72","H","0","img/none_selected.jpg","","238","main_expt"
"","bandit","318","1142800","0.0-279.0-0.0","67987676","wem/bandit_either_2","A81J8KZ80P13V","either","7","639","","","","","","","0","0","1","","0.379108978","0.6","0.8","0.4","0.2","0.379108978","0.4203848948","0.1606472637","0.1006463842","","","","","","","","","","","","72","H","0","img/none_selected.jpg","","239","main_expt"
"","bandit","319","1144987","0.0-280.0-0.0","67987676","wem/bandit_either_2","A81J8KZ80P13V","either","7","604","","","","","","","0","0","1","0.3876209848","","0.6","0.8","0.4","0.2","","","","","0.3876209848","0.4489383263","0.1512795466","0.1008771133","","","","","","","","72","H","0","img/none_selected.jpg","","240","main_expt"
"","bandit","320","1146993","0.0-281.0-0.0","67987676","wem/bandit_either_2","A81J8KZ80P13V","either","7","415","","","","","","","0","0","1","0.3839625774","","0.6","0.8","0.4","0.2","","","","","0.3839625774","0.4636195567","0.1916219391","0.09981833296","","","","","","","","72","H","0","img/none_selected.jpg","","241","main_expt"
"","bandit","321","1149034","0.0-282.0-0.0","67987676","wem/bandit_either_2","A81J8KZ80P13V","either","7","465","","","","","","","1","0","0","0.4575307695","","0.6","0.8","0.4","0.2","","","","","0.3477958629","0.4575307695","0.1641013935","0.1171772993","","","","","","","","74","J","1","","","242","main_expt"
"","bandit","322","1151112","0.0-283.0-0.0","67987676","wem/bandit_either_2","A81J8KZ80P13V","either","7","495","","","","","","","0","0","1","0.4449554393","","0.6","0.8","0.4","0.2","","","","","0.3500658948","0.4449554393","0.2064320789","0.1239984651","","","","","","","","74","J","1","","","243","main_expt"
"","bandit","323","1153178","0.0-284.0-0.0","67987676","wem/bandit_either_2","A81J8KZ80P13V","either","7","440","","","","","","","0","0","1","0.4525763452","","0.6","0.8","0.4","0.2","","","","","0.3452717574","0.4525763452","0.2205496082","0.1126152289","","","","","","","","74","J","1","","","244","main_expt"
"","bandit","324","1155074","0.0-285.0-0.0","67987676","wem/bandit_either_2","A81J8KZ80P13V","either","7","197","","","","","","","0","0","1","","0.1524829061","0.6","0.8","0.4","0.2","0.3162288444","0.4753838692","0.214276823","0.1524829061","","","","","","","","","","","","76","L","3","","","245","main_expt"
"","bandit","325","1157120","0.0-286.0-0.0","67987676","wem/bandit_either_2","A81J8KZ80P13V","either","7","445","","","","","","","1","0","0","0.2084567316","","0.6","0.8","0.4","0.2","","","","","0.2894596967","0.4623654582","0.2084567316","0.1921750243","","","","","","","","75","K","2","","","246","main_expt"
"","bandit","326","1159867","0.0-287.0-0.0","67987676","wem/bandit_either_2","A81J8KZ80P13V","either","7","1071","","","","","","","0","0","1","","0.2232303491","0.6","0.8","0.4","0.2","0.2642296388","0.4331165165","0.2232303491","0.1931065189","","","","","","","","","","","","75","K","2","","","247","main_expt"
