"consent","trial_type","trial_index","time_elapsed","internal_node_id","subjID","study","MID","cond","drift","rt","responses","key_press","expt_phase","like","value","connected","gems","bombs","no_reward","GemPrChosen","BombPrChosen","GainOverPainPr_0","GainOverPainPr_1","GainOverPainPr_2","GainOverPainPr_3","LosePr_0","LosePr_1","LosePr_2","LosePr_3","WinPr_0","WinPr_1","WinPr_2","WinPr_3","Q0","Q1","Q2","gender","age","ethnicity","target","respCharCode","respKey","respChoiceNum","respChoice","practice","trial_counter","trial_label"
"INL_behavioral_consent_30min_online.html","consent","0","10440","0.0-0.0","72291274","wem/bandit_either_2","A38IMMFKB2JJQK","either","8","","","","","","","","","","","","","","","","","","","","","","","","","","","","","","","","","","","","","",""
"","survey-text","1","17062","0.0-1.0","72291274","wem/bandit_either_2","A38IMMFKB2JJQK","either","8","5515","{""Q0"":""A38IMMFKB2JJQK""}","","","","","","","","","","","","","","","","","","","","","","","","","","","","","","","","","","","",""
"","text","2","30489","0.0-2.0","72291274","wem/bandit_either_2","A38IMMFKB2JJQK","either","8","12333","","32","","","","","","","","","","","","","","","","","","","","","","","","","","","","","","","","","","",""
"","text","3","36946","0.0-3.0","72291274","wem/bandit_either_2","A38IMMFKB2JJQK","either","8","6453","","32","","","","","","","","","","","","","","","","","","","","","","","","","","","","","","","","","","",""
"","text","4","50226","0.0-4.0","72291274","wem/bandit_either_2","A38IMMFKB2JJQK","either","8","13276","","32","","","","","","","","","","","","","","","","","","","","","","","","","","","","","","","","","","",""
"","text","5","56526","0.0-5.0","72291274","wem/bandit_either_2","A38IMMFKB2JJQK","either","8","6295","","32","","","","","","","","","","","","","","","","","","","","","","","","","","","","","","","","","","",""
"","text","6","72643","0.0-6.0","72291274","wem/bandit_either_2","A38IMMFKB2JJQK","either","8","16112","","32","","","","","","","","","","","","","","","","","","","","","","","","","","","","","","","","","","",""
"","text","7","81182","0.0-7.0","72291274","wem/bandit_either_2","A38IMMFKB2JJQK","either","8","8533","","32","","","","","","","","","","","","","","","","","","","","","","","","","","","","","","","","","","",""
"","text","8","86799","0.0-8.0","72291274","wem/bandit_either_2","A38IMMFKB2JJQK","either","8","5611","","32","","","","","","","","","","","","","","","","","","","","","","","","","","","","","","","","","","",""
"","identification","9","99202","0.0-9.0-0.0","72291274","wem/bandit_either_2","A38IMMFKB2JJQK","either","8","12353","","","","3","4","3","","","","","","","","","","","","","","","","","","","","","","","","the village of Zur","","","","","","",""
"","identification","10","108113","0.0-9.0-1.0","72291274","wem/bandit_either_2","A38IMMFKB2JJQK","either","8","7796","","","","3","4","3","","","","","","","","","","","","","","","","","","","","","","","","the village of Nyx","","","","","","",""
"","text","11","113743","0.0-10.0","72291274","wem/bandit_either_2","A38IMMFKB2JJQK","either","8","3803","","32","","","","","","","","","","","","","","","","","","","","","","","","","","","","","","","","","","",""
"","text","12","118542","0.0-11.0","72291274","wem/bandit_either_2","A38IMMFKB2JJQK","either","8","4793","","32","","","","","","","","","","","","","","","","","","","","","","","","","","","","","","","","","","",""
"","text","13","122503","0.0-12.0","72291274","wem/bandit_either_2","A38IMMFKB2JJQK","either","8","3956","","32","","","","","","","","","","","","","","","","","","","","","","","","","","","","","","","","","","",""
"","text","14","126126","0.0-13.0","72291274","wem/bandit_either_2","A38IMMFKB2JJQK","either","8","3618","","32","","","","","","","","","","","","","","","","","","","","","","","","","","","","","","","","","","",""
"","bandit","15","131876","0.0-14.0-0.0","72291274","wem/bandit_either_2","A38IMMFKB2JJQK","either","8","4047","","","","","","","0","0","1","0","0","","","","","0","","","","0","","","","","","","","","","","74","J","0","img/none_selected_demo.jpg","true","0",""
"","bandit","16","137178","0.0-15.0-0.0","72291274","wem/bandit_either_2","A38IMMFKB2JJQK","either","8","1808","","","","","","","0","0","1","0","0","","","","","0","","","","0","","","","","","","","","","","75","K","0","img/none_selected_demo.jpg","true","0",""
"","text","17","143416","0.0-16.0","72291274","wem/bandit_either_2","A38IMMFKB2JJQK","either","8","6229","","32","","","","","","","","","","","","","","","","","","","","","","","","","","","","","","","","","","",""
"","text","18","152228","0.0-17.0","72291274","wem/bandit_either_2","A38IMMFKB2JJQK","either","8","8805","","32","","","","","","","","","","","","","","","","","","","","","","","","","","","","","","","","","","",""
"","text","19","157130","0.0-18.0","72291274","wem/bandit_either_2","A38IMMFKB2JJQK","either","8","4891","","32","","","","","","","","","","","","","","","","","","","","","","","","","","","","","","","","","","",""
"","text","20","160863","0.0-19.0","72291274","wem/bandit_either_2","A38IMMFKB2JJQK","either","8","3728","","32","","","","","","","","","","","","","","","","","","","","","","","","","","","","","","","","","","",""
"","bandit","21","165689","0.0-20.0-0.0","72291274","wem/bandit_either_2","A38IMMFKB2JJQK","either","8","3165","","","","","","","0","1","0","","0.8","0.5","0.5","","","0.8","0.2","","","","","","","","","","","","","","74","J","0","img/none_selected_demo.jpg","true","0","80_20_practice"
"","bandit","22","172107","0.0-20.0-1.0","72291274","wem/bandit_either_2","A38IMMFKB2JJQK","either","8","4836","","","","","","","0","0","1","0.2","","0.5","0.5","","","","","","","0.8","0.2","","","","","","","","","","75","K","1","","true","0","80_20_practice"
"","bandit","23","177437","0.0-20.0-2.0","72291274","wem/bandit_either_2","A38IMMFKB2JJQK","either","8","3608","","","","","","","1","0","0","0.8","","0.5","0.5","","","","","","","0.8","0.2","","","","","","","","","","74","J","0","img/none_selected_demo.jpg","true","0","80_20_practice"
"","bandit","24","180827","0.0-20.0-3.0","72291274","wem/bandit_either_2","A38IMMFKB2JJQK","either","8","1453","","","","","","","1","0","0","0.8","","0.5","0.5","","","","","","","0.8","0.2","","","","","","","","","","74","J","0","img/none_selected_demo.jpg","true","0","80_20_practice"
"","bandit","25","183681","0.0-20.0-4.0","72291274","wem/bandit_either_2","A38IMMFKB2JJQK","either","8","1086","","","","","","","0","1","0","","0.8","0.5","0.5","","","0.8","0.2","","","","","","","","","","","","","","74","J","0","img/none_selected_demo.jpg","true","0","80_20_practice"
"","bandit","26","187012","0.0-20.0-5.0","72291274","wem/bandit_either_2","A38IMMFKB2JJQK","either","8","1611","","","","","","","0","1","0","","0.8","0.5","0.5","","","0.8","0.2","","","","","","","","","","","","","","74","J","0","img/none_selected_demo.jpg","true","0","80_20_practice"
"","bandit","27","189917","0.0-20.0-6.0","72291274","wem/bandit_either_2","A38IMMFKB2JJQK","either","8","1258","","","","","","","0","0","1","","0.2","0.5","0.5","","","0.8","0.2","","","","","","","","","","","","","","75","K","1","","true","0","80_20_practice"
"","bandit","28","192297","0.0-20.0-7.0","72291274","wem/bandit_either_2","A38IMMFKB2JJQK","either","8","736","","","","","","","0","0","1","0.2","","0.5","0.5","","","","","","","0.8","0.2","","","","","","","","","","75","K","1","","true","0","80_20_practice"
"","bandit","29","195413","0.0-20.0-8.0","72291274","wem/bandit_either_2","A38IMMFKB2JJQK","either","8","793","","","","","","","0","0","1","0.2","","0.5","0.5","","","","","","","0.8","0.2","","","","","","","","","","75","K","1","","true","0","80_20_practice"
"","bandit","30","198825","0.0-20.0-9.0","72291274","wem/bandit_either_2","A38IMMFKB2JJQK","either","8","1511","","","","","","","1","0","0","0.8","","0.5","0.5","","","","","","","0.8","0.2","","","","","","","","","","74","J","0","img/none_selected_demo.jpg","true","0","80_20_practice"
"","bandit","31","203480","0.0-20.0-10.0","72291274","wem/bandit_either_2","A38IMMFKB2JJQK","either","8","2718","","","","","","","0","0","1","0.2","","0.5","0.5","","","","","","","0.8","0.2","","","","","","","","","","75","K","1","","true","0","80_20_practice"
"","bandit","32","205995","0.0-20.0-11.0","72291274","wem/bandit_either_2","A38IMMFKB2JJQK","either","8","904","","","","","","","1","0","0","0.8","","0.5","0.5","","","","","","","0.8","0.2","","","","","","","","","","74","J","0","img/none_selected_demo.jpg","true","0","80_20_practice"
"","bandit","33","209122","0.0-20.0-12.0","72291274","wem/bandit_either_2","A38IMMFKB2JJQK","either","8","1427","","","","","","","1","0","0","0.8","","0.5","0.5","","","","","","","0.8","0.2","","","","","","","","","","74","J","0","img/none_selected_demo.jpg","true","0","80_20_practice"
"","bandit","34","214186","0.0-20.0-13.0","72291274","wem/bandit_either_2","A38IMMFKB2JJQK","either","8","2286","","","","","","","1","0","0","0.8","","0.5","0.5","","","","","","","0.8","0.2","","","","","","","","","","74","J","0","img/none_selected_demo.jpg","true","0","80_20_practice"
"","bandit","35","216501","0.0-20.0-14.0","72291274","wem/bandit_either_2","A38IMMFKB2JJQK","either","8","695","","","","","","","1","0","0","0.8","","0.5","0.5","","","","","","","0.8","0.2","","","","","","","","","","74","J","0","img/none_selected_demo.jpg","true","0","80_20_practice"
"","bandit","36","219214","0.0-20.0-15.0","72291274","wem/bandit_either_2","A38IMMFKB2JJQK","either","8","910","","","","","","","0","0","1","0.8","","0.5","0.5","","","","","","","0.8","0.2","","","","","","","","","","74","J","0","img/none_selected_demo.jpg","true","0","80_20_practice"
"","bandit","37","222407","0.0-20.0-16.0","72291274","wem/bandit_either_2","A38IMMFKB2JJQK","either","8","1631","","","","","","","0","1","0","","0.8","0.5","0.5","","","0.8","0.2","","","","","","","","","","","","","","74","J","0","img/none_selected_demo.jpg","true","0","80_20_practice"
"","bandit","38","226015","0.0-20.0-17.0","72291274","wem/bandit_either_2","A38IMMFKB2JJQK","either","8","2001","","","","","","","1","0","0","0.8","","0.5","0.5","","","","","","","0.8","0.2","","","","","","","","","","74","J","0","img/none_selected_demo.jpg","true","0","80_20_practice"
"","bandit","39","228335","0.0-20.0-18.0","72291274","wem/bandit_either_2","A38IMMFKB2JJQK","either","8","782","","","","","","","0","0","1","","0.8","0.5","0.5","","","0.8","0.2","","","","","","","","","","","","","","74","J","0","img/none_selected_demo.jpg","true","0","80_20_practice"
"","bandit","40","230880","0.0-20.0-19.0","72291274","wem/bandit_either_2","A38IMMFKB2JJQK","either","8","1017","","","","","","","0","1","0","","0.8","0.5","0.5","","","0.8","0.2","","","","","","","","","","","","","","74","J","0","img/none_selected_demo.jpg","true","0","80_20_practice"
"","text","41","237837","0.0-21.0","72291274","wem/bandit_either_2","A38IMMFKB2JJQK","either","8","6948","","32","","","","","","","","","","","","","","","","","","","","","","","","","","","","","","","","","","",""
"","bandit","42","240543","0.0-22.0-0.0","72291274","wem/bandit_either_2","A38IMMFKB2JJQK","either","8","1170","","","","","","","1","0","0","1","0","","","","","0","1","","","1","0","","","","","","","","","","74","J","0","img/none_selected_demo.jpg","true","0",""
"","text","43","245581","0.0-23.0","72291274","wem/bandit_either_2","A38IMMFKB2JJQK","either","8","5032","","32","","","","","","","","","","","","","","","","","","","","","","","","","","","","","","","","","","",""
"","text","44","249974","0.0-24.0","72291274","wem/bandit_either_2","A38IMMFKB2JJQK","either","8","4386","","32","","","","","","","","","","","","","","","","","","","","","","","","","","","","","","","","","","",""
"","text","45","254304","0.0-25.0","72291274","wem/bandit_either_2","A38IMMFKB2JJQK","either","8","4324","","32","","","","","","","","","","","","","","","","","","","","","","","","","","","","","","","","","","",""
"","text","46","260301","0.0-26.0","72291274","wem/bandit_either_2","A38IMMFKB2JJQK","either","8","5988","","32","","","","","","","","","","","","","","","","","","","","","","","","","","","","","","","","","","",""
"","text","47","268575","0.0-27.0","72291274","wem/bandit_either_2","A38IMMFKB2JJQK","either","8","8264","","32","","","","","","","","","","","","","","","","","","","","","","","","","","","","","","","","","","",""
"","text","48","273047","0.0-28.0","72291274","wem/bandit_either_2","A38IMMFKB2JJQK","either","8","4465","","32","","","","","","","","","","","","","","","","","","","","","","","","","","","","","","","","","","",""
"","text","49","278404","0.0-29.0","72291274","wem/bandit_either_2","A38IMMFKB2JJQK","either","8","5338","","32","","","","","","","","","","","","","","","","","","","","","","","","","","","","","","","","","","",""
"","text","50","283861","0.0-30.0","72291274","wem/bandit_either_2","A38IMMFKB2JJQK","either","8","5450","","32","","","","","","","","","","","","","","","","","","","","","","","","","","","","","","","","","","",""
"","text","51","287021","0.0-31.0","72291274","wem/bandit_either_2","A38IMMFKB2JJQK","either","8","3150","","32","","","","","","","","","","","","","","","","","","","","","","","","","","","","","","","","","","",""
"","text","52","289929","0.0-32.0","72291274","wem/bandit_either_2","A38IMMFKB2JJQK","either","8","2899","","32","","","","","","","","","","","","","","","","","","","","","","","","","","","","","","","","","","",""
"","text","53","296509","0.0-33.0","72291274","wem/bandit_either_2","A38IMMFKB2JJQK","either","8","6573","","32","","","","","","","","","","","","","","","","","","","","","","","","","","","","","","","","","","",""
"","bandit","54","300824","0.0-34.0-0.0","72291274","wem/bandit_either_2","A38IMMFKB2JJQK","either","8","1509","","","","","","","0","0","1","0.2","","0.5","0.5","0.5","0.5","","","","","0.8","0.2","0.6","0.2","","","","","","","","74","J","1","","true","0","full_practice"
"","bandit","55","304569","0.0-34.0-1.0","72291274","wem/bandit_either_2","A38IMMFKB2JJQK","either","8","2186","","","","","","","0","0","1","0.2","","0.5","0.5","0.5","0.5","","","","","0.8","0.2","0.6","0.2","","","","","","","","74","J","1","","true","0","full_practice"
"","bandit","56","307735","0.0-34.0-2.0","72291274","wem/bandit_either_2","A38IMMFKB2JJQK","either","8","1497","","","","","","","0","0","1","","0.8","0.5","0.5","0.5","0.5","0.8","0.2","0.6","0.2","","","","","","","","","","","","72","H","0","img/none_selected.jpg","true","0","full_practice"
"","bandit","57","310497","0.0-34.0-3.0","72291274","wem/bandit_either_2","A38IMMFKB2JJQK","either","8","1016","","","","","","","0","0","1","0.2","","0.5","0.5","0.5","0.5","","","","","0.8","0.2","0.6","0.2","","","","","","","","76","L","3","","true","0","full_practice"
"","bandit","58","315469","0.0-34.0-4.0","72291274","wem/bandit_either_2","A38IMMFKB2JJQK","either","8","1345","","","","","","","0","0","1","0.6","","0.5","0.5","0.5","0.5","","","","","0.8","0.2","0.6","0.2","","","","","","","","75","K","2","","true","0","full_practice"
"","bandit","59","319240","0.0-34.0-5.0","72291274","wem/bandit_either_2","A38IMMFKB2JJQK","either","8","1501","","","","","","","0","1","0","","0.8","0.5","0.5","0.5","0.5","0.8","0.2","0.6","0.2","","","","","","","","","","","","72","H","0","img/none_selected.jpg","true","0","full_practice"
"","bandit","60","321738","0.0-34.0-6.0","72291274","wem/bandit_either_2","A38IMMFKB2JJQK","either","8","820","","","","","","","0","0","1","0.2","","0.5","0.5","0.5","0.5","","","","","0.8","0.2","0.6","0.2","","","","","","","","74","J","1","","true","0","full_practice"
"","bandit","61","323932","0.0-34.0-7.0","72291274","wem/bandit_either_2","A38IMMFKB2JJQK","either","8","658","","","","","","","1","0","0","0.2","","0.5","0.5","0.5","0.5","","","","","0.8","0.2","0.6","0.2","","","","","","","","74","J","1","","true","0","full_practice"
"","bandit","62","328393","0.0-34.0-8.0","72291274","wem/bandit_either_2","A38IMMFKB2JJQK","either","8","1157","","","","","","","1","0","0","0.2","","0.5","0.5","0.5","0.5","","","","","0.8","0.2","0.6","0.2","","","","","","","","74","J","1","","true","0","full_practice"
"","bandit","63","331223","0.0-34.0-9.0","72291274","wem/bandit_either_2","A38IMMFKB2JJQK","either","8","1281","","","","","","","0","0","1","","0.2","0.5","0.5","0.5","0.5","0.8","0.2","0.6","0.2","","","","","","","","","","","","74","J","1","","true","0","full_practice"
"","bandit","64","333731","0.0-34.0-10.0","72291274","wem/bandit_either_2","A38IMMFKB2JJQK","either","8","945","","","","","","","0","0","1","","0.2","0.5","0.5","0.5","0.5","0.8","0.2","0.6","0.2","","","","","","","","","","","","74","J","1","","true","0","full_practice"
"","bandit","65","337708","0.0-34.0-11.0","72291274","wem/bandit_either_2","A38IMMFKB2JJQK","either","8","1611","","","","","","","0","0","1","","0.2","0.5","0.5","0.5","0.5","0.8","0.2","0.6","0.2","","","","","","","","","","","","74","J","1","","true","0","full_practice"
"","bandit","66","340952","0.0-34.0-12.0","72291274","wem/bandit_either_2","A38IMMFKB2JJQK","either","8","1591","","","","","","","0","0","1","0.2","","0.5","0.5","0.5","0.5","","","","","0.8","0.2","0.6","0.2","","","","","","","","76","L","3","","true","0","full_practice"
"","bandit","67","343603","0.0-34.0-13.0","72291274","wem/bandit_either_2","A38IMMFKB2JJQK","either","8","1034","","","","","","","1","0","0","0.6","","0.5","0.5","0.5","0.5","","","","","0.8","0.2","0.6","0.2","","","","","","","","75","K","2","","true","0","full_practice"
"","bandit","68","346386","0.0-34.0-14.0","72291274","wem/bandit_either_2","A38IMMFKB2JJQK","either","8","1128","","","","","","","0","0","1","","0.6","0.5","0.5","0.5","0.5","0.8","0.2","0.6","0.2","","","","","","","","","","","","75","K","2","","true","0","full_practice"
"","bandit","69","350131","0.0-34.0-15.0","72291274","wem/bandit_either_2","A38IMMFKB2JJQK","either","8","747","","","","","","","1","0","0","0.6","","0.5","0.5","0.5","0.5","","","","","0.8","0.2","0.6","0.2","","","","","","","","75","K","2","","true","0","full_practice"
"","bandit","70","353667","0.0-34.0-16.0","72291274","wem/bandit_either_2","A38IMMFKB2JJQK","either","8","1107","","","","","","","1","0","0","0.6","","0.5","0.5","0.5","0.5","","","","","0.8","0.2","0.6","0.2","","","","","","","","75","K","2","","true","0","full_practice"
"","bandit","71","355956","0.0-34.0-17.0","72291274","wem/bandit_either_2","A38IMMFKB2JJQK","either","8","698","","","","","","","0","1","0","","0.6","0.5","0.5","0.5","0.5","0.8","0.2","0.6","0.2","","","","","","","","","","","","75","K","2","","true","0","full_practice"
"","bandit","72","358320","0.0-34.0-18.0","72291274","wem/bandit_either_2","A38IMMFKB2JJQK","either","8","743","","","","","","","0","1","0","","0.6","0.5","0.5","0.5","0.5","0.8","0.2","0.6","0.2","","","","","","","","","","","","75","K","2","","true","0","full_practice"
"","bandit","73","361210","0.0-34.0-19.0","72291274","wem/bandit_either_2","A38IMMFKB2JJQK","either","8","916","","","","","","","1","0","0","0.6","","0.5","0.5","0.5","0.5","","","","","0.8","0.2","0.6","0.2","","","","","","","","75","K","2","","true","0","full_practice"
"","text","74","366115","0.0-35.0","72291274","wem/bandit_either_2","A38IMMFKB2JJQK","either","8","4882","","32","","","","","","","","","","","","","","","","","","","","","","","","","","","","","","","","","","",""
"","text","75","375935","0.0-36.0","72291274","wem/bandit_either_2","A38IMMFKB2JJQK","either","8","8785","","32","","","","","","","","","","","","","","","","","","","","","","","","","","","","","","","","","","",""
"","text","76","390318","0.0-37.0","72291274","wem/bandit_either_2","A38IMMFKB2JJQK","either","8","14372","","32","","","","","","","","","","","","","","","","","","","","","","","","","","","","","","","","","","",""
"","text","77","394861","0.0-38.0","72291274","wem/bandit_either_2","A38IMMFKB2JJQK","either","8","4532","","32","","","","","","","","","","","","","","","","","","","","","","","","","","","","","","","","","","",""
"","text","78","398927","0.0-39.0","72291274","wem/bandit_either_2","A38IMMFKB2JJQK","either","8","4054","","32","","","","","","","","","","","","","","","","","","","","","","","","","","","","","","","","","","",""
"","text","79","401790","0.0-40.0","72291274","wem/bandit_either_2","A38IMMFKB2JJQK","either","8","2854","","32","","","","","","","","","","","","","","","","","","","","","","","","","","","","","","","","","","",""
"","bandit","80","408290","0.0-41.0-0.0","72291274","wem/bandit_either_2","A38IMMFKB2JJQK","either","8","4686","","","","","","","0","1","0","","0.3540548627","0.4","0.8","0.2","0.6","0.1351790469","0.2928194041","0.3540548627","0.2637293772","","","","","","","","","","","","75","K","2","","","1","main_expt"
"","bandit","81","411630","0.0-42.0-0.0","72291274","wem/bandit_either_2","A38IMMFKB2JJQK","either","8","1524","","","","","","","0","0","1","","0.3812516843","0.4","0.8","0.2","0.6","0.125602744","0.3040419902","0.3812516843","0.2760013096","","","","","","","","","","","","75","K","2","","","2","main_expt"
"","bandit","82","415718","0.0-43.0-0.0","72291274","wem/bandit_either_2","A38IMMFKB2JJQK","either","8","1479","","","","","","","1","0","0","0.2875251023","","0.4","0.8","0.2","0.6","","","","","0.09574082279","0.2875251023","0.3901316494","0.3240499928","","","","","","","","74","J","1","","","3","main_expt"
"","bandit","83","419794","0.0-44.0-0.0","72291274","wem/bandit_either_2","A38IMMFKB2JJQK","either","8","2427","","","","","","","0","0","1","","0.2965567903","0.4","0.8","0.2","0.6","0.0913382225","0.2965567903","0.3945399471","0.3510822359","","","","","","","","","","","","74","J","1","","","4","main_expt"
"","bandit","84","422545","0.0-45.0-0.0","72291274","wem/bandit_either_2","A38IMMFKB2JJQK","either","8","1016","","","","","","","0","0","1","0.2681113314","","0.4","0.8","0.2","0.6","","","","","0.106177601","0.2681113314","0.3997977613","0.3522827721","","","","","","","","74","J","1","","","5","main_expt"
"","bandit","85","427375","0.0-46.0-0.0","72291274","wem/bandit_either_2","A38IMMFKB2JJQK","either","8","2222","","","","","","","0","0","1","","0.08998955495","0.4","0.8","0.2","0.6","0.08998955495","0.2330443498","0.390783501","0.382674005","","","","","","","","","","","","72","H","0","img/none_selected.jpg","","6","main_expt"
"","bandit","86","432166","0.0-47.0-0.0","72291274","wem/bandit_either_2","A38IMMFKB2JJQK","either","8","3132","","","","","","","0","0","1","0.3998463606","","0.4","0.8","0.2","0.6","","","","","0.1077526668","0.1630509172","0.3305693427","0.3998463606","","","","","","","","76","L","3","","","7","main_expt"
"","bandit","87","436105","0.0-48.0-0.0","72291274","wem/bandit_either_2","A38IMMFKB2JJQK","either","8","2391","","","","","","","1","0","0","0.2002468685","","0.4","0.8","0.2","0.6","","","","","0.1243697388","0.2002468685","0.3056545716","0.3832029687","","","","","","","","74","J","1","","","8","main_expt"
"","bandit","88","441015","0.0-49.0-0.0","72291274","wem/bandit_either_2","A38IMMFKB2JJQK","either","8","3114","","","","","","","0","0","1","0.1835034381","","0.4","0.8","0.2","0.6","","","","","0.1698108096","0.1835034381","0.3278889804","0.3796681134","","","","","","","","74","J","1","","","9","main_expt"
"","bandit","89","444706","0.0-50.0-0.0","72291274","wem/bandit_either_2","A38IMMFKB2JJQK","either","8","2056","","","","","","","0","0","1","0.1939723001","","0.4","0.8","0.2","0.6","","","","","0.221757114","0.1939723001","0.3137855556","0.3614311416","","","","","","","","74","J","1","","","10","main_expt"
"","bandit","90","447609","0.0-51.0-0.0","72291274","wem/bandit_either_2","A38IMMFKB2JJQK","either","8","1100","","","","","","","0","0","1","","0.3253079181","0.4","0.8","0.2","0.6","0.1961062924","0.1949806013","0.3253079181","0.3938737051","","","","","","","","","","","","75","K","2","","","11","main_expt"
"","bandit","91","453005","0.0-52.0-0.0","72291274","wem/bandit_either_2","A38IMMFKB2JJQK","either","8","1849","","","","","","","0","0","1","0.3810544723","","0.4","0.8","0.2","0.6","","","","","0.1907056259","0.2587943474","0.3298150516","0.3810544723","","","","","","","","76","L","3","","","12","main_expt"
"","bandit","92","456483","0.0-53.0-0.0","72291274","wem/bandit_either_2","A38IMMFKB2JJQK","either","8","1758","","","","","","","0","1","0","","0.2162865666","0.4","0.8","0.2","0.6","0.2162865666","0.3085985727","0.3673307406","0.3707046684","","","","","","","","","","","","72","H","0","img/none_selected.jpg","","13","main_expt"
"","bandit","93","458679","0.0-54.0-0.0","72291274","wem/bandit_either_2","A38IMMFKB2JJQK","either","8","611","","","","","","","0","0","1","0.2464992766","","0.4","0.8","0.2","0.6","","","","","0.2399362825","0.2464992766","0.3679224674","0.3486531997","","","","","","","","74","J","1","","","14","main_expt"
"","bandit","94","462468","0.0-55.0-0.0","72291274","wem/bandit_either_2","A38IMMFKB2JJQK","either","8","1520","","","","","","","0","0","1","0.3062507314","","0.4","0.8","0.2","0.6","","","","","0.1986859052","0.2474611475","0.3062507314","0.3263578384","","","","","","","","75","K","2","","","15","main_expt"
"","bandit","95","466314","0.0-56.0-0.0","72291274","wem/bandit_either_2","A38IMMFKB2JJQK","either","8","2306","","","","","","","1","0","0","0.2835538477","","0.4","0.8","0.2","0.6","","","","","0.1865641621","0.2835538477","0.2892976033","0.3514189979","","","","","","","","74","J","1","","","16","main_expt"
"","bandit","96","470444","0.0-57.0-0.0","72291274","wem/bandit_either_2","A38IMMFKB2JJQK","either","8","2594","","","","","","","0","0","1","0.3256112075","","0.4","0.8","0.2","0.6","","","","","0.2035525071","0.3256112075","0.2861796528","0.3532592314","","","","","","","","74","J","1","","","17","main_expt"
"","bandit","97","473096","0.0-58.0-0.0","72291274","wem/bandit_either_2","A38IMMFKB2JJQK","either","8","972","","","","","","","0","0","1","0.3858608091","","0.4","0.8","0.2","0.6","","","","","0.2039336531","0.3802227677","0.2958570682","0.3858608091","","","","","","","","76","L","3","","","18","main_expt"
"","bandit","98","478286","0.0-59.0-0.0","72291274","wem/bandit_either_2","A38IMMFKB2JJQK","either","8","2441","","","","","","","0","1","0","","0.360566968","0.4","0.8","0.2","0.6","0.1598579642","0.360566968","0.3353028819","0.3837638756","","","","","","","","","","","","74","J","1","","","19","main_expt"
"","bandit","99","482313","0.0-60.0-0.0","72291274","wem/bandit_either_2","A38IMMFKB2JJQK","either","8","2422","","","","","","","0","0","1","0.3696799013","","0.4","0.8","0.2","0.6","","","","","0.1437622327","0.3696799013","0.3139704528","0.2872100501","","","","","","","","74","J","1","","","20","main_expt"
"","bandit","100","485366","0.0-61.0-0.0","72291274","wem/bandit_either_2","A38IMMFKB2JJQK","either","8","1317","","","","","","","0","0","1","0.07974703335","","0.4","0.8","0.2","0.6","","","","","0.07974703335","0.4006907501","0.2524707143","0.2975414498","","","","","","","","72","H","0","img/none_selected.jpg","","21","main_expt"
"","bandit","101","489873","0.0-62.0-0.0","72291274","wem/bandit_either_2","A38IMMFKB2JJQK","either","8","1304","","","","","","","0","0","1","","0.248326021","0.4","0.8","0.2","0.6","0.1361132429","0.4081217326","0.248326021","0.2741965999","","","","","","","","","","","","75","K","2","","","22","main_expt"
"","bandit","102","493534","0.0-63.0-0.0","72291274","wem/bandit_either_2","A38IMMFKB2JJQK","either","8","1632","","","","","","","1","0","0","0.3740207531","","0.4","0.8","0.2","0.6","","","","","0.1705973249","0.3740207531","0.2937153481","0.2379064449","","","","","","","","74","J","1","","","23","main_expt"
"","bandit","103","497275","0.0-64.0-0.0","72291274","wem/bandit_either_2","A38IMMFKB2JJQK","either","8","2107","","","","","","","0","0","1","0.3913756451","","0.4","0.8","0.2","0.6","","","","","0.1392759225","0.3913756451","0.2625315469","0.2078598572","","","","","","","","74","J","1","","","24","main_expt"
"","bandit","104","499510","0.0-65.0-0.0","72291274","wem/bandit_either_2","A38IMMFKB2JJQK","either","8","690","","","","","","","0","0","1","","0.2405651368","0.4","0.8","0.2","0.6","0.1800538527","0.4100905738","0.2405651368","0.2764850733","","","","","","","","","","","","75","K","2","","","25","main_expt"
"","bandit","105","504838","0.0-66.0-0.0","72291274","wem/bandit_either_2","A38IMMFKB2JJQK","either","8","3290","","","","","","","0","0","1","0.3600668969","","0.4","0.8","0.2","0.6","","","","","0.2146400533","0.3600668969","0.2503350336","0.3080191348","","","","","","","","74","J","1","","","26","main_expt"
"","bandit","106","508083","0.0-67.0-0.0","72291274","wem/bandit_either_2","A38IMMFKB2JJQK","either","8","1526","","","","","","","0","0","1","","0.1948367851","0.4","0.8","0.2","0.6","0.1948367851","0.3703096079","0.354091838","0.3606197488","","","","","","","","","","","","72","H","0","img/none_selected.jpg","","27","main_expt"
"","bandit","107","511039","0.0-68.0-0.0","72291274","wem/bandit_either_2","A38IMMFKB2JJQK","either","8","1082","","","","","","","1","0","0","0.3696097963","","0.4","0.8","0.2","0.6","","","","","0.2282666016","0.3527269899","0.3419366675","0.3696097963","","","","","","","","76","L","3","","","28","main_expt"
"","bandit","108","516374","0.0-69.0-0.0","72291274","wem/bandit_either_2","A38IMMFKB2JJQK","either","8","2560","","","","","","","1","0","0","0.3434444954","","0.4","0.8","0.2","0.6","","","","","0.1842618798","0.2854860911","0.361896517","0.3434444954","","","","","","","","76","L","3","","","29","main_expt"
"","bandit","109","520368","0.0-70.0-0.0","72291274","wem/bandit_either_2","A38IMMFKB2JJQK","either","8","2362","","","","","","","0","0","1","0.3528183973","","0.4","0.8","0.2","0.6","","","","","0.1930267653","0.2971434158","0.3701160785","0.3528183973","","","","","","","","76","L","3","","","30","main_expt"
"","bandit","110","523921","0.0-71.0-0.0","72291274","wem/bandit_either_2","A38IMMFKB2JJQK","either","8","1985","","","","","","","1","0","0","0.3192935598","","0.4","0.8","0.2","0.6","","","","","0.2279264959","0.3192935598","0.3602312343","0.3436926249","","","","","","","","74","J","1","","","31","main_expt"
"","bandit","111","529164","0.0-72.0-0.0","72291274","wem/bandit_either_2","A38IMMFKB2JJQK","either","8","3545","","","","","","","0","1","0","","0.2910845839","0.4","0.8","0.2","0.6","0.1922668126","0.2910845839","0.3550043818","0.3392376576","","","","","","","","","","","","74","J","1","","","32","main_expt"
"","bandit","112","533107","0.0-73.0-0.0","72291274","wem/bandit_either_2","A38IMMFKB2JJQK","either","8","2375","","","","","","","0","1","0","","0.3927862597","0.4","0.8","0.2","0.6","0.1503247695","0.2956883229","0.3927862597","0.2524106513","","","","","","","","","","","","75","K","2","","","33","main_expt"
"","bandit","113","535749","0.0-74.0-0.0","72291274","wem/bandit_either_2","A38IMMFKB2JJQK","either","8","1092","","","","","","","0","0","1","0.2918182698","","0.4","0.8","0.2","0.6","","","","","0.1875072744","0.2918182698","0.4185963197","0.2378308988","","","","","","","","74","J","1","","","34","main_expt"
"","bandit","114","541051","0.0-75.0-0.0","72291274","wem/bandit_either_2","A38IMMFKB2JJQK","either","8","2411","","","","","","","0","0","1","0.2683654211","","0.4","0.8","0.2","0.6","","","","","0.2135507624","0.3063909307","0.441983755","0.2683654211","","","","","","","","76","L","3","","","35","main_expt"
"","bandit","115","544873","0.0-76.0-0.0","72291274","wem/bandit_either_2","A38IMMFKB2JJQK","either","8","2214","","","","","","","0","0","1","0.2820805085","","0.4","0.8","0.2","0.6","","","","","0.2042402853","0.2820805085","0.4352827683","0.2645223933","","","","","","","","74","J","1","","","36","main_expt"
"","bandit","116","547917","0.0-77.0-0.0","72291274","wem/bandit_either_2","A38IMMFKB2JJQK","either","8","1330","","","","","","","0","0","1","0.450520142","","0.4","0.8","0.2","0.6","","","","","0.2024605481","0.2610370824","0.450520142","0.2360561858","","","","","","","","75","K","2","","","37","main_expt"
"","bandit","117","553120","0.0-78.0-0.0","72291274","wem/bandit_either_2","A38IMMFKB2JJQK","either","8","2357","","","","","","","1","0","0","0.2001865083","","0.4","0.8","0.2","0.6","","","","","0.1677713785","0.1896233007","0.4681224698","0.2001865083","","","","","","","","76","L","3","","","38","main_expt"
"","bandit","118","556433","0.0-79.0-0.0","72291274","wem/bandit_either_2","A38IMMFKB2JJQK","either","8","1764","","","","","","","0","0","1","","0.1687915361","0.4","0.8","0.2","0.6","0.221779122","0.168851025","0.4711022053","0.1687915361","","","","","","","","","","","","76","L","3","","","39","main_expt"
"","bandit","119","559304","0.0-80.0-0.0","72291274","wem/bandit_either_2","A38IMMFKB2JJQK","either","8","1058","","","","","","","0","0","1","0.1615787635","","0.4","0.8","0.2","0.6","","","","","0.2722397218","0.1615787635","0.4559447699","0.1503151413","","","","","","","","74","J","1","","","40","main_expt"
"","bandit","120","563771","0.0-81.0-0.0","72291274","wem/bandit_either_2","A38IMMFKB2JJQK","either","8","986","","","","","","","0","0","1","","0.4412687596","0.4","0.8","0.2","0.6","0.3298230943","0.1472326003","0.4412687596","0.08168262283","","","","","","","","","","","","75","K","2","","","41","main_expt"
"","bandit","121","566757","0.0-82.0-0.0","72291274","wem/bandit_either_2","A38IMMFKB2JJQK","either","8","1302","","","","","","","0","0","1","0.1533480506","","0.4","0.8","0.2","0.6","","","","","0.3104885444","0.1533480506","0.4457751761","0.07668629145","","","","","","","","74","J","1","","","42","main_expt"
"","bandit","122","569468","0.0-83.0-0.0","72291274","wem/bandit_either_2","A38IMMFKB2JJQK","either","8","1134","","","","","","","0","0","1","","0.07394587158","0.4","0.8","0.2","0.6","0.3005355489","0.1414351437","0.4298378352","0.07394587158","","","","","","","","","","","","76","L","3","","","43","main_expt"
"","bandit","123","572028","0.0-84.0-0.0","72291274","wem/bandit_either_2","A38IMMFKB2JJQK","either","8","1021","","","","","","","0","1","0","","0.2456242138","0.4","0.8","0.2","0.6","0.2456242138","0.1067646429","0.4416915379","0.1192337685","","","","","","","","","","","","72","H","0","img/none_selected.jpg","","44","main_expt"
"","bandit","124","576924","0.0-85.0-0.0","72291274","wem/bandit_either_2","A38IMMFKB2JJQK","either","8","3164","","","","","","","0","0","1","0.1250796286","","0.4","0.8","0.2","0.6","","","","","0.2839901561","0.1250796286","0.3915522423","0.1285724119","","","","","","","","74","J","1","","","45","main_expt"
"","bandit","125","580585","0.0-86.0-0.0","72291274","wem/bandit_either_2","A38IMMFKB2JJQK","either","8","2080","","","","","","","0","0","1","","0.4318427431","0.4","0.8","0.2","0.6","0.2353621531","0.1927264636","0.4318427431","0.1112684106","","","","","","","","","","","","75","K","2","","","46","main_expt"
"","bandit","126","583256","0.0-87.0-0.0","72291274","wem/bandit_either_2","A38IMMFKB2JJQK","either","8","996","","","","","","","0","0","1","0.1207340475","","0.4","0.8","0.2","0.6","","","","","0.2405257196","0.1804488412","0.4395998441","0.1207340475","","","","","","","","76","L","3","","","47","main_expt"
"","bandit","127","586341","0.0-88.0-0.0","72291274","wem/bandit_either_2","A38IMMFKB2JJQK","either","8","722","","","","","","","0","0","1","0.168268176","","0.4","0.8","0.2","0.6","","","","","0.2629408555","0.168268176","0.4630443269","0.1182533935","","","","","","","","74","J","1","","","48","main_expt"
"","bandit","128","589828","0.0-89.0-0.0","72291274","wem/bandit_either_2","A38IMMFKB2JJQK","either","8","1915","","","","","","","0","1","0","","0.4794982466","0.4","0.8","0.2","0.6","0.2902453213","0.1466838001","0.4794982466","0.1460801474","","","","","","","","","","","","75","K","2","","","49","main_expt"
"","bandit","129","592837","0.0-90.0-0.0","72291274","wem/bandit_either_2","A38IMMFKB2JJQK","either","8","1264","","","","","","","0","0","1","0.1336340117","","0.4","0.8","0.2","0.6","","","","","0.3033715012","0.1336340117","0.4562783041","0.1765155983","","","","","","","","74","J","1","","","50","main_expt"
"","bandit","130","595571","0.0-91.0-0.0","72291274","wem/bandit_either_2","A38IMMFKB2JJQK","either","8","1038","","","","","","","0","0","1","","0.1614266163","0.4","0.8","0.2","0.6","0.3536831403","0.1067821754","0.4515646323","0.1614266163","","","","","","","","","","","","76","L","3","","","51","main_expt"
"","bandit","131","599561","0.0-92.0-0.0","72291274","wem/bandit_either_2","A38IMMFKB2JJQK","either","8","2440","","","","","","","0","0","1","","0.3058792917","0.4","0.8","0.2","0.6","0.3058792917","0.07294577227","0.4344137529","0.1938643747","","","","","","","","","","","","72","H","0","img/none_selected.jpg","","52","main_expt"
"","bandit","132","602603","0.0-93.0-0.0","72291274","wem/bandit_either_2","A38IMMFKB2JJQK","either","8","1462","","","","","","","0","0","1","0.07676454597","","0.4","0.8","0.2","0.6","","","","","0.3466820038","0.07676454597","0.4421766306","0.1721886996","","","","","","","","74","J","1","","","53","main_expt"
"","bandit","133","605057","0.0-94.0-0.0","72291274","wem/bandit_either_2","A38IMMFKB2JJQK","either","8","922","","","","","","","1","0","0","0.4591875032","","0.4","0.8","0.2","0.6","","","","","0.3159173384","0.07707135067","0.4591875032","0.1542880765","","","","","","","","75","K","2","","","54","main_expt"
"","bandit","134","609954","0.0-95.0-0.0","72291274","wem/bandit_either_2","A38IMMFKB2JJQK","either","8","3369","","","","","","","0","0","1","0.2155598061","","0.4","0.8","0.2","0.6","","","","","0.3205246683","0.08227932488","0.4455250987","0.2155598061","","","","","","","","76","L","3","","","55","main_expt"
"","bandit","135","613620","0.0-96.0-0.0","72291274","wem/bandit_either_2","A38IMMFKB2JJQK","either","8","2032","","","","","","","0","0","1","","0.4200701886","0.4","0.8","0.2","0.6","0.3067659888","0.09013031375","0.4200701886","0.199350645","","","","","","","","","","","","75","K","2","","","56","main_expt"
"","bandit","136","616817","0.0-97.0-0.0","72291274","wem/bandit_either_2","A38IMMFKB2JJQK","either","8","1514","","","","","","","0","0","1","0.106866739","","0.4","0.8","0.2","0.6","","","","","0.3786279545","0.106866739","0.3635567377","0.1991981904","","","","","","","","74","J","1","","","57","main_expt"
"","bandit","137","619575","0.0-98.0-0.0","72291274","wem/bandit_either_2","A38IMMFKB2JJQK","either","8","1158","","","","","","","0","0","1","0.3647217687","","0.4","0.8","0.2","0.6","","","","","0.3796022377","0.0915584437","0.3647217687","0.1307276253","","","","","","","","75","K","2","","","58","main_expt"
"","bandit","138","623149","0.0-99.0-0.0","72291274","wem/bandit_either_2","A38IMMFKB2JJQK","either","8","1887","","","","","","","0","0","1","","0.3570845549","0.4","0.8","0.2","0.6","0.3570845549","0.1036540812","0.3975499765","0.1540949786","","","","","","","","","","","","72","H","0","img/none_selected.jpg","","59","main_expt"
"","bandit","139","625951","0.0-100.0-0.0","72291274","wem/bandit_either_2","A38IMMFKB2JJQK","either","8","1235","","","","","","","0","0","1","0.1187181044","","0.4","0.8","0.2","0.6","","","","","0.398525789","0.07948280662","0.376383165","0.1187181044","","","","","","","","76","L","3","","","60","main_expt"
"","bandit","140","629079","0.0-101.0-0.0","72291274","wem/bandit_either_2","A38IMMFKB2JJQK","either","8","1452","","","","","","","0","0","1","0.0685056185","","0.4","0.8","0.2","0.6","","","","","0.380986593","0.0685056185","0.3384437455","0.1734870435","","","","","","","","74","J","1","","","61","main_expt"
"","bandit","141","634128","0.0-102.0-0.0","72291274","wem/bandit_either_2","A38IMMFKB2JJQK","either","8","2143","","","","","","","0","1","0","","0.3086389155","0.4","0.8","0.2","0.6","0.3928002855","0.04196312691","0.3086389155","0.2056999461","","","","","","","","","","","","75","K","2","","","62","main_expt"
"","bandit","142","636752","0.0-103.0-0.0","72291274","wem/bandit_either_2","A38IMMFKB2JJQK","either","8","1085","","","","","","","0","0","1","0.06524357318","","0.4","0.8","0.2","0.6","","","","","0.4097838671","0.06524357318","0.3098998428","0.2421495796","","","","","","","","74","J","1","","","63","main_expt"
"","bandit","143","639029","0.0-104.0-0.0","72291274","wem/bandit_either_2","A38IMMFKB2JJQK","either","8","683","","","","","","","0","0","1","0.2678986655","","0.4","0.8","0.2","0.6","","","","","0.3942475769","0.04599317762","0.2859800092","0.2678986655","","","","","","","","76","L","3","","","64","main_expt"
"","bandit","144","642935","0.0-105.0-0.0","72291274","wem/bandit_either_2","A38IMMFKB2JJQK","either","8","1279","","","","","","","0","0","1","0.2780623804","","0.4","0.8","0.2","0.6","","","","","0.3756823908","0.04738713632","0.2780623804","0.2780805564","","","","","","","","75","K","2","","","65","main_expt"
"","bandit","145","646520","0.0-106.0-0.0","72291274","wem/bandit_either_2","A38IMMFKB2JJQK","either","8","1784","","","","","","","0","0","1","0.02873144913","","0.4","0.8","0.2","0.6","","","","","0.3780323226","0.02873144913","0.2740889186","0.2923516192","","","","","","","","74","J","1","","","66","main_expt"
"","bandit","146","659291","0.0-107.0-0.0","72291274","wem/bandit_either_2","A38IMMFKB2JJQK","either","8","3778","","","","","","","1","0","0","0.382091886","","0.4","0.8","0.2","0.6","","","","","0.382091886","0.0355516853","0.3122756929","0.3481747094","","","","","","","","72","H","0","img/none_selected.jpg","","67","main_expt"
"","bandit","147","663165","0.0-108.0-0.0","72291274","wem/bandit_either_2","A38IMMFKB2JJQK","either","8","2137","","","","","","","0","0","1","0.4080562953","","0.4","0.8","0.2","0.6","","","","","0.4080562953","0.04483006882","0.3004294993","0.3540590834","","","","","","","","72","H","0","img/none_selected.jpg","","68","main_expt"
"","bandit","148","665779","0.0-109.0-0.0","72291274","wem/bandit_either_2","A38IMMFKB2JJQK","either","8","867","","","","","","","0","0","1","","0.04300650393","0.4","0.8","0.2","0.6","0.419826639","0.04300650393","0.3312842332","0.3348318208","","","","","","","","","","","","74","J","1","","","69","main_expt"
"","bandit","149","668445","0.0-110.0-0.0","72291274","wem/bandit_either_2","A38IMMFKB2JJQK","either","8","692","","","","","","","0","0","1","","0.2362018798","0.4","0.8","0.2","0.6","0.3889643965","0.03960880855","0.2362018798","0.3844983113","","","","","","","","","","","","75","K","2","","","70","main_expt"
"","bandit","150","672394","0.0-111.0-0.0","72291274","wem/bandit_either_2","A38IMMFKB2JJQK","either","8","1538","","","","","","","0","0","1","0.3753843975","","0.4","0.8","0.2","0.6","","","","","0.3492343966","0.02401392238","0.1838323472","0.3753843975","","","","","","","","76","L","3","","","71","main_expt"
"","bandit","151","677097","0.0-112.0-0.0","72291274","wem/bandit_either_2","A38IMMFKB2JJQK","either","8","2886","","","","","","","0","0","1","0.008756159955","","0.4","0.8","0.2","0.6","","","","","0.3502155883","0.008756159955","0.1749810972","0.3861429343","","","","","","","","74","J","1","","","72","main_expt"
"","bandit","152","679988","0.0-113.0-0.0","72291274","wem/bandit_either_2","A38IMMFKB2JJQK","either","8","1284","","","","","","","0","0","1","0.1664097112","","0.4","0.8","0.2","0.6","","","","","0.3568691787","0.006257651783","0.1664097112","0.3978436086","","","","","","","","75","K","2","","","73","main_expt"
"","bandit","153","682838","0.0-114.0-0.0","72291274","wem/bandit_either_2","A38IMMFKB2JJQK","either","8","1272","","","","","","","0","0","1","0.3303653739","","0.4","0.8","0.2","0.6","","","","","0.3303653739","0.004732084297","0.2001176207","0.3847979518","","","","","","","","72","H","0","img/none_selected.jpg","","74","main_expt"
"","bandit","154","686162","0.0-115.0-0.0","72291274","wem/bandit_either_2","A38IMMFKB2JJQK","either","8","1137","","","","","","","0","0","1","0.006967558871","","0.4","0.8","0.2","0.6","","","","","0.3353283381","0.006967558871","0.1848717924","0.3974319157","","","","","","","","74","J","1","","","75","main_expt"
"","bandit","155","693808","0.0-116.0-0.0","72291274","wem/bandit_either_2","A38IMMFKB2JJQK","either","8","2567","","","","","","","0","0","1","0.3987985884","","0.4","0.8","0.2","0.6","","","","","0.3009524994","0.004525860487","0.1510178238","0.3987985884","","","","","","","","76","L","3","","","76","main_expt"
"","bandit","156","696033","0.0-117.0-0.0","72291274","wem/bandit_either_2","A38IMMFKB2JJQK","either","8","655","","","","","","","0","0","1","","0.2089633591","0.4","0.8","0.2","0.6","0.3316028908","0.007245535115","0.2089633591","0.4127312768","","","","","","","","","","","","75","K","2","","","77","main_expt"
"","bandit","157","698350","0.0-118.0-0.0","72291274","wem/bandit_either_2","A38IMMFKB2JJQK","either","8","762","","","","","","","0","0","1","0.00483057751","","0.4","0.8","0.2","0.6","","","","","0.3571024926","0.00483057751","0.2285147345","0.4257675477","","","","","","","","74","J","1","","","78","main_expt"
"","bandit","158","702813","0.0-119.0-0.0","72291274","wem/bandit_either_2","A38IMMFKB2JJQK","either","8","1583","","","","","","","0","0","1","0.4331167668","","0.4","0.8","0.2","0.6","","","","","0.3542776451","0.005956317848","0.2246975601","0.4331167668","","","","","","","","76","L","3","","","79","main_expt"
"","bandit","159","708508","0.0-120.0-0.0","72291274","wem/bandit_either_2","A38IMMFKB2JJQK","either","8","3905","","","","","","","0","0","1","","0.1878766281","0.4","0.8","0.2","0.6","0.3201174307","0.0076590047","0.1878766281","0.4294395537","","","","","","","","","","","","75","K","2","","","80","main_expt"
"","bandit","160","719887","0.0-121.0-0.0","72291274","wem/bandit_either_2","A38IMMFKB2JJQK","either","8","9641","","","","","","","0","0","1","0.009115568074","","0.4","0.8","0.2","0.6","","","","","0.3503003334","0.009115568074","0.2436254364","0.4234249918","","","","","","","","74","J","1","","","81","main_expt"
"","bandit","161","722664","0.0-122.0-0.0","72291274","wem/bandit_either_2","A38IMMFKB2JJQK","either","8","1102","","","","","","","0","0","1","","0.2627531714","0.4","0.8","0.2","0.6","0.3509066846","0.01382977225","0.2627531714","0.3956977209","","","","","","","","","","","","75","K","2","","","82","main_expt"
"","bandit","162","725072","0.0-123.0-0.0","72291274","wem/bandit_either_2","A38IMMFKB2JJQK","either","8","854","","","","","","","0","1","0","","0.4248650233","0.4","0.8","0.2","0.6","0.3951868033","0.01500629599","0.2672212524","0.4248650233","","","","","","","","","","","","76","L","3","","","83","main_expt"
"","bandit","163","730011","0.0-124.0-0.0","72291274","wem/bandit_either_2","A38IMMFKB2JJQK","either","8","2236","","","","","","","0","0","1","0.4131477378","","0.4","0.8","0.2","0.6","","","","","0.4131477378","0.02310127573","0.2817484998","0.4196907627","","","","","","","","72","H","0","img/none_selected.jpg","","84","main_expt"
"","bandit","164","734339","0.0-125.0-0.0","72291274","wem/bandit_either_2","A38IMMFKB2JJQK","either","8","2742","","","","","","","0","0","1","0.02639065846","","0.4","0.8","0.2","0.6","","","","","0.3889697292","0.02639065846","0.3074775227","0.435633498","","","","","","","","74","J","1","","","85","main_expt"
"","bandit","165","737278","0.0-126.0-0.0","72291274","wem/bandit_either_2","A38IMMFKB2JJQK","either","8","1275","","","","","","","1","0","0","0.4322222521","","0.4","0.8","0.2","0.6","","","","","0.3885636443","0.01746441632","0.2717847629","0.4322222521","","","","","","","","76","L","3","","","86","main_expt"
"","bandit","166","742863","0.0-127.0-0.0","72291274","wem/bandit_either_2","A38IMMFKB2JJQK","either","8","2135","","","","","","","1","0","0","0.4476119451","","0.4","0.8","0.2","0.6","","","","","0.4028282504","0.01256144444","0.2183858348","0.4476119451","","","","","","","","76","L","3","","","87","main_expt"
"","bandit","167","746775","0.0-128.0-0.0","72291274","wem/bandit_either_2","A38IMMFKB2JJQK","either","8","2280","","","","","","","0","0","1","0.4073123198","","0.4","0.8","0.2","0.6","","","","","0.4306890759","0.01178158386","0.2054961256","0.4073123198","","","","","","","","76","L","3","","","88","main_expt"
"","bandit","168","751531","0.0-129.0-0.0","72291274","wem/bandit_either_2","A38IMMFKB2JJQK","either","8","1849","","","","","","","0","0","1","0.008722555822","","0.4","0.8","0.2","0.6","","","","","0.4103738654","0.008722555822","0.1452714398","0.3862301724","","","","","","","","74","J","1","","","89","main_expt"
"","bandit","169","755728","0.0-130.0-0.0","72291274","wem/bandit_either_2","A38IMMFKB2JJQK","either","8","2469","","","","","","","0","0","1","","0.1077779513","0.4","0.8","0.2","0.6","0.3980827974","0.008232471735","0.1077779513","0.3596745144","","","","","","","","","","","","75","K","2","","","90","main_expt"
"","bandit","170","759296","0.0-131.0-0.0","72291274","wem/bandit_either_2","A38IMMFKB2JJQK","either","8","1962","","","","","","","0","0","1","0.4040531024","","0.4","0.8","0.2","0.6","","","","","0.4040531024","0.01249180717","0.1308407065","0.3082854458","","","","","","","","72","H","0","img/none_selected.jpg","","91","main_expt"
"","bandit","171","766985","0.0-132.0-0.0","72291274","wem/bandit_either_2","A38IMMFKB2JJQK","either","8","4858","","","","","","","1","0","0","0.312225492","","0.4","0.8","0.2","0.6","","","","","0.3462944796","0.01470986316","0.1652322036","0.312225492","","","","","","","","76","L","3","","","92","main_expt"
"","bandit","172","770971","0.0-133.0-0.0","72291274","wem/bandit_either_2","A38IMMFKB2JJQK","either","8","2264","","","","","","","0","0","1","0.3671658277","","0.4","0.8","0.2","0.6","","","","","0.3411451966","0.02655281846","0.1344678182","0.3671658277","","","","","","","","76","L","3","","","93","main_expt"
"","bandit","173","774290","0.0-134.0-0.0","72291274","wem/bandit_either_2","A38IMMFKB2JJQK","either","8","1747","","","","","","","0","0","1","","0.02575246025","0.4","0.8","0.2","0.6","0.3384154489","0.02575246025","0.1301314301","0.3401731108","","","","","","","","","","","","74","J","1","","","94","main_expt"
"","bandit","174","778979","0.0-135.0-0.0","72291274","wem/bandit_either_2","A38IMMFKB2JJQK","either","8","1182","","","","","","","1","0","0","0.1746055711","","0.4","0.8","0.2","0.6","","","","","0.3126988266","0.02262355665","0.1746055711","0.3413923724","","","","","","","","75","K","2","","","95","main_expt"
"","bandit","175","782331","0.0-136.0-0.0","72291274","wem/bandit_either_2","A38IMMFKB2JJQK","either","8","1702","","","","","","","0","0","1","","0.1994244555","0.4","0.8","0.2","0.6","0.3800019137","0.02047181149","0.1994244555","0.3570420485","","","","","","","","","","","","75","K","2","","","96","main_expt"
"","bandit","176","784675","0.0-137.0-0.0","72291274","wem/bandit_either_2","A38IMMFKB2JJQK","either","8","615","","","","","","","0","0","1","","0.3435474977","0.4","0.8","0.2","0.6","0.3328121005","0.0207754381","0.1834602947","0.3435474977","","","","","","","","","","","","76","L","3","","","97","main_expt"
"","bandit","177","787169","0.0-138.0-0.0","72291274","wem/bandit_either_2","A38IMMFKB2JJQK","either","8","938","","","","","","","0","0","1","0.02955834597","","0.4","0.8","0.2","0.6","","","","","0.332228596","0.02955834597","0.1719221531","0.3614714926","","","","","","","","74","J","1","","","98","main_expt"
"","bandit","178","791917","0.0-139.0-0.0","72291274","wem/bandit_either_2","A38IMMFKB2JJQK","either","8","1854","","","","","","","0","0","1","0.2843854285","","0.4","0.8","0.2","0.6","","","","","0.2843854285","0.0383131093","0.1183399241","0.3176405447","","","","","","","","72","H","0","img/none_selected.jpg","","99","main_expt"
"","bandit","179","798774","0.0-140.0-0.0","72291274","wem/bandit_either_2","A38IMMFKB2JJQK","either","8","824","","","","","","","0","0","1","0.3586553183","","0.4","0.8","0.2","0.6","","","","","0.309751149","0.03580757471","0.1558635017","0.3586553183","","","","","","","","76","L","3","","","100","main_expt"
"","bandit","180","801449","0.0-141.0-0.0","72291274","wem/bandit_either_2","A38IMMFKB2JJQK","either","8","1094","","","","","","","0","0","1","","0.1389665978","0.4","0.8","0.2","0.6","0.2993195944","0.04899620691","0.1389665978","0.2951503345","","","","","","","","","","","","75","K","2","","","101","main_expt"
"","bandit","181","804050","0.0-142.0-0.0","72291274","wem/bandit_either_2","A38IMMFKB2JJQK","either","8","1057","","","","","","","0","0","1","","0.08055650644","0.4","0.8","0.2","0.6","0.3551890872","0.08055650644","0.1377203561","0.2998391809","","","","","","","","","","","","74","J","1","","","102","main_expt"
"","bandit","182","810675","0.0-143.0-0.0","72291274","wem/bandit_either_2","A38IMMFKB2JJQK","either","8","3216","","","","","","","0","0","1","","0.1285548106","0.4","0.8","0.2","0.6","0.3148404956","0.1040447627","0.1285548106","0.2791823827","","","","","","","","","","","","75","K","2","","","103","main_expt"
"","bandit","183","813063","0.0-144.0-0.0","72291274","wem/bandit_either_2","A38IMMFKB2JJQK","either","8","795","","","","","","","0","0","1","0.3382769334","","0.4","0.8","0.2","0.6","","","","","0.3286912191","0.1143547335","0.1555523735","0.3382769334","","","","","","","","76","L","3","","","104","main_expt"
"","bandit","184","815887","0.0-145.0-0.0","72291274","wem/bandit_either_2","A38IMMFKB2JJQK","either","8","1263","","","","","","","0","0","1","","0.1487676438","0.4","0.8","0.2","0.6","0.298340497","0.1487676438","0.1775592141","0.3339697125","","","","","","","","","","","","74","J","1","","","105","main_expt"
"","bandit","185","821163","0.0-146.0-0.0","72291274","wem/bandit_either_2","A38IMMFKB2JJQK","either","8","1834","","","","","","","0","0","1","","0.3504464386","0.4","0.8","0.2","0.6","0.3504464386","0.152088545","0.2263451353","0.3124129253","","","","","","","","","","","","72","H","0","img/none_selected.jpg","","106","main_expt"
"","bandit","186","825572","0.0-147.0-0.0","72291274","wem/bandit_either_2","A38IMMFKB2JJQK","either","8","2550","","","","","","","0","0","1","0.2406734145","","0.4","0.8","0.2","0.6","","","","","0.3510410077","0.2406734145","0.1679769802","0.3400683723","","","","","","","","74","J","1","","","107","main_expt"
"","bandit","187","827814","0.0-148.0-0.0","72291274","wem/bandit_either_2","A38IMMFKB2JJQK","either","8","679","","","","","","","0","0","1","","0.1999870147","0.4","0.8","0.2","0.6","0.3282766846","0.3048040024","0.1999870147","0.3557340834","","","","","","","","","","","","75","K","2","","","108","main_expt"
"","bandit","188","830682","0.0-149.0-0.0","72291274","wem/bandit_either_2","A38IMMFKB2JJQK","either","8","1126","","","","","","","0","1","0","","0.3846418901","0.4","0.8","0.2","0.6","0.3561186451","0.3418503096","0.208992856","0.3846418901","","","","","","","","","","","","76","L","3","","","109","main_expt"
"","bandit","189","835447","0.0-150.0-0.0","72291274","wem/bandit_either_2","A38IMMFKB2JJQK","either","8","3148","","","","","","","0","0","1","","0.3576445865","0.4","0.8","0.2","0.6","0.3576445865","0.3198501315","0.1716040471","0.4057962062","","","","","","","","","","","","72","H","0","img/none_selected.jpg","","110","main_expt"
"","bandit","190","839041","0.0-151.0-0.0","72291274","wem/bandit_either_2","A38IMMFKB2JJQK","either","8","1889","","","","","","","0","1","0","","0.3681534847","0.4","0.8","0.2","0.6","0.3377543854","0.3681534847","0.08984071331","0.3692451483","","","","","","","","","","","","74","J","1","","","111","main_expt"
"","bandit","191","842218","0.0-152.0-0.0","72291274","wem/bandit_either_2","A38IMMFKB2JJQK","either","8","1574","","","","","","","0","0","1","0.3577317973","","0.4","0.8","0.2","0.6","","","","","0.286234052","0.3757830796","0.1243463141","0.3577317973","","","","","","","","76","L","3","","","112","main_expt"
"","bandit","192","846347","0.0-153.0-0.0","72291274","wem/bandit_either_2","A38IMMFKB2JJQK","either","8","949","","","","","","","0","0","1","","0.1433440675","0.4","0.8","0.2","0.6","0.1932674395","0.3838999828","0.1433440675","0.3328808086","","","","","","","","","","","","75","K","2","","","113","main_expt"
"","bandit","193","849984","0.0-154.0-0.0","72291274","wem/bandit_either_2","A38IMMFKB2JJQK","either","8","1336","","","","","","","1","0","0","0.4157938717","","0.4","0.8","0.2","0.6","","","","","0.2403040534","0.4157938717","0.1510662198","0.3416979579","","","","","","","","74","J","1","","","114","main_expt"
"","bandit","194","852823","0.0-155.0-0.0","72291274","wem/bandit_either_2","A38IMMFKB2JJQK","either","8","1146","","","","","","","0","0","1","0.4055870595","","0.4","0.8","0.2","0.6","","","","","0.254937398","0.4055870595","0.09845245139","0.3377137281","","","","","","","","74","J","1","","","115","main_expt"
"","bandit","195","855678","0.0-156.0-0.0","72291274","wem/bandit_either_2","A38IMMFKB2JJQK","either","8","1269","","","","","","","0","0","1","","0.107393795","0.4","0.8","0.2","0.6","0.2605063941","0.4161015278","0.107393795","0.3039448029","","","","","","","","","","","","75","K","2","","","116","main_expt"
"","bandit","196","860928","0.0-157.0-0.0","72291274","wem/bandit_either_2","A38IMMFKB2JJQK","either","8","2160","","","","","","","0","0","1","","0.2974336912","0.4","0.8","0.2","0.6","0.2161328783","0.414877819","0.07879800556","0.2974336912","","","","","","","","","","","","76","L","3","","","117","main_expt"
"","bandit","197","863414","0.0-158.0-0.0","72291274","wem/bandit_either_2","A38IMMFKB2JJQK","either","8","899","","","","","","","0","0","1","0.1931197841","","0.4","0.8","0.2","0.6","","","","","0.1931197841","0.3968259953","0.08383735875","0.2651867246","","","","","","","","72","H","0","img/none_selected.jpg","","118","main_expt"
"","bandit","198","865803","0.0-159.0-0.0","72291274","wem/bandit_either_2","A38IMMFKB2JJQK","either","8","697","","","","","","","0","0","1","0.4198241006","","0.4","0.8","0.2","0.6","","","","","0.1638183597","0.4198241006","0.1392474383","0.3131666206","","","","","","","","74","J","1","","","119","main_expt"
"","bandit","199","869427","0.0-160.0-0.0","72291274","wem/bandit_either_2","A38IMMFKB2JJQK","either","8","741","","","","","","","0","0","1","","0.1649404926","0.4","0.8","0.2","0.6","0.1893282748","0.4286088018","0.1649404926","0.358829095","","","","","","","","","","","","75","K","2","","","120","main_expt"
"","bandit","200","873634","0.0-161.0-0.0","72291274","wem/bandit_either_2","A38IMMFKB2JJQK","either","8","2310","","","","","","","0","0","1","","0.4253829576","0.4","0.8","0.2","0.6","0.2290368179","0.4253829576","0.1764152442","0.3189860171","","","","","","","","","","","","74","J","1","","","121","main_expt"
"","bandit","201","876534","0.0-162.0-0.0","72291274","wem/bandit_either_2","A38IMMFKB2JJQK","either","8","1210","","","","","","","0","0","1","","0.3011672979","0.4","0.8","0.2","0.6","0.2445441383","0.4235175979","0.2092397698","0.3011672979","","","","","","","","","","","","76","L","3","","","122","main_expt"
"","bandit","202","879671","0.0-163.0-0.0","72291274","wem/bandit_either_2","A38IMMFKB2JJQK","either","8","1551","","","","","","","0","0","1","","0.1884058447","0.4","0.8","0.2","0.6","0.2091075756","0.4182090072","0.1884058447","0.3037948063","","","","","","","","","","","","75","K","2","","","123","main_expt"
"","bandit","203","884735","0.0-164.0-0.0","72291274","wem/bandit_either_2","A38IMMFKB2JJQK","either","8","1988","","","","","","","0","0","1","0.4356016004","","0.4","0.8","0.2","0.6","","","","","0.2216111921","0.4356016004","0.1876417206","0.2446200253","","","","","","","","74","J","1","","","124","main_expt"
"","bandit","204","887976","0.0-165.0-0.0","72291274","wem/bandit_either_2","A38IMMFKB2JJQK","either","8","679","","","","","","","0","0","1","","0.1890564589","0.4","0.8","0.2","0.6","0.1622020501","0.403953628","0.1890564589","0.2464628806","","","","","","","","","","","","75","K","2","","","125","main_expt"
"","bandit","205","890290","0.0-166.0-0.0","72291274","wem/bandit_either_2","A38IMMFKB2JJQK","either","8","659","","","","","","","0","1","0","","0.4020675328","0.4","0.8","0.2","0.6","0.173533554","0.4020675328","0.1659850756","0.281169445","","","","","","","","","","","","74","J","1","","","126","main_expt"
"","bandit","206","892598","0.0-167.0-0.0","72291274","wem/bandit_either_2","A38IMMFKB2JJQK","either","8","652","","","","","","","0","1","0","","0.2006343121","0.4","0.8","0.2","0.6","0.189829559","0.338443572","0.2006343121","0.290080064","","","","","","","","","","","","75","K","2","","","127","main_expt"
"","bandit","207","897423","0.0-168.0-0.0","72291274","wem/bandit_either_2","A38IMMFKB2JJQK","either","8","2104","","","","","","","0","0","1","0.323123489","","0.4","0.8","0.2","0.6","","","","","0.1764696366","0.323123489","0.2637444583","0.3280989756","","","","","","","","74","J","1","","","128","main_expt"
"","bandit","208","899925","0.0-169.0-0.0","72291274","wem/bandit_either_2","A38IMMFKB2JJQK","either","8","631","","","","","","","0","0","1","","0.2783394686","0.4","0.8","0.2","0.6","0.172709194","0.3615310162","0.2783394686","0.3052704822","","","","","","","","","","","","75","K","2","","","129","main_expt"
"","bandit","209","902523","0.0-170.0-0.0","72291274","wem/bandit_either_2","A38IMMFKB2JJQK","either","8","804","","","","","","","0","0","1","0.3667448715","","0.4","0.8","0.2","0.6","","","","","0.1407460215","0.3667448715","0.2674474002","0.314718742","","","","","","","","74","J","1","","","130","main_expt"
"","bandit","210","905455","0.0-171.0-0.0","72291274","wem/bandit_either_2","A38IMMFKB2JJQK","either","8","1278","","","","","","","0","0","1","0.143826562","","0.4","0.8","0.2","0.6","","","","","0.143826562","0.341745941","0.2122920843","0.2492347367","","","","","","","","72","H","0","img/none_selected.jpg","","131","main_expt"
"","bandit","211","909918","0.0-172.0-0.0","72291274","wem/bandit_either_2","A38IMMFKB2JJQK","either","8","1730","","","","","","","0","0","1","0.2495736985","","0.4","0.8","0.2","0.6","","","","","0.1862992663","0.2615325727","0.1969346152","0.2495736985","","","","","","","","76","L","3","","","132","main_expt"
"","bandit","212","914828","0.0-173.0-0.0","72291274","wem/bandit_either_2","A38IMMFKB2JJQK","either","8","3148","","","","","","","0","0","1","0.1390835973","","0.4","0.8","0.2","0.6","","","","","0.185648564","0.27905624","0.1390835973","0.2487120015","","","","","","","","75","K","2","","","133","main_expt"
"","bandit","213","917265","0.0-174.0-0.0","72291274","wem/bandit_either_2","A38IMMFKB2JJQK","either","8","868","","","","","","","1","0","0","0.2751163123","","0.4","0.8","0.2","0.6","","","","","0.2002276213","0.2751163123","0.1437640715","0.3239420422","","","","","","","","74","J","1","","","134","main_expt"
"","bandit","214","922532","0.0-175.0-0.0","72291274","wem/bandit_either_2","A38IMMFKB2JJQK","either","8","1278","","","","","","","0","0","1","0.2586507773","","0.4","0.8","0.2","0.6","","","","","0.2474552851","0.2586507773","0.1175999949","0.3903525049","","","","","","","","74","J","1","","","135","main_expt"
"","bandit","215","926078","0.0-176.0-0.0","72291274","wem/bandit_either_2","A38IMMFKB2JJQK","either","8","1686","","","","","","","0","0","1","","0.1108499649","0.4","0.8","0.2","0.6","0.2454982057","0.2385277364","0.1108499649","0.3703049055","","","","","","","","","","","","75","K","2","","","136","main_expt"
"","bandit","216","928877","0.0-177.0-0.0","72291274","wem/bandit_either_2","A38IMMFKB2JJQK","either","8","1068","","","","","","","0","1","0","","0.3657944308","0.4","0.8","0.2","0.6","0.2708690816","0.1935782534","0.1208727618","0.3657944308","","","","","","","","","","","","76","L","3","","","137","main_expt"
"","bandit","217","932903","0.0-178.0-0.0","72291274","wem/bandit_either_2","A38IMMFKB2JJQK","either","8","1141","","","","","","","0","0","1","0.2219039101","","0.4","0.8","0.2","0.6","","","","","0.2219039101","0.14087624","0.1098805161","0.3452946514","","","","","","","","72","H","0","img/none_selected.jpg","","138","main_expt"
"","bandit","218","936389","0.0-179.0-0.0","72291274","wem/bandit_either_2","A38IMMFKB2JJQK","either","8","1724","","","","","","","0","0","1","0.1359731218","","0.4","0.8","0.2","0.6","","","","","0.2485571535","0.1340930794","0.1359731218","0.3225052804","","","","","","","","75","K","2","","","139","main_expt"
"","bandit","219","938759","0.0-180.0-0.0","72291274","wem/bandit_either_2","A38IMMFKB2JJQK","either","8","822","","","","","","","0","0","1","0.1170750994","","0.4","0.8","0.2","0.6","","","","","0.2605640439","0.1170750994","0.1419248406","0.2997250911","","","","","","","","74","J","1","","","140","main_expt"
"","bandit","220","941685","0.0-181.0-0.0","72291274","wem/bandit_either_2","A38IMMFKB2JJQK","either","8","1267","","","","","","","0","0","1","0.311933389","","0.4","0.8","0.2","0.6","","","","","0.2260680923","0.1316830279","0.1269577117","0.311933389","","","","","","","","76","L","3","","","141","main_expt"
"","bandit","221","944791","0.0-182.0-0.0","72291274","wem/bandit_either_2","A38IMMFKB2JJQK","either","8","973","","","","","","","0","0","1","0.2354846983","","0.4","0.8","0.2","0.6","","","","","0.2354846983","0.09490366034","0.1073819056","0.3442568425","","","","","","","","72","H","0","img/none_selected.jpg","","142","main_expt"
"","bandit","222","948702","0.0-183.0-0.0","72291274","wem/bandit_either_2","A38IMMFKB2JJQK","either","8","2176","","","","","","","0","0","1","","0.1246024154","0.4","0.8","0.2","0.6","0.2089358464","0.1246024154","0.1152767294","0.3117203045","","","","","","","","","","","","74","J","1","","","143","main_expt"
"","bandit","223","951139","0.0-184.0-0.0","72291274","wem/bandit_either_2","A38IMMFKB2JJQK","either","8","842","","","","","","","1","0","0","0.1317444946","","0.4","0.8","0.2","0.6","","","","","0.1844607625","0.1179874238","0.1317444946","0.3080771123","","","","","","","","75","K","2","","","144","main_expt"
"","bandit","224","954228","0.0-185.0-0.0","72291274","wem/bandit_either_2","A38IMMFKB2JJQK","either","8","1510","","","","","","","0","0","1","","0.1058600218","0.4","0.8","0.2","0.6","0.1940384654","0.1211842963","0.1058600218","0.3146876691","","","","","","","","","","","","75","K","2","","","145","main_expt"
"","bandit","225","958058","0.0-186.0-0.0","72291274","wem/bandit_either_2","A38IMMFKB2JJQK","either","8","617","","","","","","","0","0","1","0.06212451067","","0.4","0.8","0.2","0.6","","","","","0.2532022814","0.06212451067","0.1862633901","0.3526806189","","","","","","","","74","J","1","","","146","main_expt"
"","bandit","226","961704","0.0-187.0-0.0","72291274","wem/bandit_either_2","A38IMMFKB2JJQK","either","8","1137","","","","","","","0","1","0","","0.3859334927","0.4","0.8","0.2","0.6","0.272856749","0.05826033827","0.1944793183","0.3859334927","","","","","","","","","","","","76","L","3","","","147","main_expt"
"","bandit","227","964225","0.0-188.0-0.0","72291274","wem/bandit_either_2","A38IMMFKB2JJQK","either","8","867","","","","","","","1","0","0","0.2441255329","","0.4","0.8","0.2","0.6","","","","","0.2441255329","0.04847575149","0.1572605535","0.4089873985","","","","","","","","72","H","0","img/none_selected.jpg","","148","main_expt"
"","bandit","228","966951","0.0-189.0-0.0","72291274","wem/bandit_either_2","A38IMMFKB2JJQK","either","8","1179","","","","","","","0","1","0","","0.2304797635","0.4","0.8","0.2","0.6","0.2304797635","0.07397138717","0.1632070519","0.3317076441","","","","","","","","","","","","72","H","0","img/none_selected.jpg","","149","main_expt"
"","bandit","229","971946","0.0-190.0-0.0","72291274","wem/bandit_either_2","A38IMMFKB2JJQK","either","8","2226","","","","","","","1","0","0","0.1178437277","","0.4","0.8","0.2","0.6","","","","","0.2645424191","0.1178437277","0.2162169298","0.2514439341","","","","","","","","74","J","1","","","150","main_expt"
"","bandit","230","977717","0.0-191.0-0.0","72291274","wem/bandit_either_2","A38IMMFKB2JJQK","either","8","4195","","","","","","","0","1","0","","0.2806681102","0.4","0.8","0.2","0.6","0.2919476008","0.1116740648","0.2806681102","0.2209696772","","","","","","","","","","","","75","K","2","","","151","main_expt"
"","bandit","231","980201","0.0-192.0-0.0","72291274","wem/bandit_either_2","A38IMMFKB2JJQK","either","8","679","","","","","","","0","0","1","0.09681320826","","0.4","0.8","0.2","0.6","","","","","0.3004198658","0.09681320826","0.25223767","0.2004300668","","","","","","","","74","J","1","","","152","main_expt"
"","bandit","232","984907","0.0-193.0-0.0","72291274","wem/bandit_either_2","A38IMMFKB2JJQK","either","8","1772","","","","","","","0","0","1","","0.2259503681","0.4","0.8","0.2","0.6","0.2910243242","0.1162344283","0.2259503681","0.1803159607","","","","","","","","","","","","75","K","2","","","153","main_expt"
"","bandit","233","988972","0.0-194.0-0.0","72291274","wem/bandit_either_2","A38IMMFKB2JJQK","either","8","2255","","","","","","","1","0","0","0.2858680692","","0.4","0.8","0.2","0.6","","","","","0.2858680692","0.1441765144","0.2520515582","0.1793353988","","","","","","","","72","H","0","img/none_selected.jpg","","154","main_expt"
"","bandit","234","992491","0.0-195.0-0.0","72291274","wem/bandit_either_2","A38IMMFKB2JJQK","either","8","1968","","","","","","","0","0","1","0.1506434262","","0.4","0.8","0.2","0.6","","","","","0.276906037","0.1506434262","0.246895917","0.175125938","","","","","","","","74","J","1","","","155","main_expt"
"","bandit","235","998265","0.0-196.0-0.0","72291274","wem/bandit_either_2","A38IMMFKB2JJQK","either","8","2313","","","","","","","0","1","0","","0.2067462234","0.4","0.8","0.2","0.6","0.3087514371","0.1691825384","0.2067462234","0.19004546","","","","","","","","","","","","75","K","2","","","156","main_expt"
"","bandit","236","1003736","0.0-197.0-0.0","72291274","wem/bandit_either_2","A38IMMFKB2JJQK","either","8","578","","","","","","","0","0","1","0.1538528063","","0.4","0.8","0.2","0.6","","","","","0.3400763937","0.1465267651","0.1736677602","0.1538528063","","","","","","","","76","L","3","","","157","main_expt"
"","bandit","237","1006355","0.0-198.0-0.0","72291274","wem/bandit_either_2","A38IMMFKB2JJQK","either","8","1066","","","","","","","0","0","1","","0.3388441277","0.4","0.8","0.2","0.6","0.3388441277","0.1517260174","0.2437422656","0.1624419901","","","","","","","","","","","","72","H","0","img/none_selected.jpg","","158","main_expt"
"","bandit","238","1009306","0.0-199.0-0.0","72291274","wem/bandit_either_2","A38IMMFKB2JJQK","either","8","1359","","","","","","","0","0","1","0.143579764","","0.4","0.8","0.2","0.6","","","","","0.3496437485","0.143579764","0.2627628197","0.1749682205","","","","","","","","74","J","1","","","159","main_expt"
"","bandit","239","1014115","0.0-200.0-0.0","72291274","wem/bandit_either_2","A38IMMFKB2JJQK","either","8","2035","","","","","","","0","1","0","","0.2532756584","0.4","0.8","0.2","0.6","0.3347491532","0.1701049762","0.2532756584","0.2227833177","","","","","","","","","","","","75","K","2","","","160","main_expt"
"","bandit","240","1016335","0.0-201.0-0.0","72291274","wem/bandit_either_2","A38IMMFKB2JJQK","either","8","635","","","","","","","0","0","1","","0.1616195486","0.4","0.8","0.2","0.6","0.3036625801","0.1596038406","0.2846030245","0.1616195486","","","","","","","","","","","","76","L","3","","","161","main_expt"
"","bandit","241","1020393","0.0-202.0-0.0","72291274","wem/bandit_either_2","A38IMMFKB2JJQK","either","8","2510","","","","","","","0","0","1","","0.2480450928","0.4","0.8","0.2","0.6","0.2735804545","0.1186271452","0.2480450928","0.1440802068","","","","","","","","","","","","75","K","2","","","162","main_expt"
"","bandit","242","1025575","0.0-203.0-0.0","72291274","wem/bandit_either_2","A38IMMFKB2JJQK","either","8","2314","","","","","","","0","0","1","0.2219233964","","0.4","0.8","0.2","0.6","","","","","0.2219233964","0.1460830151","0.3217860246","0.1349250059","","","","","","","","72","H","0","img/none_selected.jpg","","163","main_expt"
"","bandit","243","1029068","0.0-204.0-0.0","72291274","wem/bandit_either_2","A38IMMFKB2JJQK","either","8","984","","","","","","","0","0","1","0.1924179555","","0.4","0.8","0.2","0.6","","","","","0.2489701673","0.1924179555","0.3528623486","0.1482528248","","","","","","","","74","J","1","","","164","main_expt"
"","bandit","244","1031465","0.0-205.0-0.0","72291274","wem/bandit_either_2","A38IMMFKB2JJQK","either","8","743","","","","","","","0","0","1","","0.3113737792","0.4","0.8","0.2","0.6","0.2424219606","0.1909643941","0.3113737792","0.1444116863","","","","","","","","","","","","75","K","2","","","165","main_expt"
"","bandit","245","1034134","0.0-206.0-0.0","72291274","wem/bandit_either_2","A38IMMFKB2JJQK","either","8","1038","","","","","","","0","0","1","0.1621449425","","0.4","0.8","0.2","0.6","","","","","0.1899742571","0.1917506842","0.2820045276","0.1621449425","","","","","","","","76","L","3","","","166","main_expt"
"","bandit","246","1040139","0.0-207.0-0.0","72291274","wem/bandit_either_2","A38IMMFKB2JJQK","either","8","2700","","","","","","","0","1","0","","0.2539690707","0.4","0.8","0.2","0.6","0.2298880826","0.2238056512","0.2539690707","0.1695256229","","","","","","","","","","","","75","K","2","","","167","main_expt"
"","bandit","247","1042560","0.0-208.0-0.0","72291274","wem/bandit_either_2","A38IMMFKB2JJQK","either","8","649","","","","","","","0","0","1","","0.2132240521","0.4","0.8","0.2","0.6","0.241220494","0.2132240521","0.2177565821","0.1712445676","","","","","","","","","","","","74","J","1","","","168","main_expt"
"","bandit","248","1045484","0.0-209.0-0.0","72291274","wem/bandit_either_2","A38IMMFKB2JJQK","either","8","1242","","","","","","","0","0","1","","0.2113351254","0.4","0.8","0.2","0.6","0.2113351254","0.1363713625","0.183214586","0.191079104","","","","","","","","","","","","72","H","0","img/none_selected.jpg","","169","main_expt"
"","bandit","249","1048454","0.0-210.0-0.0","72291274","wem/bandit_either_2","A38IMMFKB2JJQK","either","8","1282","","","","","","","0","0","1","","0.2227666825","0.4","0.8","0.2","0.6","0.2224744884","0.2007690262","0.1757282231","0.2227666825","","","","","","","","","","","","76","L","3","","","170","main_expt"
"","bandit","250","1053010","0.0-211.0-0.0","72291274","wem/bandit_either_2","A38IMMFKB2JJQK","either","8","1702","","","","","","","0","0","1","","0.1238998316","0.4","0.8","0.2","0.6","0.262177911","0.1238998316","0.1679331046","0.2719914804","","","","","","","","","","","","74","J","1","","","171","main_expt"
"","bandit","251","1055535","0.0-212.0-0.0","72291274","wem/bandit_either_2","A38IMMFKB2JJQK","either","8","620","","","","","","","0","0","1","","0.14560319","0.4","0.8","0.2","0.6","0.2822992514","0.09746419185","0.14560319","0.2330128459","","","","","","","","","","","","75","K","2","","","172","main_expt"
"","bandit","252","1058409","0.0-213.0-0.0","72291274","wem/bandit_either_2","A38IMMFKB2JJQK","either","8","1313","","","","","","","0","0","1","0.2545762091","","0.4","0.8","0.2","0.6","","","","","0.2545762091","0.1018164217","0.1341549344","0.2840251313","","","","","","","","72","H","0","img/none_selected.jpg","","173","main_expt"
"","bandit","253","1061835","0.0-214.0-0.0","72291274","wem/bandit_either_2","A38IMMFKB2JJQK","either","8","926","","","","","","","1","0","0","0.2739042306","","0.4","0.8","0.2","0.6","","","","","0.2838184637","0.1401689619","0.1471305278","0.2739042306","","","","","","","","76","L","3","","","174","main_expt"
"","bandit","254","1066141","0.0-215.0-0.0","72291274","wem/bandit_either_2","A38IMMFKB2JJQK","either","8","2676","","","","","","","0","1","0","","0.3444735506","0.4","0.8","0.2","0.6","0.3002790513","0.1697524679","0.173963405","0.3444735506","","","","","","","","","","","","76","L","3","","","175","main_expt"
"","bandit","255","1069439","0.0-216.0-0.0","72291274","wem/bandit_either_2","A38IMMFKB2JJQK","either","8","1727","","","","","","","0","0","1","","0.1896898672","0.4","0.8","0.2","0.6","0.3771690292","0.1896898672","0.1821857965","0.3223017316","","","","","","","","","","","","74","J","1","","","176","main_expt"
"","bandit","256","1073354","0.0-217.0-0.0","72291274","wem/bandit_either_2","A38IMMFKB2JJQK","either","8","971","","","","","","","0","0","1","","0.1444884472","0.4","0.8","0.2","0.6","0.4047809956","0.2441254625","0.1444884472","0.2964924158","","","","","","","","","","","","75","K","2","","","177","main_expt"
"","bandit","257","1076964","0.0-218.0-0.0","72291274","wem/bandit_either_2","A38IMMFKB2JJQK","either","8","1704","","","","","","","0","0","1","","0.2780576925","0.4","0.8","0.2","0.6","0.4344960837","0.2427722412","0.1207783293","0.2780576925","","","","","","","","","","","","76","L","3","","","178","main_expt"
"","bandit","258","1079452","0.0-219.0-0.0","72291274","wem/bandit_either_2","A38IMMFKB2JJQK","either","8","862","","","","","","","0","0","1","","0.4287912686","0.4","0.8","0.2","0.6","0.4287912686","0.2284650367","0.111585665","0.2859751729","","","","","","","","","","","","72","H","0","img/none_selected.jpg","","179","main_expt"
"","bandit","259","1082339","0.0-220.0-0.0","72291274","wem/bandit_either_2","A38IMMFKB2JJQK","either","8","1311","","","","","","","0","0","1","0.2694081366","","0.4","0.8","0.2","0.6","","","","","0.4294180747","0.2694081366","0.06891525065","0.283533164","","","","","","","","74","J","1","","","180","main_expt"
"","bandit","260","1086730","0.0-221.0-0.0","72291274","wem/bandit_either_2","A38IMMFKB2JJQK","either","8","1184","","","","","","","0","0","1","0.07407739619","","0.4","0.8","0.2","0.6","","","","","0.3887332701","0.2471628034","0.07407739619","0.2430023428","","","","","","","","75","K","2","","","181","main_expt"
"","bandit","261","1090524","0.0-222.0-0.0","72291274","wem/bandit_either_2","A38IMMFKB2JJQK","either","8","2105","","","","","","","1","0","0","0.275372354","","0.4","0.8","0.2","0.6","","","","","0.3910635387","0.275372354","0.07501704201","0.223254837","","","","","","","","74","J","1","","","182","main_expt"
"","bandit","262","1094074","0.0-223.0-0.0","72291274","wem/bandit_either_2","A38IMMFKB2JJQK","either","8","1887","","","","","","","0","0","1","0.2378950907","","0.4","0.8","0.2","0.6","","","","","0.3957792538","0.2378950907","0.09354103142","0.2274286797","","","","","","","","74","J","1","","","183","main_expt"
"","bandit","263","1099774","0.0-224.0-0.0","72291274","wem/bandit_either_2","A38IMMFKB2JJQK","either","8","2888","","","","","","","0","0","1","0.06673830493","","0.4","0.8","0.2","0.6","","","","","0.3777829694","0.2611999536","0.06673830493","0.2485964068","","","","","","","","75","K","2","","","184","main_expt"
"","bandit","264","1102276","0.0-225.0-0.0","72291274","wem/bandit_either_2","A38IMMFKB2JJQK","either","8","669","","","","","","","0","1","0","","0.4130939835","0.4","0.8","0.2","0.6","0.4130939835","0.2799245071","0.08617836821","0.2080173303","","","","","","","","","","","","72","H","0","img/none_selected.jpg","","185","main_expt"
"","bandit","265","1104953","0.0-226.0-0.0","72291274","wem/bandit_either_2","A38IMMFKB2JJQK","either","8","1083","","","","","","","1","0","0","0.2538883687","","0.4","0.8","0.2","0.6","","","","","0.376930599","0.2275386122","0.05054014018","0.2538883687","","","","","","","","76","L","3","","","186","main_expt"
"","bandit","266","1108865","0.0-227.0-0.0","72291274","wem/bandit_either_2","A38IMMFKB2JJQK","either","8","2159","","","","","","","0","0","1","0.2267652077","","0.4","0.8","0.2","0.6","","","","","0.3934592684","0.2558518805","0.1101456656","0.2267652077","","","","","","","","76","L","3","","","187","main_expt"
"","bandit","267","1113939","0.0-228.0-0.0","72291274","wem/bandit_either_2","A38IMMFKB2JJQK","either","8","2023","","","","","","","0","0","1","0.2757393749","","0.4","0.8","0.2","0.6","","","","","0.4086060551","0.2757393749","0.1076418148","0.2583789709","","","","","","","","74","J","1","","","188","main_expt"
"","bandit","268","1117239","0.0-229.0-0.0","72291274","wem/bandit_either_2","A38IMMFKB2JJQK","either","8","1360","","","","","","","0","0","1","","0.1230456027","0.4","0.8","0.2","0.6","0.447145564","0.3326758055","0.1230456027","0.2329768584","","","","","","","","","","","","75","K","2","","","189","main_expt"
"","bandit","269","1119809","0.0-230.0-0.0","72291274","wem/bandit_either_2","A38IMMFKB2JJQK","either","8","945","","","","","","","0","0","1","0.386091063","","0.4","0.8","0.2","0.6","","","","","0.386091063","0.332927569","0.1872873117","0.2002510669","","","","","","","","72","H","0","img/none_selected.jpg","","190","main_expt"
"","bandit","270","1122275","0.0-231.0-0.0","72291274","wem/bandit_either_2","A38IMMFKB2JJQK","either","8","782","","","","","","","0","0","1","0.2182600554","","0.4","0.8","0.2","0.6","","","","","0.4221145333","0.3859199101","0.1413073252","0.2182600554","","","","","","","","76","L","3","","","191","main_expt"
"","bandit","271","1127068","0.0-232.0-0.0","72291274","wem/bandit_either_2","A38IMMFKB2JJQK","either","8","1760","","","","","","","0","0","1","0.392668484","","0.4","0.8","0.2","0.6","","","","","0.3913199708","0.392668484","0.1868627967","0.2681613901","","","","","","","","74","J","1","","","192","main_expt"
"","bandit","272","1129617","0.0-233.0-0.0","72291274","wem/bandit_either_2","A38IMMFKB2JJQK","either","8","954","","","","","","","0","0","1","0.2312719224","","0.4","0.8","0.2","0.6","","","","","0.4013624592","0.3789843676","0.2312719224","0.3035027483","","","","","","","","75","K","2","","","193","main_expt"
"","bandit","273","1131820","0.0-234.0-0.0","72291274","wem/bandit_either_2","A38IMMFKB2JJQK","either","8","656","","","","","","","0","0","1","0.3689216281","","0.4","0.8","0.2","0.6","","","","","0.3668237699","0.3689216281","0.2585201677","0.275531754","","","","","","","","74","J","1","","","194","main_expt"
"","bandit","274","1135800","0.0-235.0-0.0","72291274","wem/bandit_either_2","A38IMMFKB2JJQK","either","8","1024","","","","","","","0","0","1","0.2716401532","","0.4","0.8","0.2","0.6","","","","","0.3856266791","0.4136905162","0.2786104129","0.2716401532","","","","","","","","76","L","3","","","195","main_expt"
"","bandit","275","1139693","0.0-236.0-0.0","72291274","wem/bandit_either_2","A38IMMFKB2JJQK","either","8","2270","","","","","","","0","1","0","","0.3702439493","0.4","0.8","0.2","0.6","0.3702439493","0.4258575101","0.2407834285","0.2814611543","","","","","","","","","","","","72","H","0","img/none_selected.jpg","","196","main_expt"
"","bandit","276","1142606","0.0-237.0-0.0","72291274","wem/bandit_either_2","A38IMMFKB2JJQK","either","8","1367","","","","","","","0","1","0","","0.2588010394","0.4","0.8","0.2","0.6","0.3665926528","0.3976178043","0.2550568011","0.2588010394","","","","","","","","","","","","76","L","3","","","197","main_expt"
"","bandit","277","1144953","0.0-238.0-0.0","72291274","wem/bandit_either_2","A38IMMFKB2JJQK","either","8","796","","","","","","","0","0","1","","0.3432124584","0.4","0.8","0.2","0.6","0.3432124584","0.3802378075","0.3094863904","0.3094610495","","","","","","","","","","","","72","H","0","img/none_selected.jpg","","198","main_expt"
"","bandit","278","1150275","0.0-239.0-0.0","72291274","wem/bandit_either_2","A38IMMFKB2JJQK","either","8","1441","","","","","","","0","0","1","0.3139278769","","0.4","0.8","0.2","0.6","","","","","0.4096574544","0.3926800246","0.3012985694","0.3139278769","","","","","","","","76","L","3","","","199","main_expt"
"","bandit","279","1152781","0.0-240.0-0.0","72291274","wem/bandit_either_2","A38IMMFKB2JJQK","either","8","925","","","","","","","0","0","1","0.3814844917","","0.4","0.8","0.2","0.6","","","","","0.3799023259","0.3814844917","0.3149132519","0.3459706187","","","","","","","","74","J","1","","","200","main_expt"
"","bandit","280","1154976","0.0-241.0-0.0","72291274","wem/bandit_either_2","A38IMMFKB2JJQK","either","8","639","","","","","","","0","0","1","","0.3236307962","0.4","0.8","0.2","0.6","0.3513783521","0.3831630738","0.3236307962","0.3038365479","","","","","","","","","","","","75","K","2","","","201","main_expt"
"","bandit","281","1158147","0.0-242.0-0.0","72291274","wem/bandit_either_2","A38IMMFKB2JJQK","either","8","1563","","","","","","","0","0","1","0.2964599608","","0.4","0.8","0.2","0.6","","","","","0.3439351057","0.3957430938","0.3163717903","0.2964599608","","","","","","","","76","L","3","","","202","main_expt"
"","bandit","282","1163505","0.0-243.0-0.0","72291274","wem/bandit_either_2","A38IMMFKB2JJQK","either","8","2282","","","","","","","0","1","0","","0.2615327891","0.4","0.8","0.2","0.6","0.2615327891","0.4175506619","0.3165936227","0.280336616","","","","","","","","","","","","72","H","0","img/none_selected.jpg","","203","main_expt"
"","bandit","283","1165650","0.0-244.0-0.0","72291274","wem/bandit_either_2","A38IMMFKB2JJQK","either","8","483","","","","","","","1","0","0","0.262900641","","0.4","0.8","0.2","0.6","","","","","0.2211517471","0.4356800279","0.3166231072","0.262900641","","","","","","","","76","L","3","","","204","main_expt"
"","bandit","284","1170274","0.0-245.0-0.0","72291274","wem/bandit_either_2","A38IMMFKB2JJQK","either","8","2928","","","","","","","0","0","1","","0.4342993254","0.4","0.8","0.2","0.6","0.1955747294","0.4342993254","0.2983153058","0.3403150927","","","","","","","","","","","","74","J","1","","","205","main_expt"
"","bandit","285","1175917","0.0-246.0-0.0","72291274","wem/bandit_either_2","A38IMMFKB2JJQK","either","8","2418","","","","","","","1","0","0","0.3407188883","","0.4","0.8","0.2","0.6","","","","","0.3137251184","0.4515967499","0.255573156","0.3407188883","","","","","","","","76","L","3","","","206","main_expt"
"","bandit","286","1178755","0.0-247.0-0.0","72291274","wem/bandit_either_2","A38IMMFKB2JJQK","either","8","1289","","","","","","","1","0","0","0.2955601217","","0.4","0.8","0.2","0.6","","","","","0.2982459604","0.4559700358","0.2816724171","0.2955601217","","","","","","","","76","L","3","","","207","main_expt"
"","bandit","287","1182018","0.0-248.0-0.0","72291274","wem/bandit_either_2","A38IMMFKB2JJQK","either","8","1455","","","","","","","0","0","1","0.2832193826","","0.4","0.8","0.2","0.6","","","","","0.2359404152","0.4711787588","0.2462622089","0.2832193826","","","","","","","","76","L","3","","","208","main_expt"
"","bandit","288","1188330","0.0-249.0-0.0","72291274","wem/bandit_either_2","A38IMMFKB2JJQK","either","8","2986","","","","","","","0","0","1","","0.2396635106","0.4","0.8","0.2","0.6","0.2396635106","0.4859779177","0.2608633631","0.25637755","","","","","","","","","","","","72","H","0","img/none_selected.jpg","","209","main_expt"
"","bandit","289","1191407","0.0-250.0-0.0","72291274","wem/bandit_either_2","A38IMMFKB2JJQK","either","8","1452","","","","","","","0","0","1","","0.2500912527","0.4","0.8","0.2","0.6","0.2320506775","0.4798195452","0.2649708152","0.2500912527","","","","","","","","","","","","76","L","3","","","210","main_expt"
"","bandit","290","1194765","0.0-251.0-0.0","72291274","wem/bandit_either_2","A38IMMFKB2JJQK","either","8","1772","","","","","","","1","0","0","0.4754072522","","0.4","0.8","0.2","0.6","","","","","0.1894847828","0.4754072522","0.2658594566","0.2481129288","","","","","","","","74","J","1","","","211","main_expt"
"","bandit","291","1199557","0.0-252.0-0.0","72291274","wem/bandit_either_2","A38IMMFKB2JJQK","either","8","2025","","","","","","","0","0","1","0.3192168596","","0.4","0.8","0.2","0.6","","","","","0.2330804604","0.4780703898","0.2648449814","0.3192168596","","","","","","","","76","L","3","","","212","main_expt"
"","bandit","292","1203178","0.0-253.0-0.0","72291274","wem/bandit_either_2","A38IMMFKB2JJQK","either","8","1362","","","","","","","0","1","0","","0.286492297","0.4","0.8","0.2","0.6","0.2484053244","0.4883488692","0.286492297","0.2361953268","","","","","","","","","","","","75","K","2","","","213","main_expt"
"","bandit","293","1207040","0.0-254.0-0.0","72291274","wem/bandit_either_2","A38IMMFKB2JJQK","either","8","2301","","","","","","","0","1","0","","0.2308921763","0.4","0.8","0.2","0.6","0.2182548364","0.4872562331","0.2540339129","0.2308921763","","","","","","","","","","","","76","L","3","","","214","main_expt"
"","bandit","294","1212730","0.0-255.0-0.0","72291274","wem/bandit_either_2","A38IMMFKB2JJQK","either","8","2801","","","","","","","0","0","1","0.4749609167","","0.4","0.8","0.2","0.6","","","","","0.1824073789","0.4749609167","0.254651127","0.2161033537","","","","","","","","74","J","1","","","215","main_expt"
"","bandit","295","1215765","0.0-256.0-0.0","72291274","wem/bandit_either_2","A38IMMFKB2JJQK","either","8","1395","","","","","","","0","0","1","0.1896756427","","0.4","0.8","0.2","0.6","","","","","0.1923730387","0.4798413464","0.3140517816","0.1896756427","","","","","","","","76","L","3","","","216","main_expt"
"","bandit","296","1218630","0.0-257.0-0.0","72291274","wem/bandit_either_2","A38IMMFKB2JJQK","either","8","1222","","","","","","","1","0","0","0.3338676317","","0.4","0.8","0.2","0.6","","","","","0.2266612446","0.4865144435","0.3338676317","0.1724286307","","","","","","","","75","K","2","","","217","main_expt"
"","bandit","297","1224277","0.0-258.0-0.0","72291274","wem/bandit_either_2","A38IMMFKB2JJQK","either","8","1668","","","","","","","0","0","1","","0.3397001125","0.4","0.8","0.2","0.6","0.1702705737","0.4789145001","0.3397001125","0.161168334","","","","","","","","","","","","75","K","2","","","218","main_expt"
"","bandit","298","1227216","0.0-259.0-0.0","72291274","wem/bandit_either_2","A38IMMFKB2JJQK","either","8","1267","","","","","","","0","0","1","0.2021763003","","0.4","0.8","0.2","0.6","","","","","0.1159766116","0.4834748692","0.2982528089","0.2021763003","","","","","","","","76","L","3","","","219","main_expt"
"","bandit","299","1230106","0.0-260.0-0.0","72291274","wem/bandit_either_2","A38IMMFKB2JJQK","either","8","1332","","","","","","","0","0","1","","0.2770934022","0.4","0.8","0.2","0.6","0.09529473055","0.4722371777","0.2770934022","0.2142164272","","","","","","","","","","","","75","K","2","","","220","main_expt"
"","bandit","300","1234215","0.0-261.0-0.0","72291274","wem/bandit_either_2","A38IMMFKB2JJQK","either","8","1085","","","","","","","0","0","1","","0.4654689219","0.4","0.8","0.2","0.6","0.09060922323","0.4654689219","0.2696770889","0.189068297","","","","","","","","","","","","74","J","1","","","221","main_expt"
"","bandit","301","1237583","0.0-262.0-0.0","72291274","wem/bandit_either_2","A38IMMFKB2JJQK","either","8","1685","","","","","","","0","0","1","","0.1250772464","0.4","0.8","0.2","0.6","0.1250772464","0.4533789701","0.3103502417","0.2120997892","","","","","","","","","","","","72","H","0","img/none_selected.jpg","","222","main_expt"
"","bandit","302","1241183","0.0-263.0-0.0","72291274","wem/bandit_either_2","A38IMMFKB2JJQK","either","8","1943","","","","","","","0","0","1","","0.4473019993","0.4","0.8","0.2","0.6","0.1177235221","0.4473019993","0.3477728299","0.1937664477","","","","","","","","","","","","74","J","1","","","223","main_expt"
"","bandit","303","1243671","0.0-264.0-0.0","72291274","wem/bandit_either_2","A38IMMFKB2JJQK","either","8","748","","","","","","","0","1","0","","0.2195846313","0.4","0.8","0.2","0.6","0.1589673504","0.4651086175","0.3230244909","0.2195846313","","","","","","","","","","","","76","L","3","","","224","main_expt"
"","bandit","304","1249043","0.0-265.0-0.0","72291274","wem/bandit_either_2","A38IMMFKB2JJQK","either","8","2360","","","","","","","0","0","1","","0.3641913847","0.4","0.8","0.2","0.6","0.1582937281","0.4704934375","0.3641913847","0.1973587738","","","","","","","","","","","","75","K","2","","","225","main_expt"
"","bandit","305","1251205","0.0-266.0-0.0","72291274","wem/bandit_either_2","A38IMMFKB2JJQK","either","8","546","","","","","","","0","0","1","","0.2029059012","0.4","0.8","0.2","0.6","0.1585786296","0.4545632724","0.3211822138","0.2029059012","","","","","","","","","","","","76","L","3","","","226","main_expt"
"","bandit","306","1254115","0.0-267.0-0.0","72291274","wem/bandit_either_2","A38IMMFKB2JJQK","either","8","1321","","","","","","","1","0","0","0.4313330006","","0.4","0.8","0.2","0.6","","","","","0.1614007709","0.4313330006","0.3318596792","0.1677618241","","","","","","","","74","J","1","","","227","main_expt"
"","bandit","307","1257631","0.0-268.0-0.0","72291274","wem/bandit_either_2","A38IMMFKB2JJQK","either","8","1388","","","","","","","0","0","1","0.4253897179","","0.4","0.8","0.2","0.6","","","","","0.1160982884","0.4253897179","0.3715738924","0.2079318551","","","","","","","","74","J","1","","","228","main_expt"
"","bandit","308","1261849","0.0-269.0-0.0","72291274","wem/bandit_either_2","A38IMMFKB2JJQK","either","8","2404","","","","","","","0","0","1","","0.1860779256","0.4","0.8","0.2","0.6","0.1327168588","0.4416009531","0.3571583743","0.1860779256","","","","","","","","","","","","76","L","3","","","229","main_expt"
"","bandit","309","1264891","0.0-270.0-0.0","72291274","wem/bandit_either_2","A38IMMFKB2JJQK","either","8","1398","","","","","","","1","0","0","0.3455313741","","0.4","0.8","0.2","0.6","","","","","0.1751239199","0.4612445757","0.3455313741","0.1294985144","","","","","","","","75","K","2","","","230","main_expt"
"","bandit","310","1267482","0.0-271.0-0.0","72291274","wem/bandit_either_2","A38IMMFKB2JJQK","either","8","871","","","","","","","1","0","0","0.3114256563","","0.4","0.8","0.2","0.6","","","","","0.2080149414","0.4455927364","0.3114256563","0.1424139305","","","","","","","","75","K","2","","","231","main_expt"
"","bandit","311","1272362","0.0-272.0-0.0","72291274","wem/bandit_either_2","A38IMMFKB2JJQK","either","8","2012","","","","","","","0","0","1","0.3127001645","","0.4","0.8","0.2","0.6","","","","","0.2305008548","0.4449483857","0.3127001645","0.1777617008","","","","","","","","75","K","2","","","232","main_expt"
"","bandit","312","1275093","0.0-273.0-0.0","72291274","wem/bandit_either_2","A38IMMFKB2JJQK","either","8","1054","","","","","","","0","0","1","0.1408291819","","0.4","0.8","0.2","0.6","","","","","0.2331895239","0.4570404202","0.2953609795","0.1408291819","","","","","","","","76","L","3","","","233","main_expt"
"","bandit","313","1278610","0.0-274.0-0.0","72291274","wem/bandit_either_2","A38IMMFKB2JJQK","either","8","1907","","","","","","","0","0","1","0.2743769666","","0.4","0.8","0.2","0.6","","","","","0.2007149185","0.4785018613","0.2743769666","0.09563300426","","","","","","","","75","K","2","","","234","main_expt"
"","bandit","314","1282263","0.0-275.0-0.0","72291274","wem/bandit_either_2","A38IMMFKB2JJQK","either","8","839","","","","","","","0","0","1","0.4708517218","","0.4","0.8","0.2","0.6","","","","","0.1428876463","0.4708517218","0.2842570603","0.06508254785","","","","","","","","74","J","1","","","235","main_expt"
"","bandit","315","1286249","0.0-276.0-0.0","72291274","wem/bandit_either_2","A38IMMFKB2JJQK","either","8","2371","","","","","","","0","0","1","","0.1327756685","0.4","0.8","0.2","0.6","0.1327756685","0.4721911582","0.3536106974","0.05272484418","","","","","","","","","","","","72","H","0","img/none_selected.jpg","","236","main_expt"
"","bandit","316","1288847","0.0-277.0-0.0","72291274","wem/bandit_either_2","A38IMMFKB2JJQK","either","8","846","","","","","","","0","0","1","","0.05000735717","0.4","0.8","0.2","0.6","0.1969646424","0.4567984566","0.3777879982","0.05000735717","","","","","","","","","","","","76","L","3","","","237","main_expt"
"","bandit","317","1291093","0.0-278.0-0.0","72291274","wem/bandit_either_2","A38IMMFKB2JJQK","either","8","672","","","","","","","0","0","1","","0.3819628943","0.4","0.8","0.2","0.6","0.2040955009","0.4601910044","0.3819628943","0.03409798278","","","","","","","","","","","","75","K","2","","","238","main_expt"
"","bandit","318","1295612","0.0-279.0-0.0","72291274","wem/bandit_either_2","A38IMMFKB2JJQK","either","8","744","","","","","","","0","0","1","","0.4663275819","0.4","0.8","0.2","0.6","0.1885012088","0.4663275819","0.3590612953","0.03555143528","","","","","","","","","","","","74","J","1","","","239","main_expt"
"","bandit","319","1299028","0.0-280.0-0.0","72291274","wem/bandit_either_2","A38IMMFKB2JJQK","either","8","1032","","","","","","","0","1","0","","0.4781926851","0.4","0.8","0.2","0.6","0.1779850251","0.4781926851","0.3943681209","0.06633834621","","","","","","","","","","","","74","J","1","","","240","main_expt"
"","bandit","320","1301795","0.0-281.0-0.0","72291274","wem/bandit_either_2","A38IMMFKB2JJQK","either","8","1049","","","","","","","1","0","0","0.4813407325","","0.4","0.8","0.2","0.6","","","","","0.2132761508","0.4813407325","0.4178476804","0.0332650027","","","","","","","","74","J","1","","","241","main_expt"
"","bandit","321","1307117","0.0-282.0-0.0","72291274","wem/bandit_either_2","A38IMMFKB2JJQK","either","8","2473","","","","","","","1","0","0","0.4758201438","","0.4","0.8","0.2","0.6","","","","","0.2181708985","0.4758201438","0.4083523659","0.03674005559","","","","","","","","74","J","1","","","242","main_expt"
"","bandit","322","1314292","0.0-283.0-0.0","72291274","wem/bandit_either_2","A38IMMFKB2JJQK","either","8","2874","","","","","","","1","0","0","0.4739127226","","0.4","0.8","0.2","0.6","","","","","0.1880751836","0.4739127226","0.4107673147","0.02732183546","","","","","","","","74","J","1","","","243","main_expt"
"","bandit","323","1318265","0.0-284.0-0.0","72291274","wem/bandit_either_2","A38IMMFKB2JJQK","either","8","2384","","","","","","","0","0","1","","0.4467527753","0.4","0.8","0.2","0.6","0.2693527465","0.4467527753","0.3914084711","0.02742276317","","","","","","","","","","","","74","J","1","","","244","main_expt"
"","bandit","324","1320808","0.0-285.0-0.0","72291274","wem/bandit_either_2","A38IMMFKB2JJQK","either","8","834","","","","","","","1","0","0","0.4492118003","","0.4","0.8","0.2","0.6","","","","","0.2474629182","0.4492118003","0.4117032301","0.03322496416","","","","","","","","74","J","1","","","245","main_expt"
"","bandit","325","1327779","0.0-286.0-0.0","72291274","wem/bandit_either_2","A38IMMFKB2JJQK","either","8","5089","","","","","","","0","1","0","","0.4702058379","0.4","0.8","0.2","0.6","0.3019125269","0.4702058379","0.4225436654","0.0538648904","","","","","","","","","","","","74","J","1","","","246","main_expt"
"","bandit","326","1330742","0.0-287.0-0.0","72291274","wem/bandit_either_2","A38IMMFKB2JJQK","either","8","1407","","","","","","","1","0","0","0.4717010128","","0.4","0.8","0.2","0.6","","","","","0.3013832462","0.4717010128","0.4327875568","0.05538537946","","","","","","","","74","J","1","","","247","main_expt"
"","bandit","327","1334120","0.0-288.0-0.0","72291274","wem/bandit_either_2","A38IMMFKB2JJQK","either","8","1541","","","","","","","1","0","0","0.4750055548","","0.4","0.8","0.2","0.6","","","","","0.2917300956","0.4750055548","0.4478523955","0.07377210468","","","","","","","","74","J","1","","","248","main_expt"
