"consent","trial_type","trial_index","time_elapsed","internal_node_id","subjID","study","MID","cond","drift","rt","responses","key_press","expt_phase","like","value","connected","gems","bombs","no_reward","GemPrChosen","BombPrChosen","GainOverPainPr_0","GainOverPainPr_1","GainOverPainPr_2","GainOverPainPr_3","LosePr_0","LosePr_1","LosePr_2","LosePr_3","WinPr_0","WinPr_1","WinPr_2","WinPr_3","Q0","Q1","Q2","gender","age","ethnicity","target","respCharCode","respKey","respChoiceNum","respChoice","practice","trial_counter","trial_label"
"INL_behavioral_consent_30min_online.html","consent","0","14194","0.0-0.0","73292920","wem/bandit_either_2","ALEE1QD4TW9G4","either","3","","","","","","","","","","","","","","","","","","","","","","","","","","","","","","","","","","","","","",""
"","survey-text","1","17740","0.0-1.0","73292920","wem/bandit_either_2","ALEE1QD4TW9G4","either","3","2520","{""Q0"":""ALEE1QD4TW9G4""}","","","","","","","","","","","","","","","","","","","","","","","","","","","","","","","","","","","",""
"","text","2","37269","0.0-2.0","73292920","wem/bandit_either_2","ALEE1QD4TW9G4","either","3","18524","","32","","","","","","","","","","","","","","","","","","","","","","","","","","","","","","","","","","",""
"","text","3","49836","0.0-3.0","73292920","wem/bandit_either_2","ALEE1QD4TW9G4","either","3","12564","","32","","","","","","","","","","","","","","","","","","","","","","","","","","","","","","","","","","",""
"","text","4","80839","0.0-4.0","73292920","wem/bandit_either_2","ALEE1QD4TW9G4","either","3","30996","","32","","","","","","","","","","","","","","","","","","","","","","","","","","","","","","","","","","",""
"","text","5","101434","0.0-5.0","73292920","wem/bandit_either_2","ALEE1QD4TW9G4","either","3","20587","","32","","","","","","","","","","","","","","","","","","","","","","","","","","","","","","","","","","",""
"","text","6","122279","0.0-6.0","73292920","wem/bandit_either_2","ALEE1QD4TW9G4","either","3","20839","","32","","","","","","","","","","","","","","","","","","","","","","","","","","","","","","","","","","",""
"","text","7","138162","0.0-7.0","73292920","wem/bandit_either_2","ALEE1QD4TW9G4","either","3","15876","","32","","","","","","","","","","","","","","","","","","","","","","","","","","","","","","","","","","",""
"","text","8","144472","0.0-8.0","73292920","wem/bandit_either_2","ALEE1QD4TW9G4","either","3","6307","","32","","","","","","","","","","","","","","","","","","","","","","","","","","","","","","","","","","",""
"","identification","9","155711","0.0-9.0-0.0","73292920","wem/bandit_either_2","ALEE1QD4TW9G4","either","3","11189","","","","5","5","5","","","","","","","","","","","","","","","","","","","","","","","","the village of Zur","","","","","","",""
"","identification","10","161789","0.0-9.0-1.0","73292920","wem/bandit_either_2","ALEE1QD4TW9G4","either","3","5029","","","","1","1","1","","","","","","","","","","","","","","","","","","","","","","","","the village of Nyx","","","","","","",""
"","text","11","171579","0.0-10.0","73292920","wem/bandit_either_2","ALEE1QD4TW9G4","either","3","8784","","32","","","","","","","","","","","","","","","","","","","","","","","","","","","","","","","","","","",""
"","text","12","177727","0.0-11.0","73292920","wem/bandit_either_2","ALEE1QD4TW9G4","either","3","6146","","32","","","","","","","","","","","","","","","","","","","","","","","","","","","","","","","","","","",""
"","text","13","180343","0.0-12.0","73292920","wem/bandit_either_2","ALEE1QD4TW9G4","either","3","2613","","32","","","","","","","","","","","","","","","","","","","","","","","","","","","","","","","","","","",""
"","text","14","185689","0.0-13.0","73292920","wem/bandit_either_2","ALEE1QD4TW9G4","either","3","5342","","32","","","","","","","","","","","","","","","","","","","","","","","","","","","","","","","","","","",""
"","bandit","15","189373","0.0-14.0-0.0","73292920","wem/bandit_either_2","ALEE1QD4TW9G4","either","3","2151","","","","","","","0","0","1","0","0","","","","","0","","","","0","","","","","","","","","","","74","J","0","img/none_selected_demo.jpg","true","0",""
"","bandit","16","191463","0.0-15.0-0.0","73292920","wem/bandit_either_2","ALEE1QD4TW9G4","either","3","570","","","","","","","0","0","1","0","0","","","","","0","","","","0","","","","","","","","","","","75","K","0","img/none_selected_demo.jpg","true","0",""
"","text","17","214945","0.0-16.0","73292920","wem/bandit_either_2","ALEE1QD4TW9G4","either","3","23476","","32","","","","","","","","","","","","","","","","","","","","","","","","","","","","","","","","","","",""
"","text","18","228184","0.0-17.0","73292920","wem/bandit_either_2","ALEE1QD4TW9G4","either","3","13235","","32","","","","","","","","","","","","","","","","","","","","","","","","","","","","","","","","","","",""
"","text","19","236262","0.0-18.0","73292920","wem/bandit_either_2","ALEE1QD4TW9G4","either","3","8075","","32","","","","","","","","","","","","","","","","","","","","","","","","","","","","","","","","","","",""
"","text","20","239641","0.0-19.0","73292920","wem/bandit_either_2","ALEE1QD4TW9G4","either","3","3377","","32","","","","","","","","","","","","","","","","","","","","","","","","","","","","","","","","","","",""
"","bandit","21","242848","0.0-20.0-0.0","73292920","wem/bandit_either_2","ALEE1QD4TW9G4","either","3","1676","","","","","","","0","1","0","","0.8","0.5","0.5","","","0.8","0.2","","","","","","","","","","","","","","74","J","0","img/none_selected_demo.jpg","true","0","80_20_practice"
"","bandit","22","244901","0.0-20.0-1.0","73292920","wem/bandit_either_2","ALEE1QD4TW9G4","either","3","537","","","","","","","0","1","0","","0.2","0.5","0.5","","","0.8","0.2","","","","","","","","","","","","","","75","K","1","","true","0","80_20_practice"
"","bandit","23","246746","0.0-20.0-2.0","73292920","wem/bandit_either_2","ALEE1QD4TW9G4","either","3","309","","","","","","","0","0","1","0.2","","0.5","0.5","","","","","","","0.8","0.2","","","","","","","","","","75","K","1","","true","0","80_20_practice"
"","bandit","24","248778","0.0-20.0-3.0","73292920","wem/bandit_either_2","ALEE1QD4TW9G4","either","3","496","","","","","","","1","0","0","0.8","","0.5","0.5","","","","","","","0.8","0.2","","","","","","","","","","74","J","0","img/none_selected_demo.jpg","true","0","80_20_practice"
"","bandit","25","250762","0.0-20.0-4.0","73292920","wem/bandit_either_2","ALEE1QD4TW9G4","either","3","454","","","","","","","0","1","0","","0.8","0.5","0.5","","","0.8","0.2","","","","","","","","","","","","","","74","J","0","img/none_selected_demo.jpg","true","0","80_20_practice"
"","bandit","26","253188","0.0-20.0-5.0","73292920","wem/bandit_either_2","ALEE1QD4TW9G4","either","3","895","","","","","","","1","0","0","0.8","","0.5","0.5","","","","","","","0.8","0.2","","","","","","","","","","74","J","0","img/none_selected_demo.jpg","true","0","80_20_practice"
"","bandit","27","255010","0.0-20.0-6.0","73292920","wem/bandit_either_2","ALEE1QD4TW9G4","either","3","309","","","","","","","0","1","0","","0.8","0.5","0.5","","","0.8","0.2","","","","","","","","","","","","","","74","J","0","img/none_selected_demo.jpg","true","0","80_20_practice"
"","bandit","28","256856","0.0-20.0-7.0","73292920","wem/bandit_either_2","ALEE1QD4TW9G4","either","3","321","","","","","","","0","0","1","0.8","","0.5","0.5","","","","","","","0.8","0.2","","","","","","","","","","74","J","0","img/none_selected_demo.jpg","true","0","80_20_practice"
"","bandit","29","258879","0.0-20.0-8.0","73292920","wem/bandit_either_2","ALEE1QD4TW9G4","either","3","494","","","","","","","1","0","0","0.8","","0.5","0.5","","","","","","","0.8","0.2","","","","","","","","","","74","J","0","img/none_selected_demo.jpg","true","0","80_20_practice"
"","bandit","30","261493","0.0-20.0-9.0","73292920","wem/bandit_either_2","ALEE1QD4TW9G4","either","3","1095","","","","","","","1","0","0","0.8","","0.5","0.5","","","","","","","0.8","0.2","","","","","","","","","","74","J","0","img/none_selected_demo.jpg","true","0","80_20_practice"
"","bandit","31","263643","0.0-20.0-10.0","73292920","wem/bandit_either_2","ALEE1QD4TW9G4","either","3","636","","","","","","","1","0","0","0.8","","0.5","0.5","","","","","","","0.8","0.2","","","","","","","","","","74","J","0","img/none_selected_demo.jpg","true","0","80_20_practice"
"","bandit","32","265461","0.0-20.0-11.0","73292920","wem/bandit_either_2","ALEE1QD4TW9G4","either","3","302","","","","","","","1","0","0","0.8","","0.5","0.5","","","","","","","0.8","0.2","","","","","","","","","","74","J","0","img/none_selected_demo.jpg","true","0","80_20_practice"
"","bandit","33","267354","0.0-20.0-12.0","73292920","wem/bandit_either_2","ALEE1QD4TW9G4","either","3","362","","","","","","","0","0","1","0.8","","0.5","0.5","","","","","","","0.8","0.2","","","","","","","","","","74","J","0","img/none_selected_demo.jpg","true","0","80_20_practice"
"","bandit","34","269158","0.0-20.0-13.0","73292920","wem/bandit_either_2","ALEE1QD4TW9G4","either","3","284","","","","","","","1","0","0","0.8","","0.5","0.5","","","","","","","0.8","0.2","","","","","","","","","","74","J","0","img/none_selected_demo.jpg","true","0","80_20_practice"
"","bandit","35","271052","0.0-20.0-14.0","73292920","wem/bandit_either_2","ALEE1QD4TW9G4","either","3","381","","","","","","","0","1","0","","0.8","0.5","0.5","","","0.8","0.2","","","","","","","","","","","","","","74","J","0","img/none_selected_demo.jpg","true","0","80_20_practice"
"","bandit","36","272625","0.0-20.0-15.0","73292920","wem/bandit_either_2","ALEE1QD4TW9G4","either","3","51","","","","","","","1","0","0","0.8","","0.5","0.5","","","","","","","0.8","0.2","","","","","","","","","","74","J","0","img/none_selected_demo.jpg","true","0","80_20_practice"
"","bandit","37","274449","0.0-20.0-16.0","73292920","wem/bandit_either_2","ALEE1QD4TW9G4","either","3","293","","","","","","","0","1","0","","0.8","0.5","0.5","","","0.8","0.2","","","","","","","","","","","","","","74","J","0","img/none_selected_demo.jpg","true","0","80_20_practice"
"","bandit","38","276279","0.0-20.0-17.0","73292920","wem/bandit_either_2","ALEE1QD4TW9G4","either","3","303","","","","","","","0","1","0","","0.8","0.5","0.5","","","0.8","0.2","","","","","","","","","","","","","","74","J","0","img/none_selected_demo.jpg","true","0","80_20_practice"
"","bandit","39","278108","0.0-20.0-18.0","73292920","wem/bandit_either_2","ALEE1QD4TW9G4","either","3","304","","","","","","","0","1","0","","0.8","0.5","0.5","","","0.8","0.2","","","","","","","","","","","","","","74","J","0","img/none_selected_demo.jpg","true","0","80_20_practice"
"","bandit","40","280004","0.0-20.0-19.0","73292920","wem/bandit_either_2","ALEE1QD4TW9G4","either","3","369","","","","","","","0","1","0","","0.8","0.5","0.5","","","0.8","0.2","","","","","","","","","","","","","","74","J","0","img/none_selected_demo.jpg","true","0","80_20_practice"
"","text","41","289151","0.0-21.0","73292920","wem/bandit_either_2","ALEE1QD4TW9G4","either","3","9143","","32","","","","","","","","","","","","","","","","","","","","","","","","","","","","","","","","","","",""
"","bandit","42","292324","0.0-22.0-0.0","73292920","wem/bandit_either_2","ALEE1QD4TW9G4","either","3","1647","","","","","","","1","0","0","1","0","","","","","0","1","","","1","0","","","","","","","","","","74","J","0","img/none_selected_demo.jpg","true","0",""
"","text","43","300408","0.0-23.0","73292920","wem/bandit_either_2","ALEE1QD4TW9G4","either","3","8079","","32","","","","","","","","","","","","","","","","","","","","","","","","","","","","","","","","","","",""
"","text","44","304422","0.0-24.0","73292920","wem/bandit_either_2","ALEE1QD4TW9G4","either","3","4008","","32","","","","","","","","","","","","","","","","","","","","","","","","","","","","","","","","","","",""
"","text","45","308783","0.0-25.0","73292920","wem/bandit_either_2","ALEE1QD4TW9G4","either","3","4355","","32","","","","","","","","","","","","","","","","","","","","","","","","","","","","","","","","","","",""
"","text","46","313240","0.0-26.0","73292920","wem/bandit_either_2","ALEE1QD4TW9G4","either","3","4451","","32","","","","","","","","","","","","","","","","","","","","","","","","","","","","","","","","","","",""
"","text","47","330486","0.0-27.0","73292920","wem/bandit_either_2","ALEE1QD4TW9G4","either","3","17242","","32","","","","","","","","","","","","","","","","","","","","","","","","","","","","","","","","","","",""
"","text","48","336532","0.0-28.0","73292920","wem/bandit_either_2","ALEE1QD4TW9G4","either","3","6042","","32","","","","","","","","","","","","","","","","","","","","","","","","","","","","","","","","","","",""
"","text","49","536935","0.0-29.0","73292920","wem/bandit_either_2","ALEE1QD4TW9G4","either","3","200396","","32","","","","","","","","","","","","","","","","","","","","","","","","","","","","","","","","","","",""
"","text","50","543991","0.0-30.0","73292920","wem/bandit_either_2","ALEE1QD4TW9G4","either","3","7048","","32","","","","","","","","","","","","","","","","","","","","","","","","","","","","","","","","","","",""
"","text","51","551690","0.0-31.0","73292920","wem/bandit_either_2","ALEE1QD4TW9G4","either","3","7696","","32","","","","","","","","","","","","","","","","","","","","","","","","","","","","","","","","","","",""
"","text","52","553974","0.0-32.0","73292920","wem/bandit_either_2","ALEE1QD4TW9G4","either","3","2280","","32","","","","","","","","","","","","","","","","","","","","","","","","","","","","","","","","","","",""
"","text","53","561231","0.0-33.0","73292920","wem/bandit_either_2","ALEE1QD4TW9G4","either","3","7255","","32","","","","","","","","","","","","","","","","","","","","","","","","","","","","","","","","","","",""
"","bandit","54","563770","0.0-34.0-0.0","73292920","wem/bandit_either_2","ALEE1QD4TW9G4","either","3","1005","","","","","","","1","0","0","0.8","","0.5","0.5","0.5","0.5","","","","","0.8","0.2","0.6","0.2","","","","","","","","72","H","0","img/none_selected.jpg","true","0","full_practice"
"","bandit","55","565757","0.0-34.0-1.0","73292920","wem/bandit_either_2","ALEE1QD4TW9G4","either","3","471","","","","","","","0","0","1","","0.2","0.5","0.5","0.5","0.5","0.8","0.2","0.6","0.2","","","","","","","","","","","","74","J","1","","true","0","full_practice"
"","bandit","56","567701","0.0-34.0-2.0","73292920","wem/bandit_either_2","ALEE1QD4TW9G4","either","3","427","","","","","","","0","1","0","","0.6","0.5","0.5","0.5","0.5","0.8","0.2","0.6","0.2","","","","","","","","","","","","75","K","2","","true","0","full_practice"
"","bandit","57","571667","0.0-34.0-3.0","73292920","wem/bandit_either_2","ALEE1QD4TW9G4","either","3","2452","","","","","","","0","0","1","","0.2","0.5","0.5","0.5","0.5","0.8","0.2","0.6","0.2","","","","","","","","","","","","76","L","3","","true","0","full_practice"
"","bandit","58","573334","0.0-34.0-4.0","73292920","wem/bandit_either_2","ALEE1QD4TW9G4","either","3","159","","","","","","","1","0","0","0.2","","0.5","0.5","0.5","0.5","","","","","0.8","0.2","0.6","0.2","","","","","","","","74","J","1","","true","0","full_practice"
"","bandit","59","575742","0.0-34.0-5.0","73292920","wem/bandit_either_2","ALEE1QD4TW9G4","either","3","875","","","","","","","0","0","1","","0.6","0.5","0.5","0.5","0.5","0.8","0.2","0.6","0.2","","","","","","","","","","","","75","K","2","","true","0","full_practice"
"","bandit","60","577570","0.0-34.0-6.0","73292920","wem/bandit_either_2","ALEE1QD4TW9G4","either","3","306","","","","","","","0","1","0","","0.2","0.5","0.5","0.5","0.5","0.8","0.2","0.6","0.2","","","","","","","","","","","","74","J","1","","true","0","full_practice"
"","bandit","61","579473","0.0-34.0-7.0","73292920","wem/bandit_either_2","ALEE1QD4TW9G4","either","3","375","","","","","","","1","0","0","0.8","","0.5","0.5","0.5","0.5","","","","","0.8","0.2","0.6","0.2","","","","","","","","72","H","0","img/none_selected.jpg","true","0","full_practice"
"","bandit","62","581306","0.0-34.0-8.0","73292920","wem/bandit_either_2","ALEE1QD4TW9G4","either","3","301","","","","","","","0","0","1","0.8","","0.5","0.5","0.5","0.5","","","","","0.8","0.2","0.6","0.2","","","","","","","","72","H","0","img/none_selected.jpg","true","0","full_practice"
"","bandit","63","583072","0.0-34.0-9.0","73292920","wem/bandit_either_2","ALEE1QD4TW9G4","either","3","243","","","","","","","0","0","1","0.2","","0.5","0.5","0.5","0.5","","","","","0.8","0.2","0.6","0.2","","","","","","","","74","J","1","","true","0","full_practice"
"","bandit","64","585237","0.0-34.0-10.0","73292920","wem/bandit_either_2","ALEE1QD4TW9G4","either","3","634","","","","","","","0","0","1","","0.2","0.5","0.5","0.5","0.5","0.8","0.2","0.6","0.2","","","","","","","","","","","","74","J","1","","true","0","full_practice"
"","bandit","65","586983","0.0-34.0-11.0","73292920","wem/bandit_either_2","ALEE1QD4TW9G4","either","3","208","","","","","","","1","0","0","0.8","","0.5","0.5","0.5","0.5","","","","","0.8","0.2","0.6","0.2","","","","","","","","72","H","0","img/none_selected.jpg","true","0","full_practice"
"","bandit","66","588867","0.0-34.0-12.0","73292920","wem/bandit_either_2","ALEE1QD4TW9G4","either","3","370","","","","","","","0","0","1","","0.8","0.5","0.5","0.5","0.5","0.8","0.2","0.6","0.2","","","","","","","","","","","","72","H","0","img/none_selected.jpg","true","0","full_practice"
"","bandit","67","590662","0.0-34.0-13.0","73292920","wem/bandit_either_2","ALEE1QD4TW9G4","either","3","288","","","","","","","0","1","0","","0.8","0.5","0.5","0.5","0.5","0.8","0.2","0.6","0.2","","","","","","","","","","","","72","H","0","img/none_selected.jpg","true","0","full_practice"
"","bandit","68","592555","0.0-34.0-14.0","73292920","wem/bandit_either_2","ALEE1QD4TW9G4","either","3","360","","","","","","","0","1","0","","0.8","0.5","0.5","0.5","0.5","0.8","0.2","0.6","0.2","","","","","","","","","","","","72","H","0","img/none_selected.jpg","true","0","full_practice"
"","bandit","69","594385","0.0-34.0-15.0","73292920","wem/bandit_either_2","ALEE1QD4TW9G4","either","3","307","","","","","","","1","0","0","0.8","","0.5","0.5","0.5","0.5","","","","","0.8","0.2","0.6","0.2","","","","","","","","72","H","0","img/none_selected.jpg","true","0","full_practice"
"","bandit","70","596211","0.0-34.0-16.0","73292920","wem/bandit_either_2","ALEE1QD4TW9G4","either","3","302","","","","","","","0","1","0","","0.8","0.5","0.5","0.5","0.5","0.8","0.2","0.6","0.2","","","","","","","","","","","","72","H","0","img/none_selected.jpg","true","0","full_practice"
"","bandit","71","598056","0.0-34.0-17.0","73292920","wem/bandit_either_2","ALEE1QD4TW9G4","either","3","321","","","","","","","1","0","0","0.8","","0.5","0.5","0.5","0.5","","","","","0.8","0.2","0.6","0.2","","","","","","","","72","H","0","img/none_selected.jpg","true","0","full_practice"
"","bandit","72","599846","0.0-34.0-18.0","73292920","wem/bandit_either_2","ALEE1QD4TW9G4","either","3","268","","","","","","","1","0","0","0.8","","0.5","0.5","0.5","0.5","","","","","0.8","0.2","0.6","0.2","","","","","","","","72","H","0","img/none_selected.jpg","true","0","full_practice"
"","bandit","73","601700","0.0-34.0-19.0","73292920","wem/bandit_either_2","ALEE1QD4TW9G4","either","3","329","","","","","","","0","0","1","","0.8","0.5","0.5","0.5","0.5","0.8","0.2","0.6","0.2","","","","","","","","","","","","72","H","0","img/none_selected.jpg","true","0","full_practice"
"","text","74","604936","0.0-35.0","73292920","wem/bandit_either_2","ALEE1QD4TW9G4","either","3","3229","","32","","","","","","","","","","","","","","","","","","","","","","","","","","","","","","","","","","",""
"","text","75","623504","0.0-36.0","73292920","wem/bandit_either_2","ALEE1QD4TW9G4","either","3","17548","","32","","","","","","","","","","","","","","","","","","","","","","","","","","","","","","","","","","",""
"","text","76","639239","0.0-37.0","73292920","wem/bandit_either_2","ALEE1QD4TW9G4","either","3","15730","","32","","","","","","","","","","","","","","","","","","","","","","","","","","","","","","","","","","",""
"","text","77","647246","0.0-38.0","73292920","wem/bandit_either_2","ALEE1QD4TW9G4","either","3","8001","","32","","","","","","","","","","","","","","","","","","","","","","","","","","","","","","","","","","",""
"","text","78","656488","0.0-39.0","73292920","wem/bandit_either_2","ALEE1QD4TW9G4","either","3","9236","","32","","","","","","","","","","","","","","","","","","","","","","","","","","","","","","","","","","",""
"","text","79","663924","0.0-40.0","73292920","wem/bandit_either_2","ALEE1QD4TW9G4","either","3","7429","","32","","","","","","","","","","","","","","","","","","","","","","","","","","","","","","","","","","",""
"","bandit","80","668543","0.0-41.0-0.0","73292920","wem/bandit_either_2","ALEE1QD4TW9G4","either","3","3086","","","","","","","0","0","1","0.1646489015","","0.2","0.8","0.6","0.4","","","","","0.1646489015","0.4870892339","0.1426046982","0.07685641067","","","","","","","","72","H","0","img/none_selected.jpg","","1","main_expt"
"","bandit","81","670477","0.0-42.0-0.0","73292920","wem/bandit_either_2","ALEE1QD4TW9G4","either","3","396","","","","","","","0","0","1","0.4875162112","","0.2","0.8","0.6","0.4","","","","","0.2180431119","0.4875162112","0.1597004976","0.08388143876","","","","","","","","74","J","1","","","2","main_expt"
"","bandit","82","672644","0.0-43.0-0.0","73292920","wem/bandit_either_2","ALEE1QD4TW9G4","either","3","657","","","","","","","0","0","1","0.1381850853","","0.2","0.8","0.6","0.4","","","","","0.2294217256","0.4909945117","0.1381850853","0.06528774038","","","","","","","","75","K","2","","","3","main_expt"
"","bandit","83","674545","0.0-44.0-0.0","73292920","wem/bandit_either_2","ALEE1QD4TW9G4","either","3","374","","","","","","","0","1","0","","0.07987899881","0.2","0.8","0.6","0.4","0.2162119515","0.482579304","0.1787932262","0.07987899881","","","","","","","","","","","","76","L","3","","","4","main_expt"
"","bandit","84","676434","0.0-45.0-0.0","73292920","wem/bandit_either_2","ALEE1QD4TW9G4","either","3","372","","","","","","","0","0","1","0.0432391811","","0.2","0.8","0.6","0.4","","","","","0.2246316054","0.4887913002","0.1795032464","0.0432391811","","","","","","","","76","L","3","","","5","main_expt"
"","bandit","85","678293","0.0-46.0-0.0","73292920","wem/bandit_either_2","ALEE1QD4TW9G4","either","3","331","","","","","","","0","0","1","0.03467601655","","0.2","0.8","0.6","0.4","","","","","0.2061018479","0.4887860333","0.164375756","0.03467601655","","","","","","","","76","L","3","","","6","main_expt"
"","bandit","86","680245","0.0-47.0-0.0","73292920","wem/bandit_either_2","ALEE1QD4TW9G4","either","3","415","","","","","","","0","0","1","0.204957223","","0.2","0.8","0.6","0.4","","","","","0.1795347326","0.4901971563","0.204957223","0.05033951668","","","","","","","","75","K","2","","","7","main_expt"
"","bandit","87","682065","0.0-48.0-0.0","73292920","wem/bandit_either_2","ALEE1QD4TW9G4","either","3","295","","","","","","","1","0","0","0.4862230721","","0.2","0.8","0.6","0.4","","","","","0.1290452752","0.4862230721","0.2162036531","0.07676355645","","","","","","","","74","J","1","","","8","main_expt"
"","bandit","88","683866","0.0-49.0-0.0","73292920","wem/bandit_either_2","ALEE1QD4TW9G4","either","3","271","","","","","","","1","0","0","0.4759730645","","0.2","0.8","0.6","0.4","","","","","0.1559184374","0.4759730645","0.2167418122","0.08620859221","","","","","","","","74","J","1","","","9","main_expt"
"","bandit","89","685732","0.0-50.0-0.0","73292920","wem/bandit_either_2","ALEE1QD4TW9G4","either","3","333","","","","","","","1","0","0","0.4560980466","","0.2","0.8","0.6","0.4","","","","","0.1381514788","0.4560980466","0.1607923637","0.1103839657","","","","","","","","74","J","1","","","10","main_expt"
"","bandit","90","687608","0.0-51.0-0.0","73292920","wem/bandit_either_2","ALEE1QD4TW9G4","either","3","352","","","","","","","1","0","0","0.4775116046","","0.2","0.8","0.6","0.4","","","","","0.1271140015","0.4775116046","0.1386410957","0.1334948588","","","","","","","","74","J","1","","","11","main_expt"
"","bandit","91","689414","0.0-52.0-0.0","73292920","wem/bandit_either_2","ALEE1QD4TW9G4","either","3","262","","","","","","","0","0","1","0.4705073552","","0.2","0.8","0.6","0.4","","","","","0.1854664659","0.4705073552","0.1718380738","0.1535602519","","","","","","","","74","J","1","","","12","main_expt"
"","bandit","92","691203","0.0-53.0-0.0","73292920","wem/bandit_either_2","ALEE1QD4TW9G4","either","3","264","","","","","","","0","0","1","","0.4851887342","0.2","0.8","0.6","0.4","0.1869952656","0.4851887342","0.1686303413","0.127854239","","","","","","","","","","","","74","J","1","","","13","main_expt"
"","bandit","93","693017","0.0-54.0-0.0","73292920","wem/bandit_either_2","ALEE1QD4TW9G4","either","3","287","","","","","","","0","0","1","0.4731273917","","0.2","0.8","0.6","0.4","","","","","0.2035171393","0.4731273917","0.1460019496","0.1507911491","","","","","","","","74","J","1","","","14","main_expt"
"","bandit","94","695240","0.0-55.0-0.0","73292920","wem/bandit_either_2","ALEE1QD4TW9G4","either","3","677","","","","","","","0","0","1","","0.2800299461","0.2","0.8","0.6","0.4","0.2800299461","0.4585867004","0.1667614464","0.1741212098","","","","","","","","","","","","72","H","0","img/none_selected.jpg","","15","main_expt"
"","bandit","95","697216","0.0-56.0-0.0","73292920","wem/bandit_either_2","ALEE1QD4TW9G4","either","3","451","","","","","","","0","1","0","","0.1973644546","0.2","0.8","0.6","0.4","0.2725454461","0.4366533258","0.1973644546","0.1918308831","","","","","","","","","","","","75","K","2","","","16","main_expt"
"","bandit","96","699194","0.0-57.0-0.0","73292920","wem/bandit_either_2","ALEE1QD4TW9G4","either","3","471","","","","","","","0","0","1","0.1873415792","","0.2","0.8","0.6","0.4","","","","","0.1570621471","0.4405228744","0.1873415792","0.1950212473","","","","","","","","75","K","2","","","17","main_expt"
"","bandit","97","702220","0.0-58.0-0.0","73292920","wem/bandit_either_2","ALEE1QD4TW9G4","either","3","1491","","","","","","","0","0","1","0.1875860444","","0.2","0.8","0.6","0.4","","","","","0.1968188506","0.4678551263","0.1875860444","0.2094813194","","","","","","","","75","K","2","","","18","main_expt"
"","bandit","98","704173","0.0-59.0-0.0","73292920","wem/bandit_either_2","ALEE1QD4TW9G4","either","3","423","","","","","","","0","0","1","","0.2628959394","0.2","0.8","0.6","0.4","0.2439518204","0.466140525","0.1988439388","0.2628959394","","","","","","","","","","","","76","L","3","","","19","main_expt"
"","bandit","99","707150","0.0-60.0-0.0","73292920","wem/bandit_either_2","ALEE1QD4TW9G4","either","3","1454","","","","","","","0","0","1","0.4094087999","","0.2","0.8","0.6","0.4","","","","","0.2806117898","0.4094087999","0.1813993393","0.2116504525","","","","","","","","74","J","1","","","20","main_expt"
"","bandit","100","709008","0.0-61.0-0.0","73292920","wem/bandit_either_2","ALEE1QD4TW9G4","either","3","333","","","","","","","0","0","1","0.2012004452","","0.2","0.8","0.6","0.4","","","","","0.2658005831","0.4386974508","0.2012004452","0.1904426465","","","","","","","","75","K","2","","","21","main_expt"
"","bandit","101","711373","0.0-62.0-0.0","73292920","wem/bandit_either_2","ALEE1QD4TW9G4","either","3","825","","","","","","","0","0","1","0.1958646163","","0.2","0.8","0.6","0.4","","","","","0.2774390086","0.4505723784","0.1958646163","0.1581796968","","","","","","","","75","K","2","","","22","main_expt"
"","bandit","102","713363","0.0-63.0-0.0","73292920","wem/bandit_either_2","ALEE1QD4TW9G4","either","3","471","","","","","","","0","0","1","","0.2795917474","0.2","0.8","0.6","0.4","0.2795917474","0.4568000239","0.2626819079","0.2039009352","","","","","","","","","","","","72","H","0","img/none_selected.jpg","","23","main_expt"
"","bandit","103","715410","0.0-64.0-0.0","73292920","wem/bandit_either_2","ALEE1QD4TW9G4","either","3","504","","","","","","","0","0","1","","0.228339491","0.2","0.8","0.6","0.4","0.2981059477","0.4518339256","0.2906682881","0.228339491","","","","","","","","","","","","76","L","3","","","24","main_expt"
"","bandit","104","717389","0.0-65.0-0.0","73292920","wem/bandit_either_2","ALEE1QD4TW9G4","either","3","457","","","","","","","0","0","1","","0.3270173502","0.2","0.8","0.6","0.4","0.3272059922","0.4120159309","0.3270173502","0.2602465224","","","","","","","","","","","","75","K","2","","","25","main_expt"
"","bandit","105","719981","0.0-66.0-0.0","73292920","wem/bandit_either_2","ALEE1QD4TW9G4","either","3","1064","","","","","","","1","0","0","0.4134154185","","0.2","0.8","0.6","0.4","","","","","0.3369826645","0.4134154185","0.2951289915","0.1939420306","","","","","","","","74","J","1","","","26","main_expt"
"","bandit","106","721779","0.0-67.0-0.0","73292920","wem/bandit_either_2","ALEE1QD4TW9G4","either","3","274","","","","","","","1","0","0","0.4031068294","","0.2","0.8","0.6","0.4","","","","","0.2531212506","0.4031068294","0.3520126272","0.2387331149","","","","","","","","74","J","1","","","27","main_expt"
"","bandit","107","723634","0.0-68.0-0.0","73292920","wem/bandit_either_2","ALEE1QD4TW9G4","either","3","329","","","","","","","0","1","0","","0.4305883772","0.2","0.8","0.6","0.4","0.2170461037","0.4305883772","0.3369287003","0.2183458617","","","","","","","","","","","","74","J","1","","","28","main_expt"
"","bandit","108","725464","0.0-69.0-0.0","73292920","wem/bandit_either_2","ALEE1QD4TW9G4","either","3","309","","","","","","","0","0","1","0.4383329838","","0.2","0.8","0.6","0.4","","","","","0.2346211465","0.4383329838","0.3591799128","0.2151501268","","","","","","","","74","J","1","","","29","main_expt"
"","bandit","109","727321","0.0-70.0-0.0","73292920","wem/bandit_either_2","ALEE1QD4TW9G4","either","3","326","","","","","","","0","0","1","0.4233276099","","0.2","0.8","0.6","0.4","","","","","0.2450860663","0.4233276099","0.3324285477","0.2267233056","","","","","","","","74","J","1","","","30","main_expt"
"","bandit","110","729125","0.0-71.0-0.0","73292920","wem/bandit_either_2","ALEE1QD4TW9G4","either","3","289","","","","","","","0","1","0","","0.4016185005","0.2","0.8","0.6","0.4","0.2141169407","0.4016185005","0.327032362","0.2663701676","","","","","","","","","","","","74","J","1","","","31","main_expt"
"","bandit","111","730966","0.0-72.0-0.0","73292920","wem/bandit_either_2","ALEE1QD4TW9G4","either","3","331","","","","","","","1","0","0","0.4134940178","","0.2","0.8","0.6","0.4","","","","","0.2347854155","0.4134940178","0.3230905041","0.275969473","","","","","","","","74","J","1","","","32","main_expt"
"","bandit","112","732801","0.0-73.0-0.0","73292920","wem/bandit_either_2","ALEE1QD4TW9G4","either","3","296","","","","","","","1","0","0","0.4331174495","","0.2","0.8","0.6","0.4","","","","","0.246596708","0.4331174495","0.2969008969","0.3365270118","","","","","","","","74","J","1","","","33","main_expt"
"","bandit","113","734861","0.0-74.0-0.0","73292920","wem/bandit_either_2","ALEE1QD4TW9G4","either","3","522","","","","","","","1","0","0","0.4454497031","","0.2","0.8","0.6","0.4","","","","","0.1914370393","0.4454497031","0.2536392951","0.2916301021","","","","","","","","74","J","1","","","34","main_expt"
"","bandit","114","737214","0.0-75.0-0.0","73292920","wem/bandit_either_2","ALEE1QD4TW9G4","either","3","834","","","","","","","0","0","1","0.4419706984","","0.2","0.8","0.6","0.4","","","","","0.1408207185","0.4419706984","0.2336030597","0.3236538836","","","","","","","","74","J","1","","","35","main_expt"
"","bandit","115","740411","0.0-76.0-0.0","73292920","wem/bandit_either_2","ALEE1QD4TW9G4","either","3","1680","","","","","","","0","0","1","0.4205940312","","0.2","0.8","0.6","0.4","","","","","0.09539735145","0.4205940312","0.3110392291","0.3317439785","","","","","","","","74","J","1","","","36","main_expt"
"","bandit","116","742884","0.0-77.0-0.0","73292920","wem/bandit_either_2","ALEE1QD4TW9G4","either","3","929","","","","","","","0","0","1","","0.4227305347","0.2","0.8","0.6","0.4","0.08867332122","0.4227305347","0.3354302382","0.3620900841","","","","","","","","","","","","74","J","1","","","37","main_expt"
"","bandit","117","745095","0.0-78.0-0.0","73292920","wem/bandit_either_2","ALEE1QD4TW9G4","either","3","678","","","","","","","0","0","1","","0.3359947902","0.2","0.8","0.6","0.4","0.0804097964","0.3904174821","0.3359947902","0.3649119955","","","","","","","","","","","","75","K","2","","","38","main_expt"
"","bandit","118","746966","0.0-79.0-0.0","73292920","wem/bandit_either_2","ALEE1QD4TW9G4","either","3","348","","","","","","","1","0","0","0.3704092514","","0.2","0.8","0.6","0.4","","","","","0.1092906338","0.3704092514","0.3719467902","0.3993258453","","","","","","","","74","J","1","","","39","main_expt"
"","bandit","119","748986","0.0-80.0-0.0","73292920","wem/bandit_either_2","ALEE1QD4TW9G4","either","3","487","","","","","","","0","0","1","","0.3250394812","0.2","0.8","0.6","0.4","0.08771014895","0.3250394812","0.37180955","0.43145226","","","","","","","","","","","","74","J","1","","","40","main_expt"
"","bandit","120","750881","0.0-81.0-0.0","73292920","wem/bandit_either_2","ALEE1QD4TW9G4","either","3","373","","","","","","","1","0","0","0.3633775572","","0.2","0.8","0.6","0.4","","","","","0.1065106481","0.3633775572","0.3972707938","0.3925837484","","","","","","","","74","J","1","","","41","main_expt"
"","bandit","121","752770","0.0-82.0-0.0","73292920","wem/bandit_either_2","ALEE1QD4TW9G4","either","3","353","","","","","","","0","0","1","","0.3708570881","0.2","0.8","0.6","0.4","0.0926848955","0.3708570881","0.3981555674","0.4020613291","","","","","","","","","","","","74","J","1","","","42","main_expt"
"","bandit","122","755079","0.0-83.0-0.0","73292920","wem/bandit_either_2","ALEE1QD4TW9G4","either","3","785","","","","","","","0","0","1","","0.09213729174","0.2","0.8","0.6","0.4","0.09213729174","0.3852030547","0.3698022864","0.4199094288","","","","","","","","","","","","72","H","0","img/none_selected.jpg","","43","main_expt"
"","bandit","123","756878","0.0-84.0-0.0","73292920","wem/bandit_either_2","ALEE1QD4TW9G4","either","3","270","","","","","","","0","0","1","0.3653477133","","0.2","0.8","0.6","0.4","","","","","0.0950319608","0.3653477133","0.3278340923","0.4362917367","","","","","","","","74","J","1","","","44","main_expt"
"","bandit","124","758884","0.0-85.0-0.0","73292920","wem/bandit_either_2","ALEE1QD4TW9G4","either","3","491","","","","","","","0","0","1","","0.07917944011","0.2","0.8","0.6","0.4","0.07917944011","0.3423722135","0.4004869948","0.4310393502","","","","","","","","","","","","72","H","0","img/none_selected.jpg","","45","main_expt"
"","bandit","125","760637","0.0-86.0-0.0","73292920","wem/bandit_either_2","ALEE1QD4TW9G4","either","3","219","","","","","","","0","0","1","0.2713785315","","0.2","0.8","0.6","0.4","","","","","0.08528552535","0.2713785315","0.4389658195","0.4301719659","","","","","","","","74","J","1","","","46","main_expt"
"","bandit","126","762645","0.0-87.0-0.0","73292920","wem/bandit_either_2","ALEE1QD4TW9G4","either","3","489","","","","","","","0","0","1","0.4274268526","","0.2","0.8","0.6","0.4","","","","","0.08303267599","0.2675382036","0.4294918489","0.4274268526","","","","","","","","76","L","3","","","47","main_expt"
"","bandit","127","764478","0.0-88.0-0.0","73292920","wem/bandit_either_2","ALEE1QD4TW9G4","either","3","292","","","","","","","0","0","1","0.4559220927","","0.2","0.8","0.6","0.4","","","","","0.1183490009","0.3006553151","0.3948346084","0.4559220927","","","","","","","","76","L","3","","","48","main_expt"
"","bandit","128","766442","0.0-89.0-0.0","73292920","wem/bandit_either_2","ALEE1QD4TW9G4","either","3","424","","","","","","","0","1","0","","0.4226663974","0.2","0.8","0.6","0.4","0.09831357925","0.2865645246","0.4226663974","0.4362936898","","","","","","","","","","","","75","K","2","","","49","main_expt"
"","bandit","129","768358","0.0-90.0-0.0","73292920","wem/bandit_either_2","ALEE1QD4TW9G4","either","3","380","","","","","","","1","0","0","0.3943232949","","0.2","0.8","0.6","0.4","","","","","0.0896163698","0.2842330123","0.3943232949","0.4001593617","","","","","","","","75","K","2","","","50","main_expt"
"","bandit","130","770176","0.0-91.0-0.0","73292920","wem/bandit_either_2","ALEE1QD4TW9G4","either","3","284","","","","","","","0","0","1","","0.3911898034","0.2","0.8","0.6","0.4","0.08239790895","0.2933637591","0.3911898034","0.3737598101","","","","","","","","","","","","75","K","2","","","51","main_expt"
"","bandit","131","772335","0.0-92.0-0.0","73292920","wem/bandit_either_2","ALEE1QD4TW9G4","either","3","624","","","","","","","0","1","0","","0.3897106723","0.2","0.8","0.6","0.4","0.06509061927","0.2802127762","0.3897106723","0.3490564905","","","","","","","","","","","","75","K","2","","","52","main_expt"
"","bandit","132","774337","0.0-93.0-0.0","73292920","wem/bandit_either_2","ALEE1QD4TW9G4","either","3","456","","","","","","","0","1","0","","0.3977919118","0.2","0.8","0.6","0.4","0.05503049918","0.2567133084","0.3977919118","0.3606416198","","","","","","","","","","","","75","K","2","","","53","main_expt"
"","bandit","133","776187","0.0-94.0-0.0","73292920","wem/bandit_either_2","ALEE1QD4TW9G4","either","3","311","","","","","","","0","1","0","","0.3803623479","0.2","0.8","0.6","0.4","0.06606451817","0.304436262","0.3803623479","0.3920172378","","","","","","","","","","","","75","K","2","","","54","main_expt"
"","bandit","134","777977","0.0-95.0-0.0","73292920","wem/bandit_either_2","ALEE1QD4TW9G4","either","3","269","","","","","","","1","0","0","0.3898030924","","0.2","0.8","0.6","0.4","","","","","0.0812436444","0.3050376594","0.3898030924","0.3841867886","","","","","","","","75","K","2","","","55","main_expt"
"","bandit","135","779768","0.0-96.0-0.0","73292920","wem/bandit_either_2","ALEE1QD4TW9G4","either","3","272","","","","","","","0","0","1","0.4332266089","","0.2","0.8","0.6","0.4","","","","","0.05752214818","0.2874076515","0.4332266089","0.3752679739","","","","","","","","75","K","2","","","56","main_expt"
"","bandit","136","781597","0.0-97.0-0.0","73292920","wem/bandit_either_2","ALEE1QD4TW9G4","either","3","302","","","","","","","0","0","1","","0.4598680415","0.2","0.8","0.6","0.4","0.05957573693","0.2633226407","0.4598680415","0.3595388075","","","","","","","","","","","","75","K","2","","","57","main_expt"
"","bandit","137","783510","0.0-98.0-0.0","73292920","wem/bandit_either_2","ALEE1QD4TW9G4","either","3","378","","","","","","","0","0","1","0.4510058242","","0.2","0.8","0.6","0.4","","","","","0.08347810371","0.282557186","0.4510058242","0.2926617498","","","","","","","","75","K","2","","","58","main_expt"
"","bandit","138","785447","0.0-99.0-0.0","73292920","wem/bandit_either_2","ALEE1QD4TW9G4","either","3","401","","","","","","","0","0","1","","0.4587464736","0.2","0.8","0.6","0.4","0.1166757522","0.2675679041","0.4587464736","0.2854140482","","","","","","","","","","","","75","K","2","","","59","main_expt"
"","bandit","139","787403","0.0-100.0-0.0","73292920","wem/bandit_either_2","ALEE1QD4TW9G4","either","3","423","","","","","","","1","0","0","0.2654645802","","0.2","0.8","0.6","0.4","","","","","0.1223048521","0.2654645802","0.4534111386","0.2767785787","","","","","","","","74","J","1","","","60","main_expt"
"","bandit","140","789328","0.0-101.0-0.0","73292920","wem/bandit_either_2","ALEE1QD4TW9G4","either","3","398","","","","","","","0","0","1","0.2326588137","","0.2","0.8","0.6","0.4","","","","","0.1341525672","0.2326588137","0.4581751116","0.3110110239","","","","","","","","74","J","1","","","61","main_expt"
"","bandit","141","791166","0.0-102.0-0.0","73292920","wem/bandit_either_2","ALEE1QD4TW9G4","either","3","306","","","","","","","0","1","0","","0.2430345153","0.2","0.8","0.6","0.4","0.1748443247","0.2430345153","0.4447189615","0.2739379344","","","","","","","","","","","","74","J","1","","","62","main_expt"
"","bandit","142","793158","0.0-103.0-0.0","73292920","wem/bandit_either_2","ALEE1QD4TW9G4","either","3","467","","","","","","","0","0","1","0.2682261916","","0.2","0.8","0.6","0.4","","","","","0.1872250423","0.2682261916","0.4351057758","0.2518438402","","","","","","","","74","J","1","","","63","main_expt"
"","bandit","143","795055","0.0-104.0-0.0","73292920","wem/bandit_either_2","ALEE1QD4TW9G4","either","3","351","","","","","","","1","0","0","0.3136585585","","0.2","0.8","0.6","0.4","","","","","0.1592276408","0.3136585585","0.4559228662","0.216118181","","","","","","","","74","J","1","","","64","main_expt"
"","bandit","144","796880","0.0-105.0-0.0","73292920","wem/bandit_either_2","ALEE1QD4TW9G4","either","3","295","","","","","","","1","0","0","0.3208042698","","0.2","0.8","0.6","0.4","","","","","0.1881419285","0.3208042698","0.4526438492","0.1961712117","","","","","","","","74","J","1","","","65","main_expt"
"","bandit","145","798715","0.0-106.0-0.0","73292920","wem/bandit_either_2","ALEE1QD4TW9G4","either","3","303","","","","","","","0","0","1","0.3550213758","","0.2","0.8","0.6","0.4","","","","","0.2075830042","0.3550213758","0.4604690516","0.1821057022","","","","","","","","74","J","1","","","66","main_expt"
"","bandit","146","801771","0.0-107.0-0.0","73292920","wem/bandit_either_2","ALEE1QD4TW9G4","either","3","1534","","","","","","","0","0","1","0.2883445083","","0.2","0.8","0.6","0.4","","","","","0.210321401","0.2883445083","0.4479534522","0.2221692745","","","","","","","","74","J","1","","","67","main_expt"
"","bandit","147","803316","0.0-108.0-0.0","73292920","wem/bandit_either_2","ALEE1QD4TW9G4","either","3","19","","","","","","","0","0","1","","0.1740681144","0.2","0.8","0.6","0.4","0.1740681144","0.2492112051","0.4420076102","0.2385328342","","","","","","","","","","","","72","H","0","img/none_selected.jpg","","68","main_expt"
"","bandit","148","805215","0.0-109.0-0.0","73292920","wem/bandit_either_2","ALEE1QD4TW9G4","either","3","371","","","","","","","0","0","1","","0.2693988132","0.2","0.8","0.6","0.4","0.1495678232","0.1725364023","0.3840886122","0.2693988132","","","","","","","","","","","","76","L","3","","","69","main_expt"
"","bandit","149","807075","0.0-110.0-0.0","73292920","wem/bandit_either_2","ALEE1QD4TW9G4","either","3","328","","","","","","","1","0","0","0.2081322216","","0.2","0.8","0.6","0.4","","","","","0.1594524764","0.2081322216","0.3764426572","0.2633889128","","","","","","","","74","J","1","","","70","main_expt"
"","bandit","150","808864","0.0-111.0-0.0","73292920","wem/bandit_either_2","ALEE1QD4TW9G4","either","3","254","","","","","","","0","0","1","","0.2222096595","0.2","0.8","0.6","0.4","0.1308665948","0.2222096595","0.3925575972","0.2881785301","","","","","","","","","","","","74","J","1","","","71","main_expt"
"","bandit","151","811023","0.0-112.0-0.0","73292920","wem/bandit_either_2","ALEE1QD4TW9G4","either","3","645","","","","","","","0","0","1","0.2276413934","","0.2","0.8","0.6","0.4","","","","","0.1413665491","0.2276413934","0.4055717031","0.3496752211","","","","","","","","74","J","1","","","72","main_expt"
"","bandit","152","813118","0.0-113.0-0.0","73292920","wem/bandit_either_2","ALEE1QD4TW9G4","either","3","551","","","","","","","0","0","1","0.202726327","","0.2","0.8","0.6","0.4","","","","","0.1562096843","0.202726327","0.4313753627","0.3662649551","","","","","","","","74","J","1","","","73","main_expt"
"","bandit","153","814961","0.0-114.0-0.0","73292920","wem/bandit_either_2","ALEE1QD4TW9G4","either","3","312","","","","","","","0","1","0","","0.4294283137","0.2","0.8","0.6","0.4","0.1601549975","0.2465356434","0.4294283137","0.3318597218","","","","","","","","","","","","75","K","2","","","74","main_expt"
"","bandit","154","816886","0.0-115.0-0.0","73292920","wem/bandit_either_2","ALEE1QD4TW9G4","either","3","387","","","","","","","0","1","0","","0.4114775526","0.2","0.8","0.6","0.4","0.1962365409","0.2780880013","0.4114775526","0.3129946244","","","","","","","","","","","","75","K","2","","","75","main_expt"
"","bandit","155","818820","0.0-116.0-0.0","73292920","wem/bandit_either_2","ALEE1QD4TW9G4","either","3","412","","","","","","","0","0","1","0.4038916894","","0.2","0.8","0.6","0.4","","","","","0.2315068675","0.230570622","0.4038916894","0.3299880354","","","","","","","","75","K","2","","","76","main_expt"
"","bandit","156","820648","0.0-117.0-0.0","73292920","wem/bandit_either_2","ALEE1QD4TW9G4","either","3","288","","","","","","","0","0","1","0.4028298088","","0.2","0.8","0.6","0.4","","","","","0.1749603823","0.1747897532","0.4028298088","0.2704336052","","","","","","","","75","K","2","","","77","main_expt"
"","bandit","157","822468","0.0-118.0-0.0","73292920","wem/bandit_either_2","ALEE1QD4TW9G4","either","3","295","","","","","","","0","0","1","","0.4004321452","0.2","0.8","0.6","0.4","0.2091975686","0.2009150394","0.4004321452","0.2489008917","","","","","","","","","","","","75","K","2","","","78","main_expt"
"","bandit","158","824294","0.0-119.0-0.0","73292920","wem/bandit_either_2","ALEE1QD4TW9G4","either","3","298","","","","","","","0","0","1","","0.2182462247","0.2","0.8","0.6","0.4","0.2699334682","0.2090883318","0.3909827091","0.2182462247","","","","","","","","","","","","76","L","3","","","79","main_expt"
"","bandit","159","826082","0.0-120.0-0.0","73292920","wem/bandit_either_2","ALEE1QD4TW9G4","either","3","247","","","","","","","0","0","1","","0.1591694045","0.2","0.8","0.6","0.4","0.2712134299","0.215522018","0.4289339141","0.1591694045","","","","","","","","","","","","76","L","3","","","80","main_expt"
"","bandit","160","827938","0.0-121.0-0.0","73292920","wem/bandit_either_2","ALEE1QD4TW9G4","either","3","320","","","","","","","1","0","0","0.2563236188","","0.2","0.8","0.6","0.4","","","","","0.2563236188","0.2655955182","0.4256341571","0.1661146317","","","","","","","","72","H","0","img/none_selected.jpg","","81","main_expt"
"","bandit","161","829740","0.0-122.0-0.0","73292920","wem/bandit_either_2","ALEE1QD4TW9G4","either","3","288","","","","","","","0","0","1","","0.2474856626","0.2","0.8","0.6","0.4","0.2474856626","0.2642342948","0.4153375647","0.2249160828","","","","","","","","","","","","72","H","0","img/none_selected.jpg","","82","main_expt"
"","bandit","162","831643","0.0-123.0-0.0","73292920","wem/bandit_either_2","ALEE1QD4TW9G4","either","3","382","","","","","","","0","0","1","","0.2338037125","0.2","0.8","0.6","0.4","0.2338037125","0.2615040017","0.4239102097","0.2194800234","","","","","","","","","","","","72","H","0","img/none_selected.jpg","","83","main_expt"
"","bandit","163","833463","0.0-124.0-0.0","73292920","wem/bandit_either_2","ALEE1QD4TW9G4","either","3","299","","","","","","","1","0","0","0.2929655049","","0.2","0.8","0.6","0.4","","","","","0.2929655049","0.3136368113","0.4021041833","0.2020024956","","","","","","","","72","H","0","img/none_selected.jpg","","84","main_expt"
"","bandit","164","835564","0.0-125.0-0.0","73292920","wem/bandit_either_2","ALEE1QD4TW9G4","either","3","565","","","","","","","0","0","1","","0.2755572306","0.2","0.8","0.6","0.4","0.2755572306","0.2433538552","0.4322374594","0.1639230135","","","","","","","","","","","","72","H","0","img/none_selected.jpg","","85","main_expt"
"","bandit","165","837417","0.0-126.0-0.0","73292920","wem/bandit_either_2","ALEE1QD4TW9G4","either","3","312","","","","","","","0","0","1","0.2706615249","","0.2","0.8","0.6","0.4","","","","","0.2706615249","0.2583740773","0.4247618508","0.1423092638","","","","","","","","72","H","0","img/none_selected.jpg","","86","main_expt"
"","bandit","166","839346","0.0-127.0-0.0","73292920","wem/bandit_either_2","ALEE1QD4TW9G4","either","3","397","","","","","","","0","1","0","","0.3259805539","0.2","0.8","0.6","0.4","0.3259805539","0.2656778135","0.4130492334","0.1623313408","","","","","","","","","","","","72","H","0","img/none_selected.jpg","","87","main_expt"
"","bandit","167","841268","0.0-128.0-0.0","73292920","wem/bandit_either_2","ALEE1QD4TW9G4","either","3","386","","","","","","","0","0","1","","0.3471137027","0.2","0.8","0.6","0.4","0.3471137027","0.2565525481","0.3883747858","0.1459946163","","","","","","","","","","","","72","H","0","img/none_selected.jpg","","88","main_expt"
"","bandit","168","843110","0.0-129.0-0.0","73292920","wem/bandit_either_2","ALEE1QD4TW9G4","either","3","321","","","","","","","0","0","1","","0.3715311126","0.2","0.8","0.6","0.4","0.3715311126","0.2471999074","0.3950807547","0.1684807643","","","","","","","","","","","","72","H","0","img/none_selected.jpg","","89","main_expt"
"","bandit","169","845026","0.0-130.0-0.0","73292920","wem/bandit_either_2","ALEE1QD4TW9G4","either","3","390","","","","","","","0","0","1","","0.3571728809","0.2","0.8","0.6","0.4","0.3571728809","0.2204199549","0.420982679","0.1937692241","","","","","","","","","","","","72","H","0","img/none_selected.jpg","","90","main_expt"
"","bandit","170","846892","0.0-131.0-0.0","73292920","wem/bandit_either_2","ALEE1QD4TW9G4","either","3","330","","","","","","","0","0","1","0.2013548925","","0.2","0.8","0.6","0.4","","","","","0.3348642023","0.2013548925","0.4012606491","0.1670397906","","","","","","","","74","J","1","","","91","main_expt"
"","bandit","171","848691","0.0-132.0-0.0","73292920","wem/bandit_either_2","ALEE1QD4TW9G4","either","3","267","","","","","","","0","0","1","0.3950870333","","0.2","0.8","0.6","0.4","","","","","0.3551195155","0.174921714","0.3950870333","0.1936095216","","","","","","","","75","K","2","","","92","main_expt"
"","bandit","172","850630","0.0-133.0-0.0","73292920","wem/bandit_either_2","ALEE1QD4TW9G4","either","3","409","","","","","","","0","0","1","0.2399824117","","0.2","0.8","0.6","0.4","","","","","0.3494458231","0.1972058505","0.3797372222","0.2399824117","","","","","","","","76","L","3","","","93","main_expt"
"","bandit","173","852325","0.0-134.0-0.0","73292920","wem/bandit_either_2","ALEE1QD4TW9G4","either","3","156","","","","","","","1","0","0","0.3346339076","","0.2","0.8","0.6","0.4","","","","","0.3759818745","0.2144007407","0.3346339076","0.242536602","","","","","","","","75","K","2","","","94","main_expt"
"","bandit","174","854165","0.0-135.0-0.0","73292920","wem/bandit_either_2","ALEE1QD4TW9G4","either","3","296","","","","","","","1","0","0","0.3433005441","","0.2","0.8","0.6","0.4","","","","","0.3467088588","0.2025691914","0.3433005441","0.3081296623","","","","","","","","75","K","2","","","95","main_expt"
"","bandit","175","855995","0.0-136.0-0.0","73292920","wem/bandit_either_2","ALEE1QD4TW9G4","either","3","297","","","","","","","0","0","1","0.2900415689","","0.2","0.8","0.6","0.4","","","","","0.3520186383","0.1750118246","0.2900415689","0.371766452","","","","","","","","75","K","2","","","96","main_expt"
"","bandit","176","857834","0.0-137.0-0.0","73292920","wem/bandit_either_2","ALEE1QD4TW9G4","either","3","308","","","","","","","0","1","0","","0.3136050561","0.2","0.8","0.6","0.4","0.342216001","0.2433812568","0.3136050561","0.3737721809","","","","","","","","","","","","75","K","2","","","97","main_expt"
"","bandit","177","859410","0.0-138.0-0.0","73292920","wem/bandit_either_2","ALEE1QD4TW9G4","either","3","7","","","","","","","1","0","0","0.3236610102","","0.2","0.8","0.6","0.4","","","","","0.3775958225","0.1834100281","0.3236610102","0.3662625892","","","","","","","","75","K","2","","","98","main_expt"
"","bandit","178","861207","0.0-139.0-0.0","73292920","wem/bandit_either_2","ALEE1QD4TW9G4","either","3","281","","","","","","","0","0","1","0.3116662608","","0.2","0.8","0.6","0.4","","","","","0.3490624926","0.146161558","0.3116662608","0.3912879072","","","","","","","","75","K","2","","","99","main_expt"
"","bandit","179","863245","0.0-140.0-0.0","73292920","wem/bandit_either_2","ALEE1QD4TW9G4","either","3","510","","","","","","","1","0","0","0.3806420769","","0.2","0.8","0.6","0.4","","","","","0.3418910903","0.1186266926","0.3806420769","0.3916888764","","","","","","","","75","K","2","","","100","main_expt"
"","bandit","180","865326","0.0-141.0-0.0","73292920","wem/bandit_either_2","ALEE1QD4TW9G4","either","3","541","","","","","","","0","1","0","","0.3825052475","0.2","0.8","0.6","0.4","0.3544055354","0.1467879228","0.3825052475","0.3803758031","","","","","","","","","","","","75","K","2","","","101","main_expt"
"","bandit","181","867639","0.0-142.0-0.0","73292920","wem/bandit_either_2","ALEE1QD4TW9G4","either","3","764","","","","","","","0","0","1","0.3799327693","","0.2","0.8","0.6","0.4","","","","","0.3580864163","0.1336514036","0.3799327693","0.3685266224","","","","","","","","75","K","2","","","102","main_expt"
"","bandit","182","870295","0.0-143.0-0.0","73292920","wem/bandit_either_2","ALEE1QD4TW9G4","either","3","1119","","","","","","","0","0","1","0.3502018886","","0.2","0.8","0.6","0.4","","","","","0.336528594","0.1325092095","0.3502018886","0.3754978655","","","","","","","","75","K","2","","","103","main_expt"
"","bandit","183","872315","0.0-144.0-0.0","73292920","wem/bandit_either_2","ALEE1QD4TW9G4","either","3","484","","","","","","","0","0","1","0.3443431466","","0.2","0.8","0.6","0.4","","","","","0.3190078166","0.1162839287","0.3443431466","0.4033056484","","","","","","","","75","K","2","","","104","main_expt"
"","bandit","184","876474","0.0-145.0-0.0","73292920","wem/bandit_either_2","ALEE1QD4TW9G4","either","3","2615","","","","","","","1","0","0","0.115620258","","0.2","0.8","0.6","0.4","","","","","0.3100940773","0.115620258","0.3551378046","0.3617388181","","","","","","","","74","J","1","","","105","main_expt"
"","bandit","185","878479","0.0-146.0-0.0","73292920","wem/bandit_either_2","ALEE1QD4TW9G4","either","3","467","","","","","","","0","0","1","0.1102569517","","0.2","0.8","0.6","0.4","","","","","0.2964842485","0.1102569517","0.3177956882","0.3656875331","","","","","","","","74","J","1","","","106","main_expt"
"","bandit","186","880414","0.0-147.0-0.0","73292920","wem/bandit_either_2","ALEE1QD4TW9G4","either","3","398","","","","","","","0","0","1","0.110599846","","0.2","0.8","0.6","0.4","","","","","0.3224579283","0.110599846","0.3463124521","0.3478183852","","","","","","","","74","J","1","","","107","main_expt"
"","bandit","187","882872","0.0-148.0-0.0","73292920","wem/bandit_either_2","ALEE1QD4TW9G4","either","3","916","","","","","","","0","0","1","0.1647947233","","0.2","0.8","0.6","0.4","","","","","0.3365568187","0.1647947233","0.330790185","0.3715517583","","","","","","","","74","J","1","","","108","main_expt"
"","bandit","188","885105","0.0-149.0-0.0","73292920","wem/bandit_either_2","ALEE1QD4TW9G4","either","3","696","","","","","","","0","0","1","0.3713851569","","0.2","0.8","0.6","0.4","","","","","0.3200824859","0.146095753","0.3259779601","0.3713851569","","","","","","","","76","L","3","","","109","main_expt"
"","bandit","189","886983","0.0-150.0-0.0","73292920","wem/bandit_either_2","ALEE1QD4TW9G4","either","3","330","","","","","","","0","0","1","0.3169053314","","0.2","0.8","0.6","0.4","","","","","0.3179471713","0.1691954855","0.3169053314","0.3401672382","","","","","","","","75","K","2","","","110","main_expt"
"","bandit","190","888529","0.0-151.0-0.0","73292920","wem/bandit_either_2","ALEE1QD4TW9G4","either","3","27","","","","","","","0","0","1","0.1690298198","","0.2","0.8","0.6","0.4","","","","","0.3168158386","0.1690298198","0.342138516","0.3242328008","","","","","","","","74","J","1","","","111","main_expt"
"","bandit","191","890285","0.0-152.0-0.0","73292920","wem/bandit_either_2","ALEE1QD4TW9G4","either","3","215","","","","","","","0","0","1","0.3551606626","","0.2","0.8","0.6","0.4","","","","","0.3551606626","0.2196992501","0.3597886873","0.2991119965","","","","","","","","72","H","0","img/none_selected.jpg","","112","main_expt"
"","bandit","192","892416","0.0-153.0-0.0","73292920","wem/bandit_either_2","ALEE1QD4TW9G4","either","3","591","","","","","","","0","0","1","0.2723467559","","0.2","0.8","0.6","0.4","","","","","0.3615444015","0.2723467559","0.3580549124","0.3364281798","","","","","","","","74","J","1","","","113","main_expt"
"","bandit","193","894363","0.0-154.0-0.0","73292920","wem/bandit_either_2","ALEE1QD4TW9G4","either","3","411","","","","","","","0","0","1","0.4043222556","","0.2","0.8","0.6","0.4","","","","","0.4043222556","0.2470985199","0.3556181037","0.3495122724","","","","","","","","72","H","0","img/none_selected.jpg","","114","main_expt"
"","bandit","194","896214","0.0-155.0-0.0","73292920","wem/bandit_either_2","ALEE1QD4TW9G4","either","3","325","","","","","","","0","1","0","","0.3489042174","0.2","0.8","0.6","0.4","0.4179696435","0.2482590513","0.3489042174","0.324938203","","","","","","","","","","","","75","K","2","","","115","main_expt"
"","bandit","195","898152","0.0-156.0-0.0","73292920","wem/bandit_either_2","ALEE1QD4TW9G4","either","3","397","","","","","","","1","0","0","0.3466245191","","0.2","0.8","0.6","0.4","","","","","0.4324393975","0.1992012358","0.3466245191","0.3227512736","","","","","","","","75","K","2","","","116","main_expt"
"","bandit","196","899993","0.0-157.0-0.0","73292920","wem/bandit_either_2","ALEE1QD4TW9G4","either","3","311","","","","","","","1","0","0","0.3581754781","","0.2","0.8","0.6","0.4","","","","","0.4290779421","0.216355905","0.3581754781","0.2585209305","","","","","","","","75","K","2","","","117","main_expt"
"","bandit","197","901817","0.0-158.0-0.0","73292920","wem/bandit_either_2","ALEE1QD4TW9G4","either","3","297","","","","","","","0","0","1","0.283939031","","0.2","0.8","0.6","0.4","","","","","0.4459264202","0.1715453935","0.283939031","0.2817260076","","","","","","","","75","K","2","","","118","main_expt"
"","bandit","198","903653","0.0-159.0-0.0","73292920","wem/bandit_either_2","ALEE1QD4TW9G4","either","3","322","","","","","","","0","0","1","0.2992634423","","0.2","0.8","0.6","0.4","","","","","0.436995295","0.1843456939","0.2992634423","0.328214026","","","","","","","","75","K","2","","","119","main_expt"
"","bandit","199","905509","0.0-160.0-0.0","73292920","wem/bandit_either_2","ALEE1QD4TW9G4","either","3","319","","","","","","","0","0","1","","0.1878150733","0.2","0.8","0.6","0.4","0.4151314625","0.1848061615","0.1878150733","0.3355603121","","","","","","","","","","","","75","K","2","","","120","main_expt"
"","bandit","200","907365","0.0-161.0-0.0","73292920","wem/bandit_either_2","ALEE1QD4TW9G4","either","3","306","","","","","","","0","0","1","","0.1447458933","0.2","0.8","0.6","0.4","0.4384064527","0.1679578636","0.1447458933","0.3829587724","","","","","","","","","","","","75","K","2","","","121","main_expt"
"","bandit","201","909176","0.0-162.0-0.0","73292920","wem/bandit_either_2","ALEE1QD4TW9G4","either","3","293","","","","","","","0","1","0","","0.3995678287","0.2","0.8","0.6","0.4","0.4417589501","0.197295971","0.1176060398","0.3995678287","","","","","","","","","","","","76","L","3","","","122","main_expt"
"","bandit","202","911445","0.0-163.0-0.0","73292920","wem/bandit_either_2","ALEE1QD4TW9G4","either","3","729","","","","","","","0","0","1","","0.3656739583","0.2","0.8","0.6","0.4","0.4017154396","0.2184653352","0.1097677055","0.3656739583","","","","","","","","","","","","76","L","3","","","123","main_expt"
"","bandit","203","913092","0.0-164.0-0.0","73292920","wem/bandit_either_2","ALEE1QD4TW9G4","either","3","96","","","","","","","0","1","0","","0.3862549257","0.2","0.8","0.6","0.4","0.3619070526","0.2147868977","0.08048168986","0.3862549257","","","","","","","","","","","","76","L","3","","","124","main_expt"
"","bandit","204","915121","0.0-165.0-0.0","73292920","wem/bandit_either_2","ALEE1QD4TW9G4","either","3","490","","","","","","","0","0","1","","0.3593796239","0.2","0.8","0.6","0.4","0.3567490645","0.1667936559","0.07842900555","0.3593796239","","","","","","","","","","","","76","L","3","","","125","main_expt"
"","bandit","205","916925","0.0-166.0-0.0","73292920","wem/bandit_either_2","ALEE1QD4TW9G4","either","3","263","","","","","","","1","0","0","0.3413194209","","0.2","0.8","0.6","0.4","","","","","0.3558473019","0.1453295256","0.08318363027","0.3413194209","","","","","","","","76","L","3","","","126","main_expt"
"","bandit","206","918856","0.0-167.0-0.0","73292920","wem/bandit_either_2","ALEE1QD4TW9G4","either","3","404","","","","","","","0","0","1","0.3369929262","","0.2","0.8","0.6","0.4","","","","","0.3543069734","0.1635755653","0.06812438963","0.3369929262","","","","","","","","76","L","3","","","127","main_expt"
"","bandit","207","920635","0.0-168.0-0.0","73292920","wem/bandit_either_2","ALEE1QD4TW9G4","either","3","248","","","","","","","1","0","0","0.2922989636","","0.2","0.8","0.6","0.4","","","","","0.3328374851","0.1872639566","0.08303766286","0.2922989636","","","","","","","","76","L","3","","","128","main_expt"
"","bandit","208","923488","0.0-169.0-0.0","73292920","wem/bandit_either_2","ALEE1QD4TW9G4","either","3","1330","","","","","","","0","0","1","","0.3095146075","0.2","0.8","0.6","0.4","0.3238683282","0.2032718864","0.09047360051","0.3095146075","","","","","","","","","","","","76","L","3","","","129","main_expt"
"","bandit","209","925315","0.0-170.0-0.0","73292920","wem/bandit_either_2","ALEE1QD4TW9G4","either","3","304","","","","","","","0","0","1","","0.3068425872","0.2","0.8","0.6","0.4","0.2750329062","0.2025864764","0.131542256","0.3068425872","","","","","","","","","","","","76","L","3","","","130","main_expt"
"","bandit","210","927147","0.0-171.0-0.0","73292920","wem/bandit_either_2","ALEE1QD4TW9G4","either","3","317","","","","","","","0","0","1","0.1492019489","","0.2","0.8","0.6","0.4","","","","","0.2751886228","0.2158584071","0.1492019489","0.3112504131","","","","","","","","75","K","2","","","131","main_expt"
"","bandit","211","929023","0.0-172.0-0.0","73292920","wem/bandit_either_2","ALEE1QD4TW9G4","either","3","342","","","","","","","0","1","0","","0.1571188116","0.2","0.8","0.6","0.4","0.2729729886","0.2105840197","0.1571188116","0.3595653039","","","","","","","","","","","","75","K","2","","","132","main_expt"
"","bandit","212","930878","0.0-173.0-0.0","73292920","wem/bandit_either_2","ALEE1QD4TW9G4","either","3","337","","","","","","","0","0","1","0.2021073832","","0.2","0.8","0.6","0.4","","","","","0.3248088544","0.2328486735","0.2021073832","0.3873527377","","","","","","","","75","K","2","","","133","main_expt"
"","bandit","213","932809","0.0-174.0-0.0","73292920","wem/bandit_either_2","ALEE1QD4TW9G4","either","3","397","","","","","","","0","0","1","","0.2693148074","0.2","0.8","0.6","0.4","0.3596446835","0.2589092944","0.2693148074","0.3973884711","","","","","","","","","","","","75","K","2","","","134","main_expt"
"","bandit","214","936283","0.0-175.0-0.0","73292920","wem/bandit_either_2","ALEE1QD4TW9G4","either","3","1930","","","","","","","0","0","1","0.2637326353","","0.2","0.8","0.6","0.4","","","","","0.318377279","0.2637326353","0.2625780805","0.4080523157","","","","","","","","74","J","1","","","135","main_expt"
"","bandit","215","938258","0.0-176.0-0.0","73292920","wem/bandit_either_2","ALEE1QD4TW9G4","either","3","441","","","","","","","0","0","1","","0.2718680576","0.2","0.8","0.6","0.4","0.3160887017","0.2718680576","0.2981707722","0.4176503084","","","","","","","","","","","","74","J","1","","","136","main_expt"
"","bandit","216","940892","0.0-177.0-0.0","73292920","wem/bandit_either_2","ALEE1QD4TW9G4","either","3","1094","","","","","","","0","1","0","","0.2883225013","0.2","0.8","0.6","0.4","0.2883225013","0.2919957672","0.3148158286","0.3859803947","","","","","","","","","","","","72","H","0","img/none_selected.jpg","","137","main_expt"
"","bandit","217","943140","0.0-178.0-0.0","73292920","wem/bandit_either_2","ALEE1QD4TW9G4","either","3","711","","","","","","","0","0","1","0.3009152141","","0.2","0.8","0.6","0.4","","","","","0.3009152141","0.3193993407","0.3111523267","0.358492916","","","","","","","","72","H","0","img/none_selected.jpg","","138","main_expt"
"","bandit","218","945594","0.0-179.0-0.0","73292920","wem/bandit_either_2","ALEE1QD4TW9G4","either","3","922","","","","","","","0","0","1","","0.293720077","0.2","0.8","0.6","0.4","0.293720077","0.3404434035","0.3034593298","0.3608756281","","","","","","","","","","","","72","H","0","img/none_selected.jpg","","139","main_expt"
"","bandit","219","947924","0.0-180.0-0.0","73292920","wem/bandit_either_2","ALEE1QD4TW9G4","either","3","763","","","","","","","0","0","1","0.286059761","","0.2","0.8","0.6","0.4","","","","","0.286059761","0.3278052243","0.2507495005","0.3421836092","","","","","","","","72","H","0","img/none_selected.jpg","","140","main_expt"
"","bandit","220","950558","0.0-181.0-0.0","73292920","wem/bandit_either_2","ALEE1QD4TW9G4","either","3","1101","","","","","","","0","0","1","0.2220694513","","0.2","0.8","0.6","0.4","","","","","0.2931724706","0.3038906839","0.2220694513","0.3737340371","","","","","","","","75","K","2","","","141","main_expt"
"","bandit","221","952540","0.0-182.0-0.0","73292920","wem/bandit_either_2","ALEE1QD4TW9G4","either","3","442","","","","","","","0","0","1","","0.3461121542","0.2","0.8","0.6","0.4","0.2182180164","0.2924195757","0.2119249064","0.3461121542","","","","","","","","","","","","76","L","3","","","142","main_expt"
"","bandit","222","954613","0.0-183.0-0.0","73292920","wem/bandit_either_2","ALEE1QD4TW9G4","either","3","533","","","","","","","0","0","1","0.3305931074","","0.2","0.8","0.6","0.4","","","","","0.2015475508","0.2816149275","0.2665135591","0.3305931074","","","","","","","","76","L","3","","","143","main_expt"
"","bandit","223","956565","0.0-184.0-0.0","73292920","wem/bandit_either_2","ALEE1QD4TW9G4","either","3","407","","","","","","","0","0","1","","0.2854155153","0.2","0.8","0.6","0.4","0.2074070562","0.2355525614","0.2854155153","0.3561039987","","","","","","","","","","","","75","K","2","","","144","main_expt"
"","bandit","224","958457","0.0-185.0-0.0","73292920","wem/bandit_either_2","ALEE1QD4TW9G4","either","3","350","","","","","","","0","0","1","0.2185662272","","0.2","0.8","0.6","0.4","","","","","0.1415368311","0.2185662272","0.2521048148","0.3648023512","","","","","","","","74","J","1","","","145","main_expt"
"","bandit","225","960347","0.0-186.0-0.0","73292920","wem/bandit_either_2","ALEE1QD4TW9G4","either","3","346","","","","","","","0","0","1","0.2209315791","","0.2","0.8","0.6","0.4","","","","","0.1549520657","0.2209315791","0.2321266643","0.3450315","","","","","","","","74","J","1","","","146","main_expt"
"","bandit","226","962369","0.0-187.0-0.0","73292920","wem/bandit_either_2","ALEE1QD4TW9G4","either","3","483","","","","","","","0","0","1","","0.1469310363","0.2","0.8","0.6","0.4","0.1469310363","0.2889766311","0.3159383216","0.2720321141","","","","","","","","","","","","72","H","0","img/none_selected.jpg","","147","main_expt"
"","bandit","227","964242","0.0-188.0-0.0","73292920","wem/bandit_either_2","ALEE1QD4TW9G4","either","3","348","","","","","","","0","0","1","","0.1332828417","0.2","0.8","0.6","0.4","0.1332828417","0.2859466156","0.2673485129","0.2598972664","","","","","","","","","","","","72","H","0","img/none_selected.jpg","","148","main_expt"
"","bandit","228","966149","0.0-189.0-0.0","73292920","wem/bandit_either_2","ALEE1QD4TW9G4","either","3","386","","","","","","","0","0","1","0.2588478233","","0.2","0.8","0.6","0.4","","","","","0.1102010463","0.2588478233","0.3348600541","0.2343157719","","","","","","","","74","J","1","","","149","main_expt"
"","bandit","229","968378","0.0-190.0-0.0","73292920","wem/bandit_either_2","ALEE1QD4TW9G4","either","3","700","","","","","","","0","0","1","0.2224653457","","0.2","0.8","0.6","0.4","","","","","0.1356103494","0.2224653457","0.3659656834","0.2451363599","","","","","","","","74","J","1","","","150","main_expt"
"","bandit","230","970196","0.0-191.0-0.0","73292920","wem/bandit_either_2","ALEE1QD4TW9G4","either","3","283","","","","","","","0","0","1","0.36397653","","0.2","0.8","0.6","0.4","","","","","0.1621229287","0.2387237716","0.36397653","0.2053737132","","","","","","","","75","K","2","","","151","main_expt"
"","bandit","231","971995","0.0-192.0-0.0","73292920","wem/bandit_either_2","ALEE1QD4TW9G4","either","3","270","","","","","","","1","0","0","0.3710672623","","0.2","0.8","0.6","0.4","","","","","0.1412745606","0.2519133504","0.3710672623","0.2396242378","","","","","","","","75","K","2","","","152","main_expt"
"","bandit","232","974254","0.0-193.0-0.0","73292920","wem/bandit_either_2","ALEE1QD4TW9G4","either","3","730","","","","","","","1","0","0","0.3828607765","","0.2","0.8","0.6","0.4","","","","","0.1707580034","0.3078499427","0.3828607765","0.2923277395","","","","","","","","75","K","2","","","153","main_expt"
"","bandit","233","976917","0.0-194.0-0.0","73292920","wem/bandit_either_2","ALEE1QD4TW9G4","either","3","1138","","","","","","","0","0","1","","0.3526468527","0.2","0.8","0.6","0.4","0.1717455462","0.3283820497","0.3526468527","0.3166515581","","","","","","","","","","","","75","K","2","","","154","main_expt"
"","bandit","234","978763","0.0-195.0-0.0","73292920","wem/bandit_either_2","ALEE1QD4TW9G4","either","3","297","","","","","","","0","0","1","0.3865981945","","0.2","0.8","0.6","0.4","","","","","0.1785539081","0.3303057687","0.3865981945","0.3194616596","","","","","","","","75","K","2","","","155","main_expt"
"","bandit","235","980688","0.0-196.0-0.0","73292920","wem/bandit_either_2","ALEE1QD4TW9G4","either","3","399","","","","","","","0","0","1","0.4328422877","","0.2","0.8","0.6","0.4","","","","","0.2175815231","0.3178912443","0.4328422877","0.3767011333","","","","","","","","75","K","2","","","156","main_expt"
"","bandit","236","983169","0.0-197.0-0.0","73292920","wem/bandit_either_2","ALEE1QD4TW9G4","either","3","930","","","","","","","0","0","1","","0.4224906378","0.2","0.8","0.6","0.4","0.216674397","0.3236874272","0.4224906378","0.3853144204","","","","","","","","","","","","75","K","2","","","157","main_expt"
"","bandit","237","985192","0.0-198.0-0.0","73292920","wem/bandit_either_2","ALEE1QD4TW9G4","either","3","476","","","","","","","0","1","0","","0.3519128793","0.2","0.8","0.6","0.4","0.2184316938","0.3731337511","0.4428847078","0.3519128793","","","","","","","","","","","","76","L","3","","","158","main_expt"
"","bandit","238","987015","0.0-199.0-0.0","73292920","wem/bandit_either_2","ALEE1QD4TW9G4","either","3","298","","","","","","","1","0","0","0.3255157266","","0.2","0.8","0.6","0.4","","","","","0.2603966468","0.3758107074","0.4498083842","0.3255157266","","","","","","","","76","L","3","","","159","main_expt"
"","bandit","239","988848","0.0-200.0-0.0","73292920","wem/bandit_either_2","ALEE1QD4TW9G4","either","3","299","","","","","","","0","0","1","0.379238532","","0.2","0.8","0.6","0.4","","","","","0.2242017374","0.3494215766","0.4319550234","0.379238532","","","","","","","","76","L","3","","","160","main_expt"
"","bandit","240","991719","0.0-201.0-0.0","73292920","wem/bandit_either_2","ALEE1QD4TW9G4","either","3","1336","","","","","","","1","0","0","0.3776335756","","0.2","0.8","0.6","0.4","","","","","0.2014027125","0.3327111917","0.4417514389","0.3776335756","","","","","","","","76","L","3","","","161","main_expt"
"","bandit","241","994527","0.0-202.0-0.0","73292920","wem/bandit_either_2","ALEE1QD4TW9G4","either","3","1280","","","","","","","0","0","1","","0.2955751891","0.2","0.8","0.6","0.4","0.2038621466","0.3171011618","0.4081293495","0.2955751891","","","","","","","","","","","","76","L","3","","","162","main_expt"
"","bandit","242","996473","0.0-203.0-0.0","73292920","wem/bandit_either_2","ALEE1QD4TW9G4","either","3","399","","","","","","","0","0","1","","0.30851492","0.2","0.8","0.6","0.4","0.1238136799","0.364183239","0.4265776113","0.30851492","","","","","","","","","","","","76","L","3","","","163","main_expt"
"","bandit","243","998325","0.0-204.0-0.0","73292920","wem/bandit_either_2","ALEE1QD4TW9G4","either","3","316","","","","","","","0","0","1","0.3074756362","","0.2","0.8","0.6","0.4","","","","","0.1104941302","0.3917374524","0.427472809","0.3074756362","","","","","","","","76","L","3","","","164","main_expt"
"","bandit","244","1000593","0.0-205.0-0.0","73292920","wem/bandit_either_2","ALEE1QD4TW9G4","either","3","729","","","","","","","0","0","1","0.3629360172","","0.2","0.8","0.6","0.4","","","","","0.1099358877","0.3629360172","0.4016343469","0.2743039079","","","","","","","","74","J","1","","","165","main_expt"
"","bandit","245","1002425","0.0-206.0-0.0","73292920","wem/bandit_either_2","ALEE1QD4TW9G4","either","3","292","","","","","","","0","0","1","0.3697042915","","0.2","0.8","0.6","0.4","","","","","0.08082918558","0.3697042915","0.3578169927","0.2900226329","","","","","","","","74","J","1","","","166","main_expt"
"","bandit","246","1004322","0.0-207.0-0.0","73292920","wem/bandit_either_2","ALEE1QD4TW9G4","either","3","373","","","","","","","0","0","1","0.3346076013","","0.2","0.8","0.6","0.4","","","","","0.08539074978","0.3626443337","0.3346076013","0.3444017494","","","","","","","","75","K","2","","","167","main_expt"
"","bandit","247","1006174","0.0-208.0-0.0","73292920","wem/bandit_either_2","ALEE1QD4TW9G4","either","3","323","","","","","","","0","0","1","","0.1307687804","0.2","0.8","0.6","0.4","0.1307687804","0.3488380128","0.36326211","0.3934904689","","","","","","","","","","","","72","H","0","img/none_selected.jpg","","168","main_expt"
"","bandit","248","1008022","0.0-209.0-0.0","73292920","wem/bandit_either_2","ALEE1QD4TW9G4","either","3","318","","","","","","","0","0","1","","0.3389060657","0.2","0.8","0.6","0.4","0.09435724838","0.3338465455","0.3389060657","0.3712778229","","","","","","","","","","","","75","K","2","","","169","main_expt"
"","bandit","249","1009931","0.0-210.0-0.0","73292920","wem/bandit_either_2","ALEE1QD4TW9G4","either","3","387","","","","","","","0","0","1","","0.09371103674","0.2","0.8","0.6","0.4","0.09371103674","0.3675902536","0.3820287301","0.3348119161","","","","","","","","","","","","72","H","0","img/none_selected.jpg","","170","main_expt"
"","bandit","250","1011542","0.0-211.0-0.0","73292920","wem/bandit_either_2","ALEE1QD4TW9G4","either","3","67","","","","","","","0","0","1","0.3663425941","","0.2","0.8","0.6","0.4","","","","","0.0912992704","0.3663425941","0.3738350687","0.3697689907","","","","","","","","74","J","1","","","171","main_expt"
"","bandit","251","1013194","0.0-212.0-0.0","73292920","wem/bandit_either_2","ALEE1QD4TW9G4","either","3","102","","","","","","","0","0","1","","0.3438364448","0.2","0.8","0.6","0.4","0.1053216192","0.3571019768","0.3449486646","0.3438364448","","","","","","","","","","","","76","L","3","","","172","main_expt"
"","bandit","252","1015099","0.0-213.0-0.0","73292920","wem/bandit_either_2","ALEE1QD4TW9G4","either","3","359","","","","","","","0","1","0","","0.3754463001","0.2","0.8","0.6","0.4","0.1119971747","0.383943734","0.3754463001","0.4064517123","","","","","","","","","","","","75","K","2","","","173","main_expt"
"","bandit","253","1016988","0.0-214.0-0.0","73292920","wem/bandit_either_2","ALEE1QD4TW9G4","either","3","344","","","","","","","0","0","1","","0.3983783957","0.2","0.8","0.6","0.4","0.1049574405","0.378453819","0.3983783957","0.4266345201","","","","","","","","","","","","75","K","2","","","174","main_expt"
"","bandit","254","1018894","0.0-215.0-0.0","73292920","wem/bandit_either_2","ALEE1QD4TW9G4","either","3","383","","","","","","","0","1","0","","0.4176958341","0.2","0.8","0.6","0.4","0.07351671593","0.3577460836","0.4176958341","0.4413212306","","","","","","","","","","","","75","K","2","","","175","main_expt"
"","bandit","255","1020657","0.0-216.0-0.0","73292920","wem/bandit_either_2","ALEE1QD4TW9G4","either","3","249","","","","","","","0","0","1","","0.4336280271","0.2","0.8","0.6","0.4","0.06097876817","0.3346789668","0.4336280271","0.438548454","","","","","","","","","","","","75","K","2","","","176","main_expt"
"","bandit","256","1022265","0.0-217.0-0.0","73292920","wem/bandit_either_2","ALEE1QD4TW9G4","either","3","75","","","","","","","0","1","0","","0.3863917124","0.2","0.8","0.6","0.4","0.05873143133","0.3720341948","0.3863917124","0.4350726265","","","","","","","","","","","","75","K","2","","","177","main_expt"
"","bandit","257","1024397","0.0-218.0-0.0","73292920","wem/bandit_either_2","ALEE1QD4TW9G4","either","3","597","","","","","","","0","0","1","0.3826512014","","0.2","0.8","0.6","0.4","","","","","0.07829718294","0.4243236705","0.3826512014","0.4029859975","","","","","","","","75","K","2","","","178","main_expt"
"","bandit","258","1028004","0.0-219.0-0.0","73292920","wem/bandit_either_2","ALEE1QD4TW9G4","either","3","2071","","","","","","","0","0","1","0.3681046487","","0.2","0.8","0.6","0.4","","","","","0.05868413977","0.4396564102","0.3681046487","0.3738585124","","","","","","","","75","K","2","","","179","main_expt"
"","bandit","259","1030807","0.0-220.0-0.0","73292920","wem/bandit_either_2","ALEE1QD4TW9G4","either","3","1269","","","","","","","0","1","0","","0.374340785","0.2","0.8","0.6","0.4","0.04540529238","0.4501825932","0.374340785","0.3884150149","","","","","","","","","","","","75","K","2","","","180","main_expt"
"","bandit","260","1032631","0.0-221.0-0.0","73292920","wem/bandit_either_2","ALEE1QD4TW9G4","either","3","278","","","","","","","1","0","0","0.3844034803","","0.2","0.8","0.6","0.4","","","","","0.04810206047","0.4527537228","0.3844034803","0.3977335033","","","","","","","","75","K","2","","","181","main_expt"
"","bandit","261","1034456","0.0-222.0-0.0","73292920","wem/bandit_either_2","ALEE1QD4TW9G4","either","3","285","","","","","","","1","0","0","0.3569363444","","0.2","0.8","0.6","0.4","","","","","0.0564969073","0.4733821952","0.3569363444","0.4194204302","","","","","","","","75","K","2","","","182","main_expt"
"","bandit","262","1036255","0.0-223.0-0.0","73292920","wem/bandit_either_2","ALEE1QD4TW9G4","either","3","253","","","","","","","0","0","1","0.3930074682","","0.2","0.8","0.6","0.4","","","","","0.06674959941","0.4741352064","0.3930074682","0.4050300101","","","","","","","","75","K","2","","","183","main_expt"
"","bandit","263","1038652","0.0-224.0-0.0","73292920","wem/bandit_either_2","ALEE1QD4TW9G4","either","3","874","","","","","","","0","1","0","","0.4105724965","0.2","0.8","0.6","0.4","0.05730522946","0.4835015011","0.4105724965","0.4272992256","","","","","","","","","","","","75","K","2","","","184","main_expt"
"","bandit","264","1041773","0.0-225.0-0.0","73292920","wem/bandit_either_2","ALEE1QD4TW9G4","either","3","1589","","","","","","","1","0","0","0.4230276401","","0.2","0.8","0.6","0.4","","","","","0.0759668512","0.4907566516","0.4230276401","0.4213026748","","","","","","","","75","K","2","","","185","main_expt"
"","bandit","265","1044760","0.0-226.0-0.0","73292920","wem/bandit_either_2","ALEE1QD4TW9G4","either","3","1435","","","","","","","0","0","1","","0.4243078066","0.2","0.8","0.6","0.4","0.0736669194","0.4777100538","0.4243078066","0.3729626057","","","","","","","","","","","","75","K","2","","","186","main_expt"
"","bandit","266","1046796","0.0-227.0-0.0","73292920","wem/bandit_either_2","ALEE1QD4TW9G4","either","3","502","","","","","","","0","0","1","0.419104652","","0.2","0.8","0.6","0.4","","","","","0.1020870739","0.4751658893","0.419104652","0.4022080601","","","","","","","","75","K","2","","","187","main_expt"
"","bandit","267","1048875","0.0-228.0-0.0","73292920","wem/bandit_either_2","ALEE1QD4TW9G4","either","3","534","","","","","","","0","0","1","0.4711403756","","0.2","0.8","0.6","0.4","","","","","0.110066606","0.4711403756","0.3917910895","0.4218987807","","","","","","","","74","J","1","","","188","main_expt"
"","bandit","268","1050771","0.0-229.0-0.0","73292920","wem/bandit_either_2","ALEE1QD4TW9G4","either","3","362","","","","","","","0","0","1","","0.4848283219","0.2","0.8","0.6","0.4","0.1616324423","0.4848283219","0.3696037293","0.4284519853","","","","","","","","","","","","74","J","1","","","189","main_expt"
"","bandit","269","1052695","0.0-230.0-0.0","73292920","wem/bandit_either_2","ALEE1QD4TW9G4","either","3","385","","","","","","","0","0","1","","0.1401199573","0.2","0.8","0.6","0.4","0.1401199573","0.4906713727","0.3722688899","0.4104863902","","","","","","","","","","","","72","H","0","img/none_selected.jpg","","190","main_expt"
"","bandit","270","1054568","0.0-231.0-0.0","73292920","wem/bandit_either_2","ALEE1QD4TW9G4","either","3","333","","","","","","","0","0","1","","0.1782786715","0.2","0.8","0.6","0.4","0.1782786715","0.4944082075","0.3956575009","0.4071825693","","","","","","","","","","","","72","H","0","img/none_selected.jpg","","191","main_expt"
"","bandit","271","1056487","0.0-232.0-0.0","73292920","wem/bandit_either_2","ALEE1QD4TW9G4","either","3","371","","","","","","","0","0","1","","0.203517815","0.2","0.8","0.6","0.4","0.203517815","0.4922337742","0.3843500594","0.4172763132","","","","","","","","","","","","72","H","0","img/none_selected.jpg","","192","main_expt"
"","bandit","272","1058644","0.0-233.0-0.0","73292920","wem/bandit_either_2","ALEE1QD4TW9G4","either","3","616","","","","","","","0","0","1","","0.3965334946","0.2","0.8","0.6","0.4","0.172030281","0.4887356563","0.3801723293","0.3965334946","","","","","","","","","","","","76","L","3","","","193","main_expt"
"","bandit","273","1060469","0.0-234.0-0.0","73292920","wem/bandit_either_2","ALEE1QD4TW9G4","either","3","283","","","","","","","0","0","1","","0.383316574","0.2","0.8","0.6","0.4","0.1813301739","0.4850955297","0.3871645121","0.383316574","","","","","","","","","","","","76","L","3","","","194","main_expt"
"","bandit","274","1062292","0.0-235.0-0.0","73292920","wem/bandit_either_2","ALEE1QD4TW9G4","either","3","285","","","","","","","0","0","1","","0.3965345796","0.2","0.8","0.6","0.4","0.2284295163","0.4848341758","0.3633903175","0.3965345796","","","","","","","","","","","","76","L","3","","","195","main_expt"
"","bandit","275","1064270","0.0-236.0-0.0","73292920","wem/bandit_either_2","ALEE1QD4TW9G4","either","3","446","","","","","","","0","0","1","","0.3811675741","0.2","0.8","0.6","0.4","0.2501246714","0.490049139","0.3811675741","0.3978469093","","","","","","","","","","","","75","K","2","","","196","main_expt"
"","bandit","276","1066369","0.0-237.0-0.0","73292920","wem/bandit_either_2","ALEE1QD4TW9G4","either","3","576","","","","","","","0","0","1","0.3487868089","","0.2","0.8","0.6","0.4","","","","","0.3150809007","0.4912643012","0.3487868089","0.3172926233","","","","","","","","75","K","2","","","197","main_expt"
"","bandit","277","1068227","0.0-238.0-0.0","73292920","wem/bandit_either_2","ALEE1QD4TW9G4","either","3","314","","","","","","","1","0","0","0.4793615714","","0.2","0.8","0.6","0.4","","","","","0.3442077965","0.4793615714","0.2986771554","0.3113170709","","","","","","","","74","J","1","","","198","main_expt"
"","bandit","278","1070106","0.0-239.0-0.0","73292920","wem/bandit_either_2","ALEE1QD4TW9G4","either","3","327","","","","","","","0","0","1","0.4661622676","","0.2","0.8","0.6","0.4","","","","","0.3675051223","0.4661622676","0.3481418533","0.3066116159","","","","","","","","74","J","1","","","199","main_expt"
"","bandit","279","1072015","0.0-240.0-0.0","73292920","wem/bandit_either_2","ALEE1QD4TW9G4","either","3","361","","","","","","","1","0","0","0.4479238565","","0.2","0.8","0.6","0.4","","","","","0.3044821291","0.4479238565","0.353319573","0.2521122026","","","","","","","","74","J","1","","","200","main_expt"
"","bandit","280","1074275","0.0-241.0-0.0","73292920","wem/bandit_either_2","ALEE1QD4TW9G4","either","3","729","","","","","","","0","0","1","0.4429166455","","0.2","0.8","0.6","0.4","","","","","0.3013824411","0.4429166455","0.3676338631","0.2679963248","","","","","","","","74","J","1","","","201","main_expt"
"","bandit","281","1076183","0.0-242.0-0.0","73292920","wem/bandit_either_2","ALEE1QD4TW9G4","either","3","377","","","","","","","0","0","1","","0.442820363","0.2","0.8","0.6","0.4","0.3001954661","0.442820363","0.311657493","0.2076546236","","","","","","","","","","","","74","J","1","","","202","main_expt"
"","bandit","282","1077988","0.0-243.0-0.0","73292920","wem/bandit_either_2","ALEE1QD4TW9G4","either","3","286","","","","","","","0","0","1","0.4539008368","","0.2","0.8","0.6","0.4","","","","","0.3189156814","0.4539008368","0.3364041998","0.1881707852","","","","","","","","74","J","1","","","203","main_expt"
"","bandit","283","1079850","0.0-244.0-0.0","73292920","wem/bandit_either_2","ALEE1QD4TW9G4","either","3","337","","","","","","","0","0","1","0.4163307037","","0.2","0.8","0.6","0.4","","","","","0.3162062407","0.4163307037","0.3148670147","0.2057853427","","","","","","","","74","J","1","","","204","main_expt"
"","bandit","284","1081849","0.0-245.0-0.0","73292920","wem/bandit_either_2","ALEE1QD4TW9G4","either","3","455","","","","","","","0","0","1","","0.347278619","0.2","0.8","0.6","0.4","0.347278619","0.4045388199","0.3293187519","0.2564451259","","","","","","","","","","","","72","H","0","img/none_selected.jpg","","205","main_expt"
"","bandit","285","1083770","0.0-246.0-0.0","73292920","wem/bandit_either_2","ALEE1QD4TW9G4","either","3","388","","","","","","","0","0","1","0.2970129147","","0.2","0.8","0.6","0.4","","","","","0.2970129147","0.4083422121","0.2705077244","0.3082896296","","","","","","","","72","H","0","img/none_selected.jpg","","206","main_expt"
"","bandit","286","1085408","0.0-247.0-0.0","73292920","wem/bandit_either_2","ALEE1QD4TW9G4","either","3","99","","","","","","","1","0","0","0.3331481178","","0.2","0.8","0.6","0.4","","","","","0.3331481178","0.4033585138","0.3083591011","0.3235103938","","","","","","","","72","H","0","img/none_selected.jpg","","207","main_expt"
"","bandit","287","1087262","0.0-248.0-0.0","73292920","wem/bandit_either_2","ALEE1QD4TW9G4","either","3","330","","","","","","","0","1","0","","0.3195917859","0.2","0.8","0.6","0.4","0.3195917859","0.3753320851","0.2489273718","0.3563539536","","","","","","","","","","","","72","H","0","img/none_selected.jpg","","208","main_expt"
"","bandit","288","1089144","0.0-249.0-0.0","73292920","wem/bandit_either_2","ALEE1QD4TW9G4","either","3","333","","","","","","","0","1","0","","0.3642345195","0.2","0.8","0.6","0.4","0.3642345195","0.3864970555","0.2224321457","0.3821305916","","","","","","","","","","","","72","H","0","img/none_selected.jpg","","209","main_expt"
"","bandit","289","1090969","0.0-250.0-0.0","73292920","wem/bandit_either_2","ALEE1QD4TW9G4","either","3","291","","","","","","","0","0","1","","0.3518797164","0.2","0.8","0.6","0.4","0.3518797164","0.3894881908","0.2184729634","0.4067483812","","","","","","","","","","","","72","H","0","img/none_selected.jpg","","210","main_expt"
"","bandit","290","1092999","0.0-251.0-0.0","73292920","wem/bandit_either_2","ALEE1QD4TW9G4","either","3","502","","","","","","","0","0","1","","0.3781537602","0.2","0.8","0.6","0.4","0.3781537602","0.4052823736","0.2178464352","0.376825818","","","","","","","","","","","","72","H","0","img/none_selected.jpg","","211","main_expt"
"","bandit","291","1094921","0.0-252.0-0.0","73292920","wem/bandit_either_2","ALEE1QD4TW9G4","either","3","380","","","","","","","0","0","1","","0.3773353051","0.2","0.8","0.6","0.4","0.3773353051","0.3783189977","0.1644702768","0.3481764155","","","","","","","","","","","","72","H","0","img/none_selected.jpg","","212","main_expt"
"","bandit","292","1096836","0.0-253.0-0.0","73292920","wem/bandit_either_2","ALEE1QD4TW9G4","either","3","369","","","","","","","0","0","1","0.3448860985","","0.2","0.8","0.6","0.4","","","","","0.3448860985","0.3804187243","0.1271660564","0.3239198888","","","","","","","","72","H","0","img/none_selected.jpg","","213","main_expt"
"","bandit","293","1098743","0.0-254.0-0.0","73292920","wem/bandit_either_2","ALEE1QD4TW9G4","either","3","375","","","","","","","0","0","1","","0.1368129038","0.2","0.8","0.6","0.4","0.3622000499","0.3964056757","0.1368129038","0.3592643085","","","","","","","","","","","","75","K","2","","","214","main_expt"
"","bandit","294","1100658","0.0-255.0-0.0","73292920","wem/bandit_either_2","ALEE1QD4TW9G4","either","3","402","","","","","","","1","0","0","0.3482739819","","0.2","0.8","0.6","0.4","","","","","0.3408682726","0.3939862607","0.07615368859","0.3482739819","","","","","","","","76","L","3","","","215","main_expt"
"","bandit","295","1102503","0.0-256.0-0.0","73292920","wem/bandit_either_2","ALEE1QD4TW9G4","either","3","306","","","","","","","0","0","1","","0.2972527025","0.2","0.8","0.6","0.4","0.328819006","0.4062496234","0.07711559412","0.2972527025","","","","","","","","","","","","76","L","3","","","216","main_expt"
"","bandit","296","1104380","0.0-257.0-0.0","73292920","wem/bandit_either_2","ALEE1QD4TW9G4","either","3","336","","","","","","","0","0","1","","0.2850944341","0.2","0.8","0.6","0.4","0.3229374792","0.3440498305","0.07728173513","0.2850944341","","","","","","","","","","","","76","L","3","","","217","main_expt"
"","bandit","297","1106168","0.0-258.0-0.0","73292920","wem/bandit_either_2","ALEE1QD4TW9G4","either","3","257","","","","","","","0","0","1","","0.2483413171","0.2","0.8","0.6","0.4","0.3616220652","0.3198020565","0.07919919155","0.2483413171","","","","","","","","","","","","76","L","3","","","218","main_expt"
"","bandit","298","1108349","0.0-259.0-0.0","73292920","wem/bandit_either_2","ALEE1QD4TW9G4","either","3","633","","","","","","","0","1","0","","0.2680513607","0.2","0.8","0.6","0.4","0.3591176528","0.3078290176","0.1270410367","0.2680513607","","","","","","","","","","","","76","L","3","","","219","main_expt"
"","bandit","299","1110493","0.0-260.0-0.0","73292920","wem/bandit_either_2","ALEE1QD4TW9G4","either","3","597","","","","","","","0","0","1","","0.304668496","0.2","0.8","0.6","0.4","0.2758994579","0.2961895162","0.1117499599","0.304668496","","","","","","","","","","","","76","L","3","","","220","main_expt"
"","bandit","300","1113089","0.0-261.0-0.0","73292920","wem/bandit_either_2","ALEE1QD4TW9G4","either","3","1051","","","","","","","0","0","1","","0.2773284289","0.2","0.8","0.6","0.4","0.3119987931","0.2658603678","0.1186324211","0.2773284289","","","","","","","","","","","","76","L","3","","","221","main_expt"
"","bandit","301","1115751","0.0-262.0-0.0","73292920","wem/bandit_either_2","ALEE1QD4TW9G4","either","3","1110","","","","","","","0","0","1","0.2152506718","","0.2","0.8","0.6","0.4","","","","","0.3106374463","0.274695037","0.1141050397","0.2152506718","","","","","","","","76","L","3","","","222","main_expt"
"","bandit","302","1117957","0.0-263.0-0.0","73292920","wem/bandit_either_2","ALEE1QD4TW9G4","either","3","656","","","","","","","0","0","1","","0.2210940289","0.2","0.8","0.6","0.4","0.3131570504","0.2210940289","0.1007228699","0.2445797097","","","","","","","","","","","","74","J","1","","","223","main_expt"
"","bandit","303","1119935","0.0-264.0-0.0","73292920","wem/bandit_either_2","ALEE1QD4TW9G4","either","3","438","","","","","","","0","1","0","","0.1380584308","0.2","0.8","0.6","0.4","0.3025994915","0.1843933297","0.1380584308","0.2559263424","","","","","","","","","","","","75","K","2","","","224","main_expt"
"","bandit","304","1121995","0.0-265.0-0.0","73292920","wem/bandit_either_2","ALEE1QD4TW9G4","either","3","495","","","","","","","0","0","1","","0.1393521225","0.2","0.8","0.6","0.4","0.2994132709","0.212211923","0.1393521225","0.2702522324","","","","","","","","","","","","75","K","2","","","225","main_expt"
"","bandit","305","1123896","0.0-266.0-0.0","73292920","wem/bandit_either_2","ALEE1QD4TW9G4","either","3","353","","","","","","","0","0","1","0.2094269877","","0.2","0.8","0.6","0.4","","","","","0.2866794375","0.2315036379","0.2094269877","0.2646860425","","","","","","","","75","K","2","","","226","main_expt"
"","bandit","306","1125903","0.0-267.0-0.0","73292920","wem/bandit_either_2","ALEE1QD4TW9G4","either","3","465","","","","","","","0","0","1","","0.2959232149","0.2","0.8","0.6","0.4","0.2299222882","0.2646353212","0.2959232149","0.269556559","","","","","","","","","","","","75","K","2","","","227","main_expt"
"","bandit","307","1127875","0.0-268.0-0.0","73292920","wem/bandit_either_2","ALEE1QD4TW9G4","either","3","441","","","","","","","0","1","0","","0.2991813551","0.2","0.8","0.6","0.4","0.2991813551","0.2443517867","0.374355758","0.2498152532","","","","","","","","","","","","72","H","0","img/none_selected.jpg","","228","main_expt"
"","bandit","308","1129688","0.0-269.0-0.0","73292920","wem/bandit_either_2","ALEE1QD4TW9G4","either","3","272","","","","","","","0","0","1","","0.3295538921","0.2","0.8","0.6","0.4","0.3295538921","0.2569692975","0.3876740502","0.2495566458","","","","","","","","","","","","72","H","0","img/none_selected.jpg","","229","main_expt"
"","bandit","309","1131903","0.0-270.0-0.0","73292920","wem/bandit_either_2","ALEE1QD4TW9G4","either","3","690","","","","","","","0","0","1","0.2713593359","","0.2","0.8","0.6","0.4","","","","","0.2713593359","0.2490290172","0.3341674595","0.2134382902","","","","","","","","72","H","0","img/none_selected.jpg","","230","main_expt"
"","bandit","310","1133753","0.0-271.0-0.0","73292920","wem/bandit_either_2","ALEE1QD4TW9G4","either","3","315","","","","","","","1","0","0","0.2746975787","","0.2","0.8","0.6","0.4","","","","","0.2746975787","0.2368643707","0.3558281537","0.2099205747","","","","","","","","72","H","0","img/none_selected.jpg","","231","main_expt"
"","bandit","311","1135615","0.0-272.0-0.0","73292920","wem/bandit_either_2","ALEE1QD4TW9G4","either","3","322","","","","","","","0","0","1","","0.2817934899","0.2","0.8","0.6","0.4","0.2817934899","0.2857324616","0.3293076861","0.1598609145","","","","","","","","","","","","72","H","0","img/none_selected.jpg","","232","main_expt"
"","bandit","312","1137173","0.0-273.0-0.0","73292920","wem/bandit_either_2","ALEE1QD4TW9G4","either","3","10","","","","","","","0","0","1","","0.3139736629","0.2","0.8","0.6","0.4","0.3139736629","0.226619475","0.3271309306","0.1472569172","","","","","","","","","","","","72","H","0","img/none_selected.jpg","","233","main_expt"
"","bandit","313","1139089","0.0-274.0-0.0","73292920","wem/bandit_either_2","ALEE1QD4TW9G4","either","3","379","","","","","","","0","0","1","","0.3332560948","0.2","0.8","0.6","0.4","0.3332560948","0.2448251662","0.3510228885","0.1123375355","","","","","","","","","","","","72","H","0","img/none_selected.jpg","","234","main_expt"
"","bandit","314","1140881","0.0-275.0-0.0","73292920","wem/bandit_either_2","ALEE1QD4TW9G4","either","3","257","","","","","","","0","0","1","0.2996798263","","0.2","0.8","0.6","0.4","","","","","0.3475281657","0.2996798263","0.3346663699","0.1562424728","","","","","","","","74","J","1","","","235","main_expt"
"","bandit","315","1142771","0.0-276.0-0.0","73292920","wem/bandit_either_2","ALEE1QD4TW9G4","either","3","360","","","","","","","0","1","0","","0.332043614","0.2","0.8","0.6","0.4","0.3170984437","0.3220329496","0.332043614","0.1623269298","","","","","","","","","","","","75","K","2","","","236","main_expt"
"","bandit","316","1144800","0.0-277.0-0.0","73292920","wem/bandit_either_2","ALEE1QD4TW9G4","either","3","493","","","","","","","0","0","1","0.2780661838","","0.2","0.8","0.6","0.4","","","","","0.3611259067","0.3672390457","0.2780661838","0.1362759337","","","","","","","","75","K","2","","","237","main_expt"
"","bandit","317","1146601","0.0-278.0-0.0","73292920","wem/bandit_either_2","ALEE1QD4TW9G4","either","3","271","","","","","","","1","0","0","0.3071002506","","0.2","0.8","0.6","0.4","","","","","0.3449339383","0.3702030288","0.3071002506","0.1282223372","","","","","","","","75","K","2","","","238","main_expt"
"","bandit","318","1148481","0.0-279.0-0.0","73292920","wem/bandit_either_2","ALEE1QD4TW9G4","either","3","329","","","","","","","0","0","1","","0.3101279526","0.2","0.8","0.6","0.4","0.3006984684","0.3486367063","0.3101279526","0.08262393641","","","","","","","","","","","","75","K","2","","","239","main_expt"
"","bandit","319","1150095","0.0-280.0-0.0","73292920","wem/bandit_either_2","ALEE1QD4TW9G4","either","3","77","","","","","","","0","0","1","0.3071576631","","0.2","0.8","0.6","0.4","","","","","0.3355390738","0.3422639114","0.3071576631","0.09366491666","","","","","","","","75","K","2","","","240","main_expt"
"","bandit","320","1151940","0.0-281.0-0.0","73292920","wem/bandit_either_2","ALEE1QD4TW9G4","either","3","311","","","","","","","0","0","1","0.3213727252","","0.2","0.8","0.6","0.4","","","","","0.3513118525","0.3703795114","0.3213727252","0.09778426954","","","","","","","","75","K","2","","","241","main_expt"
"","bandit","321","1153770","0.0-282.0-0.0","73292920","wem/bandit_either_2","ALEE1QD4TW9G4","either","3","305","","","","","","","0","0","1","0.0684580113","","0.2","0.8","0.6","0.4","","","","","0.2871404103","0.3362310887","0.3303042821","0.0684580113","","","","","","","","76","L","3","","","242","main_expt"
"","bandit","322","1155601","0.0-283.0-0.0","73292920","wem/bandit_either_2","ALEE1QD4TW9G4","either","3","293","","","","","","","0","0","1","0.05756719403","","0.2","0.8","0.6","0.4","","","","","0.2582353252","0.3855302341","0.386578507","0.05756719403","","","","","","","","76","L","3","","","243","main_expt"
"","bandit","323","1157422","0.0-284.0-0.0","73292920","wem/bandit_either_2","ALEE1QD4TW9G4","either","3","276","","","","","","","0","0","1","0.07954378931","","0.2","0.8","0.6","0.4","","","","","0.2108553612","0.3504604058","0.3582196724","0.07954378931","","","","","","","","76","L","3","","","244","main_expt"
"","bandit","324","1159174","0.0-285.0-0.0","73292920","wem/bandit_either_2","ALEE1QD4TW9G4","either","3","211","","","","","","","0","0","1","0.3586275713","","0.2","0.8","0.6","0.4","","","","","0.190308294","0.3586275713","0.3626170977","0.07668718344","","","","","","","","74","J","1","","","245","main_expt"
"","bandit","325","1161201","0.0-286.0-0.0","73292920","wem/bandit_either_2","ALEE1QD4TW9G4","either","3","484","","","","","","","1","0","0","0.2079876503","","0.2","0.8","0.6","0.4","","","","","0.2079876503","0.3202710015","0.2778980274","0.08627194322","","","","","","","","72","H","0","img/none_selected.jpg","","246","main_expt"
"","bandit","326","1163065","0.0-287.0-0.0","73292920","wem/bandit_either_2","ALEE1QD4TW9G4","either","3","324","","","","","","","0","0","1","","0.2053262284","0.2","0.8","0.6","0.4","0.2053262284","0.2874587678","0.2864864277","0.1009858539","","","","","","","","","","","","72","H","0","img/none_selected.jpg","","247","main_expt"
"","bandit","327","1164856","0.0-288.0-0.0","73292920","wem/bandit_either_2","ALEE1QD4TW9G4","either","3","251","","","","","","","0","0","1","","0.2699327364","0.2","0.8","0.6","0.4","0.2699327364","0.2703076155","0.2883304048","0.1044033157","","","","","","","","","","","","72","H","0","img/none_selected.jpg","","248","main_expt"
