"consent","trial_type","trial_index","time_elapsed","internal_node_id","subjID","study","MID","cond","drift","rt","responses","key_press","expt_phase","like","value","connected","gems","bombs","no_reward","GemPrChosen","BombPrChosen","GainOverPainPr_0","GainOverPainPr_1","GainOverPainPr_2","GainOverPainPr_3","LosePr_0","LosePr_1","LosePr_2","LosePr_3","WinPr_0","WinPr_1","WinPr_2","WinPr_3","Q0","Q1","Q2","gender","age","ethnicity","target","respCharCode","respKey","respChoiceNum","respChoice","practice","trial_counter","trial_label"
"INL_behavioral_consent_30min_online.html","consent","0","26482","0.0-0.0","73661737","wem/bandit_either_2","A3U21PUMQ6NGT2","either","2","","","","","","","","","","","","","","","","","","","","","","","","","","","","","","","","","","","","","",""
"","survey-text","1","34100","0.0-1.0","73661737","wem/bandit_either_2","A3U21PUMQ6NGT2","either","2","6598","{""Q0"":""A3U21PUMQ6NGT2""}","","","","","","","","","","","","","","","","","","","","","","","","","","","","","","","","","","","",""
"","text","2","48903","0.0-2.0","73661737","wem/bandit_either_2","A3U21PUMQ6NGT2","either","2","13793","","32","","","","","","","","","","","","","","","","","","","","","","","","","","","","","","","","","","",""
"","text","3","56671","0.0-3.0","73661737","wem/bandit_either_2","A3U21PUMQ6NGT2","either","2","7766","","32","","","","","","","","","","","","","","","","","","","","","","","","","","","","","","","","","","",""
"","text","4","82438","0.0-4.0","73661737","wem/bandit_either_2","A3U21PUMQ6NGT2","either","2","25764","","32","","","","","","","","","","","","","","","","","","","","","","","","","","","","","","","","","","",""
"","text","5","94302","0.0-5.0","73661737","wem/bandit_either_2","A3U21PUMQ6NGT2","either","2","11862","","32","","","","","","","","","","","","","","","","","","","","","","","","","","","","","","","","","","",""
"","text","6","113832","0.0-6.0","73661737","wem/bandit_either_2","A3U21PUMQ6NGT2","either","2","19528","","32","","","","","","","","","","","","","","","","","","","","","","","","","","","","","","","","","","",""
"","text","7","120488","0.0-7.0","73661737","wem/bandit_either_2","A3U21PUMQ6NGT2","either","2","6655","","32","","","","","","","","","","","","","","","","","","","","","","","","","","","","","","","","","","",""
"","text","8","125408","0.0-8.0","73661737","wem/bandit_either_2","A3U21PUMQ6NGT2","either","2","4918","","32","","","","","","","","","","","","","","","","","","","","","","","","","","","","","","","","","","",""
"","identification","9","139555","0.0-9.0-0.0","73661737","wem/bandit_either_2","A3U21PUMQ6NGT2","either","2","14112","","","","2","3","1","","","","","","","","","","","","","","","","","","","","","","","","the village of Zur","","","","","","",""
"","identification","10","152925","0.0-9.0-1.0","73661737","wem/bandit_either_2","A3U21PUMQ6NGT2","either","2","12343","","","","3","2","1","","","","","","","","","","","","","","","","","","","","","","","","the village of Nyx","","","","","","",""
"","text","11","168485","0.0-10.0","73661737","wem/bandit_either_2","A3U21PUMQ6NGT2","either","2","14543","","32","","","","","","","","","","","","","","","","","","","","","","","","","","","","","","","","","","",""
"","text","12","173497","0.0-11.0","73661737","wem/bandit_either_2","A3U21PUMQ6NGT2","either","2","5009","","32","","","","","","","","","","","","","","","","","","","","","","","","","","","","","","","","","","",""
"","text","13","175719","0.0-12.0","73661737","wem/bandit_either_2","A3U21PUMQ6NGT2","either","2","2221","","32","","","","","","","","","","","","","","","","","","","","","","","","","","","","","","","","","","",""
"","text","14","179409","0.0-13.0","73661737","wem/bandit_either_2","A3U21PUMQ6NGT2","either","2","3688","","32","","","","","","","","","","","","","","","","","","","","","","","","","","","","","","","","","","",""
"","bandit","15","183615","0.0-14.0-0.0","73661737","wem/bandit_either_2","A3U21PUMQ6NGT2","either","2","2684","","","","","","","0","0","1","0","0","","","","","0","","","","0","","","","","","","","","","","74","J","0","img/none_selected_demo.jpg","true","0",""
"","bandit","16","185920","0.0-15.0-0.0","73661737","wem/bandit_either_2","A3U21PUMQ6NGT2","either","2","777","","","","","","","0","0","1","0","0","","","","","0","","","","0","","","","","","","","","","","75","K","0","img/none_selected_demo.jpg","true","0",""
"","text","17","192594","0.0-16.0","73661737","wem/bandit_either_2","A3U21PUMQ6NGT2","either","2","6672","","32","","","","","","","","","","","","","","","","","","","","","","","","","","","","","","","","","","",""
"","text","18","199324","0.0-17.0","73661737","wem/bandit_either_2","A3U21PUMQ6NGT2","either","2","6728","","32","","","","","","","","","","","","","","","","","","","","","","","","","","","","","","","","","","",""
"","text","19","210996","0.0-18.0","73661737","wem/bandit_either_2","A3U21PUMQ6NGT2","either","2","11669","","32","","","","","","","","","","","","","","","","","","","","","","","","","","","","","","","","","","",""
"","text","20","215326","0.0-19.0","73661737","wem/bandit_either_2","A3U21PUMQ6NGT2","either","2","4328","","32","","","","","","","","","","","","","","","","","","","","","","","","","","","","","","","","","","",""
"","bandit","21","217821","0.0-20.0-0.0","73661737","wem/bandit_either_2","A3U21PUMQ6NGT2","either","2","968","","","","","","","0","0","1","","0.2","0.5","0.5","","","0.8","0.2","","","","","","","","","","","","","","75","K","1","","true","0","80_20_practice"
"","bandit","22","219888","0.0-20.0-1.0","73661737","wem/bandit_either_2","A3U21PUMQ6NGT2","either","2","537","","","","","","","0","1","0","","0.8","0.5","0.5","","","0.8","0.2","","","","","","","","","","","","","","74","J","0","img/none_selected_demo.jpg","true","0","80_20_practice"
"","bandit","23","221975","0.0-20.0-2.0","73661737","wem/bandit_either_2","A3U21PUMQ6NGT2","either","2","567","","","","","","","0","1","0","","0.8","0.5","0.5","","","0.8","0.2","","","","","","","","","","","","","","74","J","0","img/none_selected_demo.jpg","true","0","80_20_practice"
"","bandit","24","224074","0.0-20.0-3.0","73661737","wem/bandit_either_2","A3U21PUMQ6NGT2","either","2","575","","","","","","","0","1","0","","0.8","0.5","0.5","","","0.8","0.2","","","","","","","","","","","","","","74","J","0","img/none_selected_demo.jpg","true","0","80_20_practice"
"","bandit","25","225979","0.0-20.0-4.0","73661737","wem/bandit_either_2","A3U21PUMQ6NGT2","either","2","388","","","","","","","1","0","0","0.8","","0.5","0.5","","","","","","","0.8","0.2","","","","","","","","","","74","J","0","img/none_selected_demo.jpg","true","0","80_20_practice"
"","bandit","26","227624","0.0-20.0-5.0","73661737","wem/bandit_either_2","A3U21PUMQ6NGT2","either","2","129","","","","","","","1","0","0","0.8","","0.5","0.5","","","","","","","0.8","0.2","","","","","","","","","","74","J","0","img/none_selected_demo.jpg","true","0","80_20_practice"
"","bandit","27","229531","0.0-20.0-6.0","73661737","wem/bandit_either_2","A3U21PUMQ6NGT2","either","2","376","","","","","","","1","0","0","0.8","","0.5","0.5","","","","","","","0.8","0.2","","","","","","","","","","74","J","0","img/none_selected_demo.jpg","true","0","80_20_practice"
"","bandit","28","231380","0.0-20.0-7.0","73661737","wem/bandit_either_2","A3U21PUMQ6NGT2","either","2","314","","","","","","","0","1","0","","0.8","0.5","0.5","","","0.8","0.2","","","","","","","","","","","","","","74","J","0","img/none_selected_demo.jpg","true","0","80_20_practice"
"","bandit","29","233656","0.0-20.0-8.0","73661737","wem/bandit_either_2","A3U21PUMQ6NGT2","either","2","744","","","","","","","0","1","0","","0.8","0.5","0.5","","","0.8","0.2","","","","","","","","","","","","","","74","J","0","img/none_selected_demo.jpg","true","0","80_20_practice"
"","bandit","30","235350","0.0-20.0-9.0","73661737","wem/bandit_either_2","A3U21PUMQ6NGT2","either","2","164","","","","","","","1","0","0","0.8","","0.5","0.5","","","","","","","0.8","0.2","","","","","","","","","","74","J","0","img/none_selected_demo.jpg","true","0","80_20_practice"
"","bandit","31","237341","0.0-20.0-10.0","73661737","wem/bandit_either_2","A3U21PUMQ6NGT2","either","2","450","","","","","","","0","1","0","","0.8","0.5","0.5","","","0.8","0.2","","","","","","","","","","","","","","74","J","0","img/none_selected_demo.jpg","true","0","80_20_practice"
"","bandit","32","239146","0.0-20.0-11.0","73661737","wem/bandit_either_2","A3U21PUMQ6NGT2","either","2","277","","","","","","","0","0","1","0.8","","0.5","0.5","","","","","","","0.8","0.2","","","","","","","","","","74","J","0","img/none_selected_demo.jpg","true","0","80_20_practice"
"","bandit","33","241697","0.0-20.0-12.0","73661737","wem/bandit_either_2","A3U21PUMQ6NGT2","either","2","1016","","","","","","","0","1","0","","0.2","0.5","0.5","","","0.8","0.2","","","","","","","","","","","","","","75","K","1","","true","0","80_20_practice"
"","bandit","34","243757","0.0-20.0-13.0","73661737","wem/bandit_either_2","A3U21PUMQ6NGT2","either","2","535","","","","","","","0","0","1","0.2","","0.5","0.5","","","","","","","0.8","0.2","","","","","","","","","","75","K","1","","true","0","80_20_practice"
"","bandit","35","245679","0.0-20.0-14.0","73661737","wem/bandit_either_2","A3U21PUMQ6NGT2","either","2","389","","","","","","","0","1","0","","0.8","0.5","0.5","","","0.8","0.2","","","","","","","","","","","","","","74","J","0","img/none_selected_demo.jpg","true","0","80_20_practice"
"","bandit","36","247649","0.0-20.0-15.0","73661737","wem/bandit_either_2","A3U21PUMQ6NGT2","either","2","443","","","","","","","0","0","1","","0.8","0.5","0.5","","","0.8","0.2","","","","","","","","","","","","","","74","J","0","img/none_selected_demo.jpg","true","0","80_20_practice"
"","bandit","37","249487","0.0-20.0-16.0","73661737","wem/bandit_either_2","A3U21PUMQ6NGT2","either","2","316","","","","","","","0","0","1","0.2","","0.5","0.5","","","","","","","0.8","0.2","","","","","","","","","","75","K","1","","true","0","80_20_practice"
"","bandit","38","251516","0.0-20.0-17.0","73661737","wem/bandit_either_2","A3U21PUMQ6NGT2","either","2","496","","","","","","","1","0","0","0.8","","0.5","0.5","","","","","","","0.8","0.2","","","","","","","","","","74","J","0","img/none_selected_demo.jpg","true","0","80_20_practice"
"","bandit","39","253466","0.0-20.0-18.0","73661737","wem/bandit_either_2","A3U21PUMQ6NGT2","either","2","437","","","","","","","1","0","0","0.8","","0.5","0.5","","","","","","","0.8","0.2","","","","","","","","","","74","J","0","img/none_selected_demo.jpg","true","0","80_20_practice"
"","bandit","40","255354","0.0-20.0-19.0","73661737","wem/bandit_either_2","A3U21PUMQ6NGT2","either","2","356","","","","","","","0","0","1","","0.8","0.5","0.5","","","0.8","0.2","","","","","","","","","","","","","","74","J","0","img/none_selected_demo.jpg","true","0","80_20_practice"
"","text","41","261772","0.0-21.0","73661737","wem/bandit_either_2","A3U21PUMQ6NGT2","either","2","6411","","32","","","","","","","","","","","","","","","","","","","","","","","","","","","","","","","","","","",""
"","bandit","42","264802","0.0-22.0-0.0","73661737","wem/bandit_either_2","A3U21PUMQ6NGT2","either","2","1503","","","","","","","1","0","0","1","0","","","","","0","1","","","1","0","","","","","","","","","","74","J","0","img/none_selected_demo.jpg","true","0",""
"","text","43","268446","0.0-23.0","73661737","wem/bandit_either_2","A3U21PUMQ6NGT2","either","2","3641","","32","","","","","","","","","","","","","","","","","","","","","","","","","","","","","","","","","","",""
"","text","44","278836","0.0-24.0","73661737","wem/bandit_either_2","A3U21PUMQ6NGT2","either","2","10386","","32","","","","","","","","","","","","","","","","","","","","","","","","","","","","","","","","","","",""
"","text","45","282123","0.0-25.0","73661737","wem/bandit_either_2","A3U21PUMQ6NGT2","either","2","3283","","32","","","","","","","","","","","","","","","","","","","","","","","","","","","","","","","","","","",""
"","text","46","284919","0.0-26.0","73661737","wem/bandit_either_2","A3U21PUMQ6NGT2","either","2","2789","","32","","","","","","","","","","","","","","","","","","","","","","","","","","","","","","","","","","",""
"","text","47","293990","0.0-27.0","73661737","wem/bandit_either_2","A3U21PUMQ6NGT2","either","2","9065","","32","","","","","","","","","","","","","","","","","","","","","","","","","","","","","","","","","","",""
"","text","48","296982","0.0-28.0","73661737","wem/bandit_either_2","A3U21PUMQ6NGT2","either","2","2989","","32","","","","","","","","","","","","","","","","","","","","","","","","","","","","","","","","","","",""
"","text","49","300996","0.0-29.0","73661737","wem/bandit_either_2","A3U21PUMQ6NGT2","either","2","4010","","32","","","","","","","","","","","","","","","","","","","","","","","","","","","","","","","","","","",""
"","text","50","306404","0.0-30.0","73661737","wem/bandit_either_2","A3U21PUMQ6NGT2","either","2","5404","","32","","","","","","","","","","","","","","","","","","","","","","","","","","","","","","","","","","",""
"","text","51","310351","0.0-31.0","73661737","wem/bandit_either_2","A3U21PUMQ6NGT2","either","2","3944","","32","","","","","","","","","","","","","","","","","","","","","","","","","","","","","","","","","","",""
"","text","52","311903","0.0-32.0","73661737","wem/bandit_either_2","A3U21PUMQ6NGT2","either","2","1549","","32","","","","","","","","","","","","","","","","","","","","","","","","","","","","","","","","","","",""
"","text","53","314277","0.0-33.0","73661737","wem/bandit_either_2","A3U21PUMQ6NGT2","either","2","2367","","32","","","","","","","","","","","","","","","","","","","","","","","","","","","","","","","","","","",""
"","bandit","54","316406","0.0-34.0-0.0","73661737","wem/bandit_either_2","A3U21PUMQ6NGT2","either","2","617","","","","","","","0","1","0","","0.6","0.5","0.5","0.5","0.5","0.8","0.2","0.6","0.2","","","","","","","","","","","","75","K","2","","true","0","full_practice"
"","bandit","55","318958","0.0-34.0-1.0","73661737","wem/bandit_either_2","A3U21PUMQ6NGT2","either","2","1035","","","","","","","0","0","1","0.6","","0.5","0.5","0.5","0.5","","","","","0.8","0.2","0.6","0.2","","","","","","","","75","K","2","","true","0","full_practice"
"","bandit","56","320889","0.0-34.0-2.0","73661737","wem/bandit_either_2","A3U21PUMQ6NGT2","either","2","401","","","","","","","0","0","1","0.2","","0.5","0.5","0.5","0.5","","","","","0.8","0.2","0.6","0.2","","","","","","","","76","L","3","","true","0","full_practice"
"","bandit","57","323305","0.0-34.0-3.0","73661737","wem/bandit_either_2","A3U21PUMQ6NGT2","either","2","893","","","","","","","0","0","1","","0.2","0.5","0.5","0.5","0.5","0.8","0.2","0.6","0.2","","","","","","","","","","","","74","J","1","","true","0","full_practice"
"","bandit","58","325187","0.0-34.0-4.0","73661737","wem/bandit_either_2","A3U21PUMQ6NGT2","either","2","355","","","","","","","0","0","1","0.8","","0.5","0.5","0.5","0.5","","","","","0.8","0.2","0.6","0.2","","","","","","","","72","H","0","img/none_selected.jpg","true","0","full_practice"
"","bandit","59","327116","0.0-34.0-5.0","73661737","wem/bandit_either_2","A3U21PUMQ6NGT2","either","2","396","","","","","","","0","0","1","0.6","","0.5","0.5","0.5","0.5","","","","","0.8","0.2","0.6","0.2","","","","","","","","75","K","2","","true","0","full_practice"
"","bandit","60","329248","0.0-34.0-6.0","73661737","wem/bandit_either_2","A3U21PUMQ6NGT2","either","2","607","","","","","","","0","0","1","0.6","","0.5","0.5","0.5","0.5","","","","","0.8","0.2","0.6","0.2","","","","","","","","75","K","2","","true","0","full_practice"
"","bandit","61","331524","0.0-34.0-7.0","73661737","wem/bandit_either_2","A3U21PUMQ6NGT2","either","2","764","","","","","","","0","0","1","","0.2","0.5","0.5","0.5","0.5","0.8","0.2","0.6","0.2","","","","","","","","","","","","74","J","1","","true","0","full_practice"
"","bandit","62","333497","0.0-34.0-8.0","73661737","wem/bandit_either_2","A3U21PUMQ6NGT2","either","2","458","","","","","","","0","0","1","","0.2","0.5","0.5","0.5","0.5","0.8","0.2","0.6","0.2","","","","","","","","","","","","74","J","1","","true","0","full_practice"
"","bandit","63","335396","0.0-34.0-9.0","73661737","wem/bandit_either_2","A3U21PUMQ6NGT2","either","2","377","","","","","","","0","0","1","0.2","","0.5","0.5","0.5","0.5","","","","","0.8","0.2","0.6","0.2","","","","","","","","74","J","1","","true","0","full_practice"
"","bandit","64","337497","0.0-34.0-10.0","73661737","wem/bandit_either_2","A3U21PUMQ6NGT2","either","2","583","","","","","","","0","0","1","0.2","","0.5","0.5","0.5","0.5","","","","","0.8","0.2","0.6","0.2","","","","","","","","76","L","3","","true","0","full_practice"
"","bandit","65","339363","0.0-34.0-11.0","73661737","wem/bandit_either_2","A3U21PUMQ6NGT2","either","2","331","","","","","","","0","1","0","","0.2","0.5","0.5","0.5","0.5","0.8","0.2","0.6","0.2","","","","","","","","","","","","76","L","3","","true","0","full_practice"
"","bandit","66","341450","0.0-34.0-12.0","73661737","wem/bandit_either_2","A3U21PUMQ6NGT2","either","2","560","","","","","","","0","0","1","","0.2","0.5","0.5","0.5","0.5","0.8","0.2","0.6","0.2","","","","","","","","","","","","76","L","3","","true","0","full_practice"
"","bandit","67","343353","0.0-34.0-13.0","73661737","wem/bandit_either_2","A3U21PUMQ6NGT2","either","2","385","","","","","","","0","0","1","","0.2","0.5","0.5","0.5","0.5","0.8","0.2","0.6","0.2","","","","","","","","","","","","76","L","3","","true","0","full_practice"
"","bandit","68","345278","0.0-34.0-14.0","73661737","wem/bandit_either_2","A3U21PUMQ6NGT2","either","2","407","","","","","","","0","0","1","0.8","","0.5","0.5","0.5","0.5","","","","","0.8","0.2","0.6","0.2","","","","","","","","72","H","0","img/none_selected.jpg","true","0","full_practice"
"","bandit","69","347143","0.0-34.0-15.0","73661737","wem/bandit_either_2","A3U21PUMQ6NGT2","either","2","338","","","","","","","0","0","1","","0.8","0.5","0.5","0.5","0.5","0.8","0.2","0.6","0.2","","","","","","","","","","","","72","H","0","img/none_selected.jpg","true","0","full_practice"
"","bandit","70","348994","0.0-34.0-16.0","73661737","wem/bandit_either_2","A3U21PUMQ6NGT2","either","2","331","","","","","","","1","0","0","0.8","","0.5","0.5","0.5","0.5","","","","","0.8","0.2","0.6","0.2","","","","","","","","72","H","0","img/none_selected.jpg","true","0","full_practice"
"","bandit","71","351092","0.0-34.0-17.0","73661737","wem/bandit_either_2","A3U21PUMQ6NGT2","either","2","581","","","","","","","0","1","0","","0.8","0.5","0.5","0.5","0.5","0.8","0.2","0.6","0.2","","","","","","","","","","","","72","H","0","img/none_selected.jpg","true","0","full_practice"
"","bandit","72","353148","0.0-34.0-18.0","73661737","wem/bandit_either_2","A3U21PUMQ6NGT2","either","2","533","","","","","","","0","1","0","","0.8","0.5","0.5","0.5","0.5","0.8","0.2","0.6","0.2","","","","","","","","","","","","72","H","0","img/none_selected.jpg","true","0","full_practice"
"","bandit","73","355182","0.0-34.0-19.0","73661737","wem/bandit_either_2","A3U21PUMQ6NGT2","either","2","499","","","","","","","0","1","0","","0.8","0.5","0.5","0.5","0.5","0.8","0.2","0.6","0.2","","","","","","","","","","","","72","H","0","img/none_selected.jpg","true","0","full_practice"
"","text","74","357813","0.0-35.0","73661737","wem/bandit_either_2","A3U21PUMQ6NGT2","either","2","2615","","32","","","","","","","","","","","","","","","","","","","","","","","","","","","","","","","","","","",""
"","text","75","371574","0.0-36.0","73661737","wem/bandit_either_2","A3U21PUMQ6NGT2","either","2","12740","","32","","","","","","","","","","","","","","","","","","","","","","","","","","","","","","","","","","",""
"","text","76","380834","0.0-37.0","73661737","wem/bandit_either_2","A3U21PUMQ6NGT2","either","2","9256","","32","","","","","","","","","","","","","","","","","","","","","","","","","","","","","","","","","","",""
"","text","77","386293","0.0-38.0","73661737","wem/bandit_either_2","A3U21PUMQ6NGT2","either","2","5456","","32","","","","","","","","","","","","","","","","","","","","","","","","","","","","","","","","","","",""
"","text","78","391415","0.0-39.0","73661737","wem/bandit_either_2","A3U21PUMQ6NGT2","either","2","5117","","32","","","","","","","","","","","","","","","","","","","","","","","","","","","","","","","","","","",""
"","text","79","396264","0.0-40.0","73661737","wem/bandit_either_2","A3U21PUMQ6NGT2","either","2","4842","","32","","","","","","","","","","","","","","","","","","","","","","","","","","","","","","","","","","",""
"","bandit","80","399018","0.0-41.0-0.0","73661737","wem/bandit_either_2","A3U21PUMQ6NGT2","either","2","1224","","","","","","","1","0","0","0.326135308","","0.4","0.8","0.2","0.6","","","","","0.326135308","0.362799796","0.4781977867","0.3653736811","","","","","","","","72","H","0","img/none_selected.jpg","","1","main_expt"
"","bandit","81","400925","0.0-42.0-0.0","73661737","wem/bandit_either_2","A3U21PUMQ6NGT2","either","2","382","","","","","","","0","0","1","","0.3564958201","0.4","0.8","0.2","0.6","0.3564958201","0.3891507205","0.4765481994","0.3999069229","","","","","","","","","","","","72","H","0","img/none_selected.jpg","","2","main_expt"
"","bandit","82","402952","0.0-43.0-0.0","73661737","wem/bandit_either_2","A3U21PUMQ6NGT2","either","2","498","","","","","","","0","1","0","","0.3309056029","0.4","0.8","0.2","0.6","0.3309056029","0.3151339382","0.4722158263","0.4363582421","","","","","","","","","","","","72","H","0","img/none_selected.jpg","","3","main_expt"
"","bandit","83","405024","0.0-44.0-0.0","73661737","wem/bandit_either_2","A3U21PUMQ6NGT2","either","2","552","","","","","","","0","0","1","","0.308467875","0.4","0.8","0.2","0.6","0.308467875","0.250648122","0.4609570051","0.4300921111","","","","","","","","","","","","72","H","0","img/none_selected.jpg","","4","main_expt"
"","bandit","84","406843","0.0-45.0-0.0","73661737","wem/bandit_either_2","A3U21PUMQ6NGT2","either","2","299","","","","","","","0","0","1","","0.3349995635","0.4","0.8","0.2","0.6","0.3349995635","0.2382585344","0.4707799186","0.3863220662","","","","","","","","","","","","72","H","0","img/none_selected.jpg","","5","main_expt"
"","bandit","85","408513","0.0-46.0-0.0","73661737","wem/bandit_either_2","A3U21PUMQ6NGT2","either","2","143","","","","","","","0","0","1","0.2088101903","","0.4","0.8","0.2","0.6","","","","","0.3743101545","0.2088101903","0.4676743975","0.4192648028","","","","","","","","74","J","1","","","6","main_expt"
"","bandit","86","410408","0.0-47.0-0.0","73661737","wem/bandit_either_2","A3U21PUMQ6NGT2","either","2","369","","","","","","","1","0","0","0.1884279889","","0.4","0.8","0.2","0.6","","","","","0.377506125","0.1884279889","0.4767364015","0.4218548145","","","","","","","","74","J","1","","","7","main_expt"
"","bandit","87","412803","0.0-48.0-0.0","73661737","wem/bandit_either_2","A3U21PUMQ6NGT2","either","2","862","","","","","","","0","0","1","0.2297930851","","0.4","0.8","0.2","0.6","","","","","0.3452849142","0.2297930851","0.4837409877","0.4298914749","","","","","","","","74","J","1","","","8","main_expt"
"","bandit","88","414630","0.0-49.0-0.0","73661737","wem/bandit_either_2","A3U21PUMQ6NGT2","either","2","285","","","","","","","1","0","0","0.2219539873","","0.4","0.8","0.2","0.6","","","","","0.2713567333","0.2219539873","0.4825212187","0.4215440671","","","","","","","","74","J","1","","","9","main_expt"
"","bandit","89","416664","0.0-50.0-0.0","73661737","wem/bandit_either_2","A3U21PUMQ6NGT2","either","2","494","","","","","","","0","0","1","","0.2398128751","0.4","0.8","0.2","0.6","0.2712708503","0.2398128751","0.4791264729","0.3991616263","","","","","","","","","","","","74","J","1","","","10","main_expt"
"","bandit","90","418456","0.0-51.0-0.0","73661737","wem/bandit_either_2","A3U21PUMQ6NGT2","either","2","282","","","","","","","0","0","1","","0.4762013833","0.4","0.8","0.2","0.6","0.2635531688","0.2551733424","0.4762013833","0.4002673883","","","","","","","","","","","","75","K","2","","","11","main_expt"
"","bandit","91","420257","0.0-52.0-0.0","73661737","wem/bandit_either_2","A3U21PUMQ6NGT2","either","2","285","","","","","","","0","0","1","","0.4729837645","0.4","0.8","0.2","0.6","0.2669056975","0.2593424883","0.4729837645","0.368629831","","","","","","","","","","","","75","K","2","","","12","main_expt"
"","bandit","92","422123","0.0-53.0-0.0","73661737","wem/bandit_either_2","A3U21PUMQ6NGT2","either","2","334","","","","","","","0","1","0","","0.4749786695","0.4","0.8","0.2","0.6","0.3204456557","0.2493591627","0.4749786695","0.4189726289","","","","","","","","","","","","75","K","2","","","13","main_expt"
"","bandit","93","423992","0.0-54.0-0.0","73661737","wem/bandit_either_2","A3U21PUMQ6NGT2","either","2","336","","","","","","","0","0","1","","0.4810115094","0.4","0.8","0.2","0.6","0.3466526728","0.2686446846","0.4810115094","0.4352425359","","","","","","","","","","","","75","K","2","","","14","main_expt"
"","bandit","94","425840","0.0-55.0-0.0","73661737","wem/bandit_either_2","A3U21PUMQ6NGT2","either","2","319","","","","","","","0","0","1","","0.4705329286","0.4","0.8","0.2","0.6","0.3736671224","0.2690169042","0.4705329286","0.3819090161","","","","","","","","","","","","75","K","2","","","15","main_expt"
"","bandit","95","428611","0.0-56.0-0.0","73661737","wem/bandit_either_2","A3U21PUMQ6NGT2","either","2","1250","","","","","","","1","0","0","0.3737760256","","0.4","0.8","0.2","0.6","","","","","0.3778143907","0.2518303543","0.4687419894","0.3737760256","","","","","","","","76","L","3","","","16","main_expt"
"","bandit","96","430795","0.0-57.0-0.0","73661737","wem/bandit_either_2","A3U21PUMQ6NGT2","either","2","663","","","","","","","0","0","1","0.4151791473","","0.4","0.8","0.2","0.6","","","","","0.3845750066","0.2406549936","0.4594180265","0.4151791473","","","","","","","","76","L","3","","","17","main_expt"
"","bandit","97","432664","0.0-58.0-0.0","73661737","wem/bandit_either_2","A3U21PUMQ6NGT2","either","2","340","","","","","","","0","0","1","0.4137363134","","0.4","0.8","0.2","0.6","","","","","0.4041286345","0.2670149403","0.425397146","0.4137363134","","","","","","","","76","L","3","","","18","main_expt"
"","bandit","98","434519","0.0-59.0-0.0","73661737","wem/bandit_either_2","A3U21PUMQ6NGT2","either","2","337","","","","","","","0","0","1","0.4084056464","","0.4","0.8","0.2","0.6","","","","","0.4127350431","0.2658482338","0.4201246927","0.4084056464","","","","","","","","76","L","3","","","19","main_expt"
"","bandit","99","436911","0.0-60.0-0.0","73661737","wem/bandit_either_2","A3U21PUMQ6NGT2","either","2","855","","","","","","","0","0","1","","0.4107359536","0.4","0.8","0.2","0.6","0.4107359536","0.2452433766","0.3954271328","0.4129175496","","","","","","","","","","","","72","H","0","img/none_selected.jpg","","20","main_expt"
"","bandit","100","438809","0.0-61.0-0.0","73661737","wem/bandit_either_2","A3U21PUMQ6NGT2","either","2","365","","","","","","","0","0","1","0.3954861765","","0.4","0.8","0.2","0.6","","","","","0.3954861765","0.2298761452","0.4196431029","0.3888488162","","","","","","","","72","H","0","img/none_selected.jpg","","21","main_expt"
"","bandit","101","440551","0.0-62.0-0.0","73661737","wem/bandit_either_2","A3U21PUMQ6NGT2","either","2","222","","","","","","","0","0","1","","0.3805979297","0.4","0.8","0.2","0.6","0.3805979297","0.266827693","0.3843335182","0.3873149631","","","","","","","","","","","","72","H","0","img/none_selected.jpg","","22","main_expt"
"","bandit","102","442729","0.0-63.0-0.0","73661737","wem/bandit_either_2","A3U21PUMQ6NGT2","either","2","655","","","","","","","0","0","1","0.2519769849","","0.4","0.8","0.2","0.6","","","","","0.425451992","0.2519769849","0.3839977458","0.3659772031","","","","","","","","74","J","1","","","23","main_expt"
"","bandit","103","444828","0.0-64.0-0.0","73661737","wem/bandit_either_2","A3U21PUMQ6NGT2","either","2","569","","","","","","","0","0","1","0.2447613107","","0.4","0.8","0.2","0.6","","","","","0.4699447661","0.2447613107","0.3338939571","0.3594327093","","","","","","","","74","J","1","","","24","main_expt"
"","bandit","104","446883","0.0-65.0-0.0","73661737","wem/bandit_either_2","A3U21PUMQ6NGT2","either","2","519","","","","","","","0","0","1","0.2350413847","","0.4","0.8","0.2","0.6","","","","","0.4484050393","0.2350413847","0.324486952","0.3719143394","","","","","","","","74","J","1","","","25","main_expt"
"","bandit","105","448707","0.0-66.0-0.0","73661737","wem/bandit_either_2","A3U21PUMQ6NGT2","either","2","300","","","","","","","1","0","0","0.3095710384","","0.4","0.8","0.2","0.6","","","","","0.4190234423","0.207774486","0.3095710384","0.3690014044","","","","","","","","75","K","2","","","26","main_expt"
"","bandit","106","450824","0.0-67.0-0.0","73661737","wem/bandit_either_2","A3U21PUMQ6NGT2","either","2","599","","","","","","","0","0","1","","0.3355629191","0.4","0.8","0.2","0.6","0.4251478254","0.2164182795","0.3355629191","0.3940030818","","","","","","","","","","","","75","K","2","","","27","main_expt"
"","bandit","107","452793","0.0-68.0-0.0","73661737","wem/bandit_either_2","A3U21PUMQ6NGT2","either","2","448","","","","","","","0","1","0","","0.3668681485","0.4","0.8","0.2","0.6","0.4287328697","0.2164031865","0.3668681485","0.4111080327","","","","","","","","","","","","75","K","2","","","28","main_expt"
"","bandit","108","454959","0.0-69.0-0.0","73661737","wem/bandit_either_2","A3U21PUMQ6NGT2","either","2","639","","","","","","","0","0","1","","0.343198694","0.4","0.8","0.2","0.6","0.4106025245","0.2770000278","0.343198694","0.41290056","","","","","","","","","","","","75","K","2","","","29","main_expt"
"","bandit","109","457212","0.0-70.0-0.0","73661737","wem/bandit_either_2","A3U21PUMQ6NGT2","either","2","724","","","","","","","0","0","1","","0.326069126","0.4","0.8","0.2","0.6","0.3942494676","0.2354797847","0.326069126","0.3937480262","","","","","","","","","","","","75","K","2","","","30","main_expt"
"","bandit","110","459060","0.0-71.0-0.0","73661737","wem/bandit_either_2","A3U21PUMQ6NGT2","either","2","319","","","","","","","1","0","0","0.3390127419","","0.4","0.8","0.2","0.6","","","","","0.4285056211","0.2692030882","0.3390127419","0.3997016236","","","","","","","","75","K","2","","","31","main_expt"
"","bandit","111","461258","0.0-72.0-0.0","73661737","wem/bandit_either_2","A3U21PUMQ6NGT2","either","2","671","","","","","","","0","1","0","","0.3360649894","0.4","0.8","0.2","0.6","0.4249454459","0.2471118655","0.3360649894","0.3574295763","","","","","","","","","","","","75","K","2","","","32","main_expt"
"","bandit","112","463327","0.0-73.0-0.0","73661737","wem/bandit_either_2","A3U21PUMQ6NGT2","either","2","528","","","","","","","0","0","1","","0.3052602024","0.4","0.8","0.2","0.6","0.416417765","0.2879199001","0.3052602024","0.3877818659","","","","","","","","","","","","75","K","2","","","33","main_expt"
"","bandit","113","465318","0.0-74.0-0.0","73661737","wem/bandit_either_2","A3U21PUMQ6NGT2","either","2","461","","","","","","","1","0","0","0.3594788954","","0.4","0.8","0.2","0.6","","","","","0.4623714429","0.3180115212","0.3594788954","0.3799496232","","","","","","","","75","K","2","","","34","main_expt"
"","bandit","114","467472","0.0-75.0-0.0","73661737","wem/bandit_either_2","A3U21PUMQ6NGT2","either","2","626","","","","","","","0","1","0","","0.380235832","0.4","0.8","0.2","0.6","0.4591977302","0.2524306687","0.380235832","0.3577573403","","","","","","","","","","","","75","K","2","","","35","main_expt"
"","bandit","115","469456","0.0-76.0-0.0","73661737","wem/bandit_either_2","A3U21PUMQ6NGT2","either","2","454","","","","","","","0","0","1","","0.3459989602","0.4","0.8","0.2","0.6","0.4686235256","0.2351869563","0.3459989602","0.3895375856","","","","","","","","","","","","75","K","2","","","36","main_expt"
"","bandit","116","471026","0.0-77.0-0.0","73661737","wem/bandit_either_2","A3U21PUMQ6NGT2","either","2","46","","","","","","","0","0","1","","0.4571547709","0.4","0.8","0.2","0.6","0.4571547709","0.2629170466","0.3320905149","0.3783527007","","","","","","","","","","","","72","H","0","img/none_selected.jpg","","37","main_expt"
"","bandit","117","472827","0.0-78.0-0.0","73661737","wem/bandit_either_2","A3U21PUMQ6NGT2","either","2","277","","","","","","","0","0","1","","0.4688430709","0.4","0.8","0.2","0.6","0.4688430709","0.3090194305","0.3471020919","0.284076782","","","","","","","","","","","","72","H","0","img/none_selected.jpg","","38","main_expt"
"","bandit","118","474744","0.0-79.0-0.0","73661737","wem/bandit_either_2","A3U21PUMQ6NGT2","either","2","391","","","","","","","1","0","0","0.4612923778","","0.4","0.8","0.2","0.6","","","","","0.4612923778","0.2845371228","0.3401763967","0.3388972186","","","","","","","","72","H","0","img/none_selected.jpg","","39","main_expt"
"","bandit","119","477006","0.0-80.0-0.0","73661737","wem/bandit_either_2","A3U21PUMQ6NGT2","either","2","731","","","","","","","0","0","1","","0.4576194683","0.4","0.8","0.2","0.6","0.4576194683","0.3076259244","0.3260487483","0.2663655232","","","","","","","","","","","","72","H","0","img/none_selected.jpg","","40","main_expt"
"","bandit","120","478978","0.0-81.0-0.0","73661737","wem/bandit_either_2","A3U21PUMQ6NGT2","either","2","430","","","","","","","1","0","0","0.4473921051","","0.4","0.8","0.2","0.6","","","","","0.4473921051","0.2888769276","0.3390218734","0.2608266697","","","","","","","","72","H","0","img/none_selected.jpg","","41","main_expt"
"","bandit","121","481635","0.0-82.0-0.0","73661737","wem/bandit_either_2","A3U21PUMQ6NGT2","either","2","1136","","","","","","","0","0","1","0.425470286","","0.4","0.8","0.2","0.6","","","","","0.425470286","0.2639198141","0.2889680017","0.2287676803","","","","","","","","72","H","0","img/none_selected.jpg","","42","main_expt"
"","bandit","122","483545","0.0-83.0-0.0","73661737","wem/bandit_either_2","A3U21PUMQ6NGT2","either","2","368","","","","","","","0","0","1","","0.2784828801","0.4","0.8","0.2","0.6","0.4030522017","0.2255441472","0.2784828801","0.2043112358","","","","","","","","","","","","75","K","2","","","43","main_expt"
"","bandit","123","485469","0.0-84.0-0.0","73661737","wem/bandit_either_2","A3U21PUMQ6NGT2","either","2","405","","","","","","","0","0","1","","0.2805729819","0.4","0.8","0.2","0.6","0.4106315797","0.2050272072","0.2805729819","0.1957049551","","","","","","","","","","","","75","K","2","","","44","main_expt"
"","bandit","124","487293","0.0-85.0-0.0","73661737","wem/bandit_either_2","A3U21PUMQ6NGT2","either","2","286","","","","","","","0","0","1","0.239455925","","0.4","0.8","0.2","0.6","","","","","0.4258527362","0.239455925","0.2195119073","0.2207366272","","","","","","","","74","J","1","","","45","main_expt"
"","bandit","125","489081","0.0-86.0-0.0","73661737","wem/bandit_either_2","A3U21PUMQ6NGT2","either","2","270","","","","","","","0","0","1","0.2414778298","","0.4","0.8","0.2","0.6","","","","","0.4425966235","0.2414778298","0.2657932304","0.1727988076","","","","","","","","74","J","1","","","46","main_expt"
"","bandit","126","490737","0.0-87.0-0.0","73661737","wem/bandit_either_2","A3U21PUMQ6NGT2","either","2","127","","","","","","","0","0","1","0.1884211613","","0.4","0.8","0.2","0.6","","","","","0.4428977597","0.1884211613","0.2678398397","0.1446735631","","","","","","","","74","J","1","","","47","main_expt"
"","bandit","127","493531","0.0-88.0-0.0","73661737","wem/bandit_either_2","A3U21PUMQ6NGT2","either","2","1267","","","","","","","0","0","1","","0.2866904938","0.4","0.8","0.2","0.6","0.4479964269","0.1755274282","0.2866904938","0.1681765936","","","","","","","","","","","","75","K","2","","","48","main_expt"
"","bandit","128","495396","0.0-89.0-0.0","73661737","wem/bandit_either_2","A3U21PUMQ6NGT2","either","2","351","","","","","","","0","0","1","0.2803848884","","0.4","0.8","0.2","0.6","","","","","0.4660387519","0.1646396384","0.2803848884","0.1473883531","","","","","","","","75","K","2","","","49","main_expt"
"","bandit","129","497286","0.0-90.0-0.0","73661737","wem/bandit_either_2","A3U21PUMQ6NGT2","either","2","363","","","","","","","0","1","0","","0.2587411269","0.4","0.8","0.2","0.6","0.4345757832","0.2024226619","0.2587411269","0.1378170987","","","","","","","","","","","","75","K","2","","","50","main_expt"
"","bandit","130","499180","0.0-91.0-0.0","73661737","wem/bandit_either_2","A3U21PUMQ6NGT2","either","2","349","","","","","","","0","0","1","","0.2212901065","0.4","0.8","0.2","0.6","0.4450950844","0.1976760068","0.2212901065","0.1430360168","","","","","","","","","","","","75","K","2","","","51","main_expt"
"","bandit","131","501102","0.0-92.0-0.0","73661737","wem/bandit_either_2","A3U21PUMQ6NGT2","either","2","392","","","","","","","0","0","1","","0.236006857","0.4","0.8","0.2","0.6","0.4475354499","0.1796352224","0.236006857","0.1731798725","","","","","","","","","","","","75","K","2","","","52","main_expt"
"","bandit","132","503537","0.0-93.0-0.0","73661737","wem/bandit_either_2","A3U21PUMQ6NGT2","either","2","898","","","","","","","0","0","1","","0.1312409056","0.4","0.8","0.2","0.6","0.4627294295","0.2451732725","0.2660825342","0.1312409056","","","","","","","","","","","","76","L","3","","","53","main_expt"
"","bandit","133","505618","0.0-94.0-0.0","73661737","wem/bandit_either_2","A3U21PUMQ6NGT2","either","2","540","","","","","","","0","0","1","0.1862053218","","0.4","0.8","0.2","0.6","","","","","0.44829207","0.2621482643","0.2458345041","0.1862053218","","","","","","","","76","L","3","","","54","main_expt"
"","bandit","134","507745","0.0-95.0-0.0","73661737","wem/bandit_either_2","A3U21PUMQ6NGT2","either","2","594","","","","","","","0","0","1","","0.2265690781","0.4","0.8","0.2","0.6","0.4505537928","0.2441780383","0.2265690781","0.1733563037","","","","","","","","","","","","75","K","2","","","55","main_expt"
"","bandit","135","509632","0.0-96.0-0.0","73661737","wem/bandit_either_2","A3U21PUMQ6NGT2","either","2","365","","","","","","","0","0","1","","0.2741820357","0.4","0.8","0.2","0.6","0.4686400132","0.199729785","0.2741820357","0.1728369204","","","","","","","","","","","","75","K","2","","","56","main_expt"
"","bandit","136","511524","0.0-97.0-0.0","73661737","wem/bandit_either_2","A3U21PUMQ6NGT2","either","2","352","","","","","","","0","1","0","","0.2937641054","0.4","0.8","0.2","0.6","0.4572679106","0.1945085845","0.2937641054","0.09176359954","","","","","","","","","","","","75","K","2","","","57","main_expt"
"","bandit","137","513521","0.0-98.0-0.0","73661737","wem/bandit_either_2","A3U21PUMQ6NGT2","either","2","480","","","","","","","0","0","1","","0.2949827607","0.4","0.8","0.2","0.6","0.4300169527","0.2614759052","0.2949827607","0.04991422033","","","","","","","","","","","","75","K","2","","","58","main_expt"
"","bandit","138","515603","0.0-99.0-0.0","73661737","wem/bandit_either_2","A3U21PUMQ6NGT2","either","2","565","","","","","","","0","0","1","","0.2710075273","0.4","0.8","0.2","0.6","0.4050829606","0.2426118991","0.2710075273","0.053239915","","","","","","","","","","","","75","K","2","","","59","main_expt"
"","bandit","139","517364","0.0-100.0-0.0","73661737","wem/bandit_either_2","A3U21PUMQ6NGT2","either","2","230","","","","","","","1","0","0","0.4070720156","","0.4","0.8","0.2","0.6","","","","","0.4070720156","0.2623750897","0.2766623035","0.06994226662","","","","","","","","72","H","0","img/none_selected.jpg","","60","main_expt"
"","bandit","140","519345","0.0-101.0-0.0","73661737","wem/bandit_either_2","A3U21PUMQ6NGT2","either","2","446","","","","","","","0","0","1","0.3895400789","","0.4","0.8","0.2","0.6","","","","","0.3895400789","0.2139103784","0.2574592035","0.07064832373","","","","","","","","72","H","0","img/none_selected.jpg","","61","main_expt"
"","bandit","141","521108","0.0-102.0-0.0","73661737","wem/bandit_either_2","A3U21PUMQ6NGT2","either","2","238","","","","","","","1","0","0","0.4050708951","","0.4","0.8","0.2","0.6","","","","","0.4050708951","0.2566580444","0.2425209234","0.08925217872","","","","","","","","72","H","0","img/none_selected.jpg","","62","main_expt"
"","bandit","142","523109","0.0-103.0-0.0","73661737","wem/bandit_either_2","A3U21PUMQ6NGT2","either","2","463","","","","","","","0","1","0","","0.3765761212","0.4","0.8","0.2","0.6","0.3765761212","0.2393402704","0.2294211584","0.08505035955","","","","","","","","","","","","72","H","0","img/none_selected.jpg","","63","main_expt"
"","bandit","143","525019","0.0-104.0-0.0","73661737","wem/bandit_either_2","A3U21PUMQ6NGT2","either","2","383","","","","","","","0","0","1","","0.3859881554","0.4","0.8","0.2","0.6","0.3859881554","0.300105392","0.2350173232","0.09892528285","","","","","","","","","","","","72","H","0","img/none_selected.jpg","","64","main_expt"
"","bandit","144","526970","0.0-105.0-0.0","73661737","wem/bandit_either_2","A3U21PUMQ6NGT2","either","2","410","","","","","","","0","0","1","0.3817039273","","0.4","0.8","0.2","0.6","","","","","0.3817039273","0.2584268813","0.2775473173","0.1428545766","","","","","","","","72","H","0","img/none_selected.jpg","","65","main_expt"
"","bandit","145","528966","0.0-106.0-0.0","73661737","wem/bandit_either_2","A3U21PUMQ6NGT2","either","2","456","","","","","","","0","0","1","","0.3622232449","0.4","0.8","0.2","0.6","0.3622232449","0.2536378703","0.298861572","0.120440259","","","","","","","","","","","","72","H","0","img/none_selected.jpg","","66","main_expt"
"","bandit","146","530944","0.0-107.0-0.0","73661737","wem/bandit_either_2","A3U21PUMQ6NGT2","either","2","438","","","","","","","1","0","0","0.3768721334","","0.4","0.8","0.2","0.6","","","","","0.3768721334","0.2548884231","0.3043747659","0.2019700983","","","","","","","","72","H","0","img/none_selected.jpg","","67","main_expt"
"","bandit","147","533041","0.0-108.0-0.0","73661737","wem/bandit_either_2","A3U21PUMQ6NGT2","either","2","565","","","","","","","0","1","0","","0.3826604183","0.4","0.8","0.2","0.6","0.3826604183","0.2105458193","0.2533072519","0.1467862533","","","","","","","","","","","","72","H","0","img/none_selected.jpg","","68","main_expt"
"","bandit","148","535324","0.0-109.0-0.0","73661737","wem/bandit_either_2","A3U21PUMQ6NGT2","either","2","743","","","","","","","1","0","0","0.3981811202","","0.4","0.8","0.2","0.6","","","","","0.3981811202","0.2901666962","0.2451677402","0.09022805221","","","","","","","","72","H","0","img/none_selected.jpg","","69","main_expt"
"","bandit","149","537472","0.0-110.0-0.0","73661737","wem/bandit_either_2","A3U21PUMQ6NGT2","either","2","626","","","","","","","0","0","1","","0.3936557204","0.4","0.8","0.2","0.6","0.3936557204","0.2973761433","0.2403061491","0.1128827508","","","","","","","","","","","","72","H","0","img/none_selected.jpg","","70","main_expt"
"","bandit","150","539310","0.0-111.0-0.0","73661737","wem/bandit_either_2","A3U21PUMQ6NGT2","either","2","297","","","","","","","0","0","1","0.2737706179","","0.4","0.8","0.2","0.6","","","","","0.3949471057","0.2737706179","0.1917576795","0.1184182172","","","","","","","","74","J","1","","","71","main_expt"
"","bandit","151","541157","0.0-112.0-0.0","73661737","wem/bandit_either_2","A3U21PUMQ6NGT2","either","2","314","","","","","","","0","0","1","","0.3005227265","0.4","0.8","0.2","0.6","0.3888869603","0.3005227265","0.1894079546","0.1038133506","","","","","","","","","","","","74","J","1","","","72","main_expt"
"","bandit","152","543031","0.0-113.0-0.0","73661737","wem/bandit_either_2","A3U21PUMQ6NGT2","either","2","348","","","","","","","0","0","1","0.3205676235","","0.4","0.8","0.2","0.6","","","","","0.4015056825","0.3205676235","0.235909594","0.07830871569","","","","","","","","74","J","1","","","73","main_expt"
"","bandit","153","544912","0.0-114.0-0.0","73661737","wem/bandit_either_2","A3U21PUMQ6NGT2","either","2","351","","","","","","","0","0","1","0.3040473008","","0.4","0.8","0.2","0.6","","","","","0.4200542591","0.3040473008","0.2772030277","0.09226686474","","","","","","","","74","J","1","","","74","main_expt"
"","bandit","154","546857","0.0-115.0-0.0","73661737","wem/bandit_either_2","A3U21PUMQ6NGT2","either","2","407","","","","","","","0","0","1","","0.2237268092","0.4","0.8","0.2","0.6","0.4353174817","0.2686744794","0.2237268092","0.07948082514","","","","","","","","","","","","75","K","2","","","75","main_expt"
"","bandit","155","548642","0.0-116.0-0.0","73661737","wem/bandit_either_2","A3U21PUMQ6NGT2","either","2","253","","","","","","","0","0","1","","0.1739375455","0.4","0.8","0.2","0.6","0.4196821318","0.258707356","0.1739375455","0.1279570505","","","","","","","","","","","","75","K","2","","","76","main_expt"
"","bandit","156","550176","0.0-117.0-0.0","73661737","wem/bandit_either_2","A3U21PUMQ6NGT2","either","2","11","","","","","","","0","0","1","0.1648796623","","0.4","0.8","0.2","0.6","","","","","0.3787369199","0.3010070056","0.1648796623","0.1202820049","","","","","","","","75","K","2","","","77","main_expt"
"","bandit","157","553182","0.0-118.0-0.0","73661737","wem/bandit_either_2","A3U21PUMQ6NGT2","either","2","1488","","","","","","","0","0","1","","0.1637798684","0.4","0.8","0.2","0.6","0.4314930014","0.2648586626","0.1637798684","0.1054071572","","","","","","","","","","","","75","K","2","","","78","main_expt"
"","bandit","158","555049","0.0-119.0-0.0","73661737","wem/bandit_either_2","A3U21PUMQ6NGT2","either","2","340","","","","","","","0","0","1","0.1490076182","","0.4","0.8","0.2","0.6","","","","","0.4155078174","0.1984114041","0.1490076182","0.1403095361","","","","","","","","75","K","2","","","79","main_expt"
"","bandit","159","557030","0.0-120.0-0.0","73661737","wem/bandit_either_2","A3U21PUMQ6NGT2","either","2","453","","","","","","","0","1","0","","0.4226243671","0.4","0.8","0.2","0.6","0.4226243671","0.180325551","0.1093198388","0.1891235553","","","","","","","","","","","","72","H","0","img/none_selected.jpg","","80","main_expt"
"","bandit","160","559261","0.0-121.0-0.0","73661737","wem/bandit_either_2","A3U21PUMQ6NGT2","either","2","706","","","","","","","0","1","0","","0.4474166549","0.4","0.8","0.2","0.6","0.4474166549","0.224531153","0.08868186825","0.1858030354","","","","","","","","","","","","72","H","0","img/none_selected.jpg","","81","main_expt"
"","bandit","161","561664","0.0-122.0-0.0","73661737","wem/bandit_either_2","A3U21PUMQ6NGT2","either","2","879","","","","","","","0","1","0","","0.4636297045","0.4","0.8","0.2","0.6","0.4636297045","0.221125015","0.1073880826","0.2476542501","","","","","","","","","","","","72","H","0","img/none_selected.jpg","","82","main_expt"
"","bandit","162","564190","0.0-123.0-0.0","73661737","wem/bandit_either_2","A3U21PUMQ6NGT2","either","2","957","","","","","","","0","0","1","0.467509749","","0.4","0.8","0.2","0.6","","","","","0.467509749","0.2143237207","0.1022587498","0.2188241074","","","","","","","","72","H","0","img/none_selected.jpg","","83","main_expt"
"","bandit","163","568089","0.0-124.0-0.0","73661737","wem/bandit_either_2","A3U21PUMQ6NGT2","either","2","2362","","","","","","","0","0","1","","0.1085807699","0.4","0.8","0.2","0.6","0.4551111531","0.2097367537","0.1085807699","0.2754771977","","","","","","","","","","","","75","K","2","","","84","main_expt"
"","bandit","164","570236","0.0-125.0-0.0","73661737","wem/bandit_either_2","A3U21PUMQ6NGT2","either","2","611","","","","","","","0","0","1","","0.1263918358","0.4","0.8","0.2","0.6","0.4621419017","0.1661536269","0.1263918358","0.2965575968","","","","","","","","","","","","75","K","2","","","85","main_expt"
"","bandit","165","572131","0.0-126.0-0.0","73661737","wem/bandit_either_2","A3U21PUMQ6NGT2","either","2","361","","","","","","","0","0","1","","0.4612050897","0.4","0.8","0.2","0.6","0.4612050897","0.1364458955","0.1481941301","0.257129161","","","","","","","","","","","","72","H","0","img/none_selected.jpg","","86","main_expt"
"","bandit","166","574016","0.0-127.0-0.0","73661737","wem/bandit_either_2","A3U21PUMQ6NGT2","either","2","366","","","","","","","0","1","0","","0.4334675206","0.4","0.8","0.2","0.6","0.4334675206","0.08235553135","0.1447872846","0.2338967043","","","","","","","","","","","","72","H","0","img/none_selected.jpg","","87","main_expt"
"","bandit","167","576096","0.0-128.0-0.0","73661737","wem/bandit_either_2","A3U21PUMQ6NGT2","either","2","564","","","","","","","0","0","1","0.4397617206","","0.4","0.8","0.2","0.6","","","","","0.4397617206","0.0754832669","0.1391637727","0.2161535794","","","","","","","","72","H","0","img/none_selected.jpg","","88","main_expt"
"","bandit","168","578405","0.0-129.0-0.0","73661737","wem/bandit_either_2","A3U21PUMQ6NGT2","either","2","776","","","","","","","0","1","0","","0.4635478967","0.4","0.8","0.2","0.6","0.4635478967","0.109361408","0.1476089376","0.2043146745","","","","","","","","","","","","72","H","0","img/none_selected.jpg","","89","main_expt"
"","bandit","169","580660","0.0-130.0-0.0","73661737","wem/bandit_either_2","A3U21PUMQ6NGT2","either","2","725","","","","","","","0","1","0","","0.4234969579","0.4","0.8","0.2","0.6","0.4234969579","0.07391079866","0.2081489191","0.2346009907","","","","","","","","","","","","72","H","0","img/none_selected.jpg","","90","main_expt"
"","bandit","170","582696","0.0-131.0-0.0","73661737","wem/bandit_either_2","A3U21PUMQ6NGT2","either","2","497","","","","","","","0","1","0","","0.4267507071","0.4","0.8","0.2","0.6","0.4267507071","0.1164594673","0.1834039029","0.2333967219","","","","","","","","","","","","72","H","0","img/none_selected.jpg","","91","main_expt"
"","bandit","171","584831","0.0-132.0-0.0","73661737","wem/bandit_either_2","A3U21PUMQ6NGT2","either","2","593","","","","","","","1","0","0","0.4089505196","","0.4","0.8","0.2","0.6","","","","","0.4089505196","0.113043345","0.2027314649","0.2150480475","","","","","","","","72","H","0","img/none_selected.jpg","","92","main_expt"
"","bandit","172","586835","0.0-133.0-0.0","73661737","wem/bandit_either_2","A3U21PUMQ6NGT2","either","2","472","","","","","","","0","0","1","0.4112501448","","0.4","0.8","0.2","0.6","","","","","0.4112501448","0.1714352716","0.1738894496","0.2588080464","","","","","","","","72","H","0","img/none_selected.jpg","","93","main_expt"
"","bandit","173","588895","0.0-134.0-0.0","73661737","wem/bandit_either_2","A3U21PUMQ6NGT2","either","2","526","","","","","","","0","1","0","","0.452415855","0.4","0.8","0.2","0.6","0.452415855","0.1253024032","0.2484708832","0.2748849181","","","","","","","","","","","","72","H","0","img/none_selected.jpg","","94","main_expt"
"","bandit","174","590831","0.0-135.0-0.0","73661737","wem/bandit_either_2","A3U21PUMQ6NGT2","either","2","408","","","","","","","1","0","0","0.4589197587","","0.4","0.8","0.2","0.6","","","","","0.4589197587","0.1401284447","0.2914685715","0.2791739054","","","","","","","","72","H","0","img/none_selected.jpg","","95","main_expt"
"","bandit","175","592812","0.0-136.0-0.0","73661737","wem/bandit_either_2","A3U21PUMQ6NGT2","either","2","449","","","","","","","0","0","1","","0.4481870348","0.4","0.8","0.2","0.6","0.4481870348","0.1320491369","0.2417524935","0.3149564315","","","","","","","","","","","","72","H","0","img/none_selected.jpg","","96","main_expt"
"","bandit","176","594744","0.0-137.0-0.0","73661737","wem/bandit_either_2","A3U21PUMQ6NGT2","either","2","408","","","","","","","0","0","1","","0.4597072186","0.4","0.8","0.2","0.6","0.4597072186","0.1518453759","0.2492821404","0.372564007","","","","","","","","","","","","72","H","0","img/none_selected.jpg","","97","main_expt"
"","bandit","177","596757","0.0-138.0-0.0","73661737","wem/bandit_either_2","A3U21PUMQ6NGT2","either","2","492","","","","","","","0","1","0","","0.4705619112","0.4","0.8","0.2","0.6","0.4705619112","0.2173959583","0.3002958449","0.393328365","","","","","","","","","","","","72","H","0","img/none_selected.jpg","","98","main_expt"
"","bandit","178","598804","0.0-139.0-0.0","73661737","wem/bandit_either_2","A3U21PUMQ6NGT2","either","2","532","","","","","","","0","1","0","","0.4800968761","0.4","0.8","0.2","0.6","0.4800968761","0.2618725657","0.3544832656","0.421239771","","","","","","","","","","","","72","H","0","img/none_selected.jpg","","99","main_expt"
"","bandit","179","602326","0.0-140.0-0.0","73661737","wem/bandit_either_2","A3U21PUMQ6NGT2","either","2","1988","","","","","","","1","0","0","0.4780143146","","0.4","0.8","0.2","0.6","","","","","0.4780143146","0.2487788848","0.3810954338","0.4130759476","","","","","","","","72","H","0","img/none_selected.jpg","","100","main_expt"
"","bandit","180","604704","0.0-141.0-0.0","73661737","wem/bandit_either_2","A3U21PUMQ6NGT2","either","2","825","","","","","","","0","1","0","","0.4849002763","0.4","0.8","0.2","0.6","0.4849002763","0.2890792313","0.4042362267","0.4089462913","","","","","","","","","","","","72","H","0","img/none_selected.jpg","","101","main_expt"
"","bandit","181","606771","0.0-142.0-0.0","73661737","wem/bandit_either_2","A3U21PUMQ6NGT2","either","2","530","","","","","","","0","1","0","","0.4886078379","0.4","0.8","0.2","0.6","0.4886078379","0.3136369757","0.4594696392","0.370330464","","","","","","","","","","","","72","H","0","img/none_selected.jpg","","102","main_expt"
"","bandit","182","608849","0.0-143.0-0.0","73661737","wem/bandit_either_2","A3U21PUMQ6NGT2","either","2","555","","","","","","","0","0","1","","0.47121906","0.4","0.8","0.2","0.6","0.47121906","0.2364671533","0.4588766667","0.3306315663","","","","","","","","","","","","72","H","0","img/none_selected.jpg","","103","main_expt"
"","bandit","183","610796","0.0-144.0-0.0","73661737","wem/bandit_either_2","A3U21PUMQ6NGT2","either","2","421","","","","","","","0","0","1","","0.4372785745","0.4","0.8","0.2","0.6","0.4760763377","0.2202486688","0.4372785745","0.354634178","","","","","","","","","","","","75","K","2","","","104","main_expt"
"","bandit","184","612668","0.0-145.0-0.0","73661737","wem/bandit_either_2","A3U21PUMQ6NGT2","either","2","340","","","","","","","0","0","1","0.4063887309","","0.4","0.8","0.2","0.6","","","","","0.4701389446","0.1854418088","0.4063887309","0.3896605338","","","","","","","","75","K","2","","","105","main_expt"
"","bandit","185","614731","0.0-146.0-0.0","73661737","wem/bandit_either_2","A3U21PUMQ6NGT2","either","2","524","","","","","","","0","1","0","","0.3778019321","0.4","0.8","0.2","0.6","0.471324938","0.1596754559","0.3778019321","0.414339711","","","","","","","","","","","","75","K","2","","","106","main_expt"
"","bandit","186","616648","0.0-147.0-0.0","73661737","wem/bandit_either_2","A3U21PUMQ6NGT2","either","2","378","","","","","","","0","0","1","","0.3614143111","0.4","0.8","0.2","0.6","0.4786694594","0.137099288","0.3614143111","0.4164239898","","","","","","","","","","","","75","K","2","","","107","main_expt"
"","bandit","187","618494","0.0-148.0-0.0","73661737","wem/bandit_either_2","A3U21PUMQ6NGT2","either","2","325","","","","","","","0","1","0","","0.3681250399","0.4","0.8","0.2","0.6","0.4810065258","0.1443984823","0.3681250399","0.3836571442","","","","","","","","","","","","75","K","2","","","108","main_expt"
"","bandit","188","620678","0.0-149.0-0.0","73661737","wem/bandit_either_2","A3U21PUMQ6NGT2","either","2","660","","","","","","","0","1","0","","0.3446081275","0.4","0.8","0.2","0.6","0.4816764674","0.1409511773","0.3446081275","0.3881214568","","","","","","","","","","","","75","K","2","","","109","main_expt"
"","bandit","189","622581","0.0-150.0-0.0","73661737","wem/bandit_either_2","A3U21PUMQ6NGT2","either","2","380","","","","","","","0","0","1","","0.3681270965","0.4","0.8","0.2","0.6","0.4882082215","0.1787750665","0.3681270965","0.4266873791","","","","","","","","","","","","75","K","2","","","110","main_expt"
"","bandit","190","624509","0.0-151.0-0.0","73661737","wem/bandit_either_2","A3U21PUMQ6NGT2","either","2","399","","","","","","","0","1","0","","0.391379093","0.4","0.8","0.2","0.6","0.478642168","0.1862786225","0.391379093","0.4475699482","","","","","","","","","","","","75","K","2","","","111","main_expt"
"","bandit","191","626512","0.0-152.0-0.0","73661737","wem/bandit_either_2","A3U21PUMQ6NGT2","either","2","477","","","","","","","0","0","1","","0.4131544452","0.4","0.8","0.2","0.6","0.4841415165","0.1654620982","0.4131544452","0.4190314983","","","","","","","","","","","","75","K","2","","","112","main_expt"
"","bandit","192","628345","0.0-153.0-0.0","73661737","wem/bandit_either_2","A3U21PUMQ6NGT2","either","2","305","","","","","","","0","0","1","0.3963985948","","0.4","0.8","0.2","0.6","","","","","0.4883212127","0.1582981878","0.3963985948","0.3666128881","","","","","","","","75","K","2","","","113","main_expt"
"","bandit","193","630504","0.0-154.0-0.0","73661737","wem/bandit_either_2","A3U21PUMQ6NGT2","either","2","620","","","","","","","0","0","1","","0.4883790739","0.4","0.8","0.2","0.6","0.4883790739","0.1922757069","0.4117985871","0.3866259854","","","","","","","","","","","","72","H","0","img/none_selected.jpg","","114","main_expt"
"","bandit","194","632171","0.0-155.0-0.0","73661737","wem/bandit_either_2","A3U21PUMQ6NGT2","either","2","129","","","","","","","0","1","0","","0.4902011966","0.4","0.8","0.2","0.6","0.4902011966","0.185618385","0.394381103","0.354161152","","","","","","","","","","","","72","H","0","img/none_selected.jpg","","115","main_expt"
"","bandit","195","634051","0.0-156.0-0.0","73661737","wem/bandit_either_2","A3U21PUMQ6NGT2","either","2","367","","","","","","","1","0","0","0.4844723045","","0.4","0.8","0.2","0.6","","","","","0.4844723045","0.2057277395","0.3762408663","0.3170745426","","","","","","","","72","H","0","img/none_selected.jpg","","116","main_expt"
"","bandit","196","636055","0.0-157.0-0.0","73661737","wem/bandit_either_2","A3U21PUMQ6NGT2","either","2","470","","","","","","","0","0","1","","0.4895589844","0.4","0.8","0.2","0.6","0.4895589844","0.2288411079","0.3823674378","0.304536318","","","","","","","","","","","","72","H","0","img/none_selected.jpg","","117","main_expt"
"","bandit","197","638031","0.0-158.0-0.0","73661737","wem/bandit_either_2","A3U21PUMQ6NGT2","either","2","444","","","","","","","1","0","0","0.4899729034","","0.4","0.8","0.2","0.6","","","","","0.4899729034","0.2207517482","0.4050195855","0.3411026949","","","","","","","","72","H","0","img/none_selected.jpg","","118","main_expt"
"","bandit","198","640180","0.0-159.0-0.0","73661737","wem/bandit_either_2","A3U21PUMQ6NGT2","either","2","614","","","","","","","0","0","1","","0.4947041593","0.4","0.8","0.2","0.6","0.4947041593","0.1955286499","0.4227562767","0.3447942488","","","","","","","","","","","","72","H","0","img/none_selected.jpg","","119","main_expt"
"","bandit","199","642071","0.0-160.0-0.0","73661737","wem/bandit_either_2","A3U21PUMQ6NGT2","either","2","361","","","","","","","0","1","0","","0.4916865355","0.4","0.8","0.2","0.6","0.4916865355","0.2427950695","0.4163810796","0.3686185352","","","","","","","","","","","","72","H","0","img/none_selected.jpg","","120","main_expt"
"","bandit","200","644021","0.0-161.0-0.0","73661737","wem/bandit_either_2","A3U21PUMQ6NGT2","either","2","420","","","","","","","0","1","0","","0.4860386064","0.4","0.8","0.2","0.6","0.4860386064","0.2479682904","0.406821829","0.3547669752","","","","","","","","","","","","72","H","0","img/none_selected.jpg","","121","main_expt"
"","bandit","201","645904","0.0-162.0-0.0","73661737","wem/bandit_either_2","A3U21PUMQ6NGT2","either","2","345","","","","","","","1","0","0","0.483083859","","0.4","0.8","0.2","0.6","","","","","0.483083859","0.3081985406","0.3999449125","0.365994073","","","","","","","","72","H","0","img/none_selected.jpg","","122","main_expt"
"","bandit","202","647806","0.0-163.0-0.0","73661737","wem/bandit_either_2","A3U21PUMQ6NGT2","either","2","361","","","","","","","0","0","1","0.4791491275","","0.4","0.8","0.2","0.6","","","","","0.4791491275","0.3089359708","0.366626489","0.3120596142","","","","","","","","72","H","0","img/none_selected.jpg","","123","main_expt"
"","bandit","203","650126","0.0-164.0-0.0","73661737","wem/bandit_either_2","A3U21PUMQ6NGT2","either","2","787","","","","","","","0","0","1","","0.4776777384","0.4","0.8","0.2","0.6","0.4776777384","0.3298338218","0.3706278578","0.302161917","","","","","","","","","","","","72","H","0","img/none_selected.jpg","","124","main_expt"
"","bandit","204","653284","0.0-165.0-0.0","73661737","wem/bandit_either_2","A3U21PUMQ6NGT2","either","2","1617","","","","","","","0","1","0","","0.3545504723","0.4","0.8","0.2","0.6","0.478983255","0.2795250441","0.3545504723","0.2794370347","","","","","","","","","","","","75","K","2","","","125","main_expt"
"","bandit","205","655402","0.0-166.0-0.0","73661737","wem/bandit_either_2","A3U21PUMQ6NGT2","either","2","580","","","","","","","0","0","1","","0.3106298006","0.4","0.8","0.2","0.6","0.4724726719","0.2184127205","0.3106298006","0.2466154908","","","","","","","","","","","","75","K","2","","","126","main_expt"
"","bandit","206","657297","0.0-167.0-0.0","73661737","wem/bandit_either_2","A3U21PUMQ6NGT2","either","2","374","","","","","","","0","0","1","","0.3351405197","0.4","0.8","0.2","0.6","0.4796244369","0.2488858907","0.3351405197","0.2712823261","","","","","","","","","","","","75","K","2","","","127","main_expt"
"","bandit","207","659281","0.0-168.0-0.0","73661737","wem/bandit_either_2","A3U21PUMQ6NGT2","either","2","444","","","","","","","0","0","1","","0.2984422464","0.4","0.8","0.2","0.6","0.4825212971","0.2850827173","0.2984422464","0.2095517986","","","","","","","","","","","","75","K","2","","","128","main_expt"
"","bandit","208","661182","0.0-169.0-0.0","73661737","wem/bandit_either_2","A3U21PUMQ6NGT2","either","2","362","","","","","","","0","0","1","","0.2027892291","0.4","0.8","0.2","0.6","0.4877535013","0.2867242009","0.2027892291","0.1986866195","","","","","","","","","","","","75","K","2","","","129","main_expt"
"","bandit","209","663398","0.0-170.0-0.0","73661737","wem/bandit_either_2","A3U21PUMQ6NGT2","either","2","685","","","","","","","0","0","1","","0.172959111","0.4","0.8","0.2","0.6","0.4833646461","0.2509552002","0.13768179","0.172959111","","","","","","","","","","","","76","L","3","","","130","main_expt"
"","bandit","210","665237","0.0-171.0-0.0","73661737","wem/bandit_either_2","A3U21PUMQ6NGT2","either","2","310","","","","","","","0","0","1","0.163172462","","0.4","0.8","0.2","0.6","","","","","0.4790990265","0.2172434631","0.1352832961","0.163172462","","","","","","","","76","L","3","","","131","main_expt"
"","bandit","211","667225","0.0-172.0-0.0","73661737","wem/bandit_either_2","A3U21PUMQ6NGT2","either","2","444","","","","","","","0","0","1","0.158295755","","0.4","0.8","0.2","0.6","","","","","0.4882311922","0.158295755","0.08660982753","0.161148659","","","","","","","","74","J","1","","","132","main_expt"
"","bandit","212","669320","0.0-173.0-0.0","73661737","wem/bandit_either_2","A3U21PUMQ6NGT2","either","2","551","","","","","","","0","0","1","0.185310911","","0.4","0.8","0.2","0.6","","","","","0.4889625365","0.185310911","0.1020907376","0.1735641072","","","","","","","","74","J","1","","","133","main_expt"
"","bandit","213","671403","0.0-174.0-0.0","73661737","wem/bandit_either_2","A3U21PUMQ6NGT2","either","2","532","","","","","","","0","0","1","0.1966535246","","0.4","0.8","0.2","0.6","","","","","0.4916783795","0.1966535246","0.1231499397","0.1597390633","","","","","","","","74","J","1","","","134","main_expt"
"","bandit","214","673490","0.0-175.0-0.0","73661737","wem/bandit_either_2","A3U21PUMQ6NGT2","either","2","557","","","","","","","0","0","1","","0.1524236556","0.4","0.8","0.2","0.6","0.4904315354","0.2290191974","0.1524236556","0.1460070414","","","","","","","","","","","","75","K","2","","","135","main_expt"
"","bandit","215","675268","0.0-176.0-0.0","73661737","wem/bandit_either_2","A3U21PUMQ6NGT2","either","2","254","","","","","","","0","0","1","0.491666595","","0.4","0.8","0.2","0.6","","","","","0.491666595","0.2929229053","0.1954247664","0.105474526","","","","","","","","72","H","0","img/none_selected.jpg","","136","main_expt"
"","bandit","216","677224","0.0-177.0-0.0","73661737","wem/bandit_either_2","A3U21PUMQ6NGT2","either","2","431","","","","","","","0","0","1","","0.4917142499","0.4","0.8","0.2","0.6","0.4917142499","0.2780805385","0.1833989084","0.08835118593","","","","","","","","","","","","72","H","0","img/none_selected.jpg","","137","main_expt"
"","bandit","217","679313","0.0-178.0-0.0","73661737","wem/bandit_either_2","A3U21PUMQ6NGT2","either","2","543","","","","","","","0","0","1","","0.4870170403","0.4","0.8","0.2","0.6","0.4870170403","0.217224157","0.1490533902","0.06418360449","","","","","","","","","","","","72","H","0","img/none_selected.jpg","","138","main_expt"
"","bandit","218","681228","0.0-179.0-0.0","73661737","wem/bandit_either_2","A3U21PUMQ6NGT2","either","2","392","","","","","","","0","1","0","","0.4834992155","0.4","0.8","0.2","0.6","0.4834992155","0.2323391466","0.1318817547","0.03554325754","","","","","","","","","","","","72","H","0","img/none_selected.jpg","","139","main_expt"
"","bandit","219","683185","0.0-180.0-0.0","73661737","wem/bandit_either_2","A3U21PUMQ6NGT2","either","2","408","","","","","","","0","0","1","0.4927392517","","0.4","0.8","0.2","0.6","","","","","0.4927392517","0.244475209","0.1877412345","0.04477370895","","","","","","","","72","H","0","img/none_selected.jpg","","140","main_expt"
"","bandit","220","685293","0.0-181.0-0.0","73661737","wem/bandit_either_2","A3U21PUMQ6NGT2","either","2","582","","","","","","","1","0","0","0.4872377518","","0.4","0.8","0.2","0.6","","","","","0.4872377518","0.232604034","0.2363671377","0.03780119019","","","","","","","","72","H","0","img/none_selected.jpg","","141","main_expt"
"","bandit","221","687934","0.0-182.0-0.0","73661737","wem/bandit_either_2","A3U21PUMQ6NGT2","either","2","1100","","","","","","","0","0","1","","0.4846254936","0.4","0.8","0.2","0.6","0.4846254936","0.2447345556","0.2546402356","0.03149913875","","","","","","","","","","","","72","H","0","img/none_selected.jpg","","142","main_expt"
"","bandit","222","689832","0.0-183.0-0.0","73661737","wem/bandit_either_2","A3U21PUMQ6NGT2","either","2","366","","","","","","","0","1","0","","0.4815328815","0.4","0.8","0.2","0.6","0.4815328815","0.26413271","0.2825544685","0.04191513266","","","","","","","","","","","","72","H","0","img/none_selected.jpg","","143","main_expt"
"","bandit","223","691861","0.0-184.0-0.0","73661737","wem/bandit_either_2","A3U21PUMQ6NGT2","either","2","494","","","","","","","0","0","1","","0.4854048375","0.4","0.8","0.2","0.6","0.4854048375","0.1988203511","0.2731230023","0.05613120157","","","","","","","","","","","","72","H","0","img/none_selected.jpg","","144","main_expt"
"","bandit","224","693769","0.0-185.0-0.0","73661737","wem/bandit_either_2","A3U21PUMQ6NGT2","either","2","385","","","","","","","0","1","0","","0.4813029389","0.4","0.8","0.2","0.6","0.4813029389","0.217822638","0.2943814715","0.03827589539","","","","","","","","","","","","72","H","0","img/none_selected.jpg","","145","main_expt"
"","bandit","225","695708","0.0-186.0-0.0","73661737","wem/bandit_either_2","A3U21PUMQ6NGT2","either","2","393","","","","","","","0","1","0","","0.4884824202","0.4","0.8","0.2","0.6","0.4884824202","0.2009042904","0.328634005","0.02861175853","","","","","","","","","","","","72","H","0","img/none_selected.jpg","","146","main_expt"
"","bandit","226","697670","0.0-187.0-0.0","73661737","wem/bandit_either_2","A3U21PUMQ6NGT2","either","2","433","","","","","","","0","0","1","","0.4835291327","0.4","0.8","0.2","0.6","0.4835291327","0.2080446297","0.3511209141","0.02140640811","","","","","","","","","","","","72","H","0","img/none_selected.jpg","","147","main_expt"
"","bandit","227","699678","0.0-188.0-0.0","73661737","wem/bandit_either_2","A3U21PUMQ6NGT2","either","2","472","","","","","","","0","0","1","","0.4716003481","0.4","0.8","0.2","0.6","0.4716003481","0.1536700415","0.3874996206","0.0202041473","","","","","","","","","","","","72","H","0","img/none_selected.jpg","","148","main_expt"
"","bandit","228","701727","0.0-189.0-0.0","73661737","wem/bandit_either_2","A3U21PUMQ6NGT2","either","2","494","","","","","","","0","0","1","0.4341886607","","0.4","0.8","0.2","0.6","","","","","0.4341886607","0.1593661633","0.3476646045","0.01154190459","","","","","","","","72","H","0","img/none_selected.jpg","","149","main_expt"
"","bandit","229","703520","0.0-190.0-0.0","73661737","wem/bandit_either_2","A3U21PUMQ6NGT2","either","2","272","","","","","","","0","0","1","","0.3323010919","0.4","0.8","0.2","0.6","0.4014438172","0.144955896","0.3323010919","0.01291237021","","","","","","","","","","","","75","K","2","","","150","main_expt"
"","bandit","230","705502","0.0-191.0-0.0","73661737","wem/bandit_either_2","A3U21PUMQ6NGT2","either","2","437","","","","","","","0","0","1","","0.3954477196","0.4","0.8","0.2","0.6","0.3980713407","0.2123564028","0.3954477196","0.0137789916","","","","","","","","","","","","75","K","2","","","151","main_expt"
"","bandit","231","708651","0.0-192.0-0.0","73661737","wem/bandit_either_2","A3U21PUMQ6NGT2","either","2","1615","","","","","","","0","0","1","","0.4186327087","0.4","0.8","0.2","0.6","0.4002357887","0.2301890466","0.4186327087","0.01985271471","","","","","","","","","","","","75","K","2","","","152","main_expt"
"","bandit","232","710508","0.0-193.0-0.0","73661737","wem/bandit_either_2","A3U21PUMQ6NGT2","either","2","314","","","","","","","0","0","1","","0.4029566754","0.4","0.8","0.2","0.6","0.388677987","0.2295153641","0.4029566754","0.02951100453","","","","","","","","","","","","75","K","2","","","153","main_expt"
"","bandit","233","712393","0.0-194.0-0.0","73661737","wem/bandit_either_2","A3U21PUMQ6NGT2","either","2","325","","","","","","","0","0","1","","0.4037751878","0.4","0.8","0.2","0.6","0.3817747688","0.2163321136","0.4037751878","0.02325572033","","","","","","","","","","","","75","K","2","","","154","main_expt"
"","bandit","234","714465","0.0-195.0-0.0","73661737","wem/bandit_either_2","A3U21PUMQ6NGT2","either","2","502","","","","","","","0","0","1","","0.327727533","0.4","0.8","0.2","0.6","0.327727533","0.2257858177","0.4078727314","0.03925092562","","","","","","","","","","","","72","H","0","img/none_selected.jpg","","155","main_expt"
"","bandit","235","716353","0.0-196.0-0.0","73661737","wem/bandit_either_2","A3U21PUMQ6NGT2","either","2","375","","","","","","","0","0","1","","0.2821504166","0.4","0.8","0.2","0.6","0.2821504166","0.2077891775","0.3941681487","0.05532081832","","","","","","","","","","","","72","H","0","img/none_selected.jpg","","156","main_expt"
"","bandit","236","718232","0.0-197.0-0.0","73661737","wem/bandit_either_2","A3U21PUMQ6NGT2","either","2","344","","","","","","","0","0","1","0.2784527126","","0.4","0.8","0.2","0.6","","","","","0.2784527126","0.1742908387","0.3417147062","0.05983660039","","","","","","","","72","H","0","img/none_selected.jpg","","157","main_expt"
"","bandit","237","720120","0.0-198.0-0.0","73661737","wem/bandit_either_2","A3U21PUMQ6NGT2","either","2","350","","","","","","","0","0","1","","0.2857058734","0.4","0.8","0.2","0.6","0.2857058734","0.162057643","0.2963220618","0.09347744845","","","","","","","","","","","","72","H","0","img/none_selected.jpg","","158","main_expt"
"","bandit","238","722364","0.0-199.0-0.0","73661737","wem/bandit_either_2","A3U21PUMQ6NGT2","either","2","699","","","","","","","1","0","0","0.1805514511","","0.4","0.8","0.2","0.6","","","","","0.2349295223","0.1805514511","0.2961528309","0.09649648717","","","","","","","","74","J","1","","","159","main_expt"
"","bandit","239","724556","0.0-200.0-0.0","73661737","wem/bandit_either_2","A3U21PUMQ6NGT2","either","2","659","","","","","","","0","0","1","","0.1724629995","0.4","0.8","0.2","0.6","0.2275717407","0.1724629995","0.2842772575","0.08382429791","","","","","","","","","","","","74","J","1","","","160","main_expt"
"","bandit","240","726886","0.0-201.0-0.0","73661737","wem/bandit_either_2","A3U21PUMQ6NGT2","either","2","792","","","","","","","0","0","1","0.1660992999","","0.4","0.8","0.2","0.6","","","","","0.2559884592","0.1660992999","0.2747674873","0.1466352983","","","","","","","","74","J","1","","","161","main_expt"
"","bandit","241","729033","0.0-202.0-0.0","73661737","wem/bandit_either_2","A3U21PUMQ6NGT2","either","2","621","","","","","","","0","1","0","","0.2281832109","0.4","0.8","0.2","0.6","0.2670526618","0.2281832109","0.2993190406","0.1569467617","","","","","","","","","","","","74","J","1","","","162","main_expt"
"","bandit","242","731473","0.0-203.0-0.0","73661737","wem/bandit_either_2","A3U21PUMQ6NGT2","either","2","922","","","","","","","0","0","1","0.2144285545","","0.4","0.8","0.2","0.6","","","","","0.2618894379","0.2144285545","0.3102408377","0.1437935099","","","","","","","","74","J","1","","","163","main_expt"
"","bandit","243","734322","0.0-204.0-0.0","73661737","wem/bandit_either_2","A3U21PUMQ6NGT2","either","2","1274","","","","","","","0","0","1","0.2131293933","","0.4","0.8","0.2","0.6","","","","","0.2977476978","0.2131293933","0.2607878409","0.1503677763","","","","","","","","74","J","1","","","164","main_expt"
"","bandit","244","736412","0.0-205.0-0.0","73661737","wem/bandit_either_2","A3U21PUMQ6NGT2","either","2","554","","","","","","","1","0","0","0.251698227","","0.4","0.8","0.2","0.6","","","","","0.3138636066","0.251698227","0.2470054868","0.1574825995","","","","","","","","74","J","1","","","165","main_expt"
"","bandit","245","738444","0.0-206.0-0.0","73661737","wem/bandit_either_2","A3U21PUMQ6NGT2","either","2","503","","","","","","","1","0","0","0.2831539445","","0.4","0.8","0.2","0.6","","","","","0.3204338644","0.2831539445","0.2629624785","0.1500633275","","","","","","","","74","J","1","","","166","main_expt"
"","bandit","246","740481","0.0-207.0-0.0","73661737","wem/bandit_either_2","A3U21PUMQ6NGT2","either","2","493","","","","","","","1","0","0","0.2496169508","","0.4","0.8","0.2","0.6","","","","","0.3600517585","0.2496169508","0.2745713682","0.1137242654","","","","","","","","74","J","1","","","167","main_expt"
"","bandit","247","742409","0.0-208.0-0.0","73661737","wem/bandit_either_2","A3U21PUMQ6NGT2","either","2","376","","","","","","","0","0","1","0.2315540067","","0.4","0.8","0.2","0.6","","","","","0.3678373827","0.2315540067","0.2557249153","0.145192941","","","","","","","","74","J","1","","","168","main_expt"
"","bandit","248","744976","0.0-209.0-0.0","73661737","wem/bandit_either_2","A3U21PUMQ6NGT2","either","2","1034","","","","","","","0","0","1","0.1825517174","","0.4","0.8","0.2","0.6","","","","","0.3421512568","0.1825517174","0.2016321063","0.1863479632","","","","","","","","74","J","1","","","169","main_expt"
"","bandit","249","746733","0.0-210.0-0.0","73661737","wem/bandit_either_2","A3U21PUMQ6NGT2","either","2","233","","","","","","","0","0","1","0.142304713","","0.4","0.8","0.2","0.6","","","","","0.3917895485","0.2535959064","0.2210696627","0.142304713","","","","","","","","76","L","3","","","170","main_expt"
"","bandit","250","750347","0.0-211.0-0.0","73661737","wem/bandit_either_2","A3U21PUMQ6NGT2","either","2","2087","","","","","","","0","0","1","0.1739768979","","0.4","0.8","0.2","0.6","","","","","0.3206692194","0.3004284576","0.1627904758","0.1739768979","","","","","","","","76","L","3","","","171","main_expt"
"","bandit","251","753610","0.0-212.0-0.0","73661737","wem/bandit_either_2","A3U21PUMQ6NGT2","either","2","1724","","","","","","","0","0","1","","0.2172659048","0.4","0.8","0.2","0.6","0.3198600846","0.2716191145","0.1421076649","0.2172659048","","","","","","","","","","","","76","L","3","","","172","main_expt"
"","bandit","252","755937","0.0-213.0-0.0","73661737","wem/bandit_either_2","A3U21PUMQ6NGT2","either","2","783","","","","","","","1","0","0","0.3253138029","","0.4","0.8","0.2","0.6","","","","","0.2641483633","0.3253138029","0.165050165","0.2419731025","","","","","","","","74","J","1","","","173","main_expt"
"","bandit","253","758446","0.0-214.0-0.0","73661737","wem/bandit_either_2","A3U21PUMQ6NGT2","either","2","969","","","","","","","0","0","1","0.3419591401","","0.4","0.8","0.2","0.6","","","","","0.2248062597","0.3419591401","0.1406738207","0.2239571331","","","","","","","","74","J","1","","","174","main_expt"
"","bandit","254","761097","0.0-215.0-0.0","73661737","wem/bandit_either_2","A3U21PUMQ6NGT2","either","2","1116","","","","","","","1","0","0","0.3442692367","","0.4","0.8","0.2","0.6","","","","","0.2370379408","0.3442692367","0.138310495","0.2311410243","","","","","","","","74","J","1","","","175","main_expt"
"","bandit","255","763367","0.0-216.0-0.0","73661737","wem/bandit_either_2","A3U21PUMQ6NGT2","either","2","701","","","","","","","1","0","0","0.3397266539","","0.4","0.8","0.2","0.6","","","","","0.2157433706","0.3397266539","0.1675243642","0.2610077479","","","","","","","","74","J","1","","","176","main_expt"
"","bandit","256","766057","0.0-217.0-0.0","73661737","wem/bandit_either_2","A3U21PUMQ6NGT2","either","2","1154","","","","","","","0","0","1","0.2997078274","","0.4","0.8","0.2","0.6","","","","","0.2014791824","0.2997078274","0.1919885971","0.2780938204","","","","","","","","74","J","1","","","177","main_expt"
"","bandit","257","768133","0.0-218.0-0.0","73661737","wem/bandit_either_2","A3U21PUMQ6NGT2","either","2","537","","","","","","","0","0","1","0.1913564418","","0.4","0.8","0.2","0.6","","","","","0.1913564418","0.3064007527","0.2365392944","0.3151752793","","","","","","","","72","H","0","img/none_selected.jpg","","178","main_expt"
"","bandit","258","770376","0.0-219.0-0.0","73661737","wem/bandit_either_2","A3U21PUMQ6NGT2","either","2","682","","","","","","","0","0","1","","0.1980728016","0.4","0.8","0.2","0.6","0.1980728016","0.3533432679","0.2509455726","0.2799621139","","","","","","","","","","","","72","H","0","img/none_selected.jpg","","179","main_expt"
"","bandit","259","772368","0.0-220.0-0.0","73661737","wem/bandit_either_2","A3U21PUMQ6NGT2","either","2","464","","","","","","","0","0","1","0.1833491223","","0.4","0.8","0.2","0.6","","","","","0.1833491223","0.3652522579","0.2767223981","0.3170936092","","","","","","","","72","H","0","img/none_selected.jpg","","180","main_expt"
"","bandit","260","774489","0.0-221.0-0.0","73661737","wem/bandit_either_2","A3U21PUMQ6NGT2","either","2","595","","","","","","","0","0","1","","0.314600373","0.4","0.8","0.2","0.6","0.1342686697","0.3383156657","0.314600373","0.28101752","","","","","","","","","","","","75","K","2","","","181","main_expt"
"","bandit","261","776786","0.0-222.0-0.0","73661737","wem/bandit_either_2","A3U21PUMQ6NGT2","either","2","772","","","","","","","0","0","1","0.3943610609","","0.4","0.8","0.2","0.6","","","","","0.1636660304","0.2902116232","0.3943610609","0.3043342224","","","","","","","","75","K","2","","","182","main_expt"
"","bandit","262","778710","0.0-223.0-0.0","73661737","wem/bandit_either_2","A3U21PUMQ6NGT2","either","2","387","","","","","","","0","1","0","","0.3586422101","0.4","0.8","0.2","0.6","0.136761637","0.3026157476","0.3586422101","0.3192524042","","","","","","","","","","","","75","K","2","","","183","main_expt"
"","bandit","263","781261","0.0-224.0-0.0","73661737","wem/bandit_either_2","A3U21PUMQ6NGT2","either","2","1001","","","","","","","0","1","0","","0.3879999062","0.4","0.8","0.2","0.6","0.1685989701","0.3360229169","0.3879999062","0.3332516821","","","","","","","","","","","","75","K","2","","","184","main_expt"
"","bandit","264","783444","0.0-225.0-0.0","73661737","wem/bandit_either_2","A3U21PUMQ6NGT2","either","2","640","","","","","","","0","0","1","","0.3831340227","0.4","0.8","0.2","0.6","0.1663529744","0.3336456265","0.3831340227","0.3228184693","","","","","","","","","","","","75","K","2","","","185","main_expt"
"","bandit","265","785530","0.0-226.0-0.0","73661737","wem/bandit_either_2","A3U21PUMQ6NGT2","either","2","557","","","","","","","0","0","1","","0.3308881938","0.4","0.8","0.2","0.6","0.1916836285","0.3308881938","0.3999004662","0.3111703144","","","","","","","","","","","","74","J","1","","","186","main_expt"
"","bandit","266","787613","0.0-227.0-0.0","73661737","wem/bandit_either_2","A3U21PUMQ6NGT2","either","2","549","","","","","","","0","0","1","","0.325530054","0.4","0.8","0.2","0.6","0.1686829448","0.325530054","0.3875363153","0.3353611299","","","","","","","","","","","","74","J","1","","","187","main_expt"
"","bandit","267","789601","0.0-228.0-0.0","73661737","wem/bandit_either_2","A3U21PUMQ6NGT2","either","2","435","","","","","","","0","0","1","","0.3055482451","0.4","0.8","0.2","0.6","0.1461675531","0.3055482451","0.3875691392","0.3646937268","","","","","","","","","","","","74","J","1","","","188","main_expt"
"","bandit","268","791482","0.0-229.0-0.0","73661737","wem/bandit_either_2","A3U21PUMQ6NGT2","either","2","356","","","","","","","1","0","0","0.3002345065","","0.4","0.8","0.2","0.6","","","","","0.1382971047","0.3002345065","0.4166866882","0.3891323825","","","","","","","","74","J","1","","","189","main_expt"
"","bandit","269","793528","0.0-230.0-0.0","73661737","wem/bandit_either_2","A3U21PUMQ6NGT2","either","2","511","","","","","","","0","1","0","","0.2693931213","0.4","0.8","0.2","0.6","0.1898135375","0.2693931213","0.4124474499","0.3860741766","","","","","","","","","","","","74","J","1","","","190","main_expt"
"","bandit","270","795376","0.0-231.0-0.0","73661737","wem/bandit_either_2","A3U21PUMQ6NGT2","either","2","311","","","","","","","1","0","0","0.3009284261","","0.4","0.8","0.2","0.6","","","","","0.1264917812","0.3009284261","0.3638199534","0.3864243721","","","","","","","","74","J","1","","","191","main_expt"
"","bandit","271","797267","0.0-232.0-0.0","73661737","wem/bandit_either_2","A3U21PUMQ6NGT2","either","2","356","","","","","","","0","0","1","","0.3157917784","0.4","0.8","0.2","0.6","0.1185409567","0.3157917784","0.3711146034","0.400448014","","","","","","","","","","","","74","J","1","","","192","main_expt"
"","bandit","272","799241","0.0-233.0-0.0","73661737","wem/bandit_either_2","A3U21PUMQ6NGT2","either","2","441","","","","","","","0","0","1","0.2999212614","","0.4","0.8","0.2","0.6","","","","","0.09837948322","0.2999212614","0.3654165885","0.3895367297","","","","","","","","74","J","1","","","193","main_expt"
"","bandit","273","801279","0.0-234.0-0.0","73661737","wem/bandit_either_2","A3U21PUMQ6NGT2","either","2","509","","","","","","","0","0","1","0.3287494418","","0.4","0.8","0.2","0.6","","","","","0.137690802","0.3287494418","0.3537818584","0.4032313792","","","","","","","","74","J","1","","","194","main_expt"
"","bandit","274","803192","0.0-235.0-0.0","73661737","wem/bandit_either_2","A3U21PUMQ6NGT2","either","2","372","","","","","","","0","0","1","0.3031978913","","0.4","0.8","0.2","0.6","","","","","0.1683354775","0.3031978913","0.3597494918","0.337234763","","","","","","","","74","J","1","","","195","main_expt"
"","bandit","275","805034","0.0-236.0-0.0","73661737","wem/bandit_either_2","A3U21PUMQ6NGT2","either","2","316","","","","","","","0","0","1","0.2901303692","","0.4","0.8","0.2","0.6","","","","","0.1561951964","0.2901303692","0.3479121901","0.3950764453","","","","","","","","74","J","1","","","196","main_expt"
"","bandit","276","807342","0.0-237.0-0.0","73661737","wem/bandit_either_2","A3U21PUMQ6NGT2","either","2","773","","","","","","","0","0","1","","0.3596292454","0.4","0.8","0.2","0.6","0.1329868482","0.2444781728","0.3596292454","0.4193743727","","","","","","","","","","","","75","K","2","","","197","main_expt"
"","bandit","277","809405","0.0-238.0-0.0","73661737","wem/bandit_either_2","A3U21PUMQ6NGT2","either","2","521","","","","","","","0","0","1","","0.1730826789","0.4","0.8","0.2","0.6","0.1730826789","0.2140047665","0.3555371828","0.4375347816","","","","","","","","","","","","72","H","0","img/none_selected.jpg","","198","main_expt"
"","bandit","278","811425","0.0-239.0-0.0","73661737","wem/bandit_either_2","A3U21PUMQ6NGT2","either","2","486","","","","","","","0","0","1","0.1385649096","","0.4","0.8","0.2","0.6","","","","","0.1385649096","0.2077842613","0.4016486285","0.4315030007","","","","","","","","72","H","0","img/none_selected.jpg","","199","main_expt"
"","bandit","279","813448","0.0-240.0-0.0","73661737","wem/bandit_either_2","A3U21PUMQ6NGT2","either","2","486","","","","","","","0","0","1","","0.4340108373","0.4","0.8","0.2","0.6","0.1941139053","0.180488049","0.3871107612","0.4340108373","","","","","","","","","","","","76","L","3","","","200","main_expt"
"","bandit","280","815292","0.0-241.0-0.0","73661737","wem/bandit_either_2","A3U21PUMQ6NGT2","either","2","310","","","","","","","0","0","1","0.441078118","","0.4","0.8","0.2","0.6","","","","","0.1825013029","0.2084987087","0.3856539452","0.441078118","","","","","","","","76","L","3","","","201","main_expt"
"","bandit","281","817278","0.0-242.0-0.0","73661737","wem/bandit_either_2","A3U21PUMQ6NGT2","either","2","457","","","","","","","1","0","0","0.4143682719","","0.4","0.8","0.2","0.6","","","","","0.162440572","0.1869669721","0.358588673","0.4143682719","","","","","","","","76","L","3","","","202","main_expt"
"","bandit","282","819377","0.0-243.0-0.0","73661737","wem/bandit_either_2","A3U21PUMQ6NGT2","either","2","567","","","","","","","0","1","0","","0.4280720422","0.4","0.8","0.2","0.6","0.1914238456","0.1383076553","0.3460881607","0.4280720422","","","","","","","","","","","","76","L","3","","","203","main_expt"
"","bandit","283","821451","0.0-244.0-0.0","73661737","wem/bandit_either_2","A3U21PUMQ6NGT2","either","2","525","","","","","","","0","1","0","","0.4113524858","0.4","0.8","0.2","0.6","0.1849793247","0.1656187697","0.3091432968","0.4113524858","","","","","","","","","","","","76","L","3","","","204","main_expt"
"","bandit","284","823413","0.0-245.0-0.0","73661737","wem/bandit_either_2","A3U21PUMQ6NGT2","either","2","413","","","","","","","1","0","0","0.4151465815","","0.4","0.8","0.2","0.6","","","","","0.1722293799","0.1699285253","0.3016396897","0.4151465815","","","","","","","","76","L","3","","","205","main_expt"
"","bandit","285","825675","0.0-246.0-0.0","73661737","wem/bandit_either_2","A3U21PUMQ6NGT2","either","2","724","","","","","","","0","0","1","","0.4002359997","0.4","0.8","0.2","0.6","0.1625694713","0.161732949","0.3300702997","0.4002359997","","","","","","","","","","","","76","L","3","","","206","main_expt"
"","bandit","286","827612","0.0-247.0-0.0","73661737","wem/bandit_either_2","A3U21PUMQ6NGT2","either","2","407","","","","","","","0","0","1","0.3692387261","","0.4","0.8","0.2","0.6","","","","","0.1079769143","0.1699017951","0.2648848683","0.3692387261","","","","","","","","76","L","3","","","207","main_expt"
"","bandit","287","829511","0.0-248.0-0.0","73661737","wem/bandit_either_2","A3U21PUMQ6NGT2","either","2","364","","","","","","","0","0","1","","0.3283471685","0.4","0.8","0.2","0.6","0.1380178959","0.1592107695","0.2502792914","0.3283471685","","","","","","","","","","","","76","L","3","","","208","main_expt"
"","bandit","288","831066","0.0-249.0-0.0","73661737","wem/bandit_either_2","A3U21PUMQ6NGT2","either","2","28","","","","","","","0","0","1","","0.1659907122","0.4","0.8","0.2","0.6","0.1538506734","0.1659907122","0.2770073026","0.2924758898","","","","","","","","","","","","74","J","1","","","209","main_expt"
"","bandit","289","832954","0.0-250.0-0.0","73661737","wem/bandit_either_2","A3U21PUMQ6NGT2","either","2","348","","","","","","","0","1","0","","0.229525517","0.4","0.8","0.2","0.6","0.1406222791","0.229525517","0.3451435735","0.2279470939","","","","","","","","","","","","74","J","1","","","210","main_expt"
"","bandit","290","834973","0.0-251.0-0.0","73661737","wem/bandit_either_2","A3U21PUMQ6NGT2","either","2","472","","","","","","","0","0","1","0.2434605193","","0.4","0.8","0.2","0.6","","","","","0.08987887408","0.2434605193","0.3514478275","0.2131844406","","","","","","","","74","J","1","","","211","main_expt"
"","bandit","291","837059","0.0-252.0-0.0","73661737","wem/bandit_either_2","A3U21PUMQ6NGT2","either","2","549","","","","","","","0","0","1","0.1633214123","","0.4","0.8","0.2","0.6","","","","","0.1277875359","0.1633214123","0.3579324364","0.1601793481","","","","","","","","74","J","1","","","212","main_expt"
"","bandit","292","839004","0.0-253.0-0.0","73661737","wem/bandit_either_2","A3U21PUMQ6NGT2","either","2","401","","","","","","","0","0","1","0.1014835246","","0.4","0.8","0.2","0.6","","","","","0.134271297","0.1014835246","0.3231243524","0.1354109392","","","","","","","","74","J","1","","","213","main_expt"
"","bandit","293","840838","0.0-254.0-0.0","73661737","wem/bandit_either_2","A3U21PUMQ6NGT2","either","2","297","","","","","","","0","1","0","","0.2798540136","0.4","0.8","0.2","0.6","0.1385204111","0.09587264096","0.2798540136","0.1142105534","","","","","","","","","","","","75","K","2","","","214","main_expt"
"","bandit","294","843108","0.0-255.0-0.0","73661737","wem/bandit_either_2","A3U21PUMQ6NGT2","either","2","741","","","","","","","0","0","1","","0.2469391402","0.4","0.8","0.2","0.6","0.1089132689","0.08342689115","0.2469391402","0.1031311673","","","","","","","","","","","","75","K","2","","","215","main_expt"
"","bandit","295","845156","0.0-256.0-0.0","73661737","wem/bandit_either_2","A3U21PUMQ6NGT2","either","2","509","","","","","","","0","0","1","","0.3211823944","0.4","0.8","0.2","0.6","0.1299508563","0.05361264496","0.3211823944","0.1031732366","","","","","","","","","","","","75","K","2","","","216","main_expt"
"","bandit","296","847464","0.0-257.0-0.0","73661737","wem/bandit_either_2","A3U21PUMQ6NGT2","either","2","782","","","","","","","0","0","1","","0.3545519007","0.4","0.8","0.2","0.6","0.131109262","0.09912420903","0.3545519007","0.1188097379","","","","","","","","","","","","75","K","2","","","217","main_expt"
"","bandit","297","849361","0.0-258.0-0.0","73661737","wem/bandit_either_2","A3U21PUMQ6NGT2","either","2","352","","","","","","","0","0","1","","0.1096623481","0.4","0.8","0.2","0.6","0.1039495344","0.1021137889","0.3781539282","0.1096623481","","","","","","","","","","","","76","L","3","","","218","main_expt"
"","bandit","298","851410","0.0-259.0-0.0","73661737","wem/bandit_either_2","A3U21PUMQ6NGT2","either","2","496","","","","","","","0","0","1","0.08679630722","","0.4","0.8","0.2","0.6","","","","","0.09488552944","0.1025207236","0.3674409598","0.08679630722","","","","","","","","76","L","3","","","219","main_expt"
"","bandit","299","855468","0.0-260.0-0.0","73661737","wem/bandit_either_2","A3U21PUMQ6NGT2","either","2","2520","","","","","","","0","0","1","0.1482089448","","0.4","0.8","0.2","0.6","","","","","0.1311925698","0.1049734862","0.315237632","0.1482089448","","","","","","","","76","L","3","","","220","main_expt"
"","bandit","300","859082","0.0-261.0-0.0","73661737","wem/bandit_either_2","A3U21PUMQ6NGT2","either","2","2068","","","","","","","0","0","1","","0.217172314","0.4","0.8","0.2","0.6","0.08224132258","0.08244295151","0.3572442142","0.217172314","","","","","","","","","","","","76","L","3","","","221","main_expt"
"","bandit","301","860966","0.0-262.0-0.0","73661737","wem/bandit_either_2","A3U21PUMQ6NGT2","either","2","343","","","","","","","1","0","0","0.2227738938","","0.4","0.8","0.2","0.6","","","","","0.06870998364","0.09815111748","0.2796125419","0.2227738938","","","","","","","","76","L","3","","","222","main_expt"
"","bandit","302","862661","0.0-263.0-0.0","73661737","wem/bandit_either_2","A3U21PUMQ6NGT2","either","2","147","","","","","","","0","0","1","","0.2768694491","0.4","0.8","0.2","0.6","0.111762886","0.09925351505","0.2265565182","0.2768694491","","","","","","","","","","","","76","L","3","","","223","main_expt"
"","bandit","303","864648","0.0-264.0-0.0","73661737","wem/bandit_either_2","A3U21PUMQ6NGT2","either","2","454","","","","","","","0","0","1","","0.2895694018","0.4","0.8","0.2","0.6","0.09652303785","0.07842644678","0.1727872262","0.2895694018","","","","","","","","","","","","76","L","3","","","224","main_expt"
"","bandit","304","866626","0.0-265.0-0.0","73661737","wem/bandit_either_2","A3U21PUMQ6NGT2","either","2","429","","","","","","","0","0","1","0.09424892582","","0.4","0.8","0.2","0.6","","","","","0.09424892582","0.05284632075","0.1580797834","0.3515154126","","","","","","","","72","H","0","img/none_selected.jpg","","225","main_expt"
"","bandit","305","868568","0.0-266.0-0.0","73661737","wem/bandit_either_2","A3U21PUMQ6NGT2","either","2","398","","","","","","","0","0","1","","0.1094697254","0.4","0.8","0.2","0.6","0.1094697254","0.06788221328","0.1206031336","0.3960872924","","","","","","","","","","","","72","H","0","img/none_selected.jpg","","226","main_expt"
"","bandit","306","870545","0.0-267.0-0.0","73661737","wem/bandit_either_2","A3U21PUMQ6NGT2","either","2","437","","","","","","","0","0","1","0.1055794081","","0.4","0.8","0.2","0.6","","","","","0.1055794081","0.04226868229","0.1218099769","0.3301105445","","","","","","","","72","H","0","img/none_selected.jpg","","227","main_expt"
"","bandit","307","872430","0.0-268.0-0.0","73661737","wem/bandit_either_2","A3U21PUMQ6NGT2","either","2","350","","","","","","","0","0","1","","0.1210232629","0.4","0.8","0.2","0.6","0.1210232629","0.06174471126","0.08458740206","0.3679650562","","","","","","","","","","","","72","H","0","img/none_selected.jpg","","228","main_expt"
"","bandit","308","874359","0.0-269.0-0.0","73661737","wem/bandit_either_2","A3U21PUMQ6NGT2","either","2","361","","","","","","","0","0","1","0.06122033102","","0.4","0.8","0.2","0.6","","","","","0.1249199002","0.06122033102","0.06311990622","0.3413725311","","","","","","","","74","J","1","","","229","main_expt"
"","bandit","309","876259","0.0-270.0-0.0","73661737","wem/bandit_either_2","A3U21PUMQ6NGT2","either","2","326","","","","","","","0","0","1","0.09369367087","","0.4","0.8","0.2","0.6","","","","","0.1423167866","0.09369367087","0.04674316758","0.3652503211","","","","","","","","74","J","1","","","230","main_expt"
"","bandit","310","878123","0.0-271.0-0.0","73661737","wem/bandit_either_2","A3U21PUMQ6NGT2","either","2","347","","","","","","","0","0","1","0.1378364932","","0.4","0.8","0.2","0.6","","","","","0.1441411413","0.1378364932","0.06697327866","0.3774172636","","","","","","","","74","J","1","","","231","main_expt"
"","bandit","311","880056","0.0-272.0-0.0","73661737","wem/bandit_either_2","A3U21PUMQ6NGT2","either","2","388","","","","","","","0","0","1","","0.08617656909","0.4","0.8","0.2","0.6","0.1132866493","0.1138343256","0.08617656909","0.3507397895","","","","","","","","","","","","75","K","2","","","232","main_expt"
"","bandit","312","882701","0.0-273.0-0.0","73661737","wem/bandit_either_2","A3U21PUMQ6NGT2","either","2","1112","","","","","","","0","0","1","0.08388286328","","0.4","0.8","0.2","0.6","","","","","0.07587191469","0.1602674987","0.08388286328","0.3228668676","","","","","","","","75","K","2","","","233","main_expt"
"","bandit","313","884673","0.0-274.0-0.0","73661737","wem/bandit_either_2","A3U21PUMQ6NGT2","either","2","452","","","","","","","0","0","1","","0.08303297831","0.4","0.8","0.2","0.6","0.08330376307","0.1399599793","0.08303297831","0.3219168209","","","","","","","","","","","","75","K","2","","","234","main_expt"
"","bandit","314","886611","0.0-275.0-0.0","73661737","wem/bandit_either_2","A3U21PUMQ6NGT2","either","2","391","","","","","","","0","0","1","","0.2907257894","0.4","0.8","0.2","0.6","0.07960395758","0.1577883936","0.08228619446","0.2907257894","","","","","","","","","","","","76","L","3","","","235","main_expt"
"","bandit","315","888726","0.0-276.0-0.0","73661737","wem/bandit_either_2","A3U21PUMQ6NGT2","either","2","537","","","","","","","0","0","1","","0.2879125653","0.4","0.8","0.2","0.6","0.06703487678","0.1206463377","0.07856112713","0.2879125653","","","","","","","","","","","","76","L","3","","","236","main_expt"
"","bandit","316","890707","0.0-277.0-0.0","73661737","wem/bandit_either_2","A3U21PUMQ6NGT2","either","2","442","","","","","","","0","0","1","0.3055933028","","0.4","0.8","0.2","0.6","","","","","0.07970276757","0.1224948263","0.09394336493","0.3055933028","","","","","","","","76","L","3","","","237","main_expt"
"","bandit","317","893493","0.0-278.0-0.0","73661737","wem/bandit_either_2","A3U21PUMQ6NGT2","either","2","1255","","","","","","","0","0","1","","0.3197806133","0.4","0.8","0.2","0.6","0.05589422377","0.1163601633","0.1044036833","0.3197806133","","","","","","","","","","","","76","L","3","","","238","main_expt"
"","bandit","318","895345","0.0-279.0-0.0","73661737","wem/bandit_either_2","A3U21PUMQ6NGT2","either","2","305","","","","","","","1","0","0","0.2699970134","","0.4","0.8","0.2","0.6","","","","","0.07304711058","0.09302868556","0.1010835707","0.2699970134","","","","","","","","76","L","3","","","239","main_expt"
"","bandit","319","898689","0.0-280.0-0.0","73661737","wem/bandit_either_2","A3U21PUMQ6NGT2","either","2","1807","","","","","","","0","0","1","0.2594796501","","0.4","0.8","0.2","0.6","","","","","0.05193691484","0.1142909623","0.1196592177","0.2594796501","","","","","","","","76","L","3","","","240","main_expt"
"","bandit","320","900577","0.0-281.0-0.0","73661737","wem/bandit_either_2","A3U21PUMQ6NGT2","either","2","337","","","","","","","0","1","0","","0.252227353","0.4","0.8","0.2","0.6","0.06844812817","0.1694552561","0.127320561","0.252227353","","","","","","","","","","","","76","L","3","","","241","main_expt"
"","bandit","321","902598","0.0-282.0-0.0","73661737","wem/bandit_either_2","A3U21PUMQ6NGT2","either","2","468","","","","","","","0","0","1","0.301231011","","0.4","0.8","0.2","0.6","","","","","0.07869989264","0.1828807391","0.10641745","0.301231011","","","","","","","","76","L","3","","","242","main_expt"
"","bandit","322","904488","0.0-283.0-0.0","73661737","wem/bandit_either_2","A3U21PUMQ6NGT2","either","2","356","","","","","","","0","0","1","","0.2903867436","0.4","0.8","0.2","0.6","0.06084245892","0.1236361748","0.131785075","0.2903867436","","","","","","","","","","","","76","L","3","","","243","main_expt"
"","bandit","323","906020","0.0-284.0-0.0","73661737","wem/bandit_either_2","A3U21PUMQ6NGT2","either","2","2","","","","","","","1","0","0","0.2659167858","","0.4","0.8","0.2","0.6","","","","","0.04982625113","0.1131162958","0.1150513838","0.2659167858","","","","","","","","76","L","3","","","244","main_expt"
"","bandit","324","908013","0.0-285.0-0.0","73661737","wem/bandit_either_2","A3U21PUMQ6NGT2","either","2","461","","","","","","","0","0","1","","0.254087564","0.4","0.8","0.2","0.6","0.04708965441","0.08611006768","0.1651966394","0.254087564","","","","","","","","","","","","76","L","3","","","245","main_expt"
"","bandit","325","910003","0.0-286.0-0.0","73661737","wem/bandit_either_2","A3U21PUMQ6NGT2","either","2","444","","","","","","","0","0","1","0.1555796254","","0.4","0.8","0.2","0.6","","","","","0.0280961865","0.1123216353","0.1555796254","0.2551799517","","","","","","","","75","K","2","","","246","main_expt"
