"consent","trial_type","trial_index","time_elapsed","internal_node_id","subjID","study","MID","cond","drift","rt","responses","key_press","expt_phase","like","value","connected","gems","bombs","no_reward","GemPrChosen","BombPrChosen","GainOverPainPr_0","GainOverPainPr_1","GainOverPainPr_2","GainOverPainPr_3","LosePr_0","LosePr_1","LosePr_2","LosePr_3","WinPr_0","WinPr_1","WinPr_2","WinPr_3","Q0","Q1","Q2","gender","age","ethnicity","target","respCharCode","respKey","respChoiceNum","respChoice","practice","trial_counter","trial_label"
"INL_behavioral_consent_30min_online.html","consent","0","12112","0.0-0.0","74750001","wem/bandit_either_2","A1Y9VA9FKJLS5K","either","6","","","","","","","","","","","","","","","","","","","","","","","","","","","","","","","","","","","","","",""
"","survey-text","1","20264","0.0-1.0","74750001","wem/bandit_either_2","A1Y9VA9FKJLS5K","either","6","7130","{""Q0"":""A1Y9VA9FKJLS5K""}","","","","","","","","","","","","","","","","","","","","","","","","","","","","","","","","","","","",""
"","text","2","32603","0.0-2.0","74750001","wem/bandit_either_2","A1Y9VA9FKJLS5K","either","6","11324","","32","","","","","","","","","","","","","","","","","","","","","","","","","","","","","","","","","","",""
"","text","3","39121","0.0-3.0","74750001","wem/bandit_either_2","A1Y9VA9FKJLS5K","either","6","6508","","32","","","","","","","","","","","","","","","","","","","","","","","","","","","","","","","","","","",""
"","text","4","57907","0.0-4.0","74750001","wem/bandit_either_2","A1Y9VA9FKJLS5K","either","6","18780","","32","","","","","","","","","","","","","","","","","","","","","","","","","","","","","","","","","","",""
"","text","5","70891","0.0-5.0","74750001","wem/bandit_either_2","A1Y9VA9FKJLS5K","either","6","12969","","32","","","","","","","","","","","","","","","","","","","","","","","","","","","","","","","","","","",""
"","text","6","113963","0.0-6.0","74750001","wem/bandit_either_2","A1Y9VA9FKJLS5K","either","6","43070","","32","","","","","","","","","","","","","","","","","","","","","","","","","","","","","","","","","","",""
"","text","7","120314","0.0-7.0","74750001","wem/bandit_either_2","A1Y9VA9FKJLS5K","either","6","6343","","32","","","","","","","","","","","","","","","","","","","","","","","","","","","","","","","","","","",""
"","text","8","128507","0.0-8.0","74750001","wem/bandit_either_2","A1Y9VA9FKJLS5K","either","6","8178","","32","","","","","","","","","","","","","","","","","","","","","","","","","","","","","","","","","","",""
"","identification","9","135506","0.0-9.0-0.0","74750001","wem/bandit_either_2","A1Y9VA9FKJLS5K","either","6","6973","","","","6","6","6","","","","","","","","","","","","","","","","","","","","","","","","the village of Zur","","","","","","",""
"","identification","10","143089","0.0-9.0-1.0","74750001","wem/bandit_either_2","A1Y9VA9FKJLS5K","either","6","6550","","","","0","0","0","","","","","","","","","","","","","","","","","","","","","","","","the village of Nyx","","","","","","",""
"","text","11","150323","0.0-10.0","74750001","wem/bandit_either_2","A1Y9VA9FKJLS5K","either","6","6222","","32","","","","","","","","","","","","","","","","","","","","","","","","","","","","","","","","","","",""
"","text","12","153234","0.0-11.0","74750001","wem/bandit_either_2","A1Y9VA9FKJLS5K","either","6","2901","","32","","","","","","","","","","","","","","","","","","","","","","","","","","","","","","","","","","",""
"","text","13","156370","0.0-12.0","74750001","wem/bandit_either_2","A1Y9VA9FKJLS5K","either","6","3129","","32","","","","","","","","","","","","","","","","","","","","","","","","","","","","","","","","","","",""
"","text","14","163603","0.0-13.0","74750001","wem/bandit_either_2","A1Y9VA9FKJLS5K","either","6","7230","","32","","","","","","","","","","","","","","","","","","","","","","","","","","","","","","","","","","",""
"","bandit","15","169595","0.0-14.0-0.0","74750001","wem/bandit_either_2","A1Y9VA9FKJLS5K","either","6","4465","","","","","","","0","0","1","0","0","","","","","0","","","","0","","","","","","","","","","","74","J","0","img/none_selected_demo.jpg","true","0",""
"","bandit","16","172628","0.0-15.0-0.0","74750001","wem/bandit_either_2","A1Y9VA9FKJLS5K","either","6","1510","","","","","","","0","0","1","0","0","","","","","0","","","","0","","","","","","","","","","","75","K","0","img/none_selected_demo.jpg","true","0",""
"","text","17","180091","0.0-16.0","74750001","wem/bandit_either_2","A1Y9VA9FKJLS5K","either","6","7448","","32","","","","","","","","","","","","","","","","","","","","","","","","","","","","","","","","","","",""
"","text","18","193579","0.0-17.0","74750001","wem/bandit_either_2","A1Y9VA9FKJLS5K","either","6","13485","","32","","","","","","","","","","","","","","","","","","","","","","","","","","","","","","","","","","",""
"","text","19","200458","0.0-18.0","74750001","wem/bandit_either_2","A1Y9VA9FKJLS5K","either","6","6871","","32","","","","","","","","","","","","","","","","","","","","","","","","","","","","","","","","","","",""
"","text","20","204843","0.0-19.0","74750001","wem/bandit_either_2","A1Y9VA9FKJLS5K","either","6","4376","","32","","","","","","","","","","","","","","","","","","","","","","","","","","","","","","","","","","",""
"","bandit","21","208319","0.0-20.0-0.0","74750001","wem/bandit_either_2","A1Y9VA9FKJLS5K","either","6","1963","","","","","","","0","0","1","","0.8","0.5","0.5","","","0.8","0.2","","","","","","","","","","","","","","74","J","0","img/none_selected_demo.jpg","true","0","80_20_practice"
"","bandit","22","211059","0.0-20.0-1.0","74750001","wem/bandit_either_2","A1Y9VA9FKJLS5K","either","6","1221","","","","","","","0","1","0","","0.2","0.5","0.5","","","0.8","0.2","","","","","","","","","","","","","","75","K","1","","true","0","80_20_practice"
"","bandit","23","215398","0.0-20.0-2.0","74750001","wem/bandit_either_2","A1Y9VA9FKJLS5K","either","6","2824","","","","","","","0","0","1","0.2","","0.5","0.5","","","","","","","0.8","0.2","","","","","","","","","","75","K","1","","true","0","80_20_practice"
"","bandit","24","217292","0.0-20.0-3.0","74750001","wem/bandit_either_2","A1Y9VA9FKJLS5K","either","6","372","","","","","","","0","1","0","","0.8","0.5","0.5","","","0.8","0.2","","","","","","","","","","","","","","74","J","0","img/none_selected_demo.jpg","true","0","80_20_practice"
"","bandit","25","220043","0.0-20.0-4.0","74750001","wem/bandit_either_2","A1Y9VA9FKJLS5K","either","6","1235","","","","","","","0","0","1","0.8","","0.5","0.5","","","","","","","0.8","0.2","","","","","","","","","","74","J","0","img/none_selected_demo.jpg","true","0","80_20_practice"
"","bandit","26","221844","0.0-20.0-5.0","74750001","wem/bandit_either_2","A1Y9VA9FKJLS5K","either","6","284","","","","","","","0","1","0","","0.2","0.5","0.5","","","0.8","0.2","","","","","","","","","","","","","","75","K","1","","true","0","80_20_practice"
"","bandit","27","223767","0.0-20.0-6.0","74750001","wem/bandit_either_2","A1Y9VA9FKJLS5K","either","6","408","","","","","","","0","0","1","","0.2","0.5","0.5","","","0.8","0.2","","","","","","","","","","","","","","75","K","1","","true","0","80_20_practice"
"","bandit","28","225638","0.0-20.0-7.0","74750001","wem/bandit_either_2","A1Y9VA9FKJLS5K","either","6","353","","","","","","","0","1","0","","0.8","0.5","0.5","","","0.8","0.2","","","","","","","","","","","","","","74","J","0","img/none_selected_demo.jpg","true","0","80_20_practice"
"","bandit","29","227545","0.0-20.0-8.0","74750001","wem/bandit_either_2","A1Y9VA9FKJLS5K","either","6","381","","","","","","","1","0","0","0.8","","0.5","0.5","","","","","","","0.8","0.2","","","","","","","","","","74","J","0","img/none_selected_demo.jpg","true","0","80_20_practice"
"","bandit","30","229485","0.0-20.0-9.0","74750001","wem/bandit_either_2","A1Y9VA9FKJLS5K","either","6","407","","","","","","","0","0","1","","0.2","0.5","0.5","","","0.8","0.2","","","","","","","","","","","","","","75","K","1","","true","0","80_20_practice"
"","bandit","31","231277","0.0-20.0-10.0","74750001","wem/bandit_either_2","A1Y9VA9FKJLS5K","either","6","276","","","","","","","0","1","0","","0.8","0.5","0.5","","","0.8","0.2","","","","","","","","","","","","","","74","J","0","img/none_selected_demo.jpg","true","0","80_20_practice"
"","bandit","32","233069","0.0-20.0-11.0","74750001","wem/bandit_either_2","A1Y9VA9FKJLS5K","either","6","272","","","","","","","0","0","1","","0.2","0.5","0.5","","","0.8","0.2","","","","","","","","","","","","","","75","K","1","","true","0","80_20_practice"
"","bandit","33","234839","0.0-20.0-12.0","74750001","wem/bandit_either_2","A1Y9VA9FKJLS5K","either","6","250","","","","","","","0","1","0","","0.8","0.5","0.5","","","0.8","0.2","","","","","","","","","","","","","","74","J","0","img/none_selected_demo.jpg","true","0","80_20_practice"
"","bandit","34","236668","0.0-20.0-13.0","74750001","wem/bandit_either_2","A1Y9VA9FKJLS5K","either","6","309","","","","","","","0","0","1","","0.2","0.5","0.5","","","0.8","0.2","","","","","","","","","","","","","","75","K","1","","true","0","80_20_practice"
"","bandit","35","238437","0.0-20.0-14.0","74750001","wem/bandit_either_2","A1Y9VA9FKJLS5K","either","6","242","","","","","","","1","0","0","0.8","","0.5","0.5","","","","","","","0.8","0.2","","","","","","","","","","74","J","0","img/none_selected_demo.jpg","true","0","80_20_practice"
"","bandit","36","240200","0.0-20.0-15.0","74750001","wem/bandit_either_2","A1Y9VA9FKJLS5K","either","6","242","","","","","","","0","0","1","","0.2","0.5","0.5","","","0.8","0.2","","","","","","","","","","","","","","75","K","1","","true","0","80_20_practice"
"","bandit","37","241967","0.0-20.0-16.0","74750001","wem/bandit_either_2","A1Y9VA9FKJLS5K","either","6","245","","","","","","","1","0","0","0.8","","0.5","0.5","","","","","","","0.8","0.2","","","","","","","","","","74","J","0","img/none_selected_demo.jpg","true","0","80_20_practice"
"","bandit","38","243773","0.0-20.0-17.0","74750001","wem/bandit_either_2","A1Y9VA9FKJLS5K","either","6","289","","","","","","","0","0","1","","0.2","0.5","0.5","","","0.8","0.2","","","","","","","","","","","","","","75","K","1","","true","0","80_20_practice"
"","bandit","39","245419","0.0-20.0-18.0","74750001","wem/bandit_either_2","A1Y9VA9FKJLS5K","either","6","135","","","","","","","0","1","0","","0.8","0.5","0.5","","","0.8","0.2","","","","","","","","","","","","","","74","J","0","img/none_selected_demo.jpg","true","0","80_20_practice"
"","bandit","40","247044","0.0-20.0-19.0","74750001","wem/bandit_either_2","A1Y9VA9FKJLS5K","either","6","102","","","","","","","0","1","0","","0.8","0.5","0.5","","","0.8","0.2","","","","","","","","","","","","","","74","J","0","img/none_selected_demo.jpg","true","0","80_20_practice"
"","text","41","251274","0.0-21.0","74750001","wem/bandit_either_2","A1Y9VA9FKJLS5K","either","6","4221","","32","","","","","","","","","","","","","","","","","","","","","","","","","","","","","","","","","","",""
"","bandit","42","254642","0.0-22.0-0.0","74750001","wem/bandit_either_2","A1Y9VA9FKJLS5K","either","6","1838","","","","","","","1","0","0","1","0","","","","","0","1","","","1","0","","","","","","","","","","74","J","0","img/none_selected_demo.jpg","true","0",""
"","text","43","260475","0.0-23.0","74750001","wem/bandit_either_2","A1Y9VA9FKJLS5K","either","6","5815","","32","","","","","","","","","","","","","","","","","","","","","","","","","","","","","","","","","","",""
"","text","44","262722","0.0-24.0","74750001","wem/bandit_either_2","A1Y9VA9FKJLS5K","either","6","2232","","32","","","","","","","","","","","","","","","","","","","","","","","","","","","","","","","","","","",""
"","text","45","265530","0.0-25.0","74750001","wem/bandit_either_2","A1Y9VA9FKJLS5K","either","6","2805","","32","","","","","","","","","","","","","","","","","","","","","","","","","","","","","","","","","","",""
"","text","46","268682","0.0-26.0","74750001","wem/bandit_either_2","A1Y9VA9FKJLS5K","either","6","3147","","32","","","","","","","","","","","","","","","","","","","","","","","","","","","","","","","","","","",""
"","text","47","276066","0.0-27.0","74750001","wem/bandit_either_2","A1Y9VA9FKJLS5K","either","6","7383","","32","","","","","","","","","","","","","","","","","","","","","","","","","","","","","","","","","","",""
"","text","48","278458","0.0-28.0","74750001","wem/bandit_either_2","A1Y9VA9FKJLS5K","either","6","2387","","32","","","","","","","","","","","","","","","","","","","","","","","","","","","","","","","","","","",""
"","text","49","282090","0.0-29.0","74750001","wem/bandit_either_2","A1Y9VA9FKJLS5K","either","6","3623","","32","","","","","","","","","","","","","","","","","","","","","","","","","","","","","","","","","","",""
"","text","50","287163","0.0-30.0","74750001","wem/bandit_either_2","A1Y9VA9FKJLS5K","either","6","5062","","32","","","","","","","","","","","","","","","","","","","","","","","","","","","","","","","","","","",""
"","text","51","291242","0.0-31.0","74750001","wem/bandit_either_2","A1Y9VA9FKJLS5K","either","6","4072","","32","","","","","","","","","","","","","","","","","","","","","","","","","","","","","","","","","","",""
"","text","52","292794","0.0-32.0","74750001","wem/bandit_either_2","A1Y9VA9FKJLS5K","either","6","1537","","32","","","","","","","","","","","","","","","","","","","","","","","","","","","","","","","","","","",""
"","text","53","299850","0.0-33.0","74750001","wem/bandit_either_2","A1Y9VA9FKJLS5K","either","6","7041","","32","","","","","","","","","","","","","","","","","","","","","","","","","","","","","","","","","","",""
"","bandit","54","302296","0.0-34.0-0.0","74750001","wem/bandit_either_2","A1Y9VA9FKJLS5K","either","6","941","","","","","","","0","0","1","","0.8","0.5","0.5","0.5","0.5","0.8","0.2","0.6","0.2","","","","","","","","","","","","72","H","0","img/none_selected.jpg","true","0","full_practice"
"","bandit","55","304149","0.0-34.0-1.0","74750001","wem/bandit_either_2","A1Y9VA9FKJLS5K","either","6","330","","","","","","","0","0","1","","0.2","0.5","0.5","0.5","0.5","0.8","0.2","0.6","0.2","","","","","","","","","","","","74","J","1","","true","0","full_practice"
"","bandit","56","305919","0.0-34.0-2.0","74750001","wem/bandit_either_2","A1Y9VA9FKJLS5K","either","6","263","","","","","","","0","1","0","","0.6","0.5","0.5","0.5","0.5","0.8","0.2","0.6","0.2","","","","","","","","","","","","75","K","2","","true","0","full_practice"
"","bandit","57","307766","0.0-34.0-3.0","74750001","wem/bandit_either_2","A1Y9VA9FKJLS5K","either","6","332","","","","","","","0","0","1","0.2","","0.5","0.5","0.5","0.5","","","","","0.8","0.2","0.6","0.2","","","","","","","","76","L","3","","true","0","full_practice"
"","bandit","58","310079","0.0-34.0-4.0","74750001","wem/bandit_either_2","A1Y9VA9FKJLS5K","either","6","795","","","","","","","0","0","1","","0.6","0.5","0.5","0.5","0.5","0.8","0.2","0.6","0.2","","","","","","","","","","","","75","K","2","","true","0","full_practice"
"","bandit","59","311934","0.0-34.0-5.0","74750001","wem/bandit_either_2","A1Y9VA9FKJLS5K","either","6","340","","","","","","","0","0","1","0.2","","0.5","0.5","0.5","0.5","","","","","0.8","0.2","0.6","0.2","","","","","","","","74","J","1","","true","0","full_practice"
"","bandit","60","313660","0.0-34.0-6.0","74750001","wem/bandit_either_2","A1Y9VA9FKJLS5K","either","6","209","","","","","","","1","0","0","0.8","","0.5","0.5","0.5","0.5","","","","","0.8","0.2","0.6","0.2","","","","","","","","72","H","0","img/none_selected.jpg","true","0","full_practice"
"","bandit","61","315582","0.0-34.0-7.0","74750001","wem/bandit_either_2","A1Y9VA9FKJLS5K","either","6","390","","","","","","","0","0","1","","0.2","0.5","0.5","0.5","0.5","0.8","0.2","0.6","0.2","","","","","","","","","","","","76","L","3","","true","0","full_practice"
"","bandit","62","317413","0.0-34.0-8.0","74750001","wem/bandit_either_2","A1Y9VA9FKJLS5K","either","6","320","","","","","","","0","1","0","","0.8","0.5","0.5","0.5","0.5","0.8","0.2","0.6","0.2","","","","","","","","","","","","72","H","0","img/none_selected.jpg","true","0","full_practice"
"","bandit","63","319198","0.0-34.0-9.0","74750001","wem/bandit_either_2","A1Y9VA9FKJLS5K","either","6","261","","","","","","","0","1","0","","0.8","0.5","0.5","0.5","0.5","0.8","0.2","0.6","0.2","","","","","","","","","","","","72","H","0","img/none_selected.jpg","true","0","full_practice"
"","bandit","64","320984","0.0-34.0-10.0","74750001","wem/bandit_either_2","A1Y9VA9FKJLS5K","either","6","262","","","","","","","0","1","0","","0.8","0.5","0.5","0.5","0.5","0.8","0.2","0.6","0.2","","","","","","","","","","","","72","H","0","img/none_selected.jpg","true","0","full_practice"
"","bandit","65","322756","0.0-34.0-11.0","74750001","wem/bandit_either_2","A1Y9VA9FKJLS5K","either","6","252","","","","","","","1","0","0","0.8","","0.5","0.5","0.5","0.5","","","","","0.8","0.2","0.6","0.2","","","","","","","","72","H","0","img/none_selected.jpg","true","0","full_practice"
"","bandit","66","324453","0.0-34.0-12.0","74750001","wem/bandit_either_2","A1Y9VA9FKJLS5K","either","6","187","","","","","","","1","0","0","0.8","","0.5","0.5","0.5","0.5","","","","","0.8","0.2","0.6","0.2","","","","","","","","72","H","0","img/none_selected.jpg","true","0","full_practice"
"","bandit","67","326239","0.0-34.0-13.0","74750001","wem/bandit_either_2","A1Y9VA9FKJLS5K","either","6","242","","","","","","","0","0","1","0.8","","0.5","0.5","0.5","0.5","","","","","0.8","0.2","0.6","0.2","","","","","","","","72","H","0","img/none_selected.jpg","true","0","full_practice"
"","bandit","68","328040","0.0-34.0-14.0","74750001","wem/bandit_either_2","A1Y9VA9FKJLS5K","either","6","294","","","","","","","0","0","1","","0.2","0.5","0.5","0.5","0.5","0.8","0.2","0.6","0.2","","","","","","","","","","","","74","J","1","","true","0","full_practice"
"","bandit","69","329797","0.0-34.0-15.0","74750001","wem/bandit_either_2","A1Y9VA9FKJLS5K","either","6","235","","","","","","","0","0","1","","0.6","0.5","0.5","0.5","0.5","0.8","0.2","0.6","0.2","","","","","","","","","","","","75","K","2","","true","0","full_practice"
"","bandit","70","331608","0.0-34.0-16.0","74750001","wem/bandit_either_2","A1Y9VA9FKJLS5K","either","6","289","","","","","","","0","1","0","","0.2","0.5","0.5","0.5","0.5","0.8","0.2","0.6","0.2","","","","","","","","","","","","76","L","3","","true","0","full_practice"
"","bandit","71","333307","0.0-34.0-17.0","74750001","wem/bandit_either_2","A1Y9VA9FKJLS5K","either","6","170","","","","","","","0","1","0","","0.2","0.5","0.5","0.5","0.5","0.8","0.2","0.6","0.2","","","","","","","","","","","","76","L","3","","true","0","full_practice"
"","bandit","72","335114","0.0-34.0-18.0","74750001","wem/bandit_either_2","A1Y9VA9FKJLS5K","either","6","302","","","","","","","0","0","1","","0.2","0.5","0.5","0.5","0.5","0.8","0.2","0.6","0.2","","","","","","","","","","","","76","L","3","","true","0","full_practice"
"","bandit","73","337263","0.0-34.0-19.0","74750001","wem/bandit_either_2","A1Y9VA9FKJLS5K","either","6","627","","","","","","","1","0","0","0.6","","0.5","0.5","0.5","0.5","","","","","0.8","0.2","0.6","0.2","","","","","","","","75","K","2","","true","0","full_practice"
"","text","74","339841","0.0-35.0","74750001","wem/bandit_either_2","A1Y9VA9FKJLS5K","either","6","2567","","32","","","","","","","","","","","","","","","","","","","","","","","","","","","","","","","","","","",""
"","text","75","353898","0.0-36.0","74750001","wem/bandit_either_2","A1Y9VA9FKJLS5K","either","6","13042","","32","","","","","","","","","","","","","","","","","","","","","","","","","","","","","","","","","","",""
"","text","76","358089","0.0-37.0","74750001","wem/bandit_either_2","A1Y9VA9FKJLS5K","either","6","4182","","32","","","","","","","","","","","","","","","","","","","","","","","","","","","","","","","","","","",""
"","text","77","360041","0.0-38.0","74750001","wem/bandit_either_2","A1Y9VA9FKJLS5K","either","6","1947","","32","","","","","","","","","","","","","","","","","","","","","","","","","","","","","","","","","","",""
"","text","78","365642","0.0-39.0","74750001","wem/bandit_either_2","A1Y9VA9FKJLS5K","either","6","5593","","32","","","","","","","","","","","","","","","","","","","","","","","","","","","","","","","","","","",""
"","text","79","370233","0.0-40.0","74750001","wem/bandit_either_2","A1Y9VA9FKJLS5K","either","6","4588","","32","","","","","","","","","","","","","","","","","","","","","","","","","","","","","","","","","","",""
"","bandit","80","373829","0.0-41.0-0.0","74750001","wem/bandit_either_2","A1Y9VA9FKJLS5K","either","6","2081","","","","","","","0","0","1","0.06094066238","","0.2","0.6","0.4","0.8","","","","","0.06094066238","0.1720655487","0.1734470434","0.4656478179","","","","","","","","72","H","0","img/none_selected.jpg","","1","main_expt"
"","bandit","81","375502","0.0-42.0-0.0","74750001","wem/bandit_either_2","A1Y9VA9FKJLS5K","either","6","147","","","","","","","0","1","0","","0.1607886358","0.2","0.6","0.4","0.8","0.04941180107","0.1607886358","0.1582158198","0.4661883906","","","","","","","","","","","","74","J","1","","","2","main_expt"
"","bandit","82","377294","0.0-43.0-0.0","74750001","wem/bandit_either_2","A1Y9VA9FKJLS5K","either","6","284","","","","","","","0","0","1","0.1825924006","","0.2","0.6","0.4","0.8","","","","","0.09066711981","0.1825924006","0.1264016625","0.4608397999","","","","","","","","74","J","1","","","3","main_expt"
"","bandit","83","379099","0.0-44.0-0.0","74750001","wem/bandit_either_2","A1Y9VA9FKJLS5K","either","6","279","","","","","","","0","0","1","","0.1212924903","0.2","0.6","0.4","0.8","0.07815644495","0.1572982515","0.1212924903","0.4568511376","","","","","","","","","","","","75","K","2","","","4","main_expt"
"","bandit","84","380846","0.0-45.0-0.0","74750001","wem/bandit_either_2","A1Y9VA9FKJLS5K","either","6","241","","","","","","","0","0","1","0.4576747282","","0.2","0.6","0.4","0.8","","","","","0.06547040057","0.1873501432","0.1603104869","0.4576747282","","","","","","","","76","L","3","","","5","main_expt"
"","bandit","85","382684","0.0-46.0-0.0","74750001","wem/bandit_either_2","A1Y9VA9FKJLS5K","either","6","302","","","","","","","0","0","1","","0.09500806419","0.2","0.6","0.4","0.8","0.09500806419","0.1484719509","0.1916070739","0.4673201091","","","","","","","","","","","","72","H","0","img/none_selected.jpg","","6","main_expt"
"","bandit","86","384461","0.0-47.0-0.0","74750001","wem/bandit_either_2","A1Y9VA9FKJLS5K","either","6","253","","","","","","","0","0","1","","0.1368680622","0.2","0.6","0.4","0.8","0.1156714339","0.1368680622","0.1624213819","0.4671816856","","","","","","","","","","","","74","J","1","","","7","main_expt"
"","bandit","87","386233","0.0-48.0-0.0","74750001","wem/bandit_either_2","A1Y9VA9FKJLS5K","either","6","246","","","","","","","0","0","1","","0.1529627983","0.2","0.6","0.4","0.8","0.08939878806","0.1412197478","0.1529627983","0.4577650209","","","","","","","","","","","","75","K","2","","","8","main_expt"
"","bandit","88","387908","0.0-49.0-0.0","74750001","wem/bandit_either_2","A1Y9VA9FKJLS5K","either","6","159","","","","","","","0","0","1","0.4538037209","","0.2","0.6","0.4","0.8","","","","","0.1379609943","0.1285241668","0.1638779","0.4538037209","","","","","","","","76","L","3","","","9","main_expt"
"","bandit","89","389540","0.0-50.0-0.0","74750001","wem/bandit_either_2","A1Y9VA9FKJLS5K","either","6","119","","","","","","","0","0","1","0.08892925829","","0.2","0.6","0.4","0.8","","","","","0.08892925829","0.1137500729","0.1682184418","0.4567906288","","","","","","","","72","H","0","img/none_selected.jpg","","10","main_expt"
"","bandit","90","391117","0.0-51.0-0.0","74750001","wem/bandit_either_2","A1Y9VA9FKJLS5K","either","6","60","","","","","","","0","0","1","","0.1134058804","0.2","0.6","0.4","0.8","0.1053961985","0.1134058804","0.1511948373","0.4707556997","","","","","","","","","","","","74","J","1","","","11","main_expt"
"","bandit","91","392889","0.0-52.0-0.0","74750001","wem/bandit_either_2","A1Y9VA9FKJLS5K","either","6","253","","","","","","","0","0","1","0.2144966391","","0.2","0.6","0.4","0.8","","","","","0.1267534428","0.1358134986","0.2144966391","0.4534589675","","","","","","","","75","K","2","","","12","main_expt"
"","bandit","92","394617","0.0-53.0-0.0","74750001","wem/bandit_either_2","A1Y9VA9FKJLS5K","either","6","200","","","","","","","0","0","1","0.4474824422","","0.2","0.6","0.4","0.8","","","","","0.1179877152","0.1105925571","0.1443049275","0.4474824422","","","","","","","","76","L","3","","","13","main_expt"
"","bandit","93","396281","0.0-54.0-0.0","74750001","wem/bandit_either_2","A1Y9VA9FKJLS5K","either","6","142","","","","","","","0","1","0","","0.1300626215","0.2","0.6","0.4","0.8","0.1300626215","0.09057326494","0.149160688","0.4125602811","","","","","","","","","","","","72","H","0","img/none_selected.jpg","","14","main_expt"
"","bandit","94","398067","0.0-55.0-0.0","74750001","wem/bandit_either_2","A1Y9VA9FKJLS5K","either","6","262","","","","","","","0","0","1","","0.1129073675","0.2","0.6","0.4","0.8","0.1129073675","0.05963436345","0.1525333278","0.3715785473","","","","","","","","","","","","72","H","0","img/none_selected.jpg","","15","main_expt"
"","bandit","95","400025","0.0-56.0-0.0","74750001","wem/bandit_either_2","A1Y9VA9FKJLS5K","either","6","445","","","","","","","0","0","1","","0.1132840383","0.2","0.6","0.4","0.8","0.1132840383","0.03970917029","0.1437253933","0.3670357029","","","","","","","","","","","","72","H","0","img/none_selected.jpg","","16","main_expt"
"","bandit","96","401838","0.0-57.0-0.0","74750001","wem/bandit_either_2","A1Y9VA9FKJLS5K","either","6","291","","","","","","","0","0","1","0.03301664506","","0.2","0.6","0.4","0.8","","","","","0.1530786807","0.03301664506","0.1191274054","0.333794799","","","","","","","","74","J","1","","","17","main_expt"
"","bandit","97","403630","0.0-58.0-0.0","74750001","wem/bandit_either_2","A1Y9VA9FKJLS5K","either","6","266","","","","","","","0","0","1","0.1231388663","","0.2","0.6","0.4","0.8","","","","","0.1367655081","0.0325619","0.1231388663","0.3720862831","","","","","","","","75","K","2","","","18","main_expt"
"","bandit","98","405424","0.0-59.0-0.0","74750001","wem/bandit_either_2","A1Y9VA9FKJLS5K","either","6","290","","","","","","","0","0","1","0.3940248177","","0.2","0.6","0.4","0.8","","","","","0.1519969922","0.05136562407","0.1014962652","0.3940248177","","","","","","","","76","L","3","","","19","main_expt"
"","bandit","99","406945","0.0-60.0-0.0","74750001","wem/bandit_either_2","A1Y9VA9FKJLS5K","either","6","13","","","","","","","0","0","1","0.2344823222","","0.2","0.6","0.4","0.8","","","","","0.2344823222","0.05620034239","0.1184271466","0.3980303587","","","","","","","","72","H","0","img/none_selected.jpg","","20","main_expt"
"","bandit","100","408686","0.0-61.0-0.0","74750001","wem/bandit_either_2","A1Y9VA9FKJLS5K","either","6","226","","","","","","","0","0","1","0.04865895453","","0.2","0.6","0.4","0.8","","","","","0.2227593861","0.04865895453","0.1434190777","0.405953395","","","","","","","","74","J","1","","","21","main_expt"
"","bandit","101","410330","0.0-62.0-0.0","74750001","wem/bandit_either_2","A1Y9VA9FKJLS5K","either","6","125","","","","","","","0","0","1","0.1323354157","","0.2","0.6","0.4","0.8","","","","","0.1831098024","0.05276066643","0.1323354157","0.37898799","","","","","","","","75","K","2","","","22","main_expt"
"","bandit","102","411967","0.0-63.0-0.0","74750001","wem/bandit_either_2","A1Y9VA9FKJLS5K","either","6","118","","","","","","","0","0","1","0.3661255489","","0.2","0.6","0.4","0.8","","","","","0.1660310818","0.05284133488","0.1384191998","0.3661255489","","","","","","","","76","L","3","","","23","main_expt"
"","bandit","103","413561","0.0-64.0-0.0","74750001","wem/bandit_either_2","A1Y9VA9FKJLS5K","either","6","80","","","","","","","0","0","1","","0.1400827643","0.2","0.6","0.4","0.8","0.1400827643","0.0333904923","0.1395593146","0.3576379461","","","","","","","","","","","","72","H","0","img/none_selected.jpg","","24","main_expt"
"","bandit","104","415278","0.0-65.0-0.0","74750001","wem/bandit_either_2","A1Y9VA9FKJLS5K","either","6","195","","","","","","","0","0","1","0.04666446392","","0.2","0.6","0.4","0.8","","","","","0.2022937807","0.04666446392","0.1696236693","0.3346121782","","","","","","","","74","J","1","","","25","main_expt"
"","bandit","105","416897","0.0-66.0-0.0","74750001","wem/bandit_either_2","A1Y9VA9FKJLS5K","either","6","101","","","","","","","0","0","1","0.1754084838","","0.2","0.6","0.4","0.8","","","","","0.1725383963","0.04067930801","0.1754084838","0.3790434843","","","","","","","","75","K","2","","","26","main_expt"
"","bandit","106","418647","0.0-67.0-0.0","74750001","wem/bandit_either_2","A1Y9VA9FKJLS5K","either","6","237","","","","","","","0","0","1","0.3744762435","","0.2","0.6","0.4","0.8","","","","","0.1735642386","0.03070036018","0.118483546","0.3744762435","","","","","","","","76","L","3","","","27","main_expt"
"","bandit","107","420279","0.0-68.0-0.0","74750001","wem/bandit_either_2","A1Y9VA9FKJLS5K","either","6","113","","","","","","","0","0","1","","0.149532802","0.2","0.6","0.4","0.8","0.149532802","0.02292460278","0.1259847853","0.3650769418","","","","","","","","","","","","72","H","0","img/none_selected.jpg","","28","main_expt"
"","bandit","108","421887","0.0-69.0-0.0","74750001","wem/bandit_either_2","A1Y9VA9FKJLS5K","either","6","84","","","","","","","0","0","1","","0.03476379039","0.2","0.6","0.4","0.8","0.1597785082","0.03476379039","0.1072727049","0.3299345172","","","","","","","","","","","","74","J","1","","","29","main_expt"
"","bandit","109","423812","0.0-70.0-0.0","74750001","wem/bandit_either_2","A1Y9VA9FKJLS5K","either","6","405","","","","","","","0","0","1","0.07952930744","","0.2","0.6","0.4","0.8","","","","","0.1978771271","0.04211589453","0.07952930744","0.3010095271","","","","","","","","75","K","2","","","30","main_expt"
"","bandit","110","425641","0.0-71.0-0.0","74750001","wem/bandit_either_2","A1Y9VA9FKJLS5K","either","6","301","","","","","","","0","0","1","","0.331530841","0.2","0.6","0.4","0.8","0.1928768267","0.04495483672","0.09691030242","0.331530841","","","","","","","","","","","","76","L","3","","","31","main_expt"
"","bandit","111","427779","0.0-72.0-0.0","74750001","wem/bandit_either_2","A1Y9VA9FKJLS5K","either","6","621","","","","","","","0","0","1","0.1511047494","","0.2","0.6","0.4","0.8","","","","","0.1511047494","0.04126869591","0.1338720944","0.3469043085","","","","","","","","72","H","0","img/none_selected.jpg","","32","main_expt"
"","bandit","112","430116","0.0-73.0-0.0","74750001","wem/bandit_either_2","A1Y9VA9FKJLS5K","either","6","811","","","","","","","0","0","1","0.02396570111","","0.2","0.6","0.4","0.8","","","","","0.09247049486","0.02396570111","0.1428203538","0.2778139242","","","","","","","","74","J","1","","","33","main_expt"
"","bandit","113","431895","0.0-74.0-0.0","74750001","wem/bandit_either_2","A1Y9VA9FKJLS5K","either","6","267","","","","","","","0","0","1","0.1258169527","","0.2","0.6","0.4","0.8","","","","","0.1127946788","0.03561151332","0.1258169527","0.236883459","","","","","","","","75","K","2","","","34","main_expt"
"","bandit","114","433614","0.0-75.0-0.0","74750001","wem/bandit_either_2","A1Y9VA9FKJLS5K","either","6","193","","","","","","","0","0","1","","0.2656196476","0.2","0.6","0.4","0.8","0.1279928094","0.04565222073","0.1652362889","0.2656196476","","","","","","","","","","","","76","L","3","","","35","main_expt"
"","bandit","115","435357","0.0-76.0-0.0","74750001","wem/bandit_either_2","A1Y9VA9FKJLS5K","either","6","222","","","","","","","0","0","1","","0.09285608896","0.2","0.6","0.4","0.8","0.09285608896","0.05036449293","0.1472348388","0.2309028503","","","","","","","","","","","","72","H","0","img/none_selected.jpg","","36","main_expt"
"","bandit","116","437083","0.0-77.0-0.0","74750001","wem/bandit_either_2","A1Y9VA9FKJLS5K","either","6","199","","","","","","","0","0","1","","0.04764774511","0.2","0.6","0.4","0.8","0.1251507517","0.04764774511","0.20581188","0.1961267878","","","","","","","","","","","","74","J","1","","","37","main_expt"
"","bandit","117","438826","0.0-78.0-0.0","74750001","wem/bandit_either_2","A1Y9VA9FKJLS5K","either","6","210","","","","","","","0","1","0","","0.2096070571","0.2","0.6","0.4","0.8","0.1248439258","0.04692466818","0.2096070571","0.2197692452","","","","","","","","","","","","75","K","2","","","38","main_expt"
"","bandit","118","440599","0.0-79.0-0.0","74750001","wem/bandit_either_2","A1Y9VA9FKJLS5K","either","6","257","","","","","","","0","1","0","","0.1888903691","0.2","0.6","0.4","0.8","0.1192858938","0.06150360576","0.1888903691","0.1783178102","","","","","","","","","","","","75","K","2","","","39","main_expt"
"","bandit","119","442506","0.0-80.0-0.0","74750001","wem/bandit_either_2","A1Y9VA9FKJLS5K","either","6","375","","","","","","","1","0","0","0.1769314034","","0.2","0.6","0.4","0.8","","","","","0.1457630933","0.1025324214","0.1769314034","0.1354267005","","","","","","","","75","K","2","","","40","main_expt"
"","bandit","120","444324","0.0-81.0-0.0","74750001","wem/bandit_either_2","A1Y9VA9FKJLS5K","either","6","309","","","","","","","0","0","1","","0.1764673912","0.2","0.6","0.4","0.8","0.1788887836","0.1278282258","0.1764673912","0.1307301687","","","","","","","","","","","","75","K","2","","","41","main_expt"
"","bandit","121","446355","0.0-82.0-0.0","74750001","wem/bandit_either_2","A1Y9VA9FKJLS5K","either","6","515","","","","","","","0","0","1","","0.1164002711","0.2","0.6","0.4","0.8","0.1550439797","0.1144783829","0.1164002711","0.1002459791","","","","","","","","","","","","75","K","2","","","42","main_expt"
"","bandit","122","448160","0.0-83.0-0.0","74750001","wem/bandit_either_2","A1Y9VA9FKJLS5K","either","6","287","","","","","","","0","0","1","0.06131682752","","0.2","0.6","0.4","0.8","","","","","0.1624336935","0.148274456","0.1248357276","0.06131682752","","","","","","","","76","L","3","","","43","main_expt"
"","bandit","123","449843","0.0-84.0-0.0","74750001","wem/bandit_either_2","A1Y9VA9FKJLS5K","either","6","176","","","","","","","0","0","1","","0.2610419313","0.2","0.6","0.4","0.8","0.2610419313","0.1733993608","0.1801883524","0.05757194937","","","","","","","","","","","","72","H","0","img/none_selected.jpg","","44","main_expt"
"","bandit","124","451595","0.0-85.0-0.0","74750001","wem/bandit_either_2","A1Y9VA9FKJLS5K","either","6","224","","","","","","","0","0","1","0.1731137141","","0.2","0.6","0.4","0.8","","","","","0.2547096211","0.1731137141","0.1536252234","0.06317169253","","","","","","","","74","J","1","","","45","main_expt"
"","bandit","125","453338","0.0-86.0-0.0","74750001","wem/bandit_either_2","A1Y9VA9FKJLS5K","either","6","223","","","","","","","1","0","0","0.1453657368","","0.2","0.6","0.4","0.8","","","","","0.2690630982","0.2577534017","0.1453657368","0.08604650327","","","","","","","","75","K","2","","","46","main_expt"
"","bandit","126","455088","0.0-87.0-0.0","74750001","wem/bandit_either_2","A1Y9VA9FKJLS5K","either","6","217","","","","","","","0","0","1","","0.1163474927","0.2","0.6","0.4","0.8","0.2613787364","0.2436059896","0.1163474927","0.07503215105","","","","","","","","","","","","75","K","2","","","47","main_expt"
"","bandit","127","456731","0.0-88.0-0.0","74750001","wem/bandit_either_2","A1Y9VA9FKJLS5K","either","6","120","","","","","","","0","0","1","0.09661626413","","0.2","0.6","0.4","0.8","","","","","0.2764851171","0.261356988","0.1187671899","0.09661626413","","","","","","","","76","L","3","","","48","main_expt"
"","bandit","128","458425","0.0-89.0-0.0","74750001","wem/bandit_either_2","A1Y9VA9FKJLS5K","either","6","171","","","","","","","0","1","0","","0.2628846066","0.2","0.6","0.4","0.8","0.2628846066","0.2707362224","0.1321787199","0.141419135","","","","","","","","","","","","72","H","0","img/none_selected.jpg","","49","main_expt"
"","bandit","129","460059","0.0-90.0-0.0","74750001","wem/bandit_either_2","A1Y9VA9FKJLS5K","either","6","112","","","","","","","0","0","1","","0.3634831931","0.2","0.6","0.4","0.8","0.3634831931","0.2733601765","0.1310663867","0.1341637883","","","","","","","","","","","","72","H","0","img/none_selected.jpg","","50","main_expt"
"","bandit","130","461849","0.0-91.0-0.0","74750001","wem/bandit_either_2","A1Y9VA9FKJLS5K","either","6","273","","","","","","","0","0","1","0.3771608335","","0.2","0.6","0.4","0.8","","","","","0.3771608335","0.2590969561","0.1450472339","0.1225974466","","","","","","","","72","H","0","img/none_selected.jpg","","51","main_expt"
"","bandit","131","463593","0.0-92.0-0.0","74750001","wem/bandit_either_2","A1Y9VA9FKJLS5K","either","6","233","","","","","","","0","0","1","0.2515646212","","0.2","0.6","0.4","0.8","","","","","0.3093307572","0.2515646212","0.1731775471","0.1145468474","","","","","","","","74","J","1","","","52","main_expt"
"","bandit","132","465391","0.0-93.0-0.0","74750001","wem/bandit_either_2","A1Y9VA9FKJLS5K","either","6","288","","","","","","","0","0","1","0.2258016315","","0.2","0.6","0.4","0.8","","","","","0.2990929044","0.2257746054","0.2258016315","0.1059564611","","","","","","","","75","K","2","","","53","main_expt"
"","bandit","133","467113","0.0-94.0-0.0","74750001","wem/bandit_either_2","A1Y9VA9FKJLS5K","either","6","193","","","","","","","0","0","1","","0.1090017536","0.2","0.6","0.4","0.8","0.2221679908","0.2750925763","0.2172527187","0.1090017536","","","","","","","","","","","","76","L","3","","","54","main_expt"
"","bandit","134","468831","0.0-95.0-0.0","74750001","wem/bandit_either_2","A1Y9VA9FKJLS5K","either","6","192","","","","","","","0","0","1","","0.1886471815","0.2","0.6","0.4","0.8","0.1886471815","0.3608357377","0.1652356872","0.1249444004","","","","","","","","","","","","72","H","0","img/none_selected.jpg","","55","main_expt"
"","bandit","135","470370","0.0-96.0-0.0","74750001","wem/bandit_either_2","A1Y9VA9FKJLS5K","either","6","18","","","","","","","1","0","0","0.4022545085","","0.2","0.6","0.4","0.8","","","","","0.1973213641","0.4022545085","0.1576418272","0.09043885587","","","","","","","","74","J","1","","","56","main_expt"
"","bandit","136","472210","0.0-97.0-0.0","74750001","wem/bandit_either_2","A1Y9VA9FKJLS5K","either","6","317","","","","","","","1","0","0","0.3867568464","","0.2","0.6","0.4","0.8","","","","","0.2207101474","0.3867568464","0.180776926","0.07448640425","","","","","","","","74","J","1","","","57","main_expt"
"","bandit","137","473978","0.0-98.0-0.0","74750001","wem/bandit_either_2","A1Y9VA9FKJLS5K","either","6","261","","","","","","","1","0","0","0.3840355114","","0.2","0.6","0.4","0.8","","","","","0.2480089655","0.3840355114","0.1489081552","0.09808879237","","","","","","","","74","J","1","","","58","main_expt"
"","bandit","138","475853","0.0-99.0-0.0","74750001","wem/bandit_either_2","A1Y9VA9FKJLS5K","either","6","364","","","","","","","0","0","1","0.3617876187","","0.2","0.6","0.4","0.8","","","","","0.2667579505","0.3617876187","0.125555473","0.0721355853","","","","","","","","74","J","1","","","59","main_expt"
"","bandit","139","477429","0.0-100.0-0.0","74750001","wem/bandit_either_2","A1Y9VA9FKJLS5K","either","6","57","","","","","","","0","0","1","","0.1228814318","0.2","0.6","0.4","0.8","0.2637313595","0.3018070945","0.1228814318","0.08871326978","","","","","","","","","","","","75","K","2","","","60","main_expt"
"","bandit","140","479150","0.0-101.0-0.0","74750001","wem/bandit_either_2","A1Y9VA9FKJLS5K","either","6","190","","","","","","","0","0","1","0.1472383223","","0.2","0.6","0.4","0.8","","","","","0.2400462537","0.2687465691","0.195834737","0.1472383223","","","","","","","","76","L","3","","","61","main_expt"
"","bandit","141","480797","0.0-102.0-0.0","74750001","wem/bandit_either_2","A1Y9VA9FKJLS5K","either","6","125","","","","","","","0","0","1","","0.2396546157","0.2","0.6","0.4","0.8","0.2396546157","0.287622952","0.1952904108","0.1625866577","","","","","","","","","","","","72","H","0","img/none_selected.jpg","","62","main_expt"
"","bandit","142","482502","0.0-103.0-0.0","74750001","wem/bandit_either_2","A1Y9VA9FKJLS5K","either","6","184","","","","","","","0","0","1","0.2060093557","","0.2","0.6","0.4","0.8","","","","","0.2558687718","0.2060093557","0.187392073","0.1196153378","","","","","","","","74","J","1","","","63","main_expt"
"","bandit","143","484220","0.0-104.0-0.0","74750001","wem/bandit_either_2","A1Y9VA9FKJLS5K","either","6","202","","","","","","","0","0","1","0.1774517964","","0.2","0.6","0.4","0.8","","","","","0.1789331692","0.1865830226","0.1774517964","0.1025290435","","","","","","","","75","K","2","","","64","main_expt"
"","bandit","144","486261","0.0-105.0-0.0","74750001","wem/bandit_either_2","A1Y9VA9FKJLS5K","either","6","497","","","","","","","0","0","1","0.06637487434","","0.2","0.6","0.4","0.8","","","","","0.2041721298","0.2242960511","0.1956590225","0.06637487434","","","","","","","","76","L","3","","","65","main_expt"
"","bandit","145","488038","0.0-106.0-0.0","74750001","wem/bandit_either_2","A1Y9VA9FKJLS5K","either","6","244","","","","","","","0","0","1","","0.1083731131","0.2","0.6","0.4","0.8","0.1083731131","0.213739571","0.1559932489","0.09888809835","","","","","","","","","","","","72","H","0","img/none_selected.jpg","","66","main_expt"
"","bandit","146","489713","0.0-107.0-0.0","74750001","wem/bandit_either_2","A1Y9VA9FKJLS5K","either","6","149","","","","","","","0","0","1","0.2463093088","","0.2","0.6","0.4","0.8","","","","","0.08148965902","0.2463093088","0.1327283285","0.08542348091","","","","","","","","74","J","1","","","67","main_expt"
"","bandit","147","491452","0.0-108.0-0.0","74750001","wem/bandit_either_2","A1Y9VA9FKJLS5K","either","6","222","","","","","","","0","0","1","","0.1646421129","0.2","0.6","0.4","0.8","0.115871946","0.1863602012","0.1646421129","0.05648132023","","","","","","","","","","","","75","K","2","","","68","main_expt"
"","bandit","148","493215","0.0-109.0-0.0","74750001","wem/bandit_either_2","A1Y9VA9FKJLS5K","either","6","245","","","","","","","0","0","1","0.07427448495","","0.2","0.6","0.4","0.8","","","","","0.1049465522","0.1481768435","0.1879918005","0.07427448495","","","","","","","","76","L","3","","","69","main_expt"
"","bandit","149","494996","0.0-110.0-0.0","74750001","wem/bandit_either_2","A1Y9VA9FKJLS5K","either","6","254","","","","","","","0","0","1","0.1224614501","","0.2","0.6","0.4","0.8","","","","","0.1224614501","0.2062415021","0.1708527721","0.1052870039","","","","","","","","72","H","0","img/none_selected.jpg","","70","main_expt"
"","bandit","150","496733","0.0-111.0-0.0","74750001","wem/bandit_either_2","A1Y9VA9FKJLS5K","either","6","221","","","","","","","0","0","1","0.2175562698","","0.2","0.6","0.4","0.8","","","","","0.1687358413","0.2175562698","0.1930923514","0.1114501371","","","","","","","","74","J","1","","","71","main_expt"
"","bandit","151","498631","0.0-112.0-0.0","74750001","wem/bandit_either_2","A1Y9VA9FKJLS5K","either","6","373","","","","","","","0","0","1","","0.2289396243","0.2","0.6","0.4","0.8","0.1902964731","0.2182173038","0.2289396243","0.1282799478","","","","","","","","","","","","75","K","2","","","72","main_expt"
"","bandit","152","500386","0.0-113.0-0.0","74750001","wem/bandit_either_2","A1Y9VA9FKJLS5K","either","6","235","","","","","","","0","0","1","0.1113050996","","0.2","0.6","0.4","0.8","","","","","0.1764690901","0.1629952044","0.2223781067","0.1113050996","","","","","","","","76","L","3","","","73","main_expt"
"","bandit","153","502183","0.0-114.0-0.0","74750001","wem/bandit_either_2","A1Y9VA9FKJLS5K","either","6","282","","","","","","","0","0","1","","0.1720288853","0.2","0.6","0.4","0.8","0.1720288853","0.2291178652","0.1664819569","0.1573287606","","","","","","","","","","","","72","H","0","img/none_selected.jpg","","74","main_expt"
"","bandit","154","503929","0.0-115.0-0.0","74750001","wem/bandit_either_2","A1Y9VA9FKJLS5K","either","6","216","","","","","","","0","0","1","0.2087405931","","0.2","0.6","0.4","0.8","","","","","0.098780463","0.2087405931","0.1157276324","0.168318459","","","","","","","","74","J","1","","","75","main_expt"
"","bandit","155","505594","0.0-116.0-0.0","74750001","wem/bandit_either_2","A1Y9VA9FKJLS5K","either","6","139","","","","","","","0","0","1","","0.06912044911","0.2","0.6","0.4","0.8","0.08192786134","0.1981976751","0.06912044911","0.131742089","","","","","","","","","","","","75","K","2","","","76","main_expt"
"","bandit","156","507390","0.0-117.0-0.0","74750001","wem/bandit_either_2","A1Y9VA9FKJLS5K","either","6","283","","","","","","","0","0","1","0.1382621175","","0.2","0.6","0.4","0.8","","","","","0.03620126105","0.2302368041","0.06151132513","0.1382621175","","","","","","","","76","L","3","","","77","main_expt"
"","bandit","157","509082","0.0-118.0-0.0","74750001","wem/bandit_either_2","A1Y9VA9FKJLS5K","either","6","161","","","","","","","0","0","1","0.03362754592","","0.2","0.6","0.4","0.8","","","","","0.03362754592","0.2538269909","0.08824794056","0.1351161864","","","","","","","","72","H","0","img/none_selected.jpg","","78","main_expt"
"","bandit","158","510713","0.0-119.0-0.0","74750001","wem/bandit_either_2","A1Y9VA9FKJLS5K","either","6","113","","","","","","","0","0","1","0.221492582","","0.2","0.6","0.4","0.8","","","","","0.03917851348","0.221492582","0.08425003046","0.1125986002","","","","","","","","74","J","1","","","79","main_expt"
"","bandit","159","512457","0.0-120.0-0.0","74750001","wem/bandit_either_2","A1Y9VA9FKJLS5K","either","6","218","","","","","","","0","0","1","","0.1059393704","0.2","0.6","0.4","0.8","0.06916691586","0.2126184008","0.1059393704","0.1071358869","","","","","","","","","","","","75","K","2","","","80","main_expt"
"","bandit","160","514157","0.0-121.0-0.0","74750001","wem/bandit_either_2","A1Y9VA9FKJLS5K","either","6","185","","","","","","","0","0","1","0.1410751298","","0.2","0.6","0.4","0.8","","","","","0.1110223174","0.1803612399","0.114990546","0.1410751298","","","","","","","","76","L","3","","","81","main_expt"
"","bandit","161","515748","0.0-122.0-0.0","74750001","wem/bandit_either_2","A1Y9VA9FKJLS5K","either","6","67","","","","","","","0","0","1","","0.08899533144","0.2","0.6","0.4","0.8","0.08899533144","0.1883980103","0.1246300745","0.1518454263","","","","","","","","","","","","72","H","0","img/none_selected.jpg","","82","main_expt"
"","bandit","162","517402","0.0-123.0-0.0","74750001","wem/bandit_either_2","A1Y9VA9FKJLS5K","either","6","139","","","","","","","0","0","1","","0.2099895667","0.2","0.6","0.4","0.8","0.1383499545","0.2099895667","0.1523433176","0.1285150734","","","","","","","","","","","","74","J","1","","","83","main_expt"
"","bandit","163","519225","0.0-124.0-0.0","74750001","wem/bandit_either_2","A1Y9VA9FKJLS5K","either","6","308","","","","","","","0","0","1","","0.1230513595","0.2","0.6","0.4","0.8","0.1815119679","0.1760666055","0.1230513595","0.1083679187","","","","","","","","","","","","75","K","2","","","84","main_expt"
"","bandit","164","520802","0.0-125.0-0.0","74750001","wem/bandit_either_2","A1Y9VA9FKJLS5K","either","6","40","","","","","","","0","0","1","0.08985983991","","0.2","0.6","0.4","0.8","","","","","0.2121304898","0.2077415988","0.1460595132","0.08985983991","","","","","","","","76","L","3","","","85","main_expt"
"","bandit","165","522341","0.0-126.0-0.0","74750001","wem/bandit_either_2","A1Y9VA9FKJLS5K","either","6","23","","","","","","","0","0","1","0.1931166697","","0.2","0.6","0.4","0.8","","","","","0.1931166697","0.1940704576","0.1578730034","0.08377758623","","","","","","","","72","H","0","img/none_selected.jpg","","86","main_expt"
"","bandit","166","523917","0.0-127.0-0.0","74750001","wem/bandit_either_2","A1Y9VA9FKJLS5K","either","6","51","","","","","","","0","0","1","","0.1920524506","0.2","0.6","0.4","0.8","0.1908876969","0.1920524506","0.1329566931","0.08340742779","","","","","","","","","","","","74","J","1","","","87","main_expt"
"","bandit","167","525630","0.0-128.0-0.0","74750001","wem/bandit_either_2","A1Y9VA9FKJLS5K","either","6","200","","","","","","","0","0","1","","0.1156353122","0.2","0.6","0.4","0.8","0.1727332377","0.2525081946","0.1156353122","0.06937011617","","","","","","","","","","","","75","K","2","","","88","main_expt"
"","bandit","168","527343","0.0-129.0-0.0","74750001","wem/bandit_either_2","A1Y9VA9FKJLS5K","either","6","200","","","","","","","0","0","1","","0.08556693901","0.2","0.6","0.4","0.8","0.1747664758","0.2476280913","0.1169245856","0.08556693901","","","","","","","","","","","","76","L","3","","","89","main_expt"
"","bandit","169","528980","0.0-130.0-0.0","74750001","wem/bandit_either_2","A1Y9VA9FKJLS5K","either","6","110","","","","","","","0","0","1","0.1302891894","","0.2","0.6","0.4","0.8","","","","","0.1302891894","0.2476417222","0.1276927611","0.1013294801","","","","","","","","72","H","0","img/none_selected.jpg","","90","main_expt"
"","bandit","170","530710","0.0-131.0-0.0","74750001","wem/bandit_either_2","A1Y9VA9FKJLS5K","either","6","203","","","","","","","0","0","1","","0.1875867431","0.2","0.6","0.4","0.8","0.1143331172","0.1875867431","0.1633868825","0.1567130635","","","","","","","","","","","","74","J","1","","","91","main_expt"
"","bandit","171","532369","0.0-132.0-0.0","74750001","wem/bandit_either_2","A1Y9VA9FKJLS5K","either","6","142","","","","","","","0","0","1","","0.2172033847","0.2","0.6","0.4","0.8","0.1674068059","0.1804963823","0.2172033847","0.1214255195","","","","","","","","","","","","75","K","2","","","92","main_expt"
"","bandit","172","534089","0.0-133.0-0.0","74750001","wem/bandit_either_2","A1Y9VA9FKJLS5K","either","6","178","","","","","","","0","0","1","0.1317465968","","0.2","0.6","0.4","0.8","","","","","0.1405005834","0.1468121695","0.2178255547","0.1317465968","","","","","","","","76","L","3","","","93","main_expt"
"","bandit","173","535671","0.0-134.0-0.0","74750001","wem/bandit_either_2","A1Y9VA9FKJLS5K","either","6","51","","","","","","","0","1","0","","0.1338278818","0.2","0.6","0.4","0.8","0.1338278818","0.1270151289","0.2058786334","0.1810196293","","","","","","","","","","","","72","H","0","img/none_selected.jpg","","94","main_expt"
"","bandit","174","537235","0.0-135.0-0.0","74750001","wem/bandit_either_2","A1Y9VA9FKJLS5K","either","6","52","","","","","","","0","0","1","","0.16416917","0.2","0.6","0.4","0.8","0.16416917","0.1049494322","0.2009860572","0.1537803575","","","","","","","","","","","","72","H","0","img/none_selected.jpg","","95","main_expt"
"","bandit","175","539126","0.0-136.0-0.0","74750001","wem/bandit_either_2","A1Y9VA9FKJLS5K","either","6","372","","","","","","","0","0","1","0.1242023773","","0.2","0.6","0.4","0.8","","","","","0.1075549125","0.1242023773","0.2792576191","0.2255368078","","","","","","","","74","J","1","","","96","main_expt"
"","bandit","176","540860","0.0-137.0-0.0","74750001","wem/bandit_either_2","A1Y9VA9FKJLS5K","either","6","204","","","","","","","0","0","1","","0.291042229","0.2","0.6","0.4","0.8","0.07285617598","0.101802889","0.291042229","0.1881791955","","","","","","","","","","","","75","K","2","","","97","main_expt"
"","bandit","177","542401","0.0-138.0-0.0","74750001","wem/bandit_either_2","A1Y9VA9FKJLS5K","either","6","27","","","","","","","0","0","1","0.1722186849","","0.2","0.6","0.4","0.8","","","","","0.1128802937","0.08559904752","0.2919937097","0.1722186849","","","","","","","","76","L","3","","","98","main_expt"
"","bandit","178","544040","0.0-139.0-0.0","74750001","wem/bandit_either_2","A1Y9VA9FKJLS5K","either","6","118","","","","","","","0","0","1","","0.07338875894","0.2","0.6","0.4","0.8","0.07338875894","0.04480153982","0.338066437","0.2581810796","","","","","","","","","","","","72","H","0","img/none_selected.jpg","","99","main_expt"
"","bandit","179","545809","0.0-140.0-0.0","74750001","wem/bandit_either_2","A1Y9VA9FKJLS5K","either","6","239","","","","","","","0","0","1","0.03694367041","","0.2","0.6","0.4","0.8","","","","","0.06256672301","0.03694367041","0.3466775547","0.3094702251","","","","","","","","74","J","1","","","100","main_expt"
"","bandit","180","547473","0.0-141.0-0.0","74750001","wem/bandit_either_2","A1Y9VA9FKJLS5K","either","6","154","","","","","","","0","1","0","","0.3776837944","0.2","0.6","0.4","0.8","0.06765033746","0.02534596886","0.3776837944","0.3217449289","","","","","","","","","","","","75","K","2","","","101","main_expt"
"","bandit","181","549084","0.0-142.0-0.0","74750001","wem/bandit_either_2","A1Y9VA9FKJLS5K","either","6","97","","","","","","","0","0","1","0.3988278911","","0.2","0.6","0.4","0.8","","","","","0.08460413752","0.03456503798","0.3988278911","0.3656493725","","","","","","","","75","K","2","","","102","main_expt"
"","bandit","182","550695","0.0-143.0-0.0","74750001","wem/bandit_either_2","A1Y9VA9FKJLS5K","either","6","86","","","","","","","0","1","0","","0.4097417878","0.2","0.6","0.4","0.8","0.1149622558","0.03116272615","0.3642388176","0.4097417878","","","","","","","","","","","","76","L","3","","","103","main_expt"
"","bandit","183","552335","0.0-144.0-0.0","74750001","wem/bandit_either_2","A1Y9VA9FKJLS5K","either","6","122","","","","","","","0","1","0","","0.4005896235","0.2","0.6","0.4","0.8","0.1223821921","0.04034009898","0.3059376685","0.4005896235","","","","","","","","","","","","76","L","3","","","104","main_expt"
"","bandit","184","554108","0.0-145.0-0.0","74750001","wem/bandit_either_2","A1Y9VA9FKJLS5K","either","6","255","","","","","","","1","0","0","0.3967946647","","0.2","0.6","0.4","0.8","","","","","0.1302837569","0.06132200156","0.2658022239","0.3967946647","","","","","","","","76","L","3","","","105","main_expt"
"","bandit","185","555956","0.0-146.0-0.0","74750001","wem/bandit_either_2","A1Y9VA9FKJLS5K","either","6","315","","","","","","","0","0","1","0.3920329447","","0.2","0.6","0.4","0.8","","","","","0.1405927316","0.03171667797","0.2583534607","0.3920329447","","","","","","","","76","L","3","","","106","main_expt"
"","bandit","186","557911","0.0-147.0-0.0","74750001","wem/bandit_either_2","A1Y9VA9FKJLS5K","either","6","426","","","","","","","0","0","1","0.1835021143","","0.2","0.6","0.4","0.8","","","","","0.1835021143","0.06603394544","0.2402432731","0.3973329777","","","","","","","","72","H","0","img/none_selected.jpg","","107","main_expt"
"","bandit","187","559721","0.0-148.0-0.0","74750001","wem/bandit_either_2","A1Y9VA9FKJLS5K","either","6","280","","","","","","","0","0","1","","0.08137973005","0.2","0.6","0.4","0.8","0.2124513917","0.08137973005","0.2364509509","0.3839010997","","","","","","","","","","","","74","J","1","","","108","main_expt"
"","bandit","188","561420","0.0-149.0-0.0","74750001","wem/bandit_either_2","A1Y9VA9FKJLS5K","either","6","179","","","","","","","0","0","1","","0.2164051194","0.2","0.6","0.4","0.8","0.218007314","0.04765661509","0.2164051194","0.3879107289","","","","","","","","","","","","75","K","2","","","109","main_expt"
"","bandit","189","563196","0.0-150.0-0.0","74750001","wem/bandit_either_2","A1Y9VA9FKJLS5K","either","6","242","","","","","","","0","0","1","0.3989855113","","0.2","0.6","0.4","0.8","","","","","0.229469423","0.06789381979","0.1611838666","0.3989855113","","","","","","","","76","L","3","","","110","main_expt"
"","bandit","190","564915","0.0-151.0-0.0","74750001","wem/bandit_either_2","A1Y9VA9FKJLS5K","either","6","199","","","","","","","0","0","1","","0.2923436213","0.2","0.6","0.4","0.8","0.2923436213","0.08972795074","0.2042622235","0.3959495959","","","","","","","","","","","","72","H","0","img/none_selected.jpg","","111","main_expt"
"","bandit","191","566705","0.0-152.0-0.0","74750001","wem/bandit_either_2","A1Y9VA9FKJLS5K","either","6","249","","","","","","","0","0","1","","0.1176683061","0.2","0.6","0.4","0.8","0.2778802509","0.1176683061","0.2113733305","0.335596647","","","","","","","","","","","","74","J","1","","","112","main_expt"
"","bandit","192","568434","0.0-153.0-0.0","74750001","wem/bandit_either_2","A1Y9VA9FKJLS5K","either","6","208","","","","","","","0","1","0","","0.220236308","0.2","0.6","0.4","0.8","0.2852166322","0.1973953549","0.220236308","0.2876347753","","","","","","","","","","","","75","K","2","","","113","main_expt"
"","bandit","193","570083","0.0-154.0-0.0","74750001","wem/bandit_either_2","A1Y9VA9FKJLS5K","either","6","119","","","","","","","0","0","1","0.2453392608","","0.2","0.6","0.4","0.8","","","","","0.3222351196","0.200840576","0.2453392608","0.2811359795","","","","","","","","75","K","2","","","114","main_expt"
"","bandit","194","571721","0.0-155.0-0.0","74750001","wem/bandit_either_2","A1Y9VA9FKJLS5K","either","6","103","","","","","","","0","1","0","","0.2056035349","0.2","0.6","0.4","0.8","0.2865303103","0.2544006126","0.2311931225","0.2056035349","","","","","","","","","","","","76","L","3","","","115","main_expt"
"","bandit","195","573476","0.0-156.0-0.0","74750001","wem/bandit_either_2","A1Y9VA9FKJLS5K","either","6","239","","","","","","","0","0","1","0.2435386161","","0.2","0.6","0.4","0.8","","","","","0.1901772154","0.2264812366","0.2290532582","0.2435386161","","","","","","","","76","L","3","","","116","main_expt"
"","bandit","196","575142","0.0-157.0-0.0","74750001","wem/bandit_either_2","A1Y9VA9FKJLS5K","either","6","140","","","","","","","0","0","1","","0.1854727963","0.2","0.6","0.4","0.8","0.1854727963","0.2535822563","0.2610634121","0.2523066444","","","","","","","","","","","","72","H","0","img/none_selected.jpg","","117","main_expt"
"","bandit","197","576856","0.0-158.0-0.0","74750001","wem/bandit_either_2","A1Y9VA9FKJLS5K","either","6","173","","","","","","","0","0","1","0.288462609","","0.2","0.6","0.4","0.8","","","","","0.223078523","0.288462609","0.2915584027","0.258758296","","","","","","","","74","J","1","","","118","main_expt"
"","bandit","198","578581","0.0-159.0-0.0","74750001","wem/bandit_either_2","A1Y9VA9FKJLS5K","either","6","205","","","","","","","0","1","0","","0.3240034744","0.2","0.6","0.4","0.8","0.2157898803","0.3077733757","0.3240034744","0.2513882557","","","","","","","","","","","","75","K","2","","","119","main_expt"
"","bandit","199","580273","0.0-160.0-0.0","74750001","wem/bandit_either_2","A1Y9VA9FKJLS5K","either","6","168","","","","","","","0","1","0","","0.3584552205","0.2","0.6","0.4","0.8","0.2055853597","0.3470363664","0.3584552205","0.2178230887","","","","","","","","","","","","75","K","2","","","120","main_expt"
"","bandit","200","581973","0.0-161.0-0.0","74750001","wem/bandit_either_2","A1Y9VA9FKJLS5K","either","6","178","","","","","","","0","0","1","0.3392259721","","0.2","0.6","0.4","0.8","","","","","0.2308362602","0.36369082","0.3392259721","0.2249913612","","","","","","","","75","K","2","","","121","main_expt"
"","bandit","201","583749","0.0-162.0-0.0","74750001","wem/bandit_either_2","A1Y9VA9FKJLS5K","either","6","251","","","","","","","0","0","1","0.2135386538","","0.2","0.6","0.4","0.8","","","","","0.1858821776","0.3740977319","0.3211990091","0.2135386538","","","","","","","","76","L","3","","","122","main_expt"
"","bandit","202","585318","0.0-163.0-0.0","74750001","wem/bandit_either_2","A1Y9VA9FKJLS5K","either","6","45","","","","","","","0","1","0","","0.1948645322","0.2","0.6","0.4","0.8","0.1948645322","0.3617230251","0.3082515077","0.2742148462","","","","","","","","","","","","72","H","0","img/none_selected.jpg","","123","main_expt"
"","bandit","203","586943","0.0-164.0-0.0","74750001","wem/bandit_either_2","A1Y9VA9FKJLS5K","either","6","102","","","","","","","0","0","1","","0.1875433284","0.2","0.6","0.4","0.8","0.1875433284","0.3189133642","0.3337980485","0.3092488957","","","","","","","","","","","","72","H","0","img/none_selected.jpg","","124","main_expt"
"","bandit","204","588633","0.0-165.0-0.0","74750001","wem/bandit_either_2","A1Y9VA9FKJLS5K","either","6","156","","","","","","","1","0","0","0.3134342975","","0.2","0.6","0.4","0.8","","","","","0.1805360773","0.3134342975","0.2815584253","0.2832498899","","","","","","","","74","J","1","","","125","main_expt"
"","bandit","205","590417","0.0-166.0-0.0","74750001","wem/bandit_either_2","A1Y9VA9FKJLS5K","either","6","246","","","","","","","1","0","0","0.2889117865","","0.2","0.6","0.4","0.8","","","","","0.2199741614","0.2889117865","0.2544389989","0.321902755","","","","","","","","74","J","1","","","126","main_expt"
"","bandit","206","592150","0.0-167.0-0.0","74750001","wem/bandit_either_2","A1Y9VA9FKJLS5K","either","6","217","","","","","","","1","0","0","0.3101500906","","0.2","0.6","0.4","0.8","","","","","0.212963778","0.3101500906","0.217883989","0.3163630435","","","","","","","","74","J","1","","","127","main_expt"
"","bandit","207","594006","0.0-168.0-0.0","74750001","wem/bandit_either_2","A1Y9VA9FKJLS5K","either","6","344","","","","","","","0","0","1","0.3257933697","","0.2","0.6","0.4","0.8","","","","","0.1853882534","0.3257933697","0.1941215274","0.3242789072","","","","","","","","74","J","1","","","128","main_expt"
"","bandit","208","595652","0.0-169.0-0.0","74750001","wem/bandit_either_2","A1Y9VA9FKJLS5K","either","6","111","","","","","","","0","0","1","","0.2093197904","0.2","0.6","0.4","0.8","0.1486900389","0.2767822115","0.2093197904","0.3430844202","","","","","","","","","","","","75","K","2","","","129","main_expt"
"","bandit","209","597184","0.0-170.0-0.0","74750001","wem/bandit_either_2","A1Y9VA9FKJLS5K","either","6","20","","","","","","","1","0","0","0.3487272729","","0.2","0.6","0.4","0.8","","","","","0.1581202816","0.3389859305","0.2325895014","0.3487272729","","","","","","","","76","L","3","","","130","main_expt"
"","bandit","210","598925","0.0-171.0-0.0","74750001","wem/bandit_either_2","A1Y9VA9FKJLS5K","either","6","210","","","","","","","0","0","1","0.3850752379","","0.2","0.6","0.4","0.8","","","","","0.1189605486","0.2807576759","0.2680880231","0.3850752379","","","","","","","","76","L","3","","","131","main_expt"
"","bandit","211","600596","0.0-172.0-0.0","74750001","wem/bandit_either_2","A1Y9VA9FKJLS5K","either","6","140","","","","","","","0","0","1","","0.08638656351","0.2","0.6","0.4","0.8","0.08638656351","0.2044414959","0.2053564998","0.3547422913","","","","","","","","","","","","72","H","0","img/none_selected.jpg","","132","main_expt"
"","bandit","212","602284","0.0-173.0-0.0","74750001","wem/bandit_either_2","A1Y9VA9FKJLS5K","either","6","153","","","","","","","0","0","1","","0.2352631215","0.2","0.6","0.4","0.8","0.104542274","0.2352631215","0.2102644512","0.3256782816","","","","","","","","","","","","74","J","1","","","133","main_expt"
"","bandit","213","603861","0.0-174.0-0.0","74750001","wem/bandit_either_2","A1Y9VA9FKJLS5K","either","6","53","","","","","","","0","0","1","","0.2028105977","0.2","0.6","0.4","0.8","0.1401790922","0.2808822736","0.2028105977","0.2479378245","","","","","","","","","","","","75","K","2","","","134","main_expt"
"","bandit","214","605441","0.0-175.0-0.0","74750001","wem/bandit_either_2","A1Y9VA9FKJLS5K","either","6","59","","","","","","","0","0","1","0.24301602","","0.2","0.6","0.4","0.8","","","","","0.1818128853","0.3053704558","0.1556880781","0.24301602","","","","","","","","76","L","3","","","135","main_expt"
"","bandit","215","606987","0.0-176.0-0.0","74750001","wem/bandit_either_2","A1Y9VA9FKJLS5K","either","6","25","","","","","","","0","0","1","","0.1583738081","0.2","0.6","0.4","0.8","0.1583738081","0.3140058771","0.1428421262","0.2630427063","","","","","","","","","","","","72","H","0","img/none_selected.jpg","","136","main_expt"
"","bandit","216","608657","0.0-177.0-0.0","74750001","wem/bandit_either_2","A1Y9VA9FKJLS5K","either","6","127","","","","","","","1","0","0","0.323699752","","0.2","0.6","0.4","0.8","","","","","0.1497920091","0.323699752","0.1039390038","0.3053425806","","","","","","","","74","J","1","","","137","main_expt"
"","bandit","217","610333","0.0-178.0-0.0","74750001","wem/bandit_either_2","A1Y9VA9FKJLS5K","either","6","156","","","","","","","0","0","1","0.3435108126","","0.2","0.6","0.4","0.8","","","","","0.1128601551","0.3435108126","0.07132433681","0.3588623722","","","","","","","","74","J","1","","","138","main_expt"
"","bandit","218","612000","0.0-179.0-0.0","74750001","wem/bandit_either_2","A1Y9VA9FKJLS5K","either","6","151","","","","","","","0","0","1","","0.1047165976","0.2","0.6","0.4","0.8","0.1073604677","0.3505637202","0.1047165976","0.2762704672","","","","","","","","","","","","75","K","2","","","139","main_expt"
"","bandit","219","613795","0.0-180.0-0.0","74750001","wem/bandit_either_2","A1Y9VA9FKJLS5K","either","6","258","","","","","","","0","0","1","0.2475753012","","0.2","0.6","0.4","0.8","","","","","0.1376710563","0.4185251601","0.09043849554","0.2475753012","","","","","","","","76","L","3","","","140","main_expt"
"","bandit","220","615440","0.0-181.0-0.0","74750001","wem/bandit_either_2","A1Y9VA9FKJLS5K","either","6","119","","","","","","","0","1","0","","0.1412662962","0.2","0.6","0.4","0.8","0.1412662962","0.4225289085","0.05096505815","0.2436306075","","","","","","","","","","","","72","H","0","img/none_selected.jpg","","141","main_expt"
"","bandit","221","617203","0.0-182.0-0.0","74750001","wem/bandit_either_2","A1Y9VA9FKJLS5K","either","6","217","","","","","","","0","0","1","0.1543424817","","0.2","0.6","0.4","0.8","","","","","0.1543424817","0.455259632","0.02973759478","0.1998899021","","","","","","","","72","H","0","img/none_selected.jpg","","142","main_expt"
"","bandit","222","618957","0.0-183.0-0.0","74750001","wem/bandit_either_2","A1Y9VA9FKJLS5K","either","6","224","","","","","","","1","0","0","0.4287003803","","0.2","0.6","0.4","0.8","","","","","0.1552636118","0.4287003803","0.04457260366","0.2568100034","","","","","","","","74","J","1","","","143","main_expt"
"","bandit","223","620727","0.0-184.0-0.0","74750001","wem/bandit_either_2","A1Y9VA9FKJLS5K","either","6","248","","","","","","","1","0","0","0.4260506414","","0.2","0.6","0.4","0.8","","","","","0.2241753426","0.4260506414","0.04060115041","0.2859833531","","","","","","","","74","J","1","","","144","main_expt"
"","bandit","224","622573","0.0-185.0-0.0","74750001","wem/bandit_either_2","A1Y9VA9FKJLS5K","either","6","294","","","","","","","1","0","0","0.4202170594","","0.2","0.6","0.4","0.8","","","","","0.2484131349","0.4202170594","0.06712401514","0.2080640158","","","","","","","","74","J","1","","","145","main_expt"
"","bandit","225","624365","0.0-186.0-0.0","74750001","wem/bandit_either_2","A1Y9VA9FKJLS5K","either","6","267","","","","","","","0","0","1","","0.4333226383","0.2","0.6","0.4","0.8","0.2905032103","0.4333226383","0.08780921534","0.2469639643","","","","","","","","","","","","74","J","1","","","146","main_expt"
"","bandit","226","626088","0.0-187.0-0.0","74750001","wem/bandit_either_2","A1Y9VA9FKJLS5K","either","6","209","","","","","","","0","0","1","","0.4340954059","0.2","0.6","0.4","0.8","0.2846703457","0.4340954059","0.1333368233","0.2169279296","","","","","","","","","","","","74","J","1","","","147","main_expt"
"","bandit","227","628591","0.0-188.0-0.0","74750001","wem/bandit_either_2","A1Y9VA9FKJLS5K","either","6","968","","","","","","","0","0","1","0.3903754431","","0.2","0.6","0.4","0.8","","","","","0.3010433131","0.3903754431","0.09264147873","0.1248284812","","","","","","","","74","J","1","","","148","main_expt"
"","bandit","228","630448","0.0-189.0-0.0","74750001","wem/bandit_either_2","A1Y9VA9FKJLS5K","either","6","311","","","","","","","1","0","0","0.123708687","","0.2","0.6","0.4","0.8","","","","","0.3421268102","0.4161192262","0.123708687","0.1498862571","","","","","","","","75","K","2","","","149","main_expt"
"","bandit","229","632021","0.0-190.0-0.0","74750001","wem/bandit_either_2","A1Y9VA9FKJLS5K","either","6","52","","","","","","","0","0","1","","0.1087811601","0.2","0.6","0.4","0.8","0.3382865341","0.4545257836","0.1087811601","0.2044632824","","","","","","","","","","","","75","K","2","","","150","main_expt"
"","bandit","230","633637","0.0-191.0-0.0","74750001","wem/bandit_either_2","A1Y9VA9FKJLS5K","either","6","94","","","","","","","0","0","1","","0.1640336927","0.2","0.6","0.4","0.8","0.3031951358","0.4553704948","0.1640336927","0.1630699797","","","","","","","","","","","","75","K","2","","","151","main_expt"
"","bandit","231","635389","0.0-192.0-0.0","74750001","wem/bandit_either_2","A1Y9VA9FKJLS5K","either","6","221","","","","","","","0","0","1","0.1474195158","","0.2","0.6","0.4","0.8","","","","","0.3163498213","0.4692720684","0.1474195158","0.1534962237","","","","","","","","75","K","2","","","152","main_expt"
"","bandit","232","636957","0.0-193.0-0.0","74750001","wem/bandit_either_2","A1Y9VA9FKJLS5K","either","6","47","","","","","","","0","1","0","","0.1506701345","0.2","0.6","0.4","0.8","0.3205280093","0.4794448159","0.1200421148","0.1506701345","","","","","","","","","","","","76","L","3","","","153","main_expt"
"","bandit","233","638498","0.0-194.0-0.0","74750001","wem/bandit_either_2","A1Y9VA9FKJLS5K","either","6","28","","","","","","","1","0","0","0.1810992197","","0.2","0.6","0.4","0.8","","","","","0.2780981807","0.4762011242","0.1295208369","0.1810992197","","","","","","","","76","L","3","","","154","main_expt"
"","bandit","234","640247","0.0-195.0-0.0","74750001","wem/bandit_either_2","A1Y9VA9FKJLS5K","either","6","227","","","","","","","0","0","1","0.2574031695","","0.2","0.6","0.4","0.8","","","","","0.2543788853","0.4797315341","0.1189574303","0.2574031695","","","","","","","","76","L","3","","","155","main_expt"
"","bandit","235","641879","0.0-196.0-0.0","74750001","wem/bandit_either_2","A1Y9VA9FKJLS5K","either","6","100","","","","","","","1","0","0","0.2601772157","","0.2","0.6","0.4","0.8","","","","","0.2601772157","0.4815153028","0.1511338071","0.1838662476","","","","","","","","72","H","0","img/none_selected.jpg","","156","main_expt"
"","bandit","236","643667","0.0-197.0-0.0","74750001","wem/bandit_either_2","A1Y9VA9FKJLS5K","either","6","260","","","","","","","0","0","1","","0.27050514","0.2","0.6","0.4","0.8","0.27050514","0.4769669351","0.1494559257","0.1951262555","","","","","","","","","","","","72","H","0","img/none_selected.jpg","","157","main_expt"
"","bandit","237","645316","0.0-198.0-0.0","74750001","wem/bandit_either_2","A1Y9VA9FKJLS5K","either","6","130","","","","","","","0","0","1","","0.4819637572","0.2","0.6","0.4","0.8","0.2912044809","0.4819637572","0.1398300683","0.1711173681","","","","","","","","","","","","74","J","1","","","158","main_expt"
"","bandit","238","646937","0.0-199.0-0.0","74750001","wem/bandit_either_2","A1Y9VA9FKJLS5K","either","6","99","","","","","","","0","0","1","","0.1482700517","0.2","0.6","0.4","0.8","0.2863852675","0.4802617926","0.1482700517","0.1262927185","","","","","","","","","","","","75","K","2","","","159","main_expt"
"","bandit","239","648740","0.0-200.0-0.0","74750001","wem/bandit_either_2","A1Y9VA9FKJLS5K","either","6","282","","","","","","","0","0","1","0.1289005464","","0.2","0.6","0.4","0.8","","","","","0.3188379944","0.4834703177","0.1327856751","0.1289005464","","","","","","","","76","L","3","","","160","main_expt"
"","bandit","240","650480","0.0-201.0-0.0","74750001","wem/bandit_either_2","A1Y9VA9FKJLS5K","either","6","215","","","","","","","0","1","0","","0.3918259889","0.2","0.6","0.4","0.8","0.3918259889","0.4783639554","0.1936248495","0.07062595825","","","","","","","","","","","","72","H","0","img/none_selected.jpg","","161","main_expt"
"","bandit","241","652121","0.0-202.0-0.0","74750001","wem/bandit_either_2","A1Y9VA9FKJLS5K","either","6","117","","","","","","","0","0","1","","0.3825352776","0.2","0.6","0.4","0.8","0.3825352776","0.4702379588","0.1917288119","0.08554885259","","","","","","","","","","","","72","H","0","img/none_selected.jpg","","162","main_expt"
"","bandit","242","653895","0.0-203.0-0.0","74750001","wem/bandit_either_2","A1Y9VA9FKJLS5K","either","6","249","","","","","","","1","0","0","0.4761999765","","0.2","0.6","0.4","0.8","","","","","0.3500114378","0.4761999765","0.2410074379","0.05790820845","","","","","","","","74","J","1","","","163","main_expt"
"","bandit","243","655614","0.0-204.0-0.0","74750001","wem/bandit_either_2","A1Y9VA9FKJLS5K","either","6","196","","","","","","","0","0","1","0.4683988395","","0.2","0.6","0.4","0.8","","","","","0.3138306729","0.4683988395","0.2717164652","0.04744410613","","","","","","","","74","J","1","","","164","main_expt"
"","bandit","244","657350","0.0-205.0-0.0","74750001","wem/bandit_either_2","A1Y9VA9FKJLS5K","either","6","213","","","","","","","0","0","1","0.3360488911","","0.2","0.6","0.4","0.8","","","","","0.3066591237","0.4594806004","0.3360488911","0.07721988326","","","","","","","","75","K","2","","","165","main_expt"
"","bandit","245","658899","0.0-206.0-0.0","74750001","wem/bandit_either_2","A1Y9VA9FKJLS5K","either","6","27","","","","","","","0","0","1","0.09276645858","","0.2","0.6","0.4","0.8","","","","","0.359337808","0.4769271284","0.3288768439","0.09276645858","","","","","","","","76","L","3","","","166","main_expt"
"","bandit","246","660617","0.0-207.0-0.0","74750001","wem/bandit_either_2","A1Y9VA9FKJLS5K","either","6","182","","","","","","","0","0","1","","0.3888119778","0.2","0.6","0.4","0.8","0.3888119778","0.4824675089","0.341079324","0.1092251717","","","","","","","","","","","","72","H","0","img/none_selected.jpg","","167","main_expt"
"","bandit","247","662635","0.0-208.0-0.0","74750001","wem/bandit_either_2","A1Y9VA9FKJLS5K","either","6","505","","","","","","","0","0","1","","0.4731218304","0.2","0.6","0.4","0.8","0.3188253523","0.4731218304","0.2972081376","0.09704797424","","","","","","","","","","","","74","J","1","","","168","main_expt"
"","bandit","248","664447","0.0-209.0-0.0","74750001","wem/bandit_either_2","A1Y9VA9FKJLS5K","either","6","301","","","","","","","0","0","1","0.2716537329","","0.2","0.6","0.4","0.8","","","","","0.3035082617","0.4558692975","0.2716537329","0.1131958007","","","","","","","","75","K","2","","","169","main_expt"
"","bandit","249","666223","0.0-210.0-0.0","74750001","wem/bandit_either_2","A1Y9VA9FKJLS5K","either","6","261","","","","","","","1","0","0","0.1636150477","","0.2","0.6","0.4","0.8","","","","","0.3540810543","0.424927817","0.3705489528","0.1636150477","","","","","","","","76","L","3","","","170","main_expt"
"","bandit","250","668033","0.0-211.0-0.0","74750001","wem/bandit_either_2","A1Y9VA9FKJLS5K","either","6","279","","","","","","","0","0","1","0.1889182236","","0.2","0.6","0.4","0.8","","","","","0.2912941695","0.4254050478","0.3259531709","0.1889182236","","","","","","","","76","L","3","","","171","main_expt"
"","bandit","251","669809","0.0-212.0-0.0","74750001","wem/bandit_either_2","A1Y9VA9FKJLS5K","either","6","254","","","","","","","0","1","0","","0.2964718019","0.2","0.6","0.4","0.8","0.2964718019","0.4319935488","0.3253578443","0.1494540944","","","","","","","","","","","","72","H","0","img/none_selected.jpg","","172","main_expt"
"","bandit","252","671568","0.0-213.0-0.0","74750001","wem/bandit_either_2","A1Y9VA9FKJLS5K","either","6","222","","","","","","","0","0","1","","0.2411205861","0.2","0.6","0.4","0.8","0.2411205861","0.4157756128","0.3133285256","0.1700291406","","","","","","","","","","","","72","H","0","img/none_selected.jpg","","173","main_expt"
"","bandit","253","673288","0.0-214.0-0.0","74750001","wem/bandit_either_2","A1Y9VA9FKJLS5K","either","6","190","","","","","","","0","1","0","","0.3650518631","0.2","0.6","0.4","0.8","0.2132737127","0.3650518631","0.3470844982","0.2007600912","","","","","","","","","","","","74","J","1","","","174","main_expt"
"","bandit","254","675087","0.0-215.0-0.0","74750001","wem/bandit_either_2","A1Y9VA9FKJLS5K","either","6","285","","","","","","","0","0","1","0.3583375904","","0.2","0.6","0.4","0.8","","","","","0.2722172758","0.3583375904","0.3615725976","0.1613291475","","","","","","","","74","J","1","","","175","main_expt"
"","bandit","255","676841","0.0-216.0-0.0","74750001","wem/bandit_either_2","A1Y9VA9FKJLS5K","either","6","220","","","","","","","1","0","0","0.3592449917","","0.2","0.6","0.4","0.8","","","","","0.3158297255","0.3849487833","0.3592449917","0.1618540135","","","","","","","","75","K","2","","","176","main_expt"
"","bandit","256","678606","0.0-217.0-0.0","74750001","wem/bandit_either_2","A1Y9VA9FKJLS5K","either","6","247","","","","","","","0","0","1","","0.3614776984","0.2","0.6","0.4","0.8","0.3033070912","0.3741193846","0.3614776984","0.1337509382","","","","","","","","","","","","75","K","2","","","177","main_expt"
"","bandit","257","680285","0.0-218.0-0.0","74750001","wem/bandit_either_2","A1Y9VA9FKJLS5K","either","6","153","","","","","","","1","0","0","0.172909152","","0.2","0.6","0.4","0.8","","","","","0.3070990366","0.3704436283","0.4042649322","0.172909152","","","","","","","","76","L","3","","","178","main_expt"
"","bandit","258","682006","0.0-219.0-0.0","74750001","wem/bandit_either_2","A1Y9VA9FKJLS5K","either","6","194","","","","","","","1","0","0","0.2306318455","","0.2","0.6","0.4","0.8","","","","","0.349206168","0.3718647044","0.3626499081","0.2306318455","","","","","","","","76","L","3","","","179","main_expt"
"","bandit","259","683966","0.0-220.0-0.0","74750001","wem/bandit_either_2","A1Y9VA9FKJLS5K","either","6","434","","","","","","","0","0","1","0.2531752843","","0.2","0.6","0.4","0.8","","","","","0.3533593609","0.3144845341","0.365831292","0.2531752843","","","","","","","","76","L","3","","","180","main_expt"
"","bandit","260","685503","0.0-221.0-0.0","74750001","wem/bandit_either_2","A1Y9VA9FKJLS5K","either","6","17","","","","","","","0","1","0","","0.3792633926","0.2","0.6","0.4","0.8","0.3792633926","0.3328992573","0.3720079561","0.2995137733","","","","","","","","","","","","72","H","0","img/none_selected.jpg","","181","main_expt"
"","bandit","261","687241","0.0-222.0-0.0","74750001","wem/bandit_either_2","A1Y9VA9FKJLS5K","either","6","219","","","","","","","0","1","0","","0.4170401524","0.2","0.6","0.4","0.8","0.4170401524","0.3443004049","0.3747751333","0.2818604164","","","","","","","","","","","","72","H","0","img/none_selected.jpg","","182","main_expt"
"","bandit","262","689038","0.0-223.0-0.0","74750001","wem/bandit_either_2","A1Y9VA9FKJLS5K","either","6","279","","","","","","","0","1","0","","0.4349898381","0.2","0.6","0.4","0.8","0.4349898381","0.3572445505","0.3772869326","0.2706787236","","","","","","","","","","","","72","H","0","img/none_selected.jpg","","183","main_expt"
"","bandit","263","690836","0.0-224.0-0.0","74750001","wem/bandit_either_2","A1Y9VA9FKJLS5K","either","6","268","","","","","","","0","0","1","0.4355724899","","0.2","0.6","0.4","0.8","","","","","0.4355724899","0.358140682","0.3719200221","0.2788381055","","","","","","","","72","H","0","img/none_selected.jpg","","184","main_expt"
"","bandit","264","692633","0.0-225.0-0.0","74750001","wem/bandit_either_2","A1Y9VA9FKJLS5K","either","6","268","","","","","","","0","1","0","","0.2938856532","0.2","0.6","0.4","0.8","0.443517249","0.2938856532","0.3759280431","0.2591604306","","","","","","","","","","","","74","J","1","","","185","main_expt"
"","bandit","265","694311","0.0-226.0-0.0","74750001","wem/bandit_either_2","A1Y9VA9FKJLS5K","either","6","144","","","","","","","0","0","1","0.2570442146","","0.2","0.6","0.4","0.8","","","","","0.4185550765","0.2570442146","0.3686405037","0.1717283936","","","","","","","","74","J","1","","","186","main_expt"
"","bandit","266","696071","0.0-227.0-0.0","74750001","wem/bandit_either_2","A1Y9VA9FKJLS5K","either","6","231","","","","","","","0","0","1","0.3693778387","","0.2","0.6","0.4","0.8","","","","","0.4582246802","0.2781151114","0.3693778387","0.1399016055","","","","","","","","75","K","2","","","187","main_expt"
"","bandit","267","697761","0.0-228.0-0.0","74750001","wem/bandit_either_2","A1Y9VA9FKJLS5K","either","6","165","","","","","","","0","0","1","0.116743447","","0.2","0.6","0.4","0.8","","","","","0.4499637214","0.2510368257","0.3858781765","0.116743447","","","","","","","","76","L","3","","","188","main_expt"
"","bandit","268","699498","0.0-229.0-0.0","74750001","wem/bandit_either_2","A1Y9VA9FKJLS5K","either","6","211","","","","","","","0","1","0","","0.4681283031","0.2","0.6","0.4","0.8","0.4681283031","0.2299291889","0.353665234","0.09810356538","","","","","","","","","","","","72","H","0","img/none_selected.jpg","","189","main_expt"
"","bandit","269","701243","0.0-230.0-0.0","74750001","wem/bandit_either_2","A1Y9VA9FKJLS5K","either","6","222","","","","","","","0","1","0","","0.4672384316","0.2","0.6","0.4","0.8","0.4672384316","0.2957770397","0.3702546744","0.1333212727","","","","","","","","","","","","72","H","0","img/none_selected.jpg","","190","main_expt"
"","bandit","270","703005","0.0-231.0-0.0","74750001","wem/bandit_either_2","A1Y9VA9FKJLS5K","either","6","219","","","","","","","0","0","1","","0.4633056668","0.2","0.6","0.4","0.8","0.4633056668","0.2806998676","0.3373283559","0.07289491444","","","","","","","","","","","","72","H","0","img/none_selected.jpg","","191","main_expt"
"","bandit","271","704771","0.0-232.0-0.0","74750001","wem/bandit_either_2","A1Y9VA9FKJLS5K","either","6","247","","","","","","","1","0","0","0.2578649702","","0.2","0.6","0.4","0.8","","","","","0.4701423021","0.2578649702","0.3717228864","0.09060717316","","","","","","","","74","J","1","","","192","main_expt"
"","bandit","272","706482","0.0-233.0-0.0","74750001","wem/bandit_either_2","A1Y9VA9FKJLS5K","either","6","200","","","","","","","0","0","1","","0.3019093773","0.2","0.6","0.4","0.8","0.4625827917","0.3019093773","0.3861484819","0.1038106097","","","","","","","","","","","","74","J","1","","","193","main_expt"
"","bandit","273","708229","0.0-234.0-0.0","74750001","wem/bandit_either_2","A1Y9VA9FKJLS5K","either","6","224","","","","","","","0","1","0","","0.3884838939","0.2","0.6","0.4","0.8","0.4480064119","0.3028603149","0.3884838939","0.1222204007","","","","","","","","","","","","75","K","2","","","194","main_expt"
"","bandit","274","709883","0.0-235.0-0.0","74750001","wem/bandit_either_2","A1Y9VA9FKJLS5K","either","6","131","","","","","","","0","0","1","","0.4058549971","0.2","0.6","0.4","0.8","0.4263193963","0.2933095063","0.4058549971","0.1230179676","","","","","","","","","","","","75","K","2","","","195","main_expt"
"","bandit","275","711666","0.0-236.0-0.0","74750001","wem/bandit_either_2","A1Y9VA9FKJLS5K","either","6","237","","","","","","","0","0","1","","0.1972068901","0.2","0.6","0.4","0.8","0.4399191733","0.3333663608","0.3894648227","0.1972068901","","","","","","","","","","","","76","L","3","","","196","main_expt"
"","bandit","276","713329","0.0-237.0-0.0","74750001","wem/bandit_either_2","A1Y9VA9FKJLS5K","either","6","145","","","","","","","1","0","0","0.4303685687","","0.2","0.6","0.4","0.8","","","","","0.4303685687","0.3472763543","0.3452919481","0.2091218652","","","","","","","","72","H","0","img/none_selected.jpg","","197","main_expt"
"","bandit","277","715007","0.0-238.0-0.0","74750001","wem/bandit_either_2","A1Y9VA9FKJLS5K","either","6","152","","","","","","","0","0","1","0.4166638701","","0.2","0.6","0.4","0.8","","","","","0.4166638701","0.3420385624","0.3571156804","0.2316117542","","","","","","","","72","H","0","img/none_selected.jpg","","198","main_expt"
"","bandit","278","716675","0.0-239.0-0.0","74750001","wem/bandit_either_2","A1Y9VA9FKJLS5K","either","6","153","","","","","","","0","0","1","0.3009927129","","0.2","0.6","0.4","0.8","","","","","0.4166192342","0.3009927129","0.3761278261","0.1983173389","","","","","","","","74","J","1","","","199","main_expt"
"","bandit","279","718286","0.0-240.0-0.0","74750001","wem/bandit_either_2","A1Y9VA9FKJLS5K","either","6","88","","","","","","","1","0","0","0.3623939384","","0.2","0.6","0.4","0.8","","","","","0.4065109498","0.2834367318","0.3623939384","0.2275108597","","","","","","","","75","K","2","","","200","main_expt"
"","bandit","280","719944","0.0-241.0-0.0","74750001","wem/bandit_either_2","A1Y9VA9FKJLS5K","either","6","139","","","","","","","0","0","1","0.3470966653","","0.2","0.6","0.4","0.8","","","","","0.4210367682","0.2305195973","0.3470966653","0.2753755663","","","","","","","","75","K","2","","","201","main_expt"
"","bandit","281","721540","0.0-242.0-0.0","74750001","wem/bandit_either_2","A1Y9VA9FKJLS5K","either","6","71","","","","","","","1","0","0","0.2867984519","","0.2","0.6","0.4","0.8","","","","","0.4059774394","0.236439039","0.3738670455","0.2867984519","","","","","","","","76","L","3","","","202","main_expt"
"","bandit","282","723089","0.0-243.0-0.0","74750001","wem/bandit_either_2","A1Y9VA9FKJLS5K","either","6","38","","","","","","","0","0","1","","0.227681123","0.2","0.6","0.4","0.8","0.4217634448","0.207292508","0.4434414113","0.227681123","","","","","","","","","","","","76","L","3","","","203","main_expt"
"","bandit","283","724689","0.0-244.0-0.0","74750001","wem/bandit_either_2","A1Y9VA9FKJLS5K","either","6","79","","","","","","","0","1","0","","0.417590799","0.2","0.6","0.4","0.8","0.417590799","0.2706274655","0.4363530878","0.2421814767","","","","","","","","","","","","72","H","0","img/none_selected.jpg","","204","main_expt"
"","bandit","284","726284","0.0-245.0-0.0","74750001","wem/bandit_either_2","A1Y9VA9FKJLS5K","either","6","74","","","","","","","0","1","0","","0.3892328218","0.2","0.6","0.4","0.8","0.3892328218","0.2688171721","0.4390009565","0.2250127273","","","","","","","","","","","","72","H","0","img/none_selected.jpg","","205","main_expt"
"","bandit","285","728078","0.0-246.0-0.0","74750001","wem/bandit_either_2","A1Y9VA9FKJLS5K","either","6","261","","","","","","","0","0","1","0.3877758809","","0.2","0.6","0.4","0.8","","","","","0.3877758809","0.2774640617","0.4606838579","0.2148063869","","","","","","","","72","H","0","img/none_selected.jpg","","206","main_expt"
"","bandit","286","729870","0.0-247.0-0.0","74750001","wem/bandit_either_2","A1Y9VA9FKJLS5K","either","6","254","","","","","","","0","1","0","","0.31303597","0.2","0.6","0.4","0.8","0.3344078408","0.31303597","0.4679198071","0.2370073307","","","","","","","","","","","","74","J","1","","","207","main_expt"
"","bandit","287","731600","0.0-248.0-0.0","74750001","wem/bandit_either_2","A1Y9VA9FKJLS5K","either","6","217","","","","","","","0","1","0","","0.3187850143","0.2","0.6","0.4","0.8","0.3285414067","0.3187850143","0.4731710197","0.1736764344","","","","","","","","","","","","74","J","1","","","208","main_expt"
"","bandit","288","733625","0.0-249.0-0.0","74750001","wem/bandit_either_2","A1Y9VA9FKJLS5K","either","6","518","","","","","","","1","0","0","0.3031297305","","0.2","0.6","0.4","0.8","","","","","0.337659841","0.3031297305","0.472507437","0.2033963155","","","","","","","","74","J","1","","","209","main_expt"
"","bandit","289","735367","0.0-250.0-0.0","74750001","wem/bandit_either_2","A1Y9VA9FKJLS5K","either","6","211","","","","","","","0","1","0","","0.3593083662","0.2","0.6","0.4","0.8","0.322880172","0.3593083662","0.4759946166","0.1849029676","","","","","","","","","","","","74","J","1","","","210","main_expt"
"","bandit","290","737118","0.0-251.0-0.0","74750001","wem/bandit_either_2","A1Y9VA9FKJLS5K","either","6","224","","","","","","","0","1","0","","0.3758292662","0.2","0.6","0.4","0.8","0.3440981268","0.3758292662","0.4838002785","0.08033524441","","","","","","","","","","","","74","J","1","","","211","main_expt"
"","bandit","291","738735","0.0-252.0-0.0","74750001","wem/bandit_either_2","A1Y9VA9FKJLS5K","either","6","94","","","","","","","1","0","0","0.3771764803","","0.2","0.6","0.4","0.8","","","","","0.3135232579","0.3771764803","0.4871609062","0.1024936548","","","","","","","","74","J","1","","","212","main_expt"
"","bandit","292","740481","0.0-253.0-0.0","74750001","wem/bandit_either_2","A1Y9VA9FKJLS5K","either","6","201","","","","","","","1","0","0","0.3935517348","","0.2","0.6","0.4","0.8","","","","","0.328558382","0.3935517348","0.4829725273","0.1380366818","","","","","","","","74","J","1","","","213","main_expt"
"","bandit","293","742235","0.0-254.0-0.0","74750001","wem/bandit_either_2","A1Y9VA9FKJLS5K","either","6","235","","","","","","","0","0","1","","0.3792377037","0.2","0.6","0.4","0.8","0.3024402918","0.3792377037","0.4742933803","0.1206441992","","","","","","","","","","","","74","J","1","","","214","main_expt"
"","bandit","294","743916","0.0-255.0-0.0","74750001","wem/bandit_either_2","A1Y9VA9FKJLS5K","either","6","159","","","","","","","0","0","1","","0.4754417465","0.2","0.6","0.4","0.8","0.3024001881","0.3364308411","0.4754417465","0.1320715796","","","","","","","","","","","","75","K","2","","","215","main_expt"
"","bandit","295","745729","0.0-256.0-0.0","74750001","wem/bandit_either_2","A1Y9VA9FKJLS5K","either","6","265","","","","","","","0","0","1","","0.1152906885","0.2","0.6","0.4","0.8","0.2975117226","0.3348871659","0.4764866221","0.1152906885","","","","","","","","","","","","76","L","3","","","216","main_expt"
"","bandit","296","747531","0.0-257.0-0.0","74750001","wem/bandit_either_2","A1Y9VA9FKJLS5K","either","6","252","","","","","","","0","1","0","","0.3331298207","0.2","0.6","0.4","0.8","0.3331298207","0.321293363","0.4727866334","0.1191406027","","","","","","","","","","","","72","H","0","img/none_selected.jpg","","217","main_expt"
"","bandit","297","749151","0.0-258.0-0.0","74750001","wem/bandit_either_2","A1Y9VA9FKJLS5K","either","6","96","","","","","","","0","0","1","","0.2905667849","0.2","0.6","0.4","0.8","0.2905667849","0.3530973922","0.4664653133","0.1177717736","","","","","","","","","","","","72","H","0","img/none_selected.jpg","","218","main_expt"
"","bandit","298","751110","0.0-259.0-0.0","74750001","wem/bandit_either_2","A1Y9VA9FKJLS5K","either","6","420","","","","","","","0","0","1","","0.2701708387","0.2","0.6","0.4","0.8","0.2701708387","0.3837093308","0.4636837267","0.1178729669","","","","","","","","","","","","72","H","0","img/none_selected.jpg","","219","main_expt"
"","bandit","299","752799","0.0-260.0-0.0","74750001","wem/bandit_either_2","A1Y9VA9FKJLS5K","either","6","163","","","","","","","0","0","1","0.3651541458","","0.2","0.6","0.4","0.8","","","","","0.2395453957","0.3651541458","0.4599900571","0.1284790336","","","","","","","","74","J","1","","","220","main_expt"
"","bandit","300","754412","0.0-261.0-0.0","74750001","wem/bandit_either_2","A1Y9VA9FKJLS5K","either","6","94","","","","","","","0","1","0","","0.4490722186","0.2","0.6","0.4","0.8","0.2770622605","0.254085412","0.4490722186","0.147465279","","","","","","","","","","","","75","K","2","","","221","main_expt"
"","bandit","301","756076","0.0-262.0-0.0","74750001","wem/bandit_either_2","A1Y9VA9FKJLS5K","either","6","139","","","","","","","0","0","1","0.4253353094","","0.2","0.6","0.4","0.8","","","","","0.3390746663","0.2590796483","0.4253353094","0.1441925756","","","","","","","","75","K","2","","","222","main_expt"
"","bandit","302","757848","0.0-263.0-0.0","74750001","wem/bandit_either_2","A1Y9VA9FKJLS5K","either","6","239","","","","","","","0","0","1","0.1731110736","","0.2","0.6","0.4","0.8","","","","","0.384843876","0.2640852941","0.4559825987","0.1731110736","","","","","","","","76","L","3","","","223","main_expt"
"","bandit","303","759508","0.0-264.0-0.0","74750001","wem/bandit_either_2","A1Y9VA9FKJLS5K","either","6","138","","","","","","","0","1","0","","0.4367619307","0.2","0.6","0.4","0.8","0.4367619307","0.2636590797","0.464560515","0.1124600034","","","","","","","","","","","","72","H","0","img/none_selected.jpg","","224","main_expt"
"","bandit","304","761124","0.0-265.0-0.0","74750001","wem/bandit_either_2","A1Y9VA9FKJLS5K","either","6","85","","","","","","","1","0","0","0.42055701","","0.2","0.6","0.4","0.8","","","","","0.42055701","0.3110444069","0.4528378766","0.1174510337","","","","","","","","72","H","0","img/none_selected.jpg","","225","main_expt"
"","bandit","305","762678","0.0-266.0-0.0","74750001","wem/bandit_either_2","A1Y9VA9FKJLS5K","either","6","28","","","","","","","0","1","0","","0.4282593698","0.2","0.6","0.4","0.8","0.4282593698","0.3268768972","0.4585160156","0.1494320736","","","","","","","","","","","","72","H","0","img/none_selected.jpg","","226","main_expt"
"","bandit","306","764325","0.0-267.0-0.0","74750001","wem/bandit_either_2","A1Y9VA9FKJLS5K","either","6","114","","","","","","","0","0","1","","0.4213985596","0.2","0.6","0.4","0.8","0.4213985596","0.3112991039","0.4525914875","0.1655037845","","","","","","","","","","","","72","H","0","img/none_selected.jpg","","227","main_expt"
"","bandit","307","765981","0.0-268.0-0.0","74750001","wem/bandit_either_2","A1Y9VA9FKJLS5K","either","6","136","","","","","","","0","0","1","","0.3481066565","0.2","0.6","0.4","0.8","0.4115599459","0.3481066565","0.4618810074","0.1595877114","","","","","","","","","","","","74","J","1","","","228","main_expt"
"","bandit","308","767553","0.0-269.0-0.0","74750001","wem/bandit_either_2","A1Y9VA9FKJLS5K","either","6","46","","","","","","","0","0","1","","0.4661541784","0.2","0.6","0.4","0.8","0.375967734","0.3267856819","0.4661541784","0.1811982871","","","","","","","","","","","","75","K","2","","","229","main_expt"
"","bandit","309","769113","0.0-270.0-0.0","74750001","wem/bandit_either_2","A1Y9VA9FKJLS5K","either","6","43","","","","","","","1","0","0","0.2088208598","","0.2","0.6","0.4","0.8","","","","","0.4172813036","0.3043034776","0.4681373403","0.2088208598","","","","","","","","76","L","3","","","230","main_expt"
"","bandit","310","770794","0.0-271.0-0.0","74750001","wem/bandit_either_2","A1Y9VA9FKJLS5K","either","6","158","","","","","","","0","0","1","0.2062946352","","0.2","0.6","0.4","0.8","","","","","0.3871641603","0.3127123154","0.4733838814","0.2062946352","","","","","","","","76","L","3","","","231","main_expt"
"","bandit","311","772583","0.0-272.0-0.0","74750001","wem/bandit_either_2","A1Y9VA9FKJLS5K","either","6","252","","","","","","","0","0","1","0.3381606844","","0.2","0.6","0.4","0.8","","","","","0.3381606844","0.3039198066","0.455942125","0.1448621505","","","","","","","","72","H","0","img/none_selected.jpg","","232","main_expt"
"","bandit","312","774200","0.0-273.0-0.0","74750001","wem/bandit_either_2","A1Y9VA9FKJLS5K","either","6","93","","","","","","","1","0","0","0.2846072758","","0.2","0.6","0.4","0.8","","","","","0.2918198365","0.2846072758","0.4523014459","0.1096360744","","","","","","","","74","J","1","","","233","main_expt"
"","bandit","313","775814","0.0-274.0-0.0","74750001","wem/bandit_either_2","A1Y9VA9FKJLS5K","either","6","92","","","","","","","0","0","1","0.2430061478","","0.2","0.6","0.4","0.8","","","","","0.3016980071","0.2430061478","0.4715877437","0.1102272527","","","","","","","","74","J","1","","","234","main_expt"
"","bandit","314","777523","0.0-275.0-0.0","74750001","wem/bandit_either_2","A1Y9VA9FKJLS5K","either","6","174","","","","","","","0","0","1","0.4667146267","","0.2","0.6","0.4","0.8","","","","","0.2940059945","0.263037213","0.4667146267","0.1428859574","","","","","","","","75","K","2","","","235","main_expt"
"","bandit","315","779309","0.0-276.0-0.0","74750001","wem/bandit_either_2","A1Y9VA9FKJLS5K","either","6","276","","","","","","","0","0","1","","0.1659437887","0.2","0.6","0.4","0.8","0.2926833733","0.2976510001","0.4638430617","0.1659437887","","","","","","","","","","","","76","L","3","","","236","main_expt"
"","bandit","316","781030","0.0-277.0-0.0","74750001","wem/bandit_either_2","A1Y9VA9FKJLS5K","either","6","202","","","","","","","0","1","0","","0.278351659","0.2","0.6","0.4","0.8","0.278351659","0.2789990486","0.4584702359","0.1948695303","","","","","","","","","","","","72","H","0","img/none_selected.jpg","","237","main_expt"
"","bandit","317","782634","0.0-278.0-0.0","74750001","wem/bandit_either_2","A1Y9VA9FKJLS5K","either","6","79","","","","","","","0","0","1","","0.2475781625","0.2","0.6","0.4","0.8","0.2475781625","0.2760904485","0.4297714473","0.2231382717","","","","","","","","","","","","72","H","0","img/none_selected.jpg","","238","main_expt"
"","bandit","318","784332","0.0-279.0-0.0","74750001","wem/bandit_either_2","A1Y9VA9FKJLS5K","either","6","168","","","","","","","0","0","1","0.2679201555","","0.2","0.6","0.4","0.8","","","","","0.2476463542","0.2679201555","0.4225482751","0.2118273477","","","","","","","","74","J","1","","","239","main_expt"
"","bandit","319","785860","0.0-280.0-0.0","74750001","wem/bandit_either_2","A1Y9VA9FKJLS5K","either","6","1","","","","","","","0","0","1","0.3911766626","","0.2","0.6","0.4","0.8","","","","","0.2691810592","0.1815101208","0.3911766626","0.175879666","","","","","","","","75","K","2","","","240","main_expt"
"","bandit","320","787633","0.0-281.0-0.0","74750001","wem/bandit_either_2","A1Y9VA9FKJLS5K","either","6","239","","","","","","","1","0","0","0.2619723004","","0.2","0.6","0.4","0.8","","","","","0.2600118225","0.2107278188","0.3576719612","0.2619723004","","","","","","","","76","L","3","","","241","main_expt"
"","bandit","321","789406","0.0-282.0-0.0","74750001","wem/bandit_either_2","A1Y9VA9FKJLS5K","either","6","246","","","","","","","0","0","1","0.253357122","","0.2","0.6","0.4","0.8","","","","","0.2585740571","0.1890457695","0.3649942216","0.253357122","","","","","","","","76","L","3","","","242","main_expt"
"","bandit","322","791223","0.0-283.0-0.0","74750001","wem/bandit_either_2","A1Y9VA9FKJLS5K","either","6","283","","","","","","","0","0","1","","0.1943885749","0.2","0.6","0.4","0.8","0.1943885749","0.1983598585","0.3462843793","0.2937411872","","","","","","","","","","","","72","H","0","img/none_selected.jpg","","243","main_expt"
"","bandit","323","792744","0.0-284.0-0.0","74750001","wem/bandit_either_2","A1Y9VA9FKJLS5K","either","6","1","","","","","","","0","0","1","","0.2165838592","0.2","0.6","0.4","0.8","0.1861062248","0.2165838592","0.3520149162","0.2743784529","","","","","","","","","","","","74","J","1","","","244","main_expt"
"","bandit","324","794530","0.0-285.0-0.0","74750001","wem/bandit_either_2","A1Y9VA9FKJLS5K","either","6","269","","","","","","","0","0","1","0.3483485742","","0.2","0.6","0.4","0.8","","","","","0.1398782291","0.1823109088","0.3483485742","0.2734657034","","","","","","","","75","K","2","","","245","main_expt"
"","bandit","325","796311","0.0-286.0-0.0","74750001","wem/bandit_either_2","A1Y9VA9FKJLS5K","either","6","251","","","","","","","0","0","1","0.2285423815","","0.2","0.6","0.4","0.8","","","","","0.1392076576","0.172760958","0.3814570076","0.2285423815","","","","","","","","76","L","3","","","246","main_expt"
"","bandit","326","798102","0.0-287.0-0.0","74750001","wem/bandit_either_2","A1Y9VA9FKJLS5K","either","6","256","","","","","","","0","0","1","","0.2028121248","0.2","0.6","0.4","0.8","0.2028121248","0.1955602127","0.3871035364","0.269943793","","","","","","","","","","","","72","H","0","img/none_selected.jpg","","247","main_expt"
