"consent","trial_type","trial_index","time_elapsed","internal_node_id","subjID","study","MID","cond","drift","rt","responses","key_press","expt_phase","like","value","connected","gems","bombs","no_reward","GemPrChosen","BombPrChosen","GainOverPainPr_0","GainOverPainPr_1","GainOverPainPr_2","GainOverPainPr_3","LosePr_0","LosePr_1","LosePr_2","LosePr_3","WinPr_0","WinPr_1","WinPr_2","WinPr_3","Q0","Q1","Q2","gender","age","ethnicity","target","respCharCode","respKey","respChoiceNum","respChoice","practice","trial_counter","trial_label"
"INL_behavioral_consent_30min_online.html","consent","0","37060","0.0-0.0","76317503","wem/bandit_either_2","A2VD133723IZR8","either","2","","","","","","","","","","","","","","","","","","","","","","","","","","","","","","","","","","","","","",""
"","survey-text","1","41373","0.0-1.0","76317503","wem/bandit_either_2","A2VD133723IZR8","either","2","3297","{""Q0"":""A2VD133723IZR8""}","","","","","","","","","","","","","","","","","","","","","","","","","","","","","","","","","","","",""
"","text","2","53102","0.0-2.0","76317503","wem/bandit_either_2","A2VD133723IZR8","either","2","10724","","32","","","","","","","","","","","","","","","","","","","","","","","","","","","","","","","","","","",""
"","text","3","58808","0.0-3.0","76317503","wem/bandit_either_2","A2VD133723IZR8","either","2","5703","","32","","","","","","","","","","","","","","","","","","","","","","","","","","","","","","","","","","",""
"","text","4","79032","0.0-4.0","76317503","wem/bandit_either_2","A2VD133723IZR8","either","2","20222","","32","","","","","","","","","","","","","","","","","","","","","","","","","","","","","","","","","","",""
"","text","5","100522","0.0-5.0","76317503","wem/bandit_either_2","A2VD133723IZR8","either","2","21488","","32","","","","","","","","","","","","","","","","","","","","","","","","","","","","","","","","","","",""
"","text","6","124637","0.0-6.0","76317503","wem/bandit_either_2","A2VD133723IZR8","either","2","24113","","32","","","","","","","","","","","","","","","","","","","","","","","","","","","","","","","","","","",""
"","text","7","132786","0.0-7.0","76317503","wem/bandit_either_2","A2VD133723IZR8","either","2","8146","","32","","","","","","","","","","","","","","","","","","","","","","","","","","","","","","","","","","",""
"","text","8","136955","0.0-8.0","76317503","wem/bandit_either_2","A2VD133723IZR8","either","2","4167","","32","","","","","","","","","","","","","","","","","","","","","","","","","","","","","","","","","","",""
"","identification","9","143743","0.0-9.0-0.0","76317503","wem/bandit_either_2","A2VD133723IZR8","either","2","6757","","","","3","3","2","","","","","","","","","","","","","","","","","","","","","","","","the village of Zur","","","","","","",""
"","identification","10","148502","0.0-9.0-1.0","76317503","wem/bandit_either_2","A2VD133723IZR8","either","2","3733","","","","3","3","2","","","","","","","","","","","","","","","","","","","","","","","","the village of Nyx","","","","","","",""
"","text","11","154874","0.0-10.0","76317503","wem/bandit_either_2","A2VD133723IZR8","either","2","5368","","32","","","","","","","","","","","","","","","","","","","","","","","","","","","","","","","","","","",""
"","text","12","156078","0.0-11.0","76317503","wem/bandit_either_2","A2VD133723IZR8","either","2","1202","","32","","","","","","","","","","","","","","","","","","","","","","","","","","","","","","","","","","",""
"","text","13","157914","0.0-12.0","76317503","wem/bandit_either_2","A2VD133723IZR8","either","2","1833","","32","","","","","","","","","","","","","","","","","","","","","","","","","","","","","","","","","","",""
"","text","14","162173","0.0-13.0","76317503","wem/bandit_either_2","A2VD133723IZR8","either","2","4257","","32","","","","","","","","","","","","","","","","","","","","","","","","","","","","","","","","","","",""
"","bandit","15","168512","0.0-14.0-0.0","76317503","wem/bandit_either_2","A2VD133723IZR8","either","2","4828","","","","","","","0","0","1","0","0","","","","","0","","","","0","","","","","","","","","","","74","J","0","img/none_selected_demo.jpg","true","0",""
"","bandit","16","172804","0.0-15.0-0.0","76317503","wem/bandit_either_2","A2VD133723IZR8","either","2","2783","","","","","","","0","0","1","0","0","","","","","0","","","","0","","","","","","","","","","","75","K","0","img/none_selected_demo.jpg","true","0",""
"","text","17","178056","0.0-16.0","76317503","wem/bandit_either_2","A2VD133723IZR8","either","2","5248","","32","","","","","","","","","","","","","","","","","","","","","","","","","","","","","","","","","","",""
"","text","18","187482","0.0-17.0","76317503","wem/bandit_either_2","A2VD133723IZR8","either","2","9423","","32","","","","","","","","","","","","","","","","","","","","","","","","","","","","","","","","","","",""
"","text","19","192024","0.0-18.0","76317503","wem/bandit_either_2","A2VD133723IZR8","either","2","4538","","32","","","","","","","","","","","","","","","","","","","","","","","","","","","","","","","","","","",""
"","text","20","196635","0.0-19.0","76317503","wem/bandit_either_2","A2VD133723IZR8","either","2","4586","","32","","","","","","","","","","","","","","","","","","","","","","","","","","","","","","","","","","",""
"","bandit","21","199281","0.0-20.0-0.0","76317503","wem/bandit_either_2","A2VD133723IZR8","either","2","1132","","","","","","","0","1","0","","0.8","0.5","0.5","","","0.8","0.2","","","","","","","","","","","","","","74","J","0","img/none_selected_demo.jpg","true","0","80_20_practice"
"","bandit","22","201262","0.0-20.0-1.0","76317503","wem/bandit_either_2","A2VD133723IZR8","either","2","472","","","","","","","0","0","1","","0.2","0.5","0.5","","","0.8","0.2","","","","","","","","","","","","","","75","K","1","","true","0","80_20_practice"
"","bandit","23","203138","0.0-20.0-2.0","76317503","wem/bandit_either_2","A2VD133723IZR8","either","2","368","","","","","","","0","0","1","0.2","","0.5","0.5","","","","","","","0.8","0.2","","","","","","","","","","75","K","1","","true","0","80_20_practice"
"","bandit","24","205011","0.0-20.0-3.0","76317503","wem/bandit_either_2","A2VD133723IZR8","either","2","365","","","","","","","1","0","0","0.8","","0.5","0.5","","","","","","","0.8","0.2","","","","","","","","","","74","J","0","img/none_selected_demo.jpg","true","0","80_20_practice"
"","bandit","25","207097","0.0-20.0-4.0","76317503","wem/bandit_either_2","A2VD133723IZR8","either","2","578","","","","","","","0","0","1","0.8","","0.5","0.5","","","","","","","0.8","0.2","","","","","","","","","","74","J","0","img/none_selected_demo.jpg","true","0","80_20_practice"
"","bandit","26","208870","0.0-20.0-5.0","76317503","wem/bandit_either_2","A2VD133723IZR8","either","2","264","","","","","","","0","0","1","0.2","","0.5","0.5","","","","","","","0.8","0.2","","","","","","","","","","75","K","1","","true","0","80_20_practice"
"","bandit","27","210728","0.0-20.0-6.0","76317503","wem/bandit_either_2","A2VD133723IZR8","either","2","350","","","","","","","0","0","1","","0.2","0.5","0.5","","","0.8","0.2","","","","","","","","","","","","","","75","K","1","","true","0","80_20_practice"
"","bandit","28","212972","0.0-20.0-7.0","76317503","wem/bandit_either_2","A2VD133723IZR8","either","2","734","","","","","","","1","0","0","0.2","","0.5","0.5","","","","","","","0.8","0.2","","","","","","","","","","75","K","1","","true","0","80_20_practice"
"","bandit","29","215014","0.0-20.0-8.0","76317503","wem/bandit_either_2","A2VD133723IZR8","either","2","533","","","","","","","0","0","1","","0.2","0.5","0.5","","","0.8","0.2","","","","","","","","","","","","","","75","K","1","","true","0","80_20_practice"
"","bandit","30","216963","0.0-20.0-9.0","76317503","wem/bandit_either_2","A2VD133723IZR8","either","2","441","","","","","","","0","1","0","","0.8","0.5","0.5","","","0.8","0.2","","","","","","","","","","","","","","74","J","0","img/none_selected_demo.jpg","true","0","80_20_practice"
"","bandit","31","218777","0.0-20.0-10.0","76317503","wem/bandit_either_2","A2VD133723IZR8","either","2","306","","","","","","","0","1","0","","0.8","0.5","0.5","","","0.8","0.2","","","","","","","","","","","","","","74","J","0","img/none_selected_demo.jpg","true","0","80_20_practice"
"","bandit","32","220616","0.0-20.0-11.0","76317503","wem/bandit_either_2","A2VD133723IZR8","either","2","332","","","","","","","0","0","1","","0.2","0.5","0.5","","","0.8","0.2","","","","","","","","","","","","","","75","K","1","","true","0","80_20_practice"
"","bandit","33","222646","0.0-20.0-12.0","76317503","wem/bandit_either_2","A2VD133723IZR8","either","2","523","","","","","","","0","0","1","","0.2","0.5","0.5","","","0.8","0.2","","","","","","","","","","","","","","75","K","1","","true","0","80_20_practice"
"","bandit","34","224338","0.0-20.0-13.0","76317503","wem/bandit_either_2","A2VD133723IZR8","either","2","181","","","","","","","0","0","1","","0.2","0.5","0.5","","","0.8","0.2","","","","","","","","","","","","","","75","K","1","","true","0","80_20_practice"
"","bandit","35","226133","0.0-20.0-14.0","76317503","wem/bandit_either_2","A2VD133723IZR8","either","2","283","","","","","","","0","1","0","","0.8","0.5","0.5","","","0.8","0.2","","","","","","","","","","","","","","74","J","0","img/none_selected_demo.jpg","true","0","80_20_practice"
"","bandit","36","227852","0.0-20.0-15.0","76317503","wem/bandit_either_2","A2VD133723IZR8","either","2","206","","","","","","","1","0","0","0.8","","0.5","0.5","","","","","","","0.8","0.2","","","","","","","","","","74","J","0","img/none_selected_demo.jpg","true","0","80_20_practice"
"","bandit","37","229550","0.0-20.0-16.0","76317503","wem/bandit_either_2","A2VD133723IZR8","either","2","189","","","","","","","0","1","0","","0.8","0.5","0.5","","","0.8","0.2","","","","","","","","","","","","","","74","J","0","img/none_selected_demo.jpg","true","0","80_20_practice"
"","bandit","38","231275","0.0-20.0-17.0","76317503","wem/bandit_either_2","A2VD133723IZR8","either","2","214","","","","","","","1","0","0","0.8","","0.5","0.5","","","","","","","0.8","0.2","","","","","","","","","","74","J","0","img/none_selected_demo.jpg","true","0","80_20_practice"
"","bandit","39","233609","0.0-20.0-18.0","76317503","wem/bandit_either_2","A2VD133723IZR8","either","2","825","","","","","","","0","1","0","","0.8","0.5","0.5","","","0.8","0.2","","","","","","","","","","","","","","74","J","0","img/none_selected_demo.jpg","true","0","80_20_practice"
"","bandit","40","235507","0.0-20.0-19.0","76317503","wem/bandit_either_2","A2VD133723IZR8","either","2","388","","","","","","","0","1","0","","0.8","0.5","0.5","","","0.8","0.2","","","","","","","","","","","","","","74","J","0","img/none_selected_demo.jpg","true","0","80_20_practice"
"","text","41","239122","0.0-21.0","76317503","wem/bandit_either_2","A2VD133723IZR8","either","2","3609","","32","","","","","","","","","","","","","","","","","","","","","","","","","","","","","","","","","","",""
"","bandit","42","242082","0.0-22.0-0.0","76317503","wem/bandit_either_2","A2VD133723IZR8","either","2","1452","","","","","","","1","0","0","1","0","","","","","0","1","","","1","0","","","","","","","","","","74","J","0","img/none_selected_demo.jpg","true","0",""
"","text","43","247779","0.0-23.0","76317503","wem/bandit_either_2","A2VD133723IZR8","either","2","5692","","32","","","","","","","","","","","","","","","","","","","","","","","","","","","","","","","","","","",""
"","text","44","251569","0.0-24.0","76317503","wem/bandit_either_2","A2VD133723IZR8","either","2","3787","","32","","","","","","","","","","","","","","","","","","","","","","","","","","","","","","","","","","",""
"","text","45","254156","0.0-25.0","76317503","wem/bandit_either_2","A2VD133723IZR8","either","2","2582","","32","","","","","","","","","","","","","","","","","","","","","","","","","","","","","","","","","","",""
"","text","46","257222","0.0-26.0","76317503","wem/bandit_either_2","A2VD133723IZR8","either","2","3061","","32","","","","","","","","","","","","","","","","","","","","","","","","","","","","","","","","","","",""
"","text","47","265875","0.0-27.0","76317503","wem/bandit_either_2","A2VD133723IZR8","either","2","8650","","32","","","","","","","","","","","","","","","","","","","","","","","","","","","","","","","","","","",""
"","text","48","267935","0.0-28.0","76317503","wem/bandit_either_2","A2VD133723IZR8","either","2","2056","","32","","","","","","","","","","","","","","","","","","","","","","","","","","","","","","","","","","",""
"","text","49","272173","0.0-29.0","76317503","wem/bandit_either_2","A2VD133723IZR8","either","2","4234","","32","","","","","","","","","","","","","","","","","","","","","","","","","","","","","","","","","","",""
"","text","50","276014","0.0-30.0","76317503","wem/bandit_either_2","A2VD133723IZR8","either","2","3837","","32","","","","","","","","","","","","","","","","","","","","","","","","","","","","","","","","","","",""
"","text","51","281252","0.0-31.0","76317503","wem/bandit_either_2","A2VD133723IZR8","either","2","5234","","32","","","","","","","","","","","","","","","","","","","","","","","","","","","","","","","","","","",""
"","text","52","283608","0.0-32.0","76317503","wem/bandit_either_2","A2VD133723IZR8","either","2","2353","","32","","","","","","","","","","","","","","","","","","","","","","","","","","","","","","","","","","",""
"","text","53","291611","0.0-33.0","76317503","wem/bandit_either_2","A2VD133723IZR8","either","2","7996","","32","","","","","","","","","","","","","","","","","","","","","","","","","","","","","","","","","","",""
"","bandit","54","294328","0.0-34.0-0.0","76317503","wem/bandit_either_2","A2VD133723IZR8","either","2","1209","","","","","","","0","0","1","","0.2","0.5","0.5","0.5","0.5","0.8","0.2","0.6","0.2","","","","","","","","","","","","74","J","1","","true","0","full_practice"
"","bandit","55","296807","0.0-34.0-1.0","76317503","wem/bandit_either_2","A2VD133723IZR8","either","2","966","","","","","","","0","0","1","0.8","","0.5","0.5","0.5","0.5","","","","","0.8","0.2","0.6","0.2","","","","","","","","72","H","0","img/none_selected.jpg","true","0","full_practice"
"","bandit","56","298777","0.0-34.0-2.0","76317503","wem/bandit_either_2","A2VD133723IZR8","either","2","458","","","","","","","0","1","0","","0.6","0.5","0.5","0.5","0.5","0.8","0.2","0.6","0.2","","","","","","","","","","","","75","K","2","","true","0","full_practice"
"","bandit","57","300805","0.0-34.0-3.0","76317503","wem/bandit_either_2","A2VD133723IZR8","either","2","518","","","","","","","0","1","0","","0.2","0.5","0.5","0.5","0.5","0.8","0.2","0.6","0.2","","","","","","","","","","","","76","L","3","","true","0","full_practice"
"","bandit","58","302649","0.0-34.0-4.0","76317503","wem/bandit_either_2","A2VD133723IZR8","either","2","333","","","","","","","0","1","0","","0.6","0.5","0.5","0.5","0.5","0.8","0.2","0.6","0.2","","","","","","","","","","","","75","K","2","","true","0","full_practice"
"","bandit","59","304444","0.0-34.0-5.0","76317503","wem/bandit_either_2","A2VD133723IZR8","either","2","286","","","","","","","0","1","0","","0.6","0.5","0.5","0.5","0.5","0.8","0.2","0.6","0.2","","","","","","","","","","","","75","K","2","","true","0","full_practice"
"","bandit","60","306416","0.0-34.0-6.0","76317503","wem/bandit_either_2","A2VD133723IZR8","either","2","464","","","","","","","0","1","0","","0.2","0.5","0.5","0.5","0.5","0.8","0.2","0.6","0.2","","","","","","","","","","","","76","L","3","","true","0","full_practice"
"","bandit","61","308135","0.0-34.0-7.0","76317503","wem/bandit_either_2","A2VD133723IZR8","either","2","211","","","","","","","0","0","1","0.2","","0.5","0.5","0.5","0.5","","","","","0.8","0.2","0.6","0.2","","","","","","","","76","L","3","","true","0","full_practice"
"","bandit","62","310192","0.0-34.0-8.0","76317503","wem/bandit_either_2","A2VD133723IZR8","either","2","547","","","","","","","0","1","0","","0.6","0.5","0.5","0.5","0.5","0.8","0.2","0.6","0.2","","","","","","","","","","","","75","K","2","","true","0","full_practice"
"","bandit","63","311949","0.0-34.0-9.0","76317503","wem/bandit_either_2","A2VD133723IZR8","either","2","248","","","","","","","1","0","0","0.6","","0.5","0.5","0.5","0.5","","","","","0.8","0.2","0.6","0.2","","","","","","","","75","K","2","","true","0","full_practice"
"","bandit","64","313859","0.0-34.0-10.0","76317503","wem/bandit_either_2","A2VD133723IZR8","either","2","398","","","","","","","0","0","1","","0.2","0.5","0.5","0.5","0.5","0.8","0.2","0.6","0.2","","","","","","","","","","","","74","J","1","","true","0","full_practice"
"","bandit","65","315685","0.0-34.0-11.0","76317503","wem/bandit_either_2","A2VD133723IZR8","either","2","315","","","","","","","1","0","0","0.8","","0.5","0.5","0.5","0.5","","","","","0.8","0.2","0.6","0.2","","","","","","","","72","H","0","img/none_selected.jpg","true","0","full_practice"
"","bandit","66","317626","0.0-34.0-12.0","76317503","wem/bandit_either_2","A2VD133723IZR8","either","2","431","","","","","","","1","0","0","0.8","","0.5","0.5","0.5","0.5","","","","","0.8","0.2","0.6","0.2","","","","","","","","72","H","0","img/none_selected.jpg","true","0","full_practice"
"","bandit","67","319453","0.0-34.0-13.0","76317503","wem/bandit_either_2","A2VD133723IZR8","either","2","318","","","","","","","1","0","0","0.8","","0.5","0.5","0.5","0.5","","","","","0.8","0.2","0.6","0.2","","","","","","","","72","H","0","img/none_selected.jpg","true","0","full_practice"
"","bandit","68","321223","0.0-34.0-14.0","76317503","wem/bandit_either_2","A2VD133723IZR8","either","2","259","","","","","","","0","1","0","","0.8","0.5","0.5","0.5","0.5","0.8","0.2","0.6","0.2","","","","","","","","","","","","72","H","0","img/none_selected.jpg","true","0","full_practice"
"","bandit","69","322894","0.0-34.0-15.0","76317503","wem/bandit_either_2","A2VD133723IZR8","either","2","161","","","","","","","1","0","0","0.8","","0.5","0.5","0.5","0.5","","","","","0.8","0.2","0.6","0.2","","","","","","","","72","H","0","img/none_selected.jpg","true","0","full_practice"
"","bandit","70","324634","0.0-34.0-16.0","76317503","wem/bandit_either_2","A2VD133723IZR8","either","2","228","","","","","","","0","1","0","","0.8","0.5","0.5","0.5","0.5","0.8","0.2","0.6","0.2","","","","","","","","","","","","72","H","0","img/none_selected.jpg","true","0","full_practice"
"","bandit","71","326370","0.0-34.0-17.0","76317503","wem/bandit_either_2","A2VD133723IZR8","either","2","225","","","","","","","1","0","0","0.8","","0.5","0.5","0.5","0.5","","","","","0.8","0.2","0.6","0.2","","","","","","","","72","H","0","img/none_selected.jpg","true","0","full_practice"
"","bandit","72","327978","0.0-34.0-18.0","76317503","wem/bandit_either_2","A2VD133723IZR8","either","2","97","","","","","","","0","0","1","","0.8","0.5","0.5","0.5","0.5","0.8","0.2","0.6","0.2","","","","","","","","","","","","72","H","0","img/none_selected.jpg","true","0","full_practice"
"","bandit","73","329825","0.0-34.0-19.0","76317503","wem/bandit_either_2","A2VD133723IZR8","either","2","337","","","","","","","0","0","1","","0.2","0.5","0.5","0.5","0.5","0.8","0.2","0.6","0.2","","","","","","","","","","","","74","J","1","","true","0","full_practice"
"","text","74","333262","0.0-35.0","76317503","wem/bandit_either_2","A2VD133723IZR8","either","2","3424","","32","","","","","","","","","","","","","","","","","","","","","","","","","","","","","","","","","","",""
"","text","75","347051","0.0-36.0","76317503","wem/bandit_either_2","A2VD133723IZR8","either","2","12784","","32","","","","","","","","","","","","","","","","","","","","","","","","","","","","","","","","","","",""
"","text","76","356682","0.0-37.0","76317503","wem/bandit_either_2","A2VD133723IZR8","either","2","9625","","32","","","","","","","","","","","","","","","","","","","","","","","","","","","","","","","","","","",""
"","text","77","361569","0.0-38.0","76317503","wem/bandit_either_2","A2VD133723IZR8","either","2","4882","","32","","","","","","","","","","","","","","","","","","","","","","","","","","","","","","","","","","",""
"","text","78","365139","0.0-39.0","76317503","wem/bandit_either_2","A2VD133723IZR8","either","2","3564","","32","","","","","","","","","","","","","","","","","","","","","","","","","","","","","","","","","","",""
"","text","79","370656","0.0-40.0","76317503","wem/bandit_either_2","A2VD133723IZR8","either","2","5512","","32","","","","","","","","","","","","","","","","","","","","","","","","","","","","","","","","","","",""
"","bandit","80","373671","0.0-41.0-0.0","76317503","wem/bandit_either_2","A2VD133723IZR8","either","2","1506","","","","","","","1","0","0","0.3653736811","","0.8","0.2","0.4","0.6","","","","","0.3653736811","0.362799796","0.326135308","0.4781977867","","","","","","","","72","H","0","img/none_selected.jpg","","1","main_expt"
"","bandit","81","376775","0.0-42.0-0.0","76317503","wem/bandit_either_2","A2VD133723IZR8","either","2","1594","","","","","","","0","0","1","","0.3999069229","0.8","0.2","0.4","0.6","0.3999069229","0.3891507205","0.3564958201","0.4765481994","","","","","","","","","","","","72","H","0","img/none_selected.jpg","","2","main_expt"
"","bandit","82","379126","0.0-43.0-0.0","76317503","wem/bandit_either_2","A2VD133723IZR8","either","2","840","","","","","","","0","1","0","","0.3151339382","0.8","0.2","0.4","0.6","0.4363582421","0.3151339382","0.3309056029","0.4722158263","","","","","","","","","","","","74","J","1","","","3","main_expt"
"","bandit","83","381203","0.0-44.0-0.0","76317503","wem/bandit_either_2","A2VD133723IZR8","either","2","567","","","","","","","0","0","1","0.250648122","","0.8","0.2","0.4","0.6","","","","","0.4300921111","0.250648122","0.308467875","0.4609570051","","","","","","","","74","J","1","","","4","main_expt"
"","bandit","84","383131","0.0-45.0-0.0","76317503","wem/bandit_either_2","A2VD133723IZR8","either","2","417","","","","","","","0","0","1","0.3349995635","","0.8","0.2","0.4","0.6","","","","","0.3863220662","0.2382585344","0.3349995635","0.4707799186","","","","","","","","75","K","2","","","5","main_expt"
"","bandit","85","385013","0.0-46.0-0.0","76317503","wem/bandit_either_2","A2VD133723IZR8","either","2","372","","","","","","","0","0","1","","0.3743101545","0.8","0.2","0.4","0.6","0.4192648028","0.2088101903","0.3743101545","0.4676743975","","","","","","","","","","","","75","K","2","","","6","main_expt"
"","bandit","86","386891","0.0-47.0-0.0","76317503","wem/bandit_either_2","A2VD133723IZR8","either","2","367","","","","","","","0","1","0","","0.4767364015","0.8","0.2","0.4","0.6","0.4218548145","0.1884279889","0.377506125","0.4767364015","","","","","","","","","","","","76","L","3","","","7","main_expt"
"","bandit","87","388767","0.0-48.0-0.0","76317503","wem/bandit_either_2","A2VD133723IZR8","either","2","366","","","","","","","1","0","0","0.4837409877","","0.8","0.2","0.4","0.6","","","","","0.4298914749","0.2297930851","0.3452849142","0.4837409877","","","","","","","","76","L","3","","","8","main_expt"
"","bandit","88","390637","0.0-49.0-0.0","76317503","wem/bandit_either_2","A2VD133723IZR8","either","2","357","","","","","","","1","0","0","0.4825212187","","0.8","0.2","0.4","0.6","","","","","0.4215440671","0.2219539873","0.2713567333","0.4825212187","","","","","","","","76","L","3","","","9","main_expt"
"","bandit","89","392659","0.0-50.0-0.0","76317503","wem/bandit_either_2","A2VD133723IZR8","either","2","512","","","","","","","0","1","0","","0.3991616263","0.8","0.2","0.4","0.6","0.3991616263","0.2398128751","0.2712708503","0.4791264729","","","","","","","","","","","","72","H","0","img/none_selected.jpg","","10","main_expt"
"","bandit","90","394713","0.0-51.0-0.0","76317503","wem/bandit_either_2","A2VD133723IZR8","either","2","545","","","","","","","1","0","0","0.4762013833","","0.8","0.2","0.4","0.6","","","","","0.4002673883","0.2551733424","0.2635531688","0.4762013833","","","","","","","","76","L","3","","","11","main_expt"
"","bandit","91","396674","0.0-52.0-0.0","76317503","wem/bandit_either_2","A2VD133723IZR8","either","2","451","","","","","","","1","0","0","0.368629831","","0.8","0.2","0.4","0.6","","","","","0.368629831","0.2593424883","0.2669056975","0.4729837645","","","","","","","","72","H","0","img/none_selected.jpg","","12","main_expt"
"","bandit","92","398486","0.0-53.0-0.0","76317503","wem/bandit_either_2","A2VD133723IZR8","either","2","300","","","","","","","0","0","1","","0.4189726289","0.8","0.2","0.4","0.6","0.4189726289","0.2493591627","0.3204456557","0.4749786695","","","","","","","","","","","","72","H","0","img/none_selected.jpg","","13","main_expt"
"","bandit","93","401035","0.0-54.0-0.0","76317503","wem/bandit_either_2","A2VD133723IZR8","either","2","1039","","","","","","","0","0","1","0.2686446846","","0.8","0.2","0.4","0.6","","","","","0.4352425359","0.2686446846","0.3466526728","0.4810115094","","","","","","","","74","J","1","","","14","main_expt"
"","bandit","94","402881","0.0-55.0-0.0","76317503","wem/bandit_either_2","A2VD133723IZR8","either","2","333","","","","","","","1","0","0","0.3736671224","","0.8","0.2","0.4","0.6","","","","","0.3819090161","0.2690169042","0.3736671224","0.4705329286","","","","","","","","75","K","2","","","15","main_expt"
"","bandit","95","404746","0.0-56.0-0.0","76317503","wem/bandit_either_2","A2VD133723IZR8","either","2","355","","","","","","","0","0","1","0.3778143907","","0.8","0.2","0.4","0.6","","","","","0.3737760256","0.2518303543","0.3778143907","0.4687419894","","","","","","","","75","K","2","","","16","main_expt"
"","bandit","96","407266","0.0-57.0-0.0","76317503","wem/bandit_either_2","A2VD133723IZR8","either","2","1008","","","","","","","0","1","0","","0.3845750066","0.8","0.2","0.4","0.6","0.4151791473","0.2406549936","0.3845750066","0.4594180265","","","","","","","","","","","","75","K","2","","","17","main_expt"
"","bandit","97","409299","0.0-58.0-0.0","76317503","wem/bandit_either_2","A2VD133723IZR8","either","2","520","","","","","","","0","0","1","0.2670149403","","0.8","0.2","0.4","0.6","","","","","0.4137363134","0.2670149403","0.4041286345","0.425397146","","","","","","","","74","J","1","","","18","main_expt"
"","bandit","98","411541","0.0-59.0-0.0","76317503","wem/bandit_either_2","A2VD133723IZR8","either","2","727","","","","","","","0","0","1","0.4201246927","","0.8","0.2","0.4","0.6","","","","","0.4084056464","0.2658482338","0.4127350431","0.4201246927","","","","","","","","76","L","3","","","19","main_expt"
"","bandit","99","413815","0.0-60.0-0.0","76317503","wem/bandit_either_2","A2VD133723IZR8","either","2","762","","","","","","","0","0","1","0.3954271328","","0.8","0.2","0.4","0.6","","","","","0.4129175496","0.2452433766","0.4107359536","0.3954271328","","","","","","","","76","L","3","","","20","main_expt"
"","bandit","100","416177","0.0-61.0-0.0","76317503","wem/bandit_either_2","A2VD133723IZR8","either","2","850","","","","","","","1","0","0","0.4196431029","","0.8","0.2","0.4","0.6","","","","","0.3888488162","0.2298761452","0.3954861765","0.4196431029","","","","","","","","76","L","3","","","21","main_expt"
"","bandit","101","419306","0.0-62.0-0.0","76317503","wem/bandit_either_2","A2VD133723IZR8","either","2","1617","","","","","","","0","0","1","0.3843335182","","0.8","0.2","0.4","0.6","","","","","0.3873149631","0.266827693","0.3805979297","0.3843335182","","","","","","","","76","L","3","","","22","main_expt"
"","bandit","102","421699","0.0-63.0-0.0","76317503","wem/bandit_either_2","A2VD133723IZR8","either","2","879","","","","","","","0","0","1","0.425451992","","0.8","0.2","0.4","0.6","","","","","0.3659772031","0.2519769849","0.425451992","0.3839977458","","","","","","","","75","K","2","","","23","main_expt"
"","bandit","103","423406","0.0-64.0-0.0","76317503","wem/bandit_either_2","A2VD133723IZR8","either","2","195","","","","","","","1","0","0","0.3594327093","","0.8","0.2","0.4","0.6","","","","","0.3594327093","0.2447613107","0.4699447661","0.3338939571","","","","","","","","72","H","0","img/none_selected.jpg","","24","main_expt"
"","bandit","104","425316","0.0-65.0-0.0","76317503","wem/bandit_either_2","A2VD133723IZR8","either","2","401","","","","","","","0","0","1","0.3719143394","","0.8","0.2","0.4","0.6","","","","","0.3719143394","0.2350413847","0.4484050393","0.324486952","","","","","","","","72","H","0","img/none_selected.jpg","","25","main_expt"
"","bandit","105","427602","0.0-66.0-0.0","76317503","wem/bandit_either_2","A2VD133723IZR8","either","2","773","","","","","","","0","0","1","","0.207774486","0.8","0.2","0.4","0.6","0.3690014044","0.207774486","0.4190234423","0.3095710384","","","","","","","","","","","","74","J","1","","","26","main_expt"
"","bandit","106","429368","0.0-67.0-0.0","76317503","wem/bandit_either_2","A2VD133723IZR8","either","2","256","","","","","","","0","1","0","","0.4251478254","0.8","0.2","0.4","0.6","0.3940030818","0.2164182795","0.4251478254","0.3355629191","","","","","","","","","","","","75","K","2","","","27","main_expt"
"","bandit","107","431264","0.0-68.0-0.0","76317503","wem/bandit_either_2","A2VD133723IZR8","either","2","383","","","","","","","0","0","1","0.4287328697","","0.8","0.2","0.4","0.6","","","","","0.4111080327","0.2164031865","0.4287328697","0.3668681485","","","","","","","","75","K","2","","","28","main_expt"
"","bandit","108","432857","0.0-69.0-0.0","76317503","wem/bandit_either_2","A2VD133723IZR8","either","2","82","","","","","","","0","0","1","0.343198694","","0.8","0.2","0.4","0.6","","","","","0.41290056","0.2770000278","0.4106025245","0.343198694","","","","","","","","76","L","3","","","29","main_expt"
"","bandit","109","434819","0.0-70.0-0.0","76317503","wem/bandit_either_2","A2VD133723IZR8","either","2","449","","","","","","","0","0","1","","0.326069126","0.8","0.2","0.4","0.6","0.3937480262","0.2354797847","0.3942494676","0.326069126","","","","","","","","","","","","76","L","3","","","30","main_expt"
"","bandit","110","436719","0.0-71.0-0.0","76317503","wem/bandit_either_2","A2VD133723IZR8","either","2","381","","","","","","","1","0","0","0.4285056211","","0.8","0.2","0.4","0.6","","","","","0.3997016236","0.2692030882","0.4285056211","0.3390127419","","","","","","","","75","K","2","","","31","main_expt"
"","bandit","111","439118","0.0-72.0-0.0","76317503","wem/bandit_either_2","A2VD133723IZR8","either","2","889","","","","","","","0","0","1","0.4249454459","","0.8","0.2","0.4","0.6","","","","","0.3574295763","0.2471118655","0.4249454459","0.3360649894","","","","","","","","75","K","2","","","32","main_expt"
"","bandit","112","440831","0.0-73.0-0.0","76317503","wem/bandit_either_2","A2VD133723IZR8","either","2","202","","","","","","","0","1","0","","0.2879199001","0.8","0.2","0.4","0.6","0.3877818659","0.2879199001","0.416417765","0.3052602024","","","","","","","","","","","","74","J","1","","","33","main_expt"
"","bandit","113","442840","0.0-74.0-0.0","76317503","wem/bandit_either_2","A2VD133723IZR8","either","2","495","","","","","","","0","0","1","","0.3180115212","0.8","0.2","0.4","0.6","0.3799496232","0.3180115212","0.4623714429","0.3594788954","","","","","","","","","","","","74","J","1","","","34","main_expt"
"","bandit","114","444691","0.0-75.0-0.0","76317503","wem/bandit_either_2","A2VD133723IZR8","either","2","340","","","","","","","0","0","1","0.3577573403","","0.8","0.2","0.4","0.6","","","","","0.3577573403","0.2524306687","0.4591977302","0.380235832","","","","","","","","72","H","0","img/none_selected.jpg","","35","main_expt"
"","bandit","115","446898","0.0-76.0-0.0","76317503","wem/bandit_either_2","A2VD133723IZR8","either","2","694","","","","","","","1","0","0","0.3895375856","","0.8","0.2","0.4","0.6","","","","","0.3895375856","0.2351869563","0.4686235256","0.3459989602","","","","","","","","72","H","0","img/none_selected.jpg","","36","main_expt"
"","bandit","116","448615","0.0-77.0-0.0","76317503","wem/bandit_either_2","A2VD133723IZR8","either","2","205","","","","","","","0","0","1","0.3783527007","","0.8","0.2","0.4","0.6","","","","","0.3783527007","0.2629170466","0.4571547709","0.3320905149","","","","","","","","72","H","0","img/none_selected.jpg","","37","main_expt"
"","bandit","117","451028","0.0-78.0-0.0","76317503","wem/bandit_either_2","A2VD133723IZR8","either","2","901","","","","","","","0","0","1","","0.284076782","0.8","0.2","0.4","0.6","0.284076782","0.3090194305","0.4688430709","0.3471020919","","","","","","","","","","","","72","H","0","img/none_selected.jpg","","38","main_expt"
"","bandit","118","454556","0.0-79.0-0.0","76317503","wem/bandit_either_2","A2VD133723IZR8","either","2","2015","","","","","","","0","0","1","0.3401763967","","0.8","0.2","0.4","0.6","","","","","0.3388972186","0.2845371228","0.4612923778","0.3401763967","","","","","","","","76","L","3","","","39","main_expt"
"","bandit","119","460012","0.0-80.0-0.0","76317503","wem/bandit_either_2","A2VD133723IZR8","either","2","3944","","","","","","","0","0","1","","0.3260487483","0.8","0.2","0.4","0.6","0.2663655232","0.3076259244","0.4576194683","0.3260487483","","","","","","","","","","","","76","L","3","","","40","main_expt"
"","bandit","120","463007","0.0-81.0-0.0","76317503","wem/bandit_either_2","A2VD133723IZR8","either","2","1484","","","","","","","1","0","0","0.2608266697","","0.8","0.2","0.4","0.6","","","","","0.2608266697","0.2888769276","0.4473921051","0.3390218734","","","","","","","","72","H","0","img/none_selected.jpg","","41","main_expt"
"","bandit","121","478393","0.0-82.0-0.0","76317503","wem/bandit_either_2","A2VD133723IZR8","either","2","13873","","","","","","","0","0","1","0.2287676803","","0.8","0.2","0.4","0.6","","","","","0.2287676803","0.2639198141","0.425470286","0.2889680017","","","","","","","","72","H","0","img/none_selected.jpg","","42","main_expt"
"","bandit","122","480336","0.0-83.0-0.0","76317503","wem/bandit_either_2","A2VD133723IZR8","either","2","431","","","","","","","0","0","1","","0.2255441472","0.8","0.2","0.4","0.6","0.2043112358","0.2255441472","0.4030522017","0.2784828801","","","","","","","","","","","","74","J","1","","","43","main_expt"
"","bandit","123","482371","0.0-84.0-0.0","76317503","wem/bandit_either_2","A2VD133723IZR8","either","2","523","","","","","","","0","0","1","0.4106315797","","0.8","0.2","0.4","0.6","","","","","0.1957049551","0.2050272072","0.4106315797","0.2805729819","","","","","","","","75","K","2","","","44","main_expt"
"","bandit","124","484089","0.0-85.0-0.0","76317503","wem/bandit_either_2","A2VD133723IZR8","either","2","204","","","","","","","1","0","0","0.2195119073","","0.8","0.2","0.4","0.6","","","","","0.2207366272","0.239455925","0.4258527362","0.2195119073","","","","","","","","76","L","3","","","45","main_expt"
"","bandit","125","485926","0.0-86.0-0.0","76317503","wem/bandit_either_2","A2VD133723IZR8","either","2","321","","","","","","","0","0","1","","0.2657932304","0.8","0.2","0.4","0.6","0.1727988076","0.2414778298","0.4425966235","0.2657932304","","","","","","","","","","","","76","L","3","","","46","main_expt"
"","bandit","126","488457","0.0-87.0-0.0","76317503","wem/bandit_either_2","A2VD133723IZR8","either","2","1018","","","","","","","0","0","1","0.1446735631","","0.8","0.2","0.4","0.6","","","","","0.1446735631","0.1884211613","0.4428977597","0.2678398397","","","","","","","","72","H","0","img/none_selected.jpg","","47","main_expt"
"","bandit","127","490787","0.0-88.0-0.0","76317503","wem/bandit_either_2","A2VD133723IZR8","either","2","817","","","","","","","0","0","1","0.1681765936","","0.8","0.2","0.4","0.6","","","","","0.1681765936","0.1755274282","0.4479964269","0.2866904938","","","","","","","","72","H","0","img/none_selected.jpg","","48","main_expt"
"","bandit","128","492640","0.0-89.0-0.0","76317503","wem/bandit_either_2","A2VD133723IZR8","either","2","341","","","","","","","1","0","0","0.2803848884","","0.8","0.2","0.4","0.6","","","","","0.1473883531","0.1646396384","0.4660387519","0.2803848884","","","","","","","","76","L","3","","","49","main_expt"
"","bandit","129","494444","0.0-90.0-0.0","76317503","wem/bandit_either_2","A2VD133723IZR8","either","2","291","","","","","","","1","0","0","0.2587411269","","0.8","0.2","0.4","0.6","","","","","0.1378170987","0.2024226619","0.4345757832","0.2587411269","","","","","","","","76","L","3","","","50","main_expt"
"","bandit","130","496250","0.0-91.0-0.0","76317503","wem/bandit_either_2","A2VD133723IZR8","either","2","294","","","","","","","1","0","0","0.2212901065","","0.8","0.2","0.4","0.6","","","","","0.1430360168","0.1976760068","0.4450950844","0.2212901065","","","","","","","","76","L","3","","","51","main_expt"
"","bandit","131","498052","0.0-92.0-0.0","76317503","wem/bandit_either_2","A2VD133723IZR8","either","2","289","","","","","","","0","0","1","","0.236006857","0.8","0.2","0.4","0.6","0.1731798725","0.1796352224","0.4475354499","0.236006857","","","","","","","","","","","","76","L","3","","","52","main_expt"
"","bandit","132","499841","0.0-93.0-0.0","76317503","wem/bandit_either_2","A2VD133723IZR8","either","2","270","","","","","","","0","1","0","","0.4627294295","0.8","0.2","0.4","0.6","0.1312409056","0.2451732725","0.4627294295","0.2660825342","","","","","","","","","","","","75","K","2","","","53","main_expt"
"","bandit","133","501898","0.0-94.0-0.0","76317503","wem/bandit_either_2","A2VD133723IZR8","either","2","543","","","","","","","1","0","0","0.44829207","","0.8","0.2","0.4","0.6","","","","","0.1862053218","0.2621482643","0.44829207","0.2458345041","","","","","","","","75","K","2","","","54","main_expt"
"","bandit","134","503983","0.0-95.0-0.0","76317503","wem/bandit_either_2","A2VD133723IZR8","either","2","572","","","","","","","0","0","1","0.4505537928","","0.8","0.2","0.4","0.6","","","","","0.1733563037","0.2441780383","0.4505537928","0.2265690781","","","","","","","","75","K","2","","","55","main_expt"
"","bandit","135","506011","0.0-96.0-0.0","76317503","wem/bandit_either_2","A2VD133723IZR8","either","2","514","","","","","","","0","0","1","","0.199729785","0.8","0.2","0.4","0.6","0.1728369204","0.199729785","0.4686400132","0.2741820357","","","","","","","","","","","","74","J","1","","","56","main_expt"
"","bandit","136","508184","0.0-97.0-0.0","76317503","wem/bandit_either_2","A2VD133723IZR8","either","2","661","","","","","","","0","0","1","","0.1945085845","0.8","0.2","0.4","0.6","0.09176359954","0.1945085845","0.4572679106","0.2937641054","","","","","","","","","","","","74","J","1","","","57","main_expt"
"","bandit","137","510065","0.0-98.0-0.0","76317503","wem/bandit_either_2","A2VD133723IZR8","either","2","368","","","","","","","0","0","1","0.04991422033","","0.8","0.2","0.4","0.6","","","","","0.04991422033","0.2614759052","0.4300169527","0.2949827607","","","","","","","","72","H","0","img/none_selected.jpg","","58","main_expt"
"","bandit","138","513136","0.0-99.0-0.0","76317503","wem/bandit_either_2","A2VD133723IZR8","either","2","1559","","","","","","","0","0","1","","0.053239915","0.8","0.2","0.4","0.6","0.053239915","0.2426118991","0.4050829606","0.2710075273","","","","","","","","","","","","72","H","0","img/none_selected.jpg","","59","main_expt"
"","bandit","139","515123","0.0-100.0-0.0","76317503","wem/bandit_either_2","A2VD133723IZR8","either","2","473","","","","","","","0","0","1","0.2766623035","","0.8","0.2","0.4","0.6","","","","","0.06994226662","0.2623750897","0.4070720156","0.2766623035","","","","","","","","76","L","3","","","60","main_expt"
"","bandit","140","517009","0.0-101.0-0.0","76317503","wem/bandit_either_2","A2VD133723IZR8","either","2","372","","","","","","","0","0","1","0.2574592035","","0.8","0.2","0.4","0.6","","","","","0.07064832373","0.2139103784","0.3895400789","0.2574592035","","","","","","","","76","L","3","","","61","main_expt"
"","bandit","141","518814","0.0-102.0-0.0","76317503","wem/bandit_either_2","A2VD133723IZR8","either","2","292","","","","","","","0","0","1","","0.4050708951","0.8","0.2","0.4","0.6","0.08925217872","0.2566580444","0.4050708951","0.2425209234","","","","","","","","","","","","75","K","2","","","62","main_expt"
"","bandit","142","520774","0.0-103.0-0.0","76317503","wem/bandit_either_2","A2VD133723IZR8","either","2","446","","","","","","","0","0","1","","0.3765761212","0.8","0.2","0.4","0.6","0.08505035955","0.2393402704","0.3765761212","0.2294211584","","","","","","","","","","","","75","K","2","","","63","main_expt"
"","bandit","143","522767","0.0-104.0-0.0","76317503","wem/bandit_either_2","A2VD133723IZR8","either","2","478","","","","","","","0","0","1","","0.300105392","0.8","0.2","0.4","0.6","0.09892528285","0.300105392","0.3859881554","0.2350173232","","","","","","","","","","","","74","J","1","","","64","main_expt"
"","bandit","144","524782","0.0-105.0-0.0","76317503","wem/bandit_either_2","A2VD133723IZR8","either","2","499","","","","","","","0","0","1","","0.2584268813","0.8","0.2","0.4","0.6","0.1428545766","0.2584268813","0.3817039273","0.2775473173","","","","","","","","","","","","74","J","1","","","65","main_expt"
"","bandit","145","526888","0.0-106.0-0.0","76317503","wem/bandit_either_2","A2VD133723IZR8","either","2","592","","","","","","","0","0","1","0.120440259","","0.8","0.2","0.4","0.6","","","","","0.120440259","0.2536378703","0.3622232449","0.298861572","","","","","","","","72","H","0","img/none_selected.jpg","","66","main_expt"
"","bandit","146","529105","0.0-107.0-0.0","76317503","wem/bandit_either_2","A2VD133723IZR8","either","2","704","","","","","","","0","0","1","0.2019700983","","0.8","0.2","0.4","0.6","","","","","0.2019700983","0.2548884231","0.3768721334","0.3043747659","","","","","","","","72","H","0","img/none_selected.jpg","","67","main_expt"
"","bandit","147","531554","0.0-108.0-0.0","76317503","wem/bandit_either_2","A2VD133723IZR8","either","2","935","","","","","","","0","0","1","","0.2533072519","0.8","0.2","0.4","0.6","0.1467862533","0.2105458193","0.3826604183","0.2533072519","","","","","","","","","","","","76","L","3","","","68","main_expt"
"","bandit","148","533640","0.0-109.0-0.0","76317503","wem/bandit_either_2","A2VD133723IZR8","either","2","574","","","","","","","1","0","0","0.3981811202","","0.8","0.2","0.4","0.6","","","","","0.09022805221","0.2901666962","0.3981811202","0.2451677402","","","","","","","","75","K","2","","","69","main_expt"
"","bandit","149","535573","0.0-110.0-0.0","76317503","wem/bandit_either_2","A2VD133723IZR8","either","2","419","","","","","","","0","1","0","","0.3936557204","0.8","0.2","0.4","0.6","0.1128827508","0.2973761433","0.3936557204","0.2403061491","","","","","","","","","","","","75","K","2","","","70","main_expt"
"","bandit","150","537318","0.0-111.0-0.0","76317503","wem/bandit_either_2","A2VD133723IZR8","either","2","231","","","","","","","0","0","1","0.3949471057","","0.8","0.2","0.4","0.6","","","","","0.1184182172","0.2737706179","0.3949471057","0.1917576795","","","","","","","","75","K","2","","","71","main_expt"
"","bandit","151","539159","0.0-112.0-0.0","76317503","wem/bandit_either_2","A2VD133723IZR8","either","2","326","","","","","","","0","0","1","","0.3005227265","0.8","0.2","0.4","0.6","0.1038133506","0.3005227265","0.3888869603","0.1894079546","","","","","","","","","","","","74","J","1","","","72","main_expt"
"","bandit","152","541049","0.0-113.0-0.0","76317503","wem/bandit_either_2","A2VD133723IZR8","either","2","375","","","","","","","0","0","1","","0.4015056825","0.8","0.2","0.4","0.6","0.07830871569","0.3205676235","0.4015056825","0.235909594","","","","","","","","","","","","75","K","2","","","73","main_expt"
"","bandit","153","542892","0.0-114.0-0.0","76317503","wem/bandit_either_2","A2VD133723IZR8","either","2","331","","","","","","","0","0","1","0.2772030277","","0.8","0.2","0.4","0.6","","","","","0.09226686474","0.3040473008","0.4200542591","0.2772030277","","","","","","","","76","L","3","","","74","main_expt"
"","bandit","154","544641","0.0-115.0-0.0","76317503","wem/bandit_either_2","A2VD133723IZR8","either","2","234","","","","","","","0","0","1","0.07948082514","","0.8","0.2","0.4","0.6","","","","","0.07948082514","0.2686744794","0.4353174817","0.2237268092","","","","","","","","72","H","0","img/none_selected.jpg","","75","main_expt"
"","bandit","155","546573","0.0-116.0-0.0","76317503","wem/bandit_either_2","A2VD133723IZR8","either","2","419","","","","","","","0","0","1","","0.1279570505","0.8","0.2","0.4","0.6","0.1279570505","0.258707356","0.4196821318","0.1739375455","","","","","","","","","","","","72","H","0","img/none_selected.jpg","","76","main_expt"
"","bandit","156","548440","0.0-117.0-0.0","76317503","wem/bandit_either_2","A2VD133723IZR8","either","2","352","","","","","","","0","0","1","","0.3010070056","0.8","0.2","0.4","0.6","0.1202820049","0.3010070056","0.3787369199","0.1648796623","","","","","","","","","","","","74","J","1","","","77","main_expt"
"","bandit","157","550497","0.0-118.0-0.0","76317503","wem/bandit_either_2","A2VD133723IZR8","either","2","543","","","","","","","0","1","0","","0.2648586626","0.8","0.2","0.4","0.6","0.1054071572","0.2648586626","0.4314930014","0.1637798684","","","","","","","","","","","","74","J","1","","","78","main_expt"
"","bandit","158","552455","0.0-119.0-0.0","76317503","wem/bandit_either_2","A2VD133723IZR8","either","2","442","","","","","","","0","0","1","","0.4155078174","0.8","0.2","0.4","0.6","0.1403095361","0.1984114041","0.4155078174","0.1490076182","","","","","","","","","","","","75","K","2","","","79","main_expt"
"","bandit","159","554247","0.0-120.0-0.0","76317503","wem/bandit_either_2","A2VD133723IZR8","either","2","279","","","","","","","0","0","1","","0.1093198388","0.8","0.2","0.4","0.6","0.1891235553","0.180325551","0.4226243671","0.1093198388","","","","","","","","","","","","76","L","3","","","80","main_expt"
"","bandit","160","556043","0.0-121.0-0.0","76317503","wem/bandit_either_2","A2VD133723IZR8","either","2","283","","","","","","","0","0","1","0.4474166549","","0.8","0.2","0.4","0.6","","","","","0.1858030354","0.224531153","0.4474166549","0.08868186825","","","","","","","","75","K","2","","","81","main_expt"
"","bandit","161","557719","0.0-122.0-0.0","76317503","wem/bandit_either_2","A2VD133723IZR8","either","2","159","","","","","","","0","0","1","","0.221125015","0.8","0.2","0.4","0.6","0.2476542501","0.221125015","0.4636297045","0.1073880826","","","","","","","","","","","","74","J","1","","","82","main_expt"
"","bandit","162","559633","0.0-123.0-0.0","76317503","wem/bandit_either_2","A2VD133723IZR8","either","2","400","","","","","","","0","0","1","0.2188241074","","0.8","0.2","0.4","0.6","","","","","0.2188241074","0.2143237207","0.467509749","0.1022587498","","","","","","","","72","H","0","img/none_selected.jpg","","83","main_expt"
"","bandit","163","561487","0.0-124.0-0.0","76317503","wem/bandit_either_2","A2VD133723IZR8","either","2","339","","","","","","","0","0","1","","0.2754771977","0.8","0.2","0.4","0.6","0.2754771977","0.2097367537","0.4551111531","0.1085807699","","","","","","","","","","","","72","H","0","img/none_selected.jpg","","84","main_expt"
"","bandit","164","563284","0.0-125.0-0.0","76317503","wem/bandit_either_2","A2VD133723IZR8","either","2","281","","","","","","","0","0","1","0.1263918358","","0.8","0.2","0.4","0.6","","","","","0.2965575968","0.1661536269","0.4621419017","0.1263918358","","","","","","","","76","L","3","","","85","main_expt"
"","bandit","165","565009","0.0-126.0-0.0","76317503","wem/bandit_either_2","A2VD133723IZR8","either","2","209","","","","","","","0","1","0","","0.4612050897","0.8","0.2","0.4","0.6","0.257129161","0.1364458955","0.4612050897","0.1481941301","","","","","","","","","","","","75","K","2","","","86","main_expt"
"","bandit","166","566750","0.0-127.0-0.0","76317503","wem/bandit_either_2","A2VD133723IZR8","either","2","228","","","","","","","0","1","0","","0.4334675206","0.8","0.2","0.4","0.6","0.2338967043","0.08235553135","0.4334675206","0.1447872846","","","","","","","","","","","","75","K","2","","","87","main_expt"
"","bandit","167","568440","0.0-128.0-0.0","76317503","wem/bandit_either_2","A2VD133723IZR8","either","2","176","","","","","","","0","0","1","","0.4397617206","0.8","0.2","0.4","0.6","0.2161535794","0.0754832669","0.4397617206","0.1391637727","","","","","","","","","","","","75","K","2","","","88","main_expt"
"","bandit","168","570844","0.0-129.0-0.0","76317503","wem/bandit_either_2","A2VD133723IZR8","either","2","886","","","","","","","0","1","0","","0.4635478967","0.8","0.2","0.4","0.6","0.2043146745","0.109361408","0.4635478967","0.1476089376","","","","","","","","","","","","75","K","2","","","89","main_expt"
"","bandit","169","572678","0.0-130.0-0.0","76317503","wem/bandit_either_2","A2VD133723IZR8","either","2","318","","","","","","","0","1","0","","0.4234969579","0.8","0.2","0.4","0.6","0.2346009907","0.07391079866","0.4234969579","0.2081489191","","","","","","","","","","","","75","K","2","","","90","main_expt"
"","bandit","170","574671","0.0-131.0-0.0","76317503","wem/bandit_either_2","A2VD133723IZR8","either","2","479","","","","","","","0","0","1","","0.4267507071","0.8","0.2","0.4","0.6","0.2333967219","0.1164594673","0.4267507071","0.1834039029","","","","","","","","","","","","75","K","2","","","91","main_expt"
"","bandit","171","576408","0.0-132.0-0.0","76317503","wem/bandit_either_2","A2VD133723IZR8","either","2","220","","","","","","","0","0","1","","0.113043345","0.8","0.2","0.4","0.6","0.2150480475","0.113043345","0.4089505196","0.2027314649","","","","","","","","","","","","74","J","1","","","92","main_expt"
"","bandit","172","578190","0.0-133.0-0.0","76317503","wem/bandit_either_2","A2VD133723IZR8","either","2","266","","","","","","","0","0","1","","0.1714352716","0.8","0.2","0.4","0.6","0.2588080464","0.1714352716","0.4112501448","0.1738894496","","","","","","","","","","","","74","J","1","","","93","main_expt"
"","bandit","173","580000","0.0-134.0-0.0","76317503","wem/bandit_either_2","A2VD133723IZR8","either","2","295","","","","","","","0","0","1","0.2484708832","","0.8","0.2","0.4","0.6","","","","","0.2748849181","0.1253024032","0.452415855","0.2484708832","","","","","","","","76","L","3","","","94","main_expt"
"","bandit","174","581885","0.0-135.0-0.0","76317503","wem/bandit_either_2","A2VD133723IZR8","either","2","369","","","","","","","0","0","1","0.2791739054","","0.8","0.2","0.4","0.6","","","","","0.2791739054","0.1401284447","0.4589197587","0.2914685715","","","","","","","","72","H","0","img/none_selected.jpg","","95","main_expt"
"","bandit","175","583865","0.0-136.0-0.0","76317503","wem/bandit_either_2","A2VD133723IZR8","either","2","465","","","","","","","0","0","1","0.3149564315","","0.8","0.2","0.4","0.6","","","","","0.3149564315","0.1320491369","0.4481870348","0.2417524935","","","","","","","","72","H","0","img/none_selected.jpg","","96","main_expt"
"","bandit","176","585805","0.0-137.0-0.0","76317503","wem/bandit_either_2","A2VD133723IZR8","either","2","423","","","","","","","0","1","0","","0.4597072186","0.8","0.2","0.4","0.6","0.372564007","0.1518453759","0.4597072186","0.2492821404","","","","","","","","","","","","75","K","2","","","97","main_expt"
"","bandit","177","587848","0.0-138.0-0.0","76317503","wem/bandit_either_2","A2VD133723IZR8","either","2","525","","","","","","","0","0","1","0.4705619112","","0.8","0.2","0.4","0.6","","","","","0.393328365","0.2173959583","0.4705619112","0.3002958449","","","","","","","","75","K","2","","","98","main_expt"
"","bandit","178","589649","0.0-139.0-0.0","76317503","wem/bandit_either_2","A2VD133723IZR8","either","2","285","","","","","","","1","0","0","0.3544832656","","0.8","0.2","0.4","0.6","","","","","0.421239771","0.2618725657","0.4800968761","0.3544832656","","","","","","","","76","L","3","","","99","main_expt"
"","bandit","179","591576","0.0-140.0-0.0","76317503","wem/bandit_either_2","A2VD133723IZR8","either","2","413","","","","","","","0","0","1","","0.3810954338","0.8","0.2","0.4","0.6","0.4130759476","0.2487788848","0.4780143146","0.3810954338","","","","","","","","","","","","76","L","3","","","100","main_expt"
"","bandit","180","593422","0.0-141.0-0.0","76317503","wem/bandit_either_2","A2VD133723IZR8","either","2","330","","","","","","","0","0","1","0.4849002763","","0.8","0.2","0.4","0.6","","","","","0.4089462913","0.2890792313","0.4849002763","0.4042362267","","","","","","","","75","K","2","","","101","main_expt"
"","bandit","181","595213","0.0-142.0-0.0","76317503","wem/bandit_either_2","A2VD133723IZR8","either","2","277","","","","","","","0","0","1","0.3136369757","","0.8","0.2","0.4","0.6","","","","","0.370330464","0.3136369757","0.4886078379","0.4594696392","","","","","","","","74","J","1","","","102","main_expt"
"","bandit","182","597065","0.0-143.0-0.0","76317503","wem/bandit_either_2","A2VD133723IZR8","either","2","336","","","","","","","0","0","1","0.3306315663","","0.8","0.2","0.4","0.6","","","","","0.3306315663","0.2364671533","0.47121906","0.4588766667","","","","","","","","72","H","0","img/none_selected.jpg","","103","main_expt"
"","bandit","183","599182","0.0-144.0-0.0","76317503","wem/bandit_either_2","A2VD133723IZR8","either","2","603","","","","","","","0","0","1","0.354634178","","0.8","0.2","0.4","0.6","","","","","0.354634178","0.2202486688","0.4760763377","0.4372785745","","","","","","","","72","H","0","img/none_selected.jpg","","104","main_expt"
"","bandit","184","600975","0.0-145.0-0.0","76317503","wem/bandit_either_2","A2VD133723IZR8","either","2","278","","","","","","","0","0","1","0.4701389446","","0.8","0.2","0.4","0.6","","","","","0.3896605338","0.1854418088","0.4701389446","0.4063887309","","","","","","","","75","K","2","","","105","main_expt"
"","bandit","185","603106","0.0-146.0-0.0","76317503","wem/bandit_either_2","A2VD133723IZR8","either","2","612","","","","","","","0","0","1","0.3778019321","","0.8","0.2","0.4","0.6","","","","","0.414339711","0.1596754559","0.471324938","0.3778019321","","","","","","","","76","L","3","","","106","main_expt"
"","bandit","186","605097","0.0-147.0-0.0","76317503","wem/bandit_either_2","A2VD133723IZR8","either","2","475","","","","","","","1","0","0","0.3614143111","","0.8","0.2","0.4","0.6","","","","","0.4164239898","0.137099288","0.4786694594","0.3614143111","","","","","","","","76","L","3","","","107","main_expt"
"","bandit","187","607033","0.0-148.0-0.0","76317503","wem/bandit_either_2","A2VD133723IZR8","either","2","420","","","","","","","0","1","0","","0.3681250399","0.8","0.2","0.4","0.6","0.3836571442","0.1443984823","0.4810065258","0.3681250399","","","","","","","","","","","","76","L","3","","","108","main_expt"
"","bandit","188","608800","0.0-149.0-0.0","76317503","wem/bandit_either_2","A2VD133723IZR8","either","2","248","","","","","","","0","0","1","0.3446081275","","0.8","0.2","0.4","0.6","","","","","0.3881214568","0.1409511773","0.4816764674","0.3446081275","","","","","","","","76","L","3","","","109","main_expt"
"","bandit","189","610792","0.0-150.0-0.0","76317503","wem/bandit_either_2","A2VD133723IZR8","either","2","475","","","","","","","0","1","0","","0.4882082215","0.8","0.2","0.4","0.6","0.4266873791","0.1787750665","0.4882082215","0.3681270965","","","","","","","","","","","","75","K","2","","","110","main_expt"
"","bandit","190","612477","0.0-151.0-0.0","76317503","wem/bandit_either_2","A2VD133723IZR8","either","2","167","","","","","","","0","0","1","","0.478642168","0.8","0.2","0.4","0.6","0.4475699482","0.1862786225","0.478642168","0.391379093","","","","","","","","","","","","75","K","2","","","111","main_expt"
"","bandit","191","614256","0.0-152.0-0.0","76317503","wem/bandit_either_2","A2VD133723IZR8","either","2","263","","","","","","","0","0","1","","0.1654620982","0.8","0.2","0.4","0.6","0.4190314983","0.1654620982","0.4841415165","0.4131544452","","","","","","","","","","","","74","J","1","","","112","main_expt"
"","bandit","192","616004","0.0-153.0-0.0","76317503","wem/bandit_either_2","A2VD133723IZR8","either","2","231","","","","","","","0","0","1","0.1582981878","","0.8","0.2","0.4","0.6","","","","","0.3666128881","0.1582981878","0.4883212127","0.3963985948","","","","","","","","74","J","1","","","113","main_expt"
"","bandit","193","617555","0.0-154.0-0.0","76317503","wem/bandit_either_2","A2VD133723IZR8","either","2","35","","","","","","","0","0","1","0.3866259854","","0.8","0.2","0.4","0.6","","","","","0.3866259854","0.1922757069","0.4883790739","0.4117985871","","","","","","","","72","H","0","img/none_selected.jpg","","114","main_expt"
"","bandit","194","619538","0.0-155.0-0.0","76317503","wem/bandit_either_2","A2VD133723IZR8","either","2","467","","","","","","","1","0","0","0.354161152","","0.8","0.2","0.4","0.6","","","","","0.354161152","0.185618385","0.4902011966","0.394381103","","","","","","","","72","H","0","img/none_selected.jpg","","115","main_expt"
"","bandit","195","621306","0.0-156.0-0.0","76317503","wem/bandit_either_2","A2VD133723IZR8","either","2","252","","","","","","","0","0","1","","0.3170745426","0.8","0.2","0.4","0.6","0.3170745426","0.2057277395","0.4844723045","0.3762408663","","","","","","","","","","","","72","H","0","img/none_selected.jpg","","116","main_expt"
"","bandit","196","623490","0.0-157.0-0.0","76317503","wem/bandit_either_2","A2VD133723IZR8","either","2","670","","","","","","","0","0","1","0.304536318","","0.8","0.2","0.4","0.6","","","","","0.304536318","0.2288411079","0.4895589844","0.3823674378","","","","","","","","72","H","0","img/none_selected.jpg","","117","main_expt"
"","bandit","197","625295","0.0-158.0-0.0","76317503","wem/bandit_either_2","A2VD133723IZR8","either","2","290","","","","","","","0","0","1","","0.2207517482","0.8","0.2","0.4","0.6","0.3411026949","0.2207517482","0.4899729034","0.4050195855","","","","","","","","","","","","74","J","1","","","118","main_expt"
"","bandit","198","627305","0.0-159.0-0.0","76317503","wem/bandit_either_2","A2VD133723IZR8","either","2","491","","","","","","","0","0","1","0.4947041593","","0.8","0.2","0.4","0.6","","","","","0.3447942488","0.1955286499","0.4947041593","0.4227562767","","","","","","","","75","K","2","","","119","main_expt"
"","bandit","199","629316","0.0-160.0-0.0","76317503","wem/bandit_either_2","A2VD133723IZR8","either","2","494","","","","","","","0","0","1","","0.4163810796","0.8","0.2","0.4","0.6","0.3686185352","0.2427950695","0.4916865355","0.4163810796","","","","","","","","","","","","76","L","3","","","120","main_expt"
"","bandit","200","631110","0.0-161.0-0.0","76317503","wem/bandit_either_2","A2VD133723IZR8","either","2","277","","","","","","","1","0","0","0.4860386064","","0.8","0.2","0.4","0.6","","","","","0.3547669752","0.2479682904","0.4860386064","0.406821829","","","","","","","","75","K","2","","","121","main_expt"
"","bandit","201","632964","0.0-162.0-0.0","76317503","wem/bandit_either_2","A2VD133723IZR8","either","2","335","","","","","","","0","0","1","0.483083859","","0.8","0.2","0.4","0.6","","","","","0.365994073","0.3081985406","0.483083859","0.3999449125","","","","","","","","75","K","2","","","122","main_expt"
"","bandit","202","634712","0.0-163.0-0.0","76317503","wem/bandit_either_2","A2VD133723IZR8","either","2","235","","","","","","","0","0","1","0.366626489","","0.8","0.2","0.4","0.6","","","","","0.3120596142","0.3089359708","0.4791491275","0.366626489","","","","","","","","76","L","3","","","123","main_expt"
"","bandit","203","636530","0.0-164.0-0.0","76317503","wem/bandit_either_2","A2VD133723IZR8","either","2","303","","","","","","","1","0","0","0.4776777384","","0.8","0.2","0.4","0.6","","","","","0.302161917","0.3298338218","0.4776777384","0.3706278578","","","","","","","","75","K","2","","","124","main_expt"
"","bandit","204","638331","0.0-165.0-0.0","76317503","wem/bandit_either_2","A2VD133723IZR8","either","2","284","","","","","","","0","0","1","","0.478983255","0.8","0.2","0.4","0.6","0.2794370347","0.2795250441","0.478983255","0.3545504723","","","","","","","","","","","","75","K","2","","","125","main_expt"
"","bandit","205","640191","0.0-166.0-0.0","76317503","wem/bandit_either_2","A2VD133723IZR8","either","2","342","","","","","","","0","0","1","","0.2184127205","0.8","0.2","0.4","0.6","0.2466154908","0.2184127205","0.4724726719","0.3106298006","","","","","","","","","","","","74","J","1","","","126","main_expt"
"","bandit","206","642084","0.0-167.0-0.0","76317503","wem/bandit_either_2","A2VD133723IZR8","either","2","377","","","","","","","1","0","0","0.4796244369","","0.8","0.2","0.4","0.6","","","","","0.2712823261","0.2488858907","0.4796244369","0.3351405197","","","","","","","","75","K","2","","","127","main_expt"
"","bandit","207","643921","0.0-168.0-0.0","76317503","wem/bandit_either_2","A2VD133723IZR8","either","2","323","","","","","","","0","1","0","","0.4825212971","0.8","0.2","0.4","0.6","0.2095517986","0.2850827173","0.4825212971","0.2984422464","","","","","","","","","","","","75","K","2","","","128","main_expt"
"","bandit","208","645735","0.0-169.0-0.0","76317503","wem/bandit_either_2","A2VD133723IZR8","either","2","298","","","","","","","0","0","1","","0.4877535013","0.8","0.2","0.4","0.6","0.1986866195","0.2867242009","0.4877535013","0.2027892291","","","","","","","","","","","","75","K","2","","","129","main_expt"
"","bandit","209","647465","0.0-170.0-0.0","76317503","wem/bandit_either_2","A2VD133723IZR8","either","2","214","","","","","","","0","0","1","","0.2509552002","0.8","0.2","0.4","0.6","0.172959111","0.2509552002","0.4833646461","0.13768179","","","","","","","","","","","","74","J","1","","","130","main_expt"
"","bandit","210","649492","0.0-171.0-0.0","76317503","wem/bandit_either_2","A2VD133723IZR8","either","2","511","","","","","","","0","0","1","0.2172434631","","0.8","0.2","0.4","0.6","","","","","0.163172462","0.2172434631","0.4790990265","0.1352832961","","","","","","","","74","J","1","","","131","main_expt"
"","bandit","211","651266","0.0-172.0-0.0","76317503","wem/bandit_either_2","A2VD133723IZR8","either","2","259","","","","","","","0","0","1","0.161148659","","0.8","0.2","0.4","0.6","","","","","0.161148659","0.158295755","0.4882311922","0.08660982753","","","","","","","","72","H","0","img/none_selected.jpg","","132","main_expt"
"","bandit","212","653151","0.0-173.0-0.0","76317503","wem/bandit_either_2","A2VD133723IZR8","either","2","369","","","","","","","0","0","1","0.1735641072","","0.8","0.2","0.4","0.6","","","","","0.1735641072","0.185310911","0.4889625365","0.1020907376","","","","","","","","72","H","0","img/none_selected.jpg","","133","main_expt"
"","bandit","213","655877","0.0-174.0-0.0","76317503","wem/bandit_either_2","A2VD133723IZR8","either","2","1210","","","","","","","0","0","1","0.1231499397","","0.8","0.2","0.4","0.6","","","","","0.1597390633","0.1966535246","0.4916783795","0.1231499397","","","","","","","","76","L","3","","","134","main_expt"
"","bandit","214","659221","0.0-175.0-0.0","76317503","wem/bandit_either_2","A2VD133723IZR8","either","2","1829","","","","","","","0","0","1","","0.1524236556","0.8","0.2","0.4","0.6","0.1460070414","0.2290191974","0.4904315354","0.1524236556","","","","","","","","","","","","76","L","3","","","135","main_expt"
"","bandit","215","661473","0.0-176.0-0.0","76317503","wem/bandit_either_2","A2VD133723IZR8","either","2","738","","","","","","","1","0","0","0.491666595","","0.8","0.2","0.4","0.6","","","","","0.105474526","0.2929229053","0.491666595","0.1954247664","","","","","","","","75","K","2","","","136","main_expt"
"","bandit","216","663334","0.0-177.0-0.0","76317503","wem/bandit_either_2","A2VD133723IZR8","either","2","344","","","","","","","0","0","1","0.4917142499","","0.8","0.2","0.4","0.6","","","","","0.08835118593","0.2780805385","0.4917142499","0.1833989084","","","","","","","","75","K","2","","","137","main_expt"
"","bandit","217","665337","0.0-178.0-0.0","76317503","wem/bandit_either_2","A2VD133723IZR8","either","2","488","","","","","","","0","0","1","0.4870170403","","0.8","0.2","0.4","0.6","","","","","0.06418360449","0.217224157","0.4870170403","0.1490533902","","","","","","","","75","K","2","","","138","main_expt"
"","bandit","218","667609","0.0-179.0-0.0","76317503","wem/bandit_either_2","A2VD133723IZR8","either","2","754","","","","","","","1","0","0","0.4834992155","","0.8","0.2","0.4","0.6","","","","","0.03554325754","0.2323391466","0.4834992155","0.1318817547","","","","","","","","75","K","2","","","139","main_expt"
"","bandit","219","669256","0.0-180.0-0.0","76317503","wem/bandit_either_2","A2VD133723IZR8","either","2","131","","","","","","","0","0","1","","0.244475209","0.8","0.2","0.4","0.6","0.04477370895","0.244475209","0.4927392517","0.1877412345","","","","","","","","","","","","74","J","1","","","140","main_expt"
"","bandit","220","671120","0.0-181.0-0.0","76317503","wem/bandit_either_2","A2VD133723IZR8","either","2","349","","","","","","","0","0","1","","0.232604034","0.8","0.2","0.4","0.6","0.03780119019","0.232604034","0.4872377518","0.2363671377","","","","","","","","","","","","74","J","1","","","141","main_expt"
"","bandit","221","673326","0.0-182.0-0.0","76317503","wem/bandit_either_2","A2VD133723IZR8","either","2","690","","","","","","","0","1","0","","0.4846254936","0.8","0.2","0.4","0.6","0.03149913875","0.2447345556","0.4846254936","0.2546402356","","","","","","","","","","","","75","K","2","","","142","main_expt"
"","bandit","222","675108","0.0-183.0-0.0","76317503","wem/bandit_either_2","A2VD133723IZR8","either","2","265","","","","","","","1","0","0","0.4815328815","","0.8","0.2","0.4","0.6","","","","","0.04191513266","0.26413271","0.4815328815","0.2825544685","","","","","","","","75","K","2","","","143","main_expt"
"","bandit","223","676834","0.0-184.0-0.0","76317503","wem/bandit_either_2","A2VD133723IZR8","either","2","210","","","","","","","0","0","1","","0.4854048375","0.8","0.2","0.4","0.6","0.05613120157","0.1988203511","0.4854048375","0.2731230023","","","","","","","","","","","","75","K","2","","","144","main_expt"
"","bandit","224","679089","0.0-185.0-0.0","76317503","wem/bandit_either_2","A2VD133723IZR8","either","2","738","","","","","","","0","0","1","","0.2943814715","0.8","0.2","0.4","0.6","0.03827589539","0.217822638","0.4813029389","0.2943814715","","","","","","","","","","","","76","L","3","","","145","main_expt"
"","bandit","225","680693","0.0-186.0-0.0","76317503","wem/bandit_either_2","A2VD133723IZR8","either","2","85","","","","","","","0","0","1","0.02861175853","","0.8","0.2","0.4","0.6","","","","","0.02861175853","0.2009042904","0.4884824202","0.328634005","","","","","","","","72","H","0","img/none_selected.jpg","","146","main_expt"
"","bandit","226","682638","0.0-187.0-0.0","76317503","wem/bandit_either_2","A2VD133723IZR8","either","2","431","","","","","","","0","0","1","0.3511209141","","0.8","0.2","0.4","0.6","","","","","0.02140640811","0.2080446297","0.4835291327","0.3511209141","","","","","","","","76","L","3","","","147","main_expt"
"","bandit","227","684241","0.0-188.0-0.0","76317503","wem/bandit_either_2","A2VD133723IZR8","either","2","85","","","","","","","0","0","1","","0.4716003481","0.8","0.2","0.4","0.6","0.0202041473","0.1536700415","0.4716003481","0.3874996206","","","","","","","","","","","","75","K","2","","","148","main_expt"
"","bandit","228","686114","0.0-189.0-0.0","76317503","wem/bandit_either_2","A2VD133723IZR8","either","2","356","","","","","","","0","0","1","","0.1593661633","0.8","0.2","0.4","0.6","0.01154190459","0.1593661633","0.4341886607","0.3476646045","","","","","","","","","","","","74","J","1","","","149","main_expt"
"","bandit","229","687934","0.0-190.0-0.0","76317503","wem/bandit_either_2","A2VD133723IZR8","either","2","303","","","","","","","0","1","0","","0.4014438172","0.8","0.2","0.4","0.6","0.01291237021","0.144955896","0.4014438172","0.3323010919","","","","","","","","","","","","75","K","2","","","150","main_expt"
"","bandit","230","689758","0.0-191.0-0.0","76317503","wem/bandit_either_2","A2VD133723IZR8","either","2","308","","","","","","","0","0","1","","0.3980713407","0.8","0.2","0.4","0.6","0.0137789916","0.2123564028","0.3980713407","0.3954477196","","","","","","","","","","","","75","K","2","","","151","main_expt"
"","bandit","231","691721","0.0-192.0-0.0","76317503","wem/bandit_either_2","A2VD133723IZR8","either","2","445","","","","","","","0","0","1","","0.2301890466","0.8","0.2","0.4","0.6","0.01985271471","0.2301890466","0.4002357887","0.4186327087","","","","","","","","","","","","74","J","1","","","152","main_expt"
"","bandit","232","693546","0.0-193.0-0.0","76317503","wem/bandit_either_2","A2VD133723IZR8","either","2","309","","","","","","","0","1","0","","0.4029566754","0.8","0.2","0.4","0.6","0.02951100453","0.2295153641","0.388677987","0.4029566754","","","","","","","","","","","","76","L","3","","","153","main_expt"
"","bandit","233","695342","0.0-194.0-0.0","76317503","wem/bandit_either_2","A2VD133723IZR8","either","2","280","","","","","","","1","0","0","0.4037751878","","0.8","0.2","0.4","0.6","","","","","0.02325572033","0.2163321136","0.3817747688","0.4037751878","","","","","","","","76","L","3","","","154","main_expt"
"","bandit","234","697229","0.0-195.0-0.0","76317503","wem/bandit_either_2","A2VD133723IZR8","either","2","371","","","","","","","1","0","0","0.4078727314","","0.8","0.2","0.4","0.6","","","","","0.03925092562","0.2257858177","0.327727533","0.4078727314","","","","","","","","76","L","3","","","155","main_expt"
"","bandit","235","699345","0.0-196.0-0.0","76317503","wem/bandit_either_2","A2VD133723IZR8","either","2","598","","","","","","","0","1","0","","0.3941681487","0.8","0.2","0.4","0.6","0.05532081832","0.2077891775","0.2821504166","0.3941681487","","","","","","","","","","","","76","L","3","","","156","main_expt"
"","bandit","236","701452","0.0-197.0-0.0","76317503","wem/bandit_either_2","A2VD133723IZR8","either","2","590","","","","","","","1","0","0","0.3417147062","","0.8","0.2","0.4","0.6","","","","","0.05983660039","0.1742908387","0.2784527126","0.3417147062","","","","","","","","76","L","3","","","157","main_expt"
"","bandit","237","703390","0.0-198.0-0.0","76317503","wem/bandit_either_2","A2VD133723IZR8","either","2","419","","","","","","","0","1","0","","0.2963220618","0.8","0.2","0.4","0.6","0.09347744845","0.162057643","0.2857058734","0.2963220618","","","","","","","","","","","","76","L","3","","","158","main_expt"
"","bandit","238","705260","0.0-199.0-0.0","76317503","wem/bandit_either_2","A2VD133723IZR8","either","2","349","","","","","","","0","0","1","0.2961528309","","0.8","0.2","0.4","0.6","","","","","0.09649648717","0.1805514511","0.2349295223","0.2961528309","","","","","","","","76","L","3","","","159","main_expt"
"","bandit","239","707332","0.0-200.0-0.0","76317503","wem/bandit_either_2","A2VD133723IZR8","either","2","554","","","","","","","0","0","1","","0.2842772575","0.8","0.2","0.4","0.6","0.08382429791","0.1724629995","0.2275717407","0.2842772575","","","","","","","","","","","","76","L","3","","","160","main_expt"
"","bandit","240","709163","0.0-201.0-0.0","76317503","wem/bandit_either_2","A2VD133723IZR8","either","2","314","","","","","","","0","0","1","0.1660992999","","0.8","0.2","0.4","0.6","","","","","0.1466352983","0.1660992999","0.2559884592","0.2747674873","","","","","","","","74","J","1","","","161","main_expt"
"","bandit","241","711127","0.0-202.0-0.0","76317503","wem/bandit_either_2","A2VD133723IZR8","either","2","449","","","","","","","1","0","0","0.2281832109","","0.8","0.2","0.4","0.6","","","","","0.1569467617","0.2281832109","0.2670526618","0.2993190406","","","","","","","","74","J","1","","","162","main_expt"
"","bandit","242","713259","0.0-203.0-0.0","76317503","wem/bandit_either_2","A2VD133723IZR8","either","2","616","","","","","","","0","0","1","","0.2144285545","0.8","0.2","0.4","0.6","0.1437935099","0.2144285545","0.2618894379","0.3102408377","","","","","","","","","","","","74","J","1","","","163","main_expt"
"","bandit","243","715700","0.0-204.0-0.0","76317503","wem/bandit_either_2","A2VD133723IZR8","either","2","922","","","","","","","0","0","1","","0.2977476978","0.8","0.2","0.4","0.6","0.1503677763","0.2131293933","0.2977476978","0.2607878409","","","","","","","","","","","","75","K","2","","","164","main_expt"
"","bandit","244","717558","0.0-205.0-0.0","76317503","wem/bandit_either_2","A2VD133723IZR8","either","2","342","","","","","","","0","0","1","","0.3138636066","0.8","0.2","0.4","0.6","0.1574825995","0.251698227","0.3138636066","0.2470054868","","","","","","","","","","","","75","K","2","","","165","main_expt"
"","bandit","245","719386","0.0-206.0-0.0","76317503","wem/bandit_either_2","A2VD133723IZR8","either","2","312","","","","","","","0","1","0","","0.2831539445","0.8","0.2","0.4","0.6","0.1500633275","0.2831539445","0.3204338644","0.2629624785","","","","","","","","","","","","74","J","1","","","166","main_expt"
"","bandit","246","721206","0.0-207.0-0.0","76317503","wem/bandit_either_2","A2VD133723IZR8","either","2","304","","","","","","","0","0","1","0.2496169508","","0.8","0.2","0.4","0.6","","","","","0.1137242654","0.2496169508","0.3600517585","0.2745713682","","","","","","","","74","J","1","","","167","main_expt"
"","bandit","247","723012","0.0-208.0-0.0","76317503","wem/bandit_either_2","A2VD133723IZR8","either","2","288","","","","","","","1","0","0","0.145192941","","0.8","0.2","0.4","0.6","","","","","0.145192941","0.2315540067","0.3678373827","0.2557249153","","","","","","","","72","H","0","img/none_selected.jpg","","168","main_expt"
"","bandit","248","724652","0.0-209.0-0.0","76317503","wem/bandit_either_2","A2VD133723IZR8","either","2","120","","","","","","","0","0","1","0.1863479632","","0.8","0.2","0.4","0.6","","","","","0.1863479632","0.1825517174","0.3421512568","0.2016321063","","","","","","","","72","H","0","img/none_selected.jpg","","169","main_expt"
"","bandit","249","726538","0.0-210.0-0.0","76317503","wem/bandit_either_2","A2VD133723IZR8","either","2","368","","","","","","","0","0","1","","0.2535959064","0.8","0.2","0.4","0.6","0.142304713","0.2535959064","0.3917895485","0.2210696627","","","","","","","","","","","","74","J","1","","","170","main_expt"
"","bandit","250","728325","0.0-211.0-0.0","76317503","wem/bandit_either_2","A2VD133723IZR8","either","2","269","","","","","","","0","1","0","","0.3206692194","0.8","0.2","0.4","0.6","0.1739768979","0.3004284576","0.3206692194","0.1627904758","","","","","","","","","","","","75","K","2","","","171","main_expt"
"","bandit","251","730174","0.0-212.0-0.0","76317503","wem/bandit_either_2","A2VD133723IZR8","either","2","326","","","","","","","0","0","1","0.3198600846","","0.8","0.2","0.4","0.6","","","","","0.2172659048","0.2716191145","0.3198600846","0.1421076649","","","","","","","","75","K","2","","","172","main_expt"
"","bandit","252","731985","0.0-213.0-0.0","76317503","wem/bandit_either_2","A2VD133723IZR8","either","2","293","","","","","","","0","0","1","0.165050165","","0.8","0.2","0.4","0.6","","","","","0.2419731025","0.3253138029","0.2641483633","0.165050165","","","","","","","","76","L","3","","","173","main_expt"
"","bandit","253","733955","0.0-214.0-0.0","76317503","wem/bandit_either_2","A2VD133723IZR8","either","2","451","","","","","","","0","0","1","0.2248062597","","0.8","0.2","0.4","0.6","","","","","0.2239571331","0.3419591401","0.2248062597","0.1406738207","","","","","","","","75","K","2","","","174","main_expt"
"","bandit","254","735802","0.0-215.0-0.0","76317503","wem/bandit_either_2","A2VD133723IZR8","either","2","327","","","","","","","1","0","0","0.138310495","","0.8","0.2","0.4","0.6","","","","","0.2311410243","0.3442692367","0.2370379408","0.138310495","","","","","","","","76","L","3","","","175","main_expt"
"","bandit","255","737666","0.0-216.0-0.0","76317503","wem/bandit_either_2","A2VD133723IZR8","either","2","345","","","","","","","0","0","1","0.1675243642","","0.8","0.2","0.4","0.6","","","","","0.2610077479","0.3397266539","0.2157433706","0.1675243642","","","","","","","","76","L","3","","","176","main_expt"
"","bandit","256","739803","0.0-217.0-0.0","76317503","wem/bandit_either_2","A2VD133723IZR8","either","2","618","","","","","","","0","0","1","0.2780938204","","0.8","0.2","0.4","0.6","","","","","0.2780938204","0.2997078274","0.2014791824","0.1919885971","","","","","","","","72","H","0","img/none_selected.jpg","","177","main_expt"
"","bandit","257","742711","0.0-218.0-0.0","76317503","wem/bandit_either_2","A2VD133723IZR8","either","2","1389","","","","","","","0","0","1","","0.3151752793","0.8","0.2","0.4","0.6","0.3151752793","0.3064007527","0.1913564418","0.2365392944","","","","","","","","","","","","72","H","0","img/none_selected.jpg","","178","main_expt"
"","bandit","258","744686","0.0-219.0-0.0","76317503","wem/bandit_either_2","A2VD133723IZR8","either","2","458","","","","","","","0","0","1","0.3533432679","","0.8","0.2","0.4","0.6","","","","","0.2799621139","0.3533432679","0.1980728016","0.2509455726","","","","","","","","74","J","1","","","179","main_expt"
"","bandit","259","746585","0.0-220.0-0.0","76317503","wem/bandit_either_2","A2VD133723IZR8","either","2","381","","","","","","","0","0","1","","0.1833491223","0.8","0.2","0.4","0.6","0.3170936092","0.3652522579","0.1833491223","0.2767223981","","","","","","","","","","","","75","K","2","","","180","main_expt"
"","bandit","260","748687","0.0-221.0-0.0","76317503","wem/bandit_either_2","A2VD133723IZR8","either","2","579","","","","","","","0","0","1","","0.1342686697","0.8","0.2","0.4","0.6","0.28101752","0.3383156657","0.1342686697","0.314600373","","","","","","","","","","","","75","K","2","","","181","main_expt"
"","bandit","261","750414","0.0-222.0-0.0","76317503","wem/bandit_either_2","A2VD133723IZR8","either","2","207","","","","","","","0","1","0","","0.3943610609","0.8","0.2","0.4","0.6","0.3043342224","0.2902116232","0.1636660304","0.3943610609","","","","","","","","","","","","76","L","3","","","182","main_expt"
"","bandit","262","752276","0.0-223.0-0.0","76317503","wem/bandit_either_2","A2VD133723IZR8","either","2","344","","","","","","","0","0","1","","0.3586422101","0.8","0.2","0.4","0.6","0.3192524042","0.3026157476","0.136761637","0.3586422101","","","","","","","","","","","","76","L","3","","","183","main_expt"
"","bandit","263","754496","0.0-224.0-0.0","76317503","wem/bandit_either_2","A2VD133723IZR8","either","2","700","","","","","","","0","0","1","","0.3879999062","0.8","0.2","0.4","0.6","0.3332516821","0.3360229169","0.1685989701","0.3879999062","","","","","","","","","","","","76","L","3","","","184","main_expt"
"","bandit","264","756165","0.0-225.0-0.0","76317503","wem/bandit_either_2","A2VD133723IZR8","either","2","151","","","","","","","0","0","1","0.1663529744","","0.8","0.2","0.4","0.6","","","","","0.3228184693","0.3336456265","0.1663529744","0.3831340227","","","","","","","","75","K","2","","","185","main_expt"
"","bandit","265","757991","0.0-226.0-0.0","76317503","wem/bandit_either_2","A2VD133723IZR8","either","2","308","","","","","","","0","0","1","0.3308881938","","0.8","0.2","0.4","0.6","","","","","0.3111703144","0.3308881938","0.1916836285","0.3999004662","","","","","","","","74","J","1","","","186","main_expt"
"","bandit","266","761749","0.0-227.0-0.0","76317503","wem/bandit_either_2","A2VD133723IZR8","either","2","2240","","","","","","","0","0","1","0.3353611299","","0.8","0.2","0.4","0.6","","","","","0.3353611299","0.325530054","0.1686829448","0.3875363153","","","","","","","","72","H","0","img/none_selected.jpg","","187","main_expt"
"","bandit","267","763482","0.0-228.0-0.0","76317503","wem/bandit_either_2","A2VD133723IZR8","either","2","213","","","","","","","1","0","0","0.3055482451","","0.8","0.2","0.4","0.6","","","","","0.3646937268","0.3055482451","0.1461675531","0.3875691392","","","","","","","","74","J","1","","","188","main_expt"
"","bandit","268","765276","0.0-229.0-0.0","76317503","wem/bandit_either_2","A2VD133723IZR8","either","2","276","","","","","","","0","0","1","","0.3002345065","0.8","0.2","0.4","0.6","0.3891323825","0.3002345065","0.1382971047","0.4166866882","","","","","","","","","","","","74","J","1","","","189","main_expt"
"","bandit","269","766846","0.0-230.0-0.0","76317503","wem/bandit_either_2","A2VD133723IZR8","either","2","51","","","","","","","0","0","1","","0.1898135375","0.8","0.2","0.4","0.6","0.3860741766","0.2693931213","0.1898135375","0.4124474499","","","","","","","","","","","","75","K","2","","","190","main_expt"
"","bandit","270","768946","0.0-231.0-0.0","76317503","wem/bandit_either_2","A2VD133723IZR8","either","2","581","","","","","","","0","1","0","","0.3638199534","0.8","0.2","0.4","0.6","0.3864243721","0.3009284261","0.1264917812","0.3638199534","","","","","","","","","","","","76","L","3","","","191","main_expt"
"","bandit","271","770571","0.0-232.0-0.0","76317503","wem/bandit_either_2","A2VD133723IZR8","either","2","108","","","","","","","0","1","0","","0.3711146034","0.8","0.2","0.4","0.6","0.400448014","0.3157917784","0.1185409567","0.3711146034","","","","","","","","","","","","76","L","3","","","192","main_expt"
"","bandit","272","772539","0.0-233.0-0.0","76317503","wem/bandit_either_2","A2VD133723IZR8","either","2","446","","","","","","","0","1","0","","0.3654165885","0.8","0.2","0.4","0.6","0.3895367297","0.2999212614","0.09837948322","0.3654165885","","","","","","","","","","","","76","L","3","","","193","main_expt"
"","bandit","273","774375","0.0-234.0-0.0","76317503","wem/bandit_either_2","A2VD133723IZR8","either","2","317","","","","","","","0","1","0","","0.3537818584","0.8","0.2","0.4","0.6","0.4032313792","0.3287494418","0.137690802","0.3537818584","","","","","","","","","","","","76","L","3","","","194","main_expt"
"","bandit","274","776147","0.0-235.0-0.0","76317503","wem/bandit_either_2","A2VD133723IZR8","either","2","253","","","","","","","1","0","0","0.3597494918","","0.8","0.2","0.4","0.6","","","","","0.337234763","0.3031978913","0.1683354775","0.3597494918","","","","","","","","76","L","3","","","195","main_expt"
"","bandit","275","778026","0.0-236.0-0.0","76317503","wem/bandit_either_2","A2VD133723IZR8","either","2","359","","","","","","","0","0","1","0.3479121901","","0.8","0.2","0.4","0.6","","","","","0.3950764453","0.2901303692","0.1561951964","0.3479121901","","","","","","","","76","L","3","","","196","main_expt"
"","bandit","276","779782","0.0-237.0-0.0","76317503","wem/bandit_either_2","A2VD133723IZR8","either","2","237","","","","","","","0","0","1","","0.1329868482","0.8","0.2","0.4","0.6","0.4193743727","0.2444781728","0.1329868482","0.3596292454","","","","","","","","","","","","75","K","2","","","197","main_expt"
"","bandit","277","781565","0.0-238.0-0.0","76317503","wem/bandit_either_2","A2VD133723IZR8","either","2","265","","","","","","","0","0","1","0.2140047665","","0.8","0.2","0.4","0.6","","","","","0.4375347816","0.2140047665","0.1730826789","0.3555371828","","","","","","","","74","J","1","","","198","main_expt"
"","bandit","278","783267","0.0-239.0-0.0","76317503","wem/bandit_either_2","A2VD133723IZR8","either","2","183","","","","","","","0","0","1","0.4315030007","","0.8","0.2","0.4","0.6","","","","","0.4315030007","0.2077842613","0.1385649096","0.4016486285","","","","","","","","72","H","0","img/none_selected.jpg","","199","main_expt"
"","bandit","279","785112","0.0-240.0-0.0","76317503","wem/bandit_either_2","A2VD133723IZR8","either","2","325","","","","","","","0","0","1","0.4340108373","","0.8","0.2","0.4","0.6","","","","","0.4340108373","0.180488049","0.1941139053","0.3871107612","","","","","","","","72","H","0","img/none_selected.jpg","","200","main_expt"
"","bandit","280","786978","0.0-241.0-0.0","76317503","wem/bandit_either_2","A2VD133723IZR8","either","2","346","","","","","","","0","0","1","","0.2084987087","0.8","0.2","0.4","0.6","0.441078118","0.2084987087","0.1825013029","0.3856539452","","","","","","","","","","","","74","J","1","","","201","main_expt"
"","bandit","281","788755","0.0-242.0-0.0","76317503","wem/bandit_either_2","A2VD133723IZR8","either","2","258","","","","","","","0","0","1","0.162440572","","0.8","0.2","0.4","0.6","","","","","0.4143682719","0.1869669721","0.162440572","0.358588673","","","","","","","","75","K","2","","","202","main_expt"
"","bandit","282","790574","0.0-243.0-0.0","76317503","wem/bandit_either_2","A2VD133723IZR8","either","2","300","","","","","","","0","0","1","0.3460881607","","0.8","0.2","0.4","0.6","","","","","0.4280720422","0.1383076553","0.1914238456","0.3460881607","","","","","","","","76","L","3","","","203","main_expt"
"","bandit","283","792372","0.0-244.0-0.0","76317503","wem/bandit_either_2","A2VD133723IZR8","either","2","278","","","","","","","0","0","1","","0.3091432968","0.8","0.2","0.4","0.6","0.4113524858","0.1656187697","0.1849793247","0.3091432968","","","","","","","","","","","","76","L","3","","","204","main_expt"
"","bandit","284","794117","0.0-245.0-0.0","76317503","wem/bandit_either_2","A2VD133723IZR8","either","2","225","","","","","","","1","0","0","0.3016396897","","0.8","0.2","0.4","0.6","","","","","0.4151465815","0.1699285253","0.1722293799","0.3016396897","","","","","","","","76","L","3","","","205","main_expt"
"","bandit","285","795647","0.0-246.0-0.0","76317503","wem/bandit_either_2","A2VD133723IZR8","either","2","11","","","","","","","0","0","1","","0.3300702997","0.8","0.2","0.4","0.6","0.4002359997","0.161732949","0.1625694713","0.3300702997","","","","","","","","","","","","76","L","3","","","206","main_expt"
"","bandit","286","797445","0.0-247.0-0.0","76317503","wem/bandit_either_2","A2VD133723IZR8","either","2","279","","","","","","","0","1","0","","0.2648848683","0.8","0.2","0.4","0.6","0.3692387261","0.1699017951","0.1079769143","0.2648848683","","","","","","","","","","","","76","L","3","","","207","main_expt"
"","bandit","287","799034","0.0-248.0-0.0","76317503","wem/bandit_either_2","A2VD133723IZR8","either","2","66","","","","","","","0","0","1","0.2502792914","","0.8","0.2","0.4","0.6","","","","","0.3283471685","0.1592107695","0.1380178959","0.2502792914","","","","","","","","76","L","3","","","208","main_expt"
"","bandit","288","800845","0.0-249.0-0.0","76317503","wem/bandit_either_2","A2VD133723IZR8","either","2","291","","","","","","","1","0","0","0.2770073026","","0.8","0.2","0.4","0.6","","","","","0.2924758898","0.1659907122","0.1538506734","0.2770073026","","","","","","","","76","L","3","","","209","main_expt"
"","bandit","289","802640","0.0-250.0-0.0","76317503","wem/bandit_either_2","A2VD133723IZR8","either","2","271","","","","","","","0","0","1","0.3451435735","","0.8","0.2","0.4","0.6","","","","","0.2279470939","0.229525517","0.1406222791","0.3451435735","","","","","","","","76","L","3","","","210","main_expt"
"","bandit","290","804456","0.0-251.0-0.0","76317503","wem/bandit_either_2","A2VD133723IZR8","either","2","295","","","","","","","0","0","1","","0.2434605193","0.8","0.2","0.4","0.6","0.2131844406","0.2434605193","0.08987887408","0.3514478275","","","","","","","","","","","","74","J","1","","","211","main_expt"
"","bandit","291","806250","0.0-252.0-0.0","76317503","wem/bandit_either_2","A2VD133723IZR8","either","2","274","","","","","","","0","0","1","0.1601793481","","0.8","0.2","0.4","0.6","","","","","0.1601793481","0.1633214123","0.1277875359","0.3579324364","","","","","","","","72","H","0","img/none_selected.jpg","","212","main_expt"
"","bandit","292","808081","0.0-253.0-0.0","76317503","wem/bandit_either_2","A2VD133723IZR8","either","2","311","","","","","","","0","0","1","0.1354109392","","0.8","0.2","0.4","0.6","","","","","0.1354109392","0.1014835246","0.134271297","0.3231243524","","","","","","","","72","H","0","img/none_selected.jpg","","213","main_expt"
"","bandit","293","809886","0.0-254.0-0.0","76317503","wem/bandit_either_2","A2VD133723IZR8","either","2","285","","","","","","","0","0","1","0.1142105534","","0.8","0.2","0.4","0.6","","","","","0.1142105534","0.09587264096","0.1385204111","0.2798540136","","","","","","","","72","H","0","img/none_selected.jpg","","214","main_expt"
"","bandit","294","811423","0.0-255.0-0.0","76317503","wem/bandit_either_2","A2VD133723IZR8","either","2","15","","","","","","","0","0","1","","0.1089132689","0.8","0.2","0.4","0.6","0.1031311673","0.08342689115","0.1089132689","0.2469391402","","","","","","","","","","","","75","K","2","","","215","main_expt"
"","bandit","295","814010","0.0-256.0-0.0","76317503","wem/bandit_either_2","A2VD133723IZR8","either","2","1067","","","","","","","0","0","1","","0.1299508563","0.8","0.2","0.4","0.6","0.1031732366","0.05361264496","0.1299508563","0.3211823944","","","","","","","","","","","","75","K","2","","","216","main_expt"
"","bandit","296","816052","0.0-257.0-0.0","76317503","wem/bandit_either_2","A2VD133723IZR8","either","2","521","","","","","","","0","0","1","0.131109262","","0.8","0.2","0.4","0.6","","","","","0.1188097379","0.09912420903","0.131109262","0.3545519007","","","","","","","","75","K","2","","","217","main_expt"
"","bandit","297","818270","0.0-258.0-0.0","76317503","wem/bandit_either_2","A2VD133723IZR8","either","2","698","","","","","","","1","0","0","0.3781539282","","0.8","0.2","0.4","0.6","","","","","0.1096623481","0.1021137889","0.1039495344","0.3781539282","","","","","","","","76","L","3","","","218","main_expt"
"","bandit","298","820492","0.0-259.0-0.0","76317503","wem/bandit_either_2","A2VD133723IZR8","either","2","699","","","","","","","0","0","1","0.3674409598","","0.8","0.2","0.4","0.6","","","","","0.08679630722","0.1025207236","0.09488552944","0.3674409598","","","","","","","","76","L","3","","","219","main_expt"
"","bandit","299","822353","0.0-260.0-0.0","76317503","wem/bandit_either_2","A2VD133723IZR8","either","2","339","","","","","","","0","0","1","","0.315237632","0.8","0.2","0.4","0.6","0.1482089448","0.1049734862","0.1311925698","0.315237632","","","","","","","","","","","","76","L","3","","","220","main_expt"
"","bandit","300","824229","0.0-261.0-0.0","76317503","wem/bandit_either_2","A2VD133723IZR8","either","2","351","","","","","","","1","0","0","0.08224132258","","0.8","0.2","0.4","0.6","","","","","0.217172314","0.08244295151","0.08224132258","0.3572442142","","","","","","","","75","K","2","","","221","main_expt"
"","bandit","301","826025","0.0-262.0-0.0","76317503","wem/bandit_either_2","A2VD133723IZR8","either","2","273","","","","","","","0","0","1","0.06870998364","","0.8","0.2","0.4","0.6","","","","","0.2227738938","0.09815111748","0.06870998364","0.2796125419","","","","","","","","75","K","2","","","222","main_expt"
"","bandit","302","828005","0.0-263.0-0.0","76317503","wem/bandit_either_2","A2VD133723IZR8","either","2","458","","","","","","","1","0","0","0.09925351505","","0.8","0.2","0.4","0.6","","","","","0.2768694491","0.09925351505","0.111762886","0.2265565182","","","","","","","","74","J","1","","","223","main_expt"
"","bandit","303","829902","0.0-264.0-0.0","76317503","wem/bandit_either_2","A2VD133723IZR8","either","2","376","","","","","","","0","0","1","0.07842644678","","0.8","0.2","0.4","0.6","","","","","0.2895694018","0.07842644678","0.09652303785","0.1727872262","","","","","","","","74","J","1","","","224","main_expt"
"","bandit","304","831682","0.0-265.0-0.0","76317503","wem/bandit_either_2","A2VD133723IZR8","either","2","258","","","","","","","0","0","1","0.3515154126","","0.8","0.2","0.4","0.6","","","","","0.3515154126","0.05284632075","0.09424892582","0.1580797834","","","","","","","","72","H","0","img/none_selected.jpg","","225","main_expt"
"","bandit","305","833516","0.0-266.0-0.0","76317503","wem/bandit_either_2","A2VD133723IZR8","either","2","311","","","","","","","1","0","0","0.3960872924","","0.8","0.2","0.4","0.6","","","","","0.3960872924","0.06788221328","0.1094697254","0.1206031336","","","","","","","","72","H","0","img/none_selected.jpg","","226","main_expt"
"","bandit","306","835334","0.0-267.0-0.0","76317503","wem/bandit_either_2","A2VD133723IZR8","either","2","298","","","","","","","0","0","1","","0.3301105445","0.8","0.2","0.4","0.6","0.3301105445","0.04226868229","0.1055794081","0.1218099769","","","","","","","","","","","","72","H","0","img/none_selected.jpg","","227","main_expt"
"","bandit","307","836872","0.0-268.0-0.0","76317503","wem/bandit_either_2","A2VD133723IZR8","either","2","16","","","","","","","1","0","0","0.3679650562","","0.8","0.2","0.4","0.6","","","","","0.3679650562","0.06174471126","0.1210232629","0.08458740206","","","","","","","","72","H","0","img/none_selected.jpg","","228","main_expt"
"","bandit","308","838845","0.0-269.0-0.0","76317503","wem/bandit_either_2","A2VD133723IZR8","either","2","453","","","","","","","0","0","1","0.3413725311","","0.8","0.2","0.4","0.6","","","","","0.3413725311","0.06122033102","0.1249199002","0.06311990622","","","","","","","","72","H","0","img/none_selected.jpg","","229","main_expt"
"","bandit","309","840695","0.0-270.0-0.0","76317503","wem/bandit_either_2","A2VD133723IZR8","either","2","330","","","","","","","0","0","1","0.3652503211","","0.8","0.2","0.4","0.6","","","","","0.3652503211","0.09369367087","0.1423167866","0.04674316758","","","","","","","","72","H","0","img/none_selected.jpg","","230","main_expt"
"","bandit","310","843098","0.0-271.0-0.0","76317503","wem/bandit_either_2","A2VD133723IZR8","either","2","881","","","","","","","0","0","1","","0.1441411413","0.8","0.2","0.4","0.6","0.3774172636","0.1378364932","0.1441411413","0.06697327866","","","","","","","","","","","","75","K","2","","","231","main_expt"
"","bandit","311","846956","0.0-272.0-0.0","76317503","wem/bandit_either_2","A2VD133723IZR8","either","2","2335","","","","","","","0","0","1","","0.08617656909","0.8","0.2","0.4","0.6","0.3507397895","0.1138343256","0.1132866493","0.08617656909","","","","","","","","","","","","76","L","3","","","232","main_expt"
"","bandit","312","849017","0.0-273.0-0.0","76317503","wem/bandit_either_2","A2VD133723IZR8","either","2","537","","","","","","","0","0","1","0.08388286328","","0.8","0.2","0.4","0.6","","","","","0.3228668676","0.1602674987","0.07587191469","0.08388286328","","","","","","","","76","L","3","","","233","main_expt"
"","bandit","313","850827","0.0-274.0-0.0","76317503","wem/bandit_either_2","A2VD133723IZR8","either","2","288","","","","","","","0","0","1","0.08330376307","","0.8","0.2","0.4","0.6","","","","","0.3219168209","0.1399599793","0.08330376307","0.08303297831","","","","","","","","75","K","2","","","234","main_expt"
"","bandit","314","853336","0.0-275.0-0.0","76317503","wem/bandit_either_2","A2VD133723IZR8","either","2","989","","","","","","","0","0","1","","0.07960395758","0.8","0.2","0.4","0.6","0.2907257894","0.1577883936","0.07960395758","0.08228619446","","","","","","","","","","","","75","K","2","","","235","main_expt"
"","bandit","315","855134","0.0-276.0-0.0","76317503","wem/bandit_either_2","A2VD133723IZR8","either","2","276","","","","","","","0","1","0","","0.1206463377","0.8","0.2","0.4","0.6","0.2879125653","0.1206463377","0.06703487678","0.07856112713","","","","","","","","","","","","74","J","1","","","236","main_expt"
"","bandit","316","856905","0.0-277.0-0.0","76317503","wem/bandit_either_2","A2VD133723IZR8","either","2","250","","","","","","","0","1","0","","0.1224948263","0.8","0.2","0.4","0.6","0.3055933028","0.1224948263","0.07970276757","0.09394336493","","","","","","","","","","","","74","J","1","","","237","main_expt"
"","bandit","317","858741","0.0-278.0-0.0","76317503","wem/bandit_either_2","A2VD133723IZR8","either","2","316","","","","","","","0","0","1","","0.1163601633","0.8","0.2","0.4","0.6","0.3197806133","0.1163601633","0.05589422377","0.1044036833","","","","","","","","","","","","74","J","1","","","238","main_expt"
"","bandit","318","860585","0.0-279.0-0.0","76317503","wem/bandit_either_2","A2VD133723IZR8","either","2","320","","","","","","","0","0","1","","0.09302868556","0.8","0.2","0.4","0.6","0.2699970134","0.09302868556","0.07304711058","0.1010835707","","","","","","","","","","","","74","J","1","","","239","main_expt"
"","bandit","319","862279","0.0-280.0-0.0","76317503","wem/bandit_either_2","A2VD133723IZR8","either","2","173","","","","","","","1","0","0","0.2594796501","","0.8","0.2","0.4","0.6","","","","","0.2594796501","0.1142909623","0.05193691484","0.1196592177","","","","","","","","72","H","0","img/none_selected.jpg","","240","main_expt"
"","bandit","320","864237","0.0-281.0-0.0","76317503","wem/bandit_either_2","A2VD133723IZR8","either","2","435","","","","","","","0","0","1","0.252227353","","0.8","0.2","0.4","0.6","","","","","0.252227353","0.1694552561","0.06844812817","0.127320561","","","","","","","","72","H","0","img/none_selected.jpg","","241","main_expt"
"","bandit","321","866098","0.0-282.0-0.0","76317503","wem/bandit_either_2","A2VD133723IZR8","either","2","340","","","","","","","0","0","1","0.301231011","","0.8","0.2","0.4","0.6","","","","","0.301231011","0.1828807391","0.07869989264","0.10641745","","","","","","","","72","H","0","img/none_selected.jpg","","242","main_expt"
"","bandit","322","869281","0.0-283.0-0.0","76317503","wem/bandit_either_2","A2VD133723IZR8","either","2","1660","","","","","","","0","0","1","0.2903867436","","0.8","0.2","0.4","0.6","","","","","0.2903867436","0.1236361748","0.06084245892","0.131785075","","","","","","","","72","H","0","img/none_selected.jpg","","243","main_expt"
"","bandit","323","871317","0.0-284.0-0.0","76317503","wem/bandit_either_2","A2VD133723IZR8","either","2","517","","","","","","","0","0","1","","0.1131162958","0.8","0.2","0.4","0.6","0.2659167858","0.1131162958","0.04982625113","0.1150513838","","","","","","","","","","","","74","J","1","","","244","main_expt"
"","bandit","324","872916","0.0-285.0-0.0","76317503","wem/bandit_either_2","A2VD133723IZR8","either","2","77","","","","","","","0","0","1","","0.04708965441","0.8","0.2","0.4","0.6","0.254087564","0.08611006768","0.04708965441","0.1651966394","","","","","","","","","","","","75","K","2","","","245","main_expt"
"","bandit","325","875073","0.0-286.0-0.0","76317503","wem/bandit_either_2","A2VD133723IZR8","either","2","637","","","","","","","0","0","1","","0.0280961865","0.8","0.2","0.4","0.6","0.2551799517","0.1123216353","0.0280961865","0.1555796254","","","","","","","","","","","","75","K","2","","","246","main_expt"
"","bandit","326","877693","0.0-287.0-0.0","76317503","wem/bandit_either_2","A2VD133723IZR8","either","2","1097","","","","","","","0","1","0","","0.1703980626","0.8","0.2","0.4","0.6","0.2629335529","0.09475638668","0.04499456282","0.1703980626","","","","","","","","","","","","76","L","3","","","247","main_expt"
"","bandit","327","879518","0.0-288.0-0.0","76317503","wem/bandit_either_2","A2VD133723IZR8","either","2","304","","","","","","","0","0","1","","0.1502680902","0.8","0.2","0.4","0.6","0.2393496224","0.08309477664","0.03910304398","0.1502680902","","","","","","","","","","","","76","L","3","","","248","main_expt"
