"consent","trial_type","trial_index","time_elapsed","internal_node_id","subjID","study","MID","cond","drift","rt","responses","key_press","expt_phase","like","value","connected","gems","bombs","no_reward","GemPrChosen","BombPrChosen","GainOverPainPr_0","GainOverPainPr_1","GainOverPainPr_2","GainOverPainPr_3","LosePr_0","LosePr_1","LosePr_2","LosePr_3","WinPr_0","WinPr_1","WinPr_2","WinPr_3","Q0","Q1","Q2","gender","age","ethnicity","target","respCharCode","respKey","respChoiceNum","respChoice","practice","trial_counter","trial_label"
"INL_behavioral_consent_30min_online.html","consent","0","5498","0.0-0.0","78154490","wem/bandit_either_2","A1M682B2WUSYJP","either","7","","","","","","","","","","","","","","","","","","","","","","","","","","","","","","","","","","","","","",""
"","survey-text","1","8947","0.0-1.0","78154490","wem/bandit_either_2","A1M682B2WUSYJP","either","7","2440","{""Q0"":""A1M682B2WUSYJP""}","","","","","","","","","","","","","","","","","","","","","","","","","","","","","","","","","","","",""
"","text","2","12926","0.0-2.0","78154490","wem/bandit_either_2","A1M682B2WUSYJP","either","7","2976","","32","","","","","","","","","","","","","","","","","","","","","","","","","","","","","","","","","","",""
"","text","3","15811","0.0-3.0","78154490","wem/bandit_either_2","A1M682B2WUSYJP","either","7","2884","","32","","","","","","","","","","","","","","","","","","","","","","","","","","","","","","","","","","",""
"","text","4","22997","0.0-4.0","78154490","wem/bandit_either_2","A1M682B2WUSYJP","either","7","7184","","32","","","","","","","","","","","","","","","","","","","","","","","","","","","","","","","","","","",""
"","text","5","29274","0.0-5.0","78154490","wem/bandit_either_2","A1M682B2WUSYJP","either","7","6276","","32","","","","","","","","","","","","","","","","","","","","","","","","","","","","","","","","","","",""
"","text","6","38930","0.0-6.0","78154490","wem/bandit_either_2","A1M682B2WUSYJP","either","7","9654","","32","","","","","","","","","","","","","","","","","","","","","","","","","","","","","","","","","","",""
"","text","7","43703","0.0-7.0","78154490","wem/bandit_either_2","A1M682B2WUSYJP","either","7","4770","","32","","","","","","","","","","","","","","","","","","","","","","","","","","","","","","","","","","",""
"","text","8","45863","0.0-8.0","78154490","wem/bandit_either_2","A1M682B2WUSYJP","either","7","2157","","32","","","","","","","","","","","","","","","","","","","","","","","","","","","","","","","","","","",""
"","identification","9","56561","0.0-9.0-0.0","78154490","wem/bandit_either_2","A1M682B2WUSYJP","either","7","10676","","","","3","3","4","","","","","","","","","","","","","","","","","","","","","","","","the village of Zur","","","","","","",""
"","identification","10","60037","0.0-9.0-1.0","78154490","wem/bandit_either_2","A1M682B2WUSYJP","either","7","2456","","","","2","1","1","","","","","","","","","","","","","","","","","","","","","","","","the village of Nyx","","","","","","",""
"","text","11","64595","0.0-10.0","78154490","wem/bandit_either_2","A1M682B2WUSYJP","either","7","3554","","32","","","","","","","","","","","","","","","","","","","","","","","","","","","","","","","","","","",""
"","text","12","66249","0.0-11.0","78154490","wem/bandit_either_2","A1M682B2WUSYJP","either","7","1654","","32","","","","","","","","","","","","","","","","","","","","","","","","","","","","","","","","","","",""
"","text","13","67196","0.0-12.0","78154490","wem/bandit_either_2","A1M682B2WUSYJP","either","7","946","","32","","","","","","","","","","","","","","","","","","","","","","","","","","","","","","","","","","",""
"","text","14","69530","0.0-13.0","78154490","wem/bandit_either_2","A1M682B2WUSYJP","either","7","2333","","32","","","","","","","","","","","","","","","","","","","","","","","","","","","","","","","","","","",""
"","bandit","15","72518","0.0-14.0-0.0","78154490","wem/bandit_either_2","A1M682B2WUSYJP","either","7","1481","","","","","","","0","0","1","0","0","","","","","0","","","","0","","","","","","","","","","","74","J","0","img/none_selected_demo.jpg","true","0",""
"","bandit","16","74495","0.0-15.0-0.0","78154490","wem/bandit_either_2","A1M682B2WUSYJP","either","7","469","","","","","","","0","0","1","0","0","","","","","0","","","","0","","","","","","","","","","","75","K","0","img/none_selected_demo.jpg","true","0",""
"","text","17","77178","0.0-16.0","78154490","wem/bandit_either_2","A1M682B2WUSYJP","either","7","2681","","32","","","","","","","","","","","","","","","","","","","","","","","","","","","","","","","","","","",""
"","text","18","81140","0.0-17.0","78154490","wem/bandit_either_2","A1M682B2WUSYJP","either","7","3960","","32","","","","","","","","","","","","","","","","","","","","","","","","","","","","","","","","","","",""
"","text","19","83978","0.0-18.0","78154490","wem/bandit_either_2","A1M682B2WUSYJP","either","7","2837","","32","","","","","","","","","","","","","","","","","","","","","","","","","","","","","","","","","","",""
"","text","20","86134","0.0-19.0","78154490","wem/bandit_either_2","A1M682B2WUSYJP","either","7","2154","","32","","","","","","","","","","","","","","","","","","","","","","","","","","","","","","","","","","",""
"","bandit","21","88077","0.0-20.0-0.0","78154490","wem/bandit_either_2","A1M682B2WUSYJP","either","7","436","","","","","","","0","0","1","0.2","","0.5","0.5","","","","","","","0.8","0.2","","","","","","","","","","75","K","1","","true","0","80_20_practice"
"","bandit","22","89589","0.0-20.0-1.0","78154490","wem/bandit_either_2","A1M682B2WUSYJP","either","7","4","","","","","","","0","0","1","0.2","","0.5","0.5","","","","","","","0.8","0.2","","","","","","","","","","75","K","1","","true","0","80_20_practice"
"","bandit","23","91188","0.0-20.0-2.0","78154490","wem/bandit_either_2","A1M682B2WUSYJP","either","7","89","","","","","","","0","0","1","","0.2","0.5","0.5","","","0.8","0.2","","","","","","","","","","","","","","75","K","1","","true","0","80_20_practice"
"","bandit","24","93192","0.0-20.0-3.0","78154490","wem/bandit_either_2","A1M682B2WUSYJP","either","7","498","","","","","","","0","1","0","","0.8","0.5","0.5","","","0.8","0.2","","","","","","","","","","","","","","74","J","0","img/none_selected_demo.jpg","true","0","80_20_practice"
"","bandit","25","94880","0.0-20.0-4.0","78154490","wem/bandit_either_2","A1M682B2WUSYJP","either","7","175","","","","","","","1","0","0","0.8","","0.5","0.5","","","","","","","0.8","0.2","","","","","","","","","","74","J","0","img/none_selected_demo.jpg","true","0","80_20_practice"
"","bandit","26","96573","0.0-20.0-5.0","78154490","wem/bandit_either_2","A1M682B2WUSYJP","either","7","88","","","","","","","0","1","0","","0.8","0.5","0.5","","","0.8","0.2","","","","","","","","","","","","","","74","J","0","img/none_selected_demo.jpg","true","0","80_20_practice"
"","bandit","27","98444","0.0-20.0-6.0","78154490","wem/bandit_either_2","A1M682B2WUSYJP","either","7","365","","","","","","","0","1","0","","0.8","0.5","0.5","","","0.8","0.2","","","","","","","","","","","","","","74","J","0","img/none_selected_demo.jpg","true","0","80_20_practice"
"","bandit","28","99953","0.0-20.0-7.0","78154490","wem/bandit_either_2","A1M682B2WUSYJP","either","7","3","","","","","","","0","1","0","","0.8","0.5","0.5","","","0.8","0.2","","","","","","","","","","","","","","74","J","0","img/none_selected_demo.jpg","true","0","80_20_practice"
"","bandit","29","102139","0.0-20.0-8.0","78154490","wem/bandit_either_2","A1M682B2WUSYJP","either","7","632","","","","","","","1","0","0","0.8","","0.5","0.5","","","","","","","0.8","0.2","","","","","","","","","","74","J","0","img/none_selected_demo.jpg","true","0","80_20_practice"
"","bandit","30","103861","0.0-20.0-9.0","78154490","wem/bandit_either_2","A1M682B2WUSYJP","either","7","215","","","","","","","0","1","0","","0.8","0.5","0.5","","","0.8","0.2","","","","","","","","","","","","","","74","J","0","img/none_selected_demo.jpg","true","0","80_20_practice"
"","bandit","31","105702","0.0-20.0-10.0","78154490","wem/bandit_either_2","A1M682B2WUSYJP","either","7","335","","","","","","","1","0","0","0.8","","0.5","0.5","","","","","","","0.8","0.2","","","","","","","","","","74","J","0","img/none_selected_demo.jpg","true","0","80_20_practice"
"","bandit","32","107466","0.0-20.0-11.0","78154490","wem/bandit_either_2","A1M682B2WUSYJP","either","7","259","","","","","","","0","0","1","","0.8","0.5","0.5","","","0.8","0.2","","","","","","","","","","","","","","74","J","0","img/none_selected_demo.jpg","true","0","80_20_practice"
"","bandit","33","110006","0.0-20.0-12.0","78154490","wem/bandit_either_2","A1M682B2WUSYJP","either","7","976","","","","","","","0","1","0","","0.8","0.5","0.5","","","0.8","0.2","","","","","","","","","","","","","","74","J","0","img/none_selected_demo.jpg","true","0","80_20_practice"
"","bandit","34","111520","0.0-20.0-13.0","78154490","wem/bandit_either_2","A1M682B2WUSYJP","either","7","7","","","","","","","1","0","0","0.8","","0.5","0.5","","","","","","","0.8","0.2","","","","","","","","","","74","J","0","img/none_selected_demo.jpg","true","0","80_20_practice"
"","bandit","35","113959","0.0-20.0-14.0","78154490","wem/bandit_either_2","A1M682B2WUSYJP","either","7","932","","","","","","","1","0","0","0.8","","0.5","0.5","","","","","","","0.8","0.2","","","","","","","","","","74","J","0","img/none_selected_demo.jpg","true","0","80_20_practice"
"","bandit","36","115718","0.0-20.0-15.0","78154490","wem/bandit_either_2","A1M682B2WUSYJP","either","7","252","","","","","","","0","1","0","","0.8","0.5","0.5","","","0.8","0.2","","","","","","","","","","","","","","74","J","0","img/none_selected_demo.jpg","true","0","80_20_practice"
"","bandit","37","117884","0.0-20.0-16.0","78154490","wem/bandit_either_2","A1M682B2WUSYJP","either","7","661","","","","","","","1","0","0","0.8","","0.5","0.5","","","","","","","0.8","0.2","","","","","","","","","","74","J","0","img/none_selected_demo.jpg","true","0","80_20_practice"
"","bandit","38","119852","0.0-20.0-17.0","78154490","wem/bandit_either_2","A1M682B2WUSYJP","either","7","462","","","","","","","0","1","0","","0.8","0.5","0.5","","","0.8","0.2","","","","","","","","","","","","","","74","J","0","img/none_selected_demo.jpg","true","0","80_20_practice"
"","bandit","39","121828","0.0-20.0-18.0","78154490","wem/bandit_either_2","A1M682B2WUSYJP","either","7","469","","","","","","","1","0","0","0.8","","0.5","0.5","","","","","","","0.8","0.2","","","","","","","","","","74","J","0","img/none_selected_demo.jpg","true","0","80_20_practice"
"","bandit","40","123517","0.0-20.0-19.0","78154490","wem/bandit_either_2","A1M682B2WUSYJP","either","7","183","","","","","","","0","1","0","","0.8","0.5","0.5","","","0.8","0.2","","","","","","","","","","","","","","74","J","0","img/none_selected_demo.jpg","true","0","80_20_practice"
"","text","41","126415","0.0-21.0","78154490","wem/bandit_either_2","A1M682B2WUSYJP","either","7","2895","","32","","","","","","","","","","","","","","","","","","","","","","","","","","","","","","","","","","",""
"","bandit","42","129385","0.0-22.0-0.0","78154490","wem/bandit_either_2","A1M682B2WUSYJP","either","7","1459","","","","","","","1","0","0","1","0","","","","","0","1","","","1","0","","","","","","","","","","74","J","0","img/none_selected_demo.jpg","true","0",""
"","text","43","131190","0.0-23.0","78154490","wem/bandit_either_2","A1M682B2WUSYJP","either","7","1802","","32","","","","","","","","","","","","","","","","","","","","","","","","","","","","","","","","","","",""
"","text","44","133393","0.0-24.0","78154490","wem/bandit_either_2","A1M682B2WUSYJP","either","7","2200","","32","","","","","","","","","","","","","","","","","","","","","","","","","","","","","","","","","","",""
"","text","45","134479","0.0-25.0","78154490","wem/bandit_either_2","A1M682B2WUSYJP","either","7","1082","","32","","","","","","","","","","","","","","","","","","","","","","","","","","","","","","","","","","",""
"","text","46","135380","0.0-26.0","78154490","wem/bandit_either_2","A1M682B2WUSYJP","either","7","897","","32","","","","","","","","","","","","","","","","","","","","","","","","","","","","","","","","","","",""
"","text","47","137808","0.0-27.0","78154490","wem/bandit_either_2","A1M682B2WUSYJP","either","7","2425","","32","","","","","","","","","","","","","","","","","","","","","","","","","","","","","","","","","","",""
"","text","48","138572","0.0-28.0","78154490","wem/bandit_either_2","A1M682B2WUSYJP","either","7","762","","32","","","","","","","","","","","","","","","","","","","","","","","","","","","","","","","","","","",""
"","text","49","142586","0.0-29.0","78154490","wem/bandit_either_2","A1M682B2WUSYJP","either","7","4012","","32","","","","","","","","","","","","","","","","","","","","","","","","","","","","","","","","","","",""
"","text","50","143980","0.0-30.0","78154490","wem/bandit_either_2","A1M682B2WUSYJP","either","7","1390","","32","","","","","","","","","","","","","","","","","","","","","","","","","","","","","","","","","","",""
"","text","51","146505","0.0-31.0","78154490","wem/bandit_either_2","A1M682B2WUSYJP","either","7","2521","","32","","","","","","","","","","","","","","","","","","","","","","","","","","","","","","","","","","",""
"","text","52","147217","0.0-32.0","78154490","wem/bandit_either_2","A1M682B2WUSYJP","either","7","708","","32","","","","","","","","","","","","","","","","","","","","","","","","","","","","","","","","","","",""
"","text","53","153597","0.0-33.0","78154490","wem/bandit_either_2","A1M682B2WUSYJP","either","7","6376","","32","","","","","","","","","","","","","","","","","","","","","","","","","","","","","","","","","","",""
"","bandit","54","155867","0.0-34.0-0.0","78154490","wem/bandit_either_2","A1M682B2WUSYJP","either","7","659","","","","","","","0","1","0","","0.8","0.5","0.5","0.5","0.5","0.8","0.2","0.6","0.2","","","","","","","","","","","","72","H","0","img/none_selected.jpg","true","0","full_practice"
"","bandit","55","158301","0.0-34.0-1.0","78154490","wem/bandit_either_2","A1M682B2WUSYJP","either","7","923","","","","","","","1","0","0","0.8","","0.5","0.5","0.5","0.5","","","","","0.8","0.2","0.6","0.2","","","","","","","","72","H","0","img/none_selected.jpg","true","0","full_practice"
"","bandit","56","159887","0.0-34.0-2.0","78154490","wem/bandit_either_2","A1M682B2WUSYJP","either","7","77","","","","","","","0","1","0","","0.8","0.5","0.5","0.5","0.5","0.8","0.2","0.6","0.2","","","","","","","","","","","","72","H","0","img/none_selected.jpg","true","0","full_practice"
"","bandit","57","161575","0.0-34.0-3.0","78154490","wem/bandit_either_2","A1M682B2WUSYJP","either","7","179","","","","","","","0","0","1","0.8","","0.5","0.5","0.5","0.5","","","","","0.8","0.2","0.6","0.2","","","","","","","","72","H","0","img/none_selected.jpg","true","0","full_practice"
"","bandit","58","163192","0.0-34.0-4.0","78154490","wem/bandit_either_2","A1M682B2WUSYJP","either","7","105","","","","","","","0","0","1","","0.2","0.5","0.5","0.5","0.5","0.8","0.2","0.6","0.2","","","","","","","","","","","","74","J","1","","true","0","full_practice"
"","bandit","59","165121","0.0-34.0-5.0","78154490","wem/bandit_either_2","A1M682B2WUSYJP","either","7","420","","","","","","","0","1","0","","0.6","0.5","0.5","0.5","0.5","0.8","0.2","0.6","0.2","","","","","","","","","","","","75","K","2","","true","0","full_practice"
"","bandit","60","166748","0.0-34.0-6.0","78154490","wem/bandit_either_2","A1M682B2WUSYJP","either","7","121","","","","","","","0","1","0","","0.6","0.5","0.5","0.5","0.5","0.8","0.2","0.6","0.2","","","","","","","","","","","","75","K","2","","true","0","full_practice"
"","bandit","61","168333","0.0-34.0-7.0","78154490","wem/bandit_either_2","A1M682B2WUSYJP","either","7","75","","","","","","","1","0","0","0.6","","0.5","0.5","0.5","0.5","","","","","0.8","0.2","0.6","0.2","","","","","","","","75","K","2","","true","0","full_practice"
"","bandit","62","169884","0.0-34.0-8.0","78154490","wem/bandit_either_2","A1M682B2WUSYJP","either","7","31","","","","","","","0","0","1","","0.6","0.5","0.5","0.5","0.5","0.8","0.2","0.6","0.2","","","","","","","","","","","","75","K","2","","true","0","full_practice"
"","bandit","63","171609","0.0-34.0-9.0","78154490","wem/bandit_either_2","A1M682B2WUSYJP","either","7","125","","","","","","","0","1","0","","0.2","0.5","0.5","0.5","0.5","0.8","0.2","0.6","0.2","","","","","","","","","","","","76","L","3","","true","0","full_practice"
"","bandit","64","173179","0.0-34.0-10.0","78154490","wem/bandit_either_2","A1M682B2WUSYJP","either","7","60","","","","","","","0","0","1","0.2","","0.5","0.5","0.5","0.5","","","","","0.8","0.2","0.6","0.2","","","","","","","","76","L","3","","true","0","full_practice"
"","bandit","65","175001","0.0-34.0-11.0","78154490","wem/bandit_either_2","A1M682B2WUSYJP","either","7","311","","","","","","","0","0","1","","0.2","0.5","0.5","0.5","0.5","0.8","0.2","0.6","0.2","","","","","","","","","","","","74","J","1","","true","0","full_practice"
"","bandit","66","176973","0.0-34.0-12.0","78154490","wem/bandit_either_2","A1M682B2WUSYJP","either","7","462","","","","","","","0","1","0","","0.2","0.5","0.5","0.5","0.5","0.8","0.2","0.6","0.2","","","","","","","","","","","","74","J","1","","true","0","full_practice"
"","bandit","67","178502","0.0-34.0-13.0","78154490","wem/bandit_either_2","A1M682B2WUSYJP","either","7","23","","","","","","","0","0","1","","0.2","0.5","0.5","0.5","0.5","0.8","0.2","0.6","0.2","","","","","","","","","","","","74","J","1","","true","0","full_practice"
"","bandit","68","180287","0.0-34.0-14.0","78154490","wem/bandit_either_2","A1M682B2WUSYJP","either","7","273","","","","","","","1","0","0","0.6","","0.5","0.5","0.5","0.5","","","","","0.8","0.2","0.6","0.2","","","","","","","","75","K","2","","true","0","full_practice"
"","bandit","69","182252","0.0-34.0-15.0","78154490","wem/bandit_either_2","A1M682B2WUSYJP","either","7","455","","","","","","","0","1","0","","0.6","0.5","0.5","0.5","0.5","0.8","0.2","0.6","0.2","","","","","","","","","","","","75","K","2","","true","0","full_practice"
"","bandit","70","183855","0.0-34.0-16.0","78154490","wem/bandit_either_2","A1M682B2WUSYJP","either","7","93","","","","","","","1","0","0","0.6","","0.5","0.5","0.5","0.5","","","","","0.8","0.2","0.6","0.2","","","","","","","","75","K","2","","true","0","full_practice"
"","bandit","71","185837","0.0-34.0-17.0","78154490","wem/bandit_either_2","A1M682B2WUSYJP","either","7","475","","","","","","","1","0","0","0.6","","0.5","0.5","0.5","0.5","","","","","0.8","0.2","0.6","0.2","","","","","","","","75","K","2","","true","0","full_practice"
"","bandit","72","187383","0.0-34.0-18.0","78154490","wem/bandit_either_2","A1M682B2WUSYJP","either","7","35","","","","","","","0","0","1","0.6","","0.5","0.5","0.5","0.5","","","","","0.8","0.2","0.6","0.2","","","","","","","","75","K","2","","true","0","full_practice"
"","bandit","73","189111","0.0-34.0-19.0","78154490","wem/bandit_either_2","A1M682B2WUSYJP","either","7","173","","","","","","","0","1","0","","0.8","0.5","0.5","0.5","0.5","0.8","0.2","0.6","0.2","","","","","","","","","","","","72","H","0","img/none_selected.jpg","true","0","full_practice"
"","text","74","190631","0.0-35.0","78154490","wem/bandit_either_2","A1M682B2WUSYJP","either","7","1513","","32","","","","","","","","","","","","","","","","","","","","","","","","","","","","","","","","","","",""
"","text","75","197199","0.0-36.0","78154490","wem/bandit_either_2","A1M682B2WUSYJP","either","7","5563","","32","","","","","","","","","","","","","","","","","","","","","","","","","","","","","","","","","","",""
"","text","76","199643","0.0-37.0","78154490","wem/bandit_either_2","A1M682B2WUSYJP","either","7","2438","","32","","","","","","","","","","","","","","","","","","","","","","","","","","","","","","","","","","",""
"","text","77","201582","0.0-38.0","78154490","wem/bandit_either_2","A1M682B2WUSYJP","either","7","1934","","32","","","","","","","","","","","","","","","","","","","","","","","","","","","","","","","","","","",""
"","text","78","205753","0.0-39.0","78154490","wem/bandit_either_2","A1M682B2WUSYJP","either","7","4165","","32","","","","","","","","","","","","","","","","","","","","","","","","","","","","","","","","","","",""
"","text","79","209020","0.0-40.0","78154490","wem/bandit_either_2","A1M682B2WUSYJP","either","7","3262","","32","","","","","","","","","","","","","","","","","","","","","","","","","","","","","","","","","","",""
"","bandit","80","211869","0.0-41.0-0.0","78154490","wem/bandit_either_2","A1M682B2WUSYJP","either","7","1323","","","","","","","0","0","1","","0.01738065524","0.2","0.8","0.4","0.6","0.01738065524","0.1952616071","0.1480066451","0.06530018083","","","","","","","","","","","","72","H","0","img/none_selected.jpg","","1","main_expt"
"","bandit","81","214158","0.0-42.0-0.0","78154490","wem/bandit_either_2","A1M682B2WUSYJP","either","7","752","","","","","","","0","0","1","","0.1053714073","0.2","0.8","0.4","0.6","0.0196943787","0.1652234336","0.1053714073","0.1011701763","","","","","","","","","","","","75","K","2","","","2","main_expt"
"","bandit","82","216152","0.0-43.0-0.0","78154490","wem/bandit_either_2","A1M682B2WUSYJP","either","7","477","","","","","","","0","0","1","0.1347382479","","0.2","0.8","0.4","0.6","","","","","0.01678573497","0.1347382479","0.1460078221","0.09486719381","","","","","","","","74","J","1","","","3","main_expt"
"","bandit","83","217952","0.0-44.0-0.0","78154490","wem/bandit_either_2","A1M682B2WUSYJP","either","7","277","","","","","","","0","0","1","","0.06705802814","0.2","0.8","0.4","0.6","0.02981965743","0.1684625442","0.1866138214","0.06705802814","","","","","","","","","","","","76","L","3","","","4","main_expt"
"","bandit","84","219821","0.0-45.0-0.0","78154490","wem/bandit_either_2","A1M682B2WUSYJP","either","7","359","","","","","","","0","0","1","0.0822298525","","0.2","0.8","0.4","0.6","","","","","0.02600208211","0.1792029032","0.2445348717","0.0822298525","","","","","","","","76","L","3","","","5","main_expt"
"","bandit","85","221767","0.0-46.0-0.0","78154490","wem/bandit_either_2","A1M682B2WUSYJP","either","7","436","","","","","","","0","1","0","","0.2546962146","0.2","0.8","0.4","0.6","0.02332436933","0.2153873139","0.2546962146","0.09162209411","","","","","","","","","","","","75","K","2","","","6","main_expt"
"","bandit","86","223573","0.0-47.0-0.0","78154490","wem/bandit_either_2","A1M682B2WUSYJP","either","7","294","","","","","","","0","0","1","0.2344841702","","0.2","0.8","0.4","0.6","","","","","0.02864040813","0.1757762721","0.2344841702","0.1028820098","","","","","","","","75","K","2","","","7","main_expt"
"","bandit","87","225482","0.0-48.0-0.0","78154490","wem/bandit_either_2","A1M682B2WUSYJP","either","7","369","","","","","","","0","1","0","","0.2473344203","0.2","0.8","0.4","0.6","0.02951264166","0.2241229746","0.2473344203","0.1532270122","","","","","","","","","","","","75","K","2","","","8","main_expt"
"","bandit","88","227475","0.0-49.0-0.0","78154490","wem/bandit_either_2","A1M682B2WUSYJP","either","7","430","","","","","","","0","1","0","","0.2642160399","0.2","0.8","0.4","0.6","0.02997011939","0.2199426203","0.2642160399","0.2131450397","","","","","","","","","","","","75","K","2","","","9","main_expt"
"","bandit","89","229336","0.0-50.0-0.0","78154490","wem/bandit_either_2","A1M682B2WUSYJP","either","7","336","","","","","","","0","0","1","","0.2104627424","0.2","0.8","0.4","0.6","0.02489651457","0.1520686932","0.2104627424","0.2985754635","","","","","","","","","","","","75","K","2","","","10","main_expt"
"","bandit","90","231232","0.0-51.0-0.0","78154490","wem/bandit_either_2","A1M682B2WUSYJP","either","7","388","","","","","","","0","0","1","","0.219372878","0.2","0.8","0.4","0.6","0.01651058827","0.2013349999","0.219372878","0.2924640086","","","","","","","","","","","","75","K","2","","","11","main_expt"
"","bandit","91","232892","0.0-52.0-0.0","78154490","wem/bandit_either_2","A1M682B2WUSYJP","either","7","151","","","","","","","0","1","0","","0.2105839871","0.2","0.8","0.4","0.6","0.02341729431","0.2156800105","0.2105839871","0.3264291113","","","","","","","","","","","","75","K","2","","","12","main_expt"
"","bandit","92","234746","0.0-53.0-0.0","78154490","wem/bandit_either_2","A1M682B2WUSYJP","either","7","342","","","","","","","0","0","1","0.1833947696","","0.2","0.8","0.4","0.6","","","","","0.0257410372","0.1833947696","0.2511698571","0.3254913314","","","","","","","","74","J","1","","","13","main_expt"
"","bandit","93","236502","0.0-54.0-0.0","78154490","wem/bandit_either_2","A1M682B2WUSYJP","either","7","192","","","","","","","0","0","1","0.243643366","","0.2","0.8","0.4","0.6","","","","","0.02570014082","0.243643366","0.2158977649","0.3428504842","","","","","","","","74","J","1","","","14","main_expt"
"","bandit","94","238075","0.0-55.0-0.0","78154490","wem/bandit_either_2","A1M682B2WUSYJP","either","7","65","","","","","","","0","0","1","0.2265365198","","0.2","0.8","0.4","0.6","","","","","0.04268316416","0.2265365198","0.2762480727","0.3244047679","","","","","","","","74","J","1","","","15","main_expt"
"","bandit","95","239799","0.0-56.0-0.0","78154490","wem/bandit_either_2","A1M682B2WUSYJP","either","7","218","","","","","","","1","0","0","0.04667408308","","0.2","0.8","0.4","0.6","","","","","0.04667408308","0.2484951132","0.3202890724","0.3025313629","","","","","","","","72","H","0","img/none_selected.jpg","","16","main_expt"
"","bandit","96","241722","0.0-57.0-0.0","78154490","wem/bandit_either_2","A1M682B2WUSYJP","either","7","384","","","","","","","0","0","1","0.0506688767","","0.2","0.8","0.4","0.6","","","","","0.0506688767","0.2570267238","0.3680552247","0.3291216938","","","","","","","","72","H","0","img/none_selected.jpg","","17","main_expt"
"","bandit","97","243488","0.0-58.0-0.0","78154490","wem/bandit_either_2","A1M682B2WUSYJP","either","7","239","","","","","","","0","0","1","","0.02988526167","0.2","0.8","0.4","0.6","0.02988526167","0.287418789","0.3968593921","0.2987881532","","","","","","","","","","","","72","H","0","img/none_selected.jpg","","18","main_expt"
"","bandit","98","245326","0.0-59.0-0.0","78154490","wem/bandit_either_2","A1M682B2WUSYJP","either","7","277","","","","","","","0","0","1","","0.03476350355","0.2","0.8","0.4","0.6","0.03476350355","0.2338710899","0.4192996399","0.281207523","","","","","","","","","","","","72","H","0","img/none_selected.jpg","","19","main_expt"
"","bandit","99","247441","0.0-60.0-0.0","78154490","wem/bandit_either_2","A1M682B2WUSYJP","either","7","552","","","","","","","0","1","0","","0.291129981","0.2","0.8","0.4","0.6","0.0233687216","0.2335293464","0.4362768361","0.291129981","","","","","","","","","","","","76","L","3","","","20","main_expt"
"","bandit","100","249319","0.0-61.0-0.0","78154490","wem/bandit_either_2","A1M682B2WUSYJP","either","7","368","","","","","","","0","0","1","","0.2729578326","0.2","0.8","0.4","0.6","0.01272547494","0.2434826965","0.4599691003","0.2729578326","","","","","","","","","","","","76","L","3","","","21","main_expt"
"","bandit","101","251212","0.0-62.0-0.0","78154490","wem/bandit_either_2","A1M682B2WUSYJP","either","7","325","","","","","","","0","1","0","","0.44353765","0.2","0.8","0.4","0.6","0.01739491555","0.2702300591","0.44353765","0.2805141014","","","","","","","","","","","","75","K","2","","","22","main_expt"
"","bandit","102","253100","0.0-63.0-0.0","78154490","wem/bandit_either_2","A1M682B2WUSYJP","either","7","368","","","","","","","0","0","1","","0.4105594395","0.2","0.8","0.4","0.6","0.006692102231","0.2424740502","0.4105594395","0.3016389313","","","","","","","","","","","","75","K","2","","","23","main_expt"
"","bandit","103","254954","0.0-64.0-0.0","78154490","wem/bandit_either_2","A1M682B2WUSYJP","either","7","344","","","","","","","0","0","1","0.1754503809","","0.2","0.8","0.4","0.6","","","","","0.01209419849","0.1754503809","0.4243351486","0.2475621169","","","","","","","","74","J","1","","","24","main_expt"
"","bandit","104","257131","0.0-65.0-0.0","78154490","wem/bandit_either_2","A1M682B2WUSYJP","either","7","605","","","","","","","0","1","0","","0.2607476102","0.2","0.8","0.4","0.6","0.009734580702","0.2023019753","0.4172780312","0.2607476102","","","","","","","","","","","","76","L","3","","","25","main_expt"
"","bandit","105","258969","0.0-66.0-0.0","78154490","wem/bandit_either_2","A1M682B2WUSYJP","either","7","317","","","","","","","0","0","1","","0.292589008","0.2","0.8","0.4","0.6","0.008596148908","0.1887270612","0.3981062588","0.292589008","","","","","","","","","","","","76","L","3","","","26","main_expt"
"","bandit","106","260900","0.0-67.0-0.0","78154490","wem/bandit_either_2","A1M682B2WUSYJP","either","7","416","","","","","","","0","0","1","","0.3889188119","0.2","0.8","0.4","0.6","0.01380650739","0.2526986378","0.3889188119","0.2978950393","","","","","","","","","","","","75","K","2","","","27","main_expt"
"","bandit","107","262745","0.0-68.0-0.0","78154490","wem/bandit_either_2","A1M682B2WUSYJP","either","7","332","","","","","","","0","0","1","0.2536033627","","0.2","0.8","0.4","0.6","","","","","0.01160852189","0.2536033627","0.3699095679","0.337392419","","","","","","","","74","J","1","","","28","main_expt"
"","bandit","108","264625","0.0-69.0-0.0","78154490","wem/bandit_either_2","A1M682B2WUSYJP","either","7","368","","","","","","","0","0","1","","0.02858314752","0.2","0.8","0.4","0.6","0.02858314752","0.258258936","0.4087832773","0.3830759015","","","","","","","","","","","","72","H","0","img/none_selected.jpg","","29","main_expt"
"","bandit","109","266809","0.0-70.0-0.0","78154490","wem/bandit_either_2","A1M682B2WUSYJP","either","7","675","","","","","","","0","0","1","","0.3778881599","0.2","0.8","0.4","0.6","0.0265596094","0.3152574144","0.4162513677","0.3778881599","","","","","","","","","","","","76","L","3","","","30","main_expt"
"","bandit","110","268698","0.0-71.0-0.0","78154490","wem/bandit_either_2","A1M682B2WUSYJP","either","7","380","","","","","","","0","0","1","","0.3585458117","0.2","0.8","0.4","0.6","0.02828816112","0.3508579725","0.43337534","0.3585458117","","","","","","","","","","","","76","L","3","","","31","main_expt"
"","bandit","111","270458","0.0-72.0-0.0","78154490","wem/bandit_either_2","A1M682B2WUSYJP","either","7","248","","","","","","","0","0","1","","0.3511664436","0.2","0.8","0.4","0.6","0.03857304495","0.3902021543","0.4399105216","0.3511664436","","","","","","","","","","","","76","L","3","","","32","main_expt"
"","bandit","112","272221","0.0-73.0-0.0","78154490","wem/bandit_either_2","A1M682B2WUSYJP","either","7","200","","","","","","","0","0","1","0.3859623535","","0.2","0.8","0.4","0.6","","","","","0.02642959278","0.4112626521","0.3859623535","0.3924960189","","","","","","","","75","K","2","","","33","main_expt"
"","bandit","113","274178","0.0-74.0-0.0","78154490","wem/bandit_either_2","A1M682B2WUSYJP","either","7","425","","","","","","","0","0","1","0.4231921331","","0.2","0.8","0.4","0.6","","","","","0.06800028167","0.3912589523","0.4231921331","0.3713907517","","","","","","","","75","K","2","","","34","main_expt"
"","bandit","114","276290","0.0-75.0-0.0","78154490","wem/bandit_either_2","A1M682B2WUSYJP","either","7","528","","","","","","","0","0","1","0.3950458867","","0.2","0.8","0.4","0.6","","","","","0.05710280771","0.3663646496","0.3950458867","0.3929004689","","","","","","","","75","K","2","","","35","main_expt"
"","bandit","115","278335","0.0-76.0-0.0","78154490","wem/bandit_either_2","A1M682B2WUSYJP","either","7","477","","","","","","","0","0","1","0.3045225128","","0.2","0.8","0.4","0.6","","","","","0.07756943076","0.3045225128","0.4005306787","0.3820467604","","","","","","","","74","J","1","","","36","main_expt"
"","bandit","116","280193","0.0-77.0-0.0","78154490","wem/bandit_either_2","A1M682B2WUSYJP","either","7","350","","","","","","","0","0","1","","0.06074629621","0.2","0.8","0.4","0.6","0.06074629621","0.2806474599","0.3972735937","0.3948022939","","","","","","","","","","","","72","H","0","img/none_selected.jpg","","37","main_expt"
"","bandit","117","282063","0.0-78.0-0.0","78154490","wem/bandit_either_2","A1M682B2WUSYJP","either","7","362","","","","","","","1","0","0","0.3769579019","","0.2","0.8","0.4","0.6","","","","","0.07063042774","0.3558759705","0.38339591","0.3769579019","","","","","","","","76","L","3","","","38","main_expt"
"","bandit","118","284157","0.0-79.0-0.0","78154490","wem/bandit_either_2","A1M682B2WUSYJP","either","7","586","","","","","","","0","0","1","0.4030344636","","0.2","0.8","0.4","0.6","","","","","0.06209293178","0.3194138052","0.3906354184","0.4030344636","","","","","","","","76","L","3","","","39","main_expt"
"","bandit","119","286018","0.0-80.0-0.0","78154490","wem/bandit_either_2","A1M682B2WUSYJP","either","7","324","","","","","","","0","1","0","","0.3623676206","0.2","0.8","0.4","0.6","0.06952578958","0.3549086085","0.3623676206","0.3622335218","","","","","","","","","","","","75","K","2","","","40","main_expt"
"","bandit","120","287958","0.0-81.0-0.0","78154490","wem/bandit_either_2","A1M682B2WUSYJP","either","7","417","","","","","","","0","0","1","0.3873704927","","0.2","0.8","0.4","0.6","","","","","0.1291245709","0.3452113815","0.3873704927","0.3911596719","","","","","","","","75","K","2","","","41","main_expt"
"","bandit","121","289879","0.0-82.0-0.0","78154490","wem/bandit_either_2","A1M682B2WUSYJP","either","7","410","","","","","","","0","0","1","0.3522960267","","0.2","0.8","0.4","0.6","","","","","0.1174523948","0.3522960267","0.359823116","0.3921858285","","","","","","","","74","J","1","","","42","main_expt"
"","bandit","122","292175","0.0-83.0-0.0","78154490","wem/bandit_either_2","A1M682B2WUSYJP","either","7","782","","","","","","","0","0","1","0.3831213528","","0.2","0.8","0.4","0.6","","","","","0.1201484523","0.3093122096","0.3710191411","0.3831213528","","","","","","","","76","L","3","","","43","main_expt"
"","bandit","123","294356","0.0-84.0-0.0","78154490","wem/bandit_either_2","A1M682B2WUSYJP","either","7","322","","","","","","","0","0","1","0.3026159556","","0.2","0.8","0.4","0.6","","","","","0.09958360536","0.3026159556","0.3874065465","0.3518708159","","","","","","","","74","J","1","","","44","main_expt"
"","bandit","124","296240","0.0-85.0-0.0","78154490","wem/bandit_either_2","A1M682B2WUSYJP","either","7","375","","","","","","","0","0","1","","0.3336294247","0.2","0.8","0.4","0.6","0.05173655998","0.3336294247","0.3851533971","0.3122870636","","","","","","","","","","","","74","J","1","","","45","main_expt"
"","bandit","125","297795","0.0-86.0-0.0","78154490","wem/bandit_either_2","A1M682B2WUSYJP","either","7","37","","","","","","","0","1","0","","0.05945041096","0.2","0.8","0.4","0.6","0.05945041096","0.3400222736","0.4055883719","0.2635721956","","","","","","","","","","","","72","H","0","img/none_selected.jpg","","46","main_expt"
"","bandit","126","299762","0.0-87.0-0.0","78154490","wem/bandit_either_2","A1M682B2WUSYJP","either","7","458","","","","","","","0","0","1","0.04375763727","","0.2","0.8","0.4","0.6","","","","","0.04375763727","0.328707825","0.3671593179","0.2856785865","","","","","","","","72","H","0","img/none_selected.jpg","","47","main_expt"
"","bandit","127","301614","0.0-88.0-0.0","78154490","wem/bandit_either_2","A1M682B2WUSYJP","either","7","310","","","","","","","0","0","1","","0.0666370861","0.2","0.8","0.4","0.6","0.0666370861","0.3307690822","0.3198203038","0.2649087478","","","","","","","","","","","","72","H","0","img/none_selected.jpg","","48","main_expt"
"","bandit","128","303542","0.0-89.0-0.0","78154490","wem/bandit_either_2","A1M682B2WUSYJP","either","7","418","","","","","","","0","1","0","","0.3438067684","0.2","0.8","0.4","0.6","0.08266213623","0.3438067684","0.3111357295","0.2462979357","","","","","","","","","","","","74","J","1","","","49","main_expt"
"","bandit","129","305592","0.0-90.0-0.0","78154490","wem/bandit_either_2","A1M682B2WUSYJP","either","7","540","","","","","","","0","0","1","","0.3196682981","0.2","0.8","0.4","0.6","0.08795051988","0.4037002216","0.3196682981","0.2490076798","","","","","","","","","","","","75","K","2","","","50","main_expt"
"","bandit","130","307591","0.0-91.0-0.0","78154490","wem/bandit_either_2","A1M682B2WUSYJP","either","7","491","","","","","","","0","0","1","0.305209751","","0.2","0.8","0.4","0.6","","","","","0.07533366945","0.3557518394","0.3088596379","0.305209751","","","","","","","","76","L","3","","","51","main_expt"
"","bandit","131","309328","0.0-92.0-0.0","78154490","wem/bandit_either_2","A1M682B2WUSYJP","either","7","201","","","","","","","0","0","1","0.06506638851","","0.2","0.8","0.4","0.6","","","","","0.06506638851","0.3254324358","0.3060924957","0.3087204988","","","","","","","","72","H","0","img/none_selected.jpg","","52","main_expt"
"","bandit","132","312408","0.0-93.0-0.0","78154490","wem/bandit_either_2","A1M682B2WUSYJP","either","7","1566","","","","","","","0","0","1","","0.06562792832","0.2","0.8","0.4","0.6","0.06562792832","0.2952150256","0.3229319808","0.2984188648","","","","","","","","","","","","72","H","0","img/none_selected.jpg","","53","main_expt"
"","bandit","133","314707","0.0-94.0-0.0","78154490","wem/bandit_either_2","A1M682B2WUSYJP","either","7","789","","","","","","","0","1","0","","0.300320608","0.2","0.8","0.4","0.6","0.04630081711","0.300320608","0.3280138586","0.3353917468","","","","","","","","","","","","74","J","1","","","54","main_expt"
"","bandit","134","316920","0.0-95.0-0.0","78154490","wem/bandit_either_2","A1M682B2WUSYJP","either","7","703","","","","","","","0","0","1","0.2985084879","","0.2","0.8","0.4","0.6","","","","","0.03868373719","0.2985084879","0.2777260571","0.3259144651","","","","","","","","74","J","1","","","55","main_expt"
"","bandit","135","319354","0.0-96.0-0.0","78154490","wem/bandit_either_2","A1M682B2WUSYJP","either","7","924","","","","","","","0","0","1","0.2607009345","","0.2","0.8","0.4","0.6","","","","","0.06235362297","0.2607009345","0.1791004868","0.3259049121","","","","","","","","74","J","1","","","56","main_expt"
"","bandit","136","321802","0.0-97.0-0.0","78154490","wem/bandit_either_2","A1M682B2WUSYJP","either","7","846","","","","","","","0","0","1","0.2565854794","","0.2","0.8","0.4","0.6","","","","","0.04639461243","0.2565854794","0.2182265394","0.3687904078","","","","","","","","74","J","1","","","57","main_expt"
"","bandit","137","324066","0.0-98.0-0.0","78154490","wem/bandit_either_2","A1M682B2WUSYJP","either","7","755","","","","","","","0","0","1","0.2970860181","","0.2","0.8","0.4","0.6","","","","","0.08954448139","0.319121847","0.2970860181","0.3422038875","","","","","","","","75","K","2","","","58","main_expt"
"","bandit","138","326222","0.0-99.0-0.0","78154490","wem/bandit_either_2","A1M682B2WUSYJP","either","7","574","","","","","","","0","0","1","0.3771421139","","0.2","0.8","0.4","0.6","","","","","0.07390342289","0.3269923399","0.3249685468","0.3771421139","","","","","","","","76","L","3","","","59","main_expt"
"","bandit","139","328351","0.0-100.0-0.0","78154490","wem/bandit_either_2","A1M682B2WUSYJP","either","7","620","","","","","","","0","0","1","","0.3620124399","0.2","0.8","0.4","0.6","0.05801548519","0.3150968823","0.2931470039","0.3620124399","","","","","","","","","","","","76","L","3","","","60","main_expt"
"","bandit","140","331079","0.0-101.0-0.0","78154490","wem/bandit_either_2","A1M682B2WUSYJP","either","7","1218","","","","","","","1","0","0","0.3958116198","","0.2","0.8","0.4","0.6","","","","","0.07333263924","0.324539239","0.2646536279","0.3958116198","","","","","","","","76","L","3","","","61","main_expt"
"","bandit","141","333313","0.0-102.0-0.0","78154490","wem/bandit_either_2","A1M682B2WUSYJP","either","7","645","","","","","","","0","0","1","0.3615218546","","0.2","0.8","0.4","0.6","","","","","0.07563430262","0.3066306166","0.242461968","0.3615218546","","","","","","","","76","L","3","","","62","main_expt"
"","bandit","142","334895","0.0-103.0-0.0","78154490","wem/bandit_either_2","A1M682B2WUSYJP","either","7","73","","","","","","","0","0","1","0.3068900116","","0.2","0.8","0.4","0.6","","","","","0.06826526778","0.3068900116","0.2206683029","0.3574266064","","","","","","","","74","J","1","","","63","main_expt"
"","bandit","143","337646","0.0-104.0-0.0","78154490","wem/bandit_either_2","A1M682B2WUSYJP","either","7","1238","","","","","","","0","0","1","","0.2288959862","0.2","0.8","0.4","0.6","0.1175271989","0.2936494982","0.2288959862","0.3541915859","","","","","","","","","","","","75","K","2","","","64","main_expt"
"","bandit","144","339881","0.0-105.0-0.0","78154490","wem/bandit_either_2","A1M682B2WUSYJP","either","7","716","","","","","","","1","0","0","0.290236101","","0.2","0.8","0.4","0.6","","","","","0.1273865191","0.290236101","0.2346523549","0.3339820985","","","","","","","","74","J","1","","","65","main_expt"
"","bandit","145","342044","0.0-106.0-0.0","78154490","wem/bandit_either_2","A1M682B2WUSYJP","either","7","651","","","","","","","0","0","1","0.2512036594","","0.2","0.8","0.4","0.6","","","","","0.09075088943","0.2512036594","0.1881688105","0.3195467083","","","","","","","","74","J","1","","","66","main_expt"
"","bandit","146","344556","0.0-107.0-0.0","78154490","wem/bandit_either_2","A1M682B2WUSYJP","either","7","997","","","","","","","0","0","1","","0.08077075725","0.2","0.8","0.4","0.6","0.08077075725","0.263747572","0.231043846","0.3477383846","","","","","","","","","","","","72","H","0","img/none_selected.jpg","","67","main_expt"
"","bandit","147","346397","0.0-108.0-0.0","78154490","wem/bandit_either_2","A1M682B2WUSYJP","either","7","330","","","","","","","0","0","1","","0.08810311296","0.2","0.8","0.4","0.6","0.08810311296","0.2892519303","0.2576664243","0.3365352069","","","","","","","","","","","","72","H","0","img/none_selected.jpg","","68","main_expt"
"","bandit","148","348279","0.0-109.0-0.0","78154490","wem/bandit_either_2","A1M682B2WUSYJP","either","7","372","","","","","","","0","0","1","0.2183283259","","0.2","0.8","0.4","0.6","","","","","0.1260156682","0.2383664846","0.2183283259","0.3148812039","","","","","","","","75","K","2","","","69","main_expt"
"","bandit","149","350244","0.0-110.0-0.0","78154490","wem/bandit_either_2","A1M682B2WUSYJP","either","7","454","","","","","","","0","1","0","","0.3154014692","0.2","0.8","0.4","0.6","0.08773951932","0.2497111545","0.2260484764","0.3154014692","","","","","","","","","","","","76","L","3","","","70","main_expt"
"","bandit","150","352114","0.0-111.0-0.0","78154490","wem/bandit_either_2","A1M682B2WUSYJP","either","7","358","","","","","","","0","0","1","0.219815459","","0.2","0.8","0.4","0.6","","","","","0.1154304285","0.2095843002","0.3196469567","0.219815459","","","","","","","","76","L","3","","","71","main_expt"
"","bandit","151","354155","0.0-112.0-0.0","78154490","wem/bandit_either_2","A1M682B2WUSYJP","either","7","529","","","","","","","0","0","1","0.3644141189","","0.2","0.8","0.4","0.6","","","","","0.10097247","0.1972488467","0.3644141189","0.2623730272","","","","","","","","75","K","2","","","72","main_expt"
"","bandit","152","355812","0.0-113.0-0.0","78154490","wem/bandit_either_2","A1M682B2WUSYJP","either","7","78","","","","","","","0","0","1","0.15494396","","0.2","0.8","0.4","0.6","","","","","0.0746930591","0.15494396","0.4081842109","0.2639805735","","","","","","","","74","J","1","","","73","main_expt"
"","bandit","153","357816","0.0-114.0-0.0","78154490","wem/bandit_either_2","A1M682B2WUSYJP","either","7","492","","","","","","","0","0","1","","0.1124392477","0.2","0.8","0.4","0.6","0.1124392477","0.1324790415","0.4506698749","0.2770925356","","","","","","","","","","","","72","H","0","img/none_selected.jpg","","74","main_expt"
"","bandit","154","359980","0.0-115.0-0.0","78154490","wem/bandit_either_2","A1M682B2WUSYJP","either","7","549","","","","","","","0","0","1","0.179195356","","0.2","0.8","0.4","0.6","","","","","0.113494578","0.179195356","0.454520075","0.2796652475","","","","","","","","74","J","1","","","75","main_expt"
"","bandit","155","362076","0.0-116.0-0.0","78154490","wem/bandit_either_2","A1M682B2WUSYJP","either","7","584","","","","","","","0","0","1","","0.466199952","0.2","0.8","0.4","0.6","0.1469344428","0.215808919","0.466199952","0.3153427244","","","","","","","","","","","","75","K","2","","","76","main_expt"
"","bandit","156","364014","0.0-117.0-0.0","78154490","wem/bandit_either_2","A1M682B2WUSYJP","either","7","374","","","","","","","0","0","1","","0.3676911864","0.2","0.8","0.4","0.6","0.2152215887","0.2312347408","0.4402141775","0.3676911864","","","","","","","","","","","","76","L","3","","","77","main_expt"
"","bandit","157","365528","0.0-118.0-0.0","78154490","wem/bandit_either_2","A1M682B2WUSYJP","either","7","3","","","","","","","0","1","0","","0.3434277392","0.2","0.8","0.4","0.6","0.2055177618","0.2197025874","0.4525957793","0.3434277392","","","","","","","","","","","","76","L","3","","","78","main_expt"
"","bandit","158","368043","0.0-119.0-0.0","78154490","wem/bandit_either_2","A1M682B2WUSYJP","either","7","1006","","","","","","","1","0","0","0.4630799716","","0.2","0.8","0.4","0.6","","","","","0.222262525","0.2227420924","0.4630799716","0.3758616161","","","","","","","","75","K","2","","","79","main_expt"
"","bandit","159","370147","0.0-120.0-0.0","78154490","wem/bandit_either_2","A1M682B2WUSYJP","either","7","582","","","","","","","0","1","0","","0.423693353","0.2","0.8","0.4","0.6","0.2700860438","0.2283057493","0.423693353","0.3862393514","","","","","","","","","","","","75","K","2","","","80","main_expt"
"","bandit","160","372187","0.0-121.0-0.0","78154490","wem/bandit_either_2","A1M682B2WUSYJP","either","7","526","","","","","","","0","0","1","","0.4319112677","0.2","0.8","0.4","0.6","0.2642688004","0.2721525977","0.4319112677","0.3593770893","","","","","","","","","","","","75","K","2","","","81","main_expt"
"","bandit","161","374271","0.0-122.0-0.0","78154490","wem/bandit_either_2","A1M682B2WUSYJP","either","7","561","","","","","","","0","0","1","","0.2850237184","0.2","0.8","0.4","0.6","0.2824164754","0.2850237184","0.441827487","0.4035110645","","","","","","","","","","","","74","J","1","","","82","main_expt"
"","bandit","162","375980","0.0-123.0-0.0","78154490","wem/bandit_either_2","A1M682B2WUSYJP","either","7","199","","","","","","","0","0","1","","0.2819095575","0.2","0.8","0.4","0.6","0.2819095575","0.3236436683","0.4288861504","0.3719627038","","","","","","","","","","","","72","H","0","img/none_selected.jpg","","83","main_expt"
"","bandit","163","377740","0.0-124.0-0.0","78154490","wem/bandit_either_2","A1M682B2WUSYJP","either","7","247","","","","","","","0","0","1","","0.2589745902","0.2","0.8","0.4","0.6","0.2589745902","0.3339638593","0.4350385517","0.3349288927","","","","","","","","","","","","72","H","0","img/none_selected.jpg","","84","main_expt"
"","bandit","164","379679","0.0-125.0-0.0","78154490","wem/bandit_either_2","A1M682B2WUSYJP","either","7","389","","","","","","","0","0","1","0.3626504113","","0.2","0.8","0.4","0.6","","","","","0.3626504113","0.3795022601","0.4255505645","0.3247899262","","","","","","","","72","H","0","img/none_selected.jpg","","85","main_expt"
"","bandit","165","381829","0.0-126.0-0.0","78154490","wem/bandit_either_2","A1M682B2WUSYJP","either","7","519","","","","","","","1","0","0","0.3835523064","","0.2","0.8","0.4","0.6","","","","","0.3598915268","0.3835523064","0.4330938692","0.3443557019","","","","","","","","74","J","1","","","86","main_expt"
"","bandit","166","384130","0.0-127.0-0.0","78154490","wem/bandit_either_2","A1M682B2WUSYJP","either","7","781","","","","","","","0","0","1","0.3772514457","","0.2","0.8","0.4","0.6","","","","","0.3433052933","0.3772514457","0.4548398529","0.3648776167","","","","","","","","74","J","1","","","87","main_expt"
"","bandit","167","385948","0.0-128.0-0.0","78154490","wem/bandit_either_2","A1M682B2WUSYJP","either","7","305","","","","","","","1","0","0","0.3766830519","","0.2","0.8","0.4","0.6","","","","","0.4022938878","0.3766830519","0.4493124031","0.3609631839","","","","","","","","74","J","1","","","88","main_expt"
"","bandit","168","389358","0.0-129.0-0.0","78154490","wem/bandit_either_2","A1M682B2WUSYJP","either","7","1870","","","","","","","0","0","1","0.3537755119","","0.2","0.8","0.4","0.6","","","","","0.4141493151","0.3537755119","0.4161110063","0.3636167192","","","","","","","","74","J","1","","","89","main_expt"
"","bandit","169","392382","0.0-130.0-0.0","78154490","wem/bandit_either_2","A1M682B2WUSYJP","either","7","1512","","","","","","","0","0","1","0.405260856","","0.2","0.8","0.4","0.6","","","","","0.4136124289","0.3014761449","0.405260856","0.3563441379","","","","","","","","75","K","2","","","90","main_expt"
"","bandit","170","394424","0.0-131.0-0.0","78154490","wem/bandit_either_2","A1M682B2WUSYJP","either","7","522","","","","","","","0","0","1","0.3389138503","","0.2","0.8","0.4","0.6","","","","","0.4184852842","0.2694038268","0.3827048226","0.3389138503","","","","","","","","76","L","3","","","91","main_expt"
"","bandit","171","396144","0.0-132.0-0.0","78154490","wem/bandit_either_2","A1M682B2WUSYJP","either","7","159","","","","","","","0","0","1","0.3263360165","","0.2","0.8","0.4","0.6","","","","","0.4456808576","0.2651536323","0.3552182969","0.3263360165","","","","","","","","76","L","3","","","92","main_expt"
"","bandit","172","397781","0.0-133.0-0.0","78154490","wem/bandit_either_2","A1M682B2WUSYJP","either","7","124","","","","","","","0","0","1","0.2844131911","","0.2","0.8","0.4","0.6","","","","","0.4355219805","0.1997208586","0.3286897504","0.2844131911","","","","","","","","76","L","3","","","93","main_expt"
"","bandit","173","399710","0.0-134.0-0.0","78154490","wem/bandit_either_2","A1M682B2WUSYJP","either","7","415","","","","","","","0","0","1","0.2978465223","","0.2","0.8","0.4","0.6","","","","","0.4609821192","0.2442555344","0.3422490236","0.2978465223","","","","","","","","76","L","3","","","94","main_expt"
"","bandit","174","401672","0.0-135.0-0.0","78154490","wem/bandit_either_2","A1M682B2WUSYJP","either","7","449","","","","","","","1","0","0","0.3160161054","","0.2","0.8","0.4","0.6","","","","","0.4419374505","0.2638839348","0.3160161054","0.2638723705","","","","","","","","75","K","2","","","95","main_expt"
"","bandit","175","403296","0.0-136.0-0.0","78154490","wem/bandit_either_2","A1M682B2WUSYJP","either","7","57","","","","","","","0","0","1","0.2945538732","","0.2","0.8","0.4","0.6","","","","","0.39438674","0.2265245807","0.2945538732","0.2276010735","","","","","","","","75","K","2","","","96","main_expt"
"","bandit","176","405437","0.0-137.0-0.0","78154490","wem/bandit_either_2","A1M682B2WUSYJP","either","7","556","","","","","","","0","1","0","","0.393563827","0.2","0.8","0.4","0.6","0.3617668419","0.1969189177","0.393563827","0.2045446072","","","","","","","","","","","","75","K","2","","","97","main_expt"
"","bandit","177","407500","0.0-138.0-0.0","78154490","wem/bandit_either_2","A1M682B2WUSYJP","either","7","437","","","","","","","1","0","0","0.4046254927","","0.2","0.8","0.4","0.6","","","","","0.3737913853","0.1761144245","0.4046254927","0.2436418828","","","","","","","","75","K","2","","","98","main_expt"
"","bandit","178","409884","0.0-139.0-0.0","78154490","wem/bandit_either_2","A1M682B2WUSYJP","either","7","824","","","","","","","0","0","1","0.3659012549","","0.2","0.8","0.4","0.6","","","","","0.4221129479","0.1211630765","0.3659012549","0.2473144087","","","","","","","","75","K","2","","","99","main_expt"
"","bandit","179","411982","0.0-140.0-0.0","78154490","wem/bandit_either_2","A1M682B2WUSYJP","either","7","492","","","","","","","0","1","0","","0.400368336","0.2","0.8","0.4","0.6","0.3857893684","0.1257326749","0.400368336","0.2707360286","","","","","","","","","","","","75","K","2","","","100","main_expt"
"","bandit","180","414058","0.0-141.0-0.0","78154490","wem/bandit_either_2","A1M682B2WUSYJP","either","7","555","","","","","","","0","0","1","","0.4367931528","0.2","0.8","0.4","0.6","0.3635527264","0.09975532208","0.4367931528","0.3250409822","","","","","","","","","","","","75","K","2","","","101","main_expt"
"","bandit","181","416429","0.0-142.0-0.0","78154490","wem/bandit_either_2","A1M682B2WUSYJP","either","7","841","","","","","","","0","0","1","","0.4371155326","0.2","0.8","0.4","0.6","0.3738375489","0.1127414424","0.4371155326","0.3088580598","","","","","","","","","","","","75","K","2","","","102","main_expt"
"","bandit","182","418498","0.0-143.0-0.0","78154490","wem/bandit_either_2","A1M682B2WUSYJP","either","7","552","","","","","","","0","1","0","","0.388648264","0.2","0.8","0.4","0.6","0.3860163181","0.1232600734","0.388648264","0.2901001995","","","","","","","","","","","","75","K","2","","","103","main_expt"
"","bandit","183","421968","0.0-144.0-0.0","78154490","wem/bandit_either_2","A1M682B2WUSYJP","either","7","1947","","","","","","","0","0","1","0.08156843846","","0.2","0.8","0.4","0.6","","","","","0.390692362","0.08156843846","0.3718469433","0.309645936","","","","","","","","74","J","1","","","104","main_expt"
"","bandit","184","423871","0.0-145.0-0.0","78154490","wem/bandit_either_2","A1M682B2WUSYJP","either","7","329","","","","","","","0","1","0","","0.3920304628","0.2","0.8","0.4","0.6","0.4139082553","0.08245659199","0.3920304628","0.3386062745","","","","","","","","","","","","75","K","2","","","105","main_expt"
"","bandit","185","426418","0.0-146.0-0.0","78154490","wem/bandit_either_2","A1M682B2WUSYJP","either","7","1033","","","","","","","0","0","1","0.3733497125","","0.2","0.8","0.4","0.6","","","","","0.3295275825","0.1276639339","0.3733497125","0.3827539061","","","","","","","","75","K","2","","","106","main_expt"
"","bandit","186","428539","0.0-147.0-0.0","78154490","wem/bandit_either_2","A1M682B2WUSYJP","either","7","606","","","","","","","0","0","1","0.1812689745","","0.2","0.8","0.4","0.6","","","","","0.3499712774","0.1812689745","0.3878439861","0.3401355396","","","","","","","","74","J","1","","","107","main_expt"
"","bandit","187","430500","0.0-148.0-0.0","78154490","wem/bandit_either_2","A1M682B2WUSYJP","either","7","450","","","","","","","0","0","1","","0.2666891207","0.2","0.8","0.4","0.6","0.2666891207","0.2187982558","0.3529013302","0.3258039352","","","","","","","","","","","","72","H","0","img/none_selected.jpg","","108","main_expt"
"","bandit","188","432847","0.0-149.0-0.0","78154490","wem/bandit_either_2","A1M682B2WUSYJP","either","7","833","","","","","","","0","0","1","0.3457683734","","0.2","0.8","0.4","0.6","","","","","0.2575067634","0.2201216928","0.3457683734","0.374919859","","","","","","","","75","K","2","","","109","main_expt"
"","bandit","189","434684","0.0-150.0-0.0","78154490","wem/bandit_either_2","A1M682B2WUSYJP","either","7","326","","","","","","","1","0","0","0.1789817232","","0.2","0.8","0.4","0.6","","","","","0.2664913793","0.1789817232","0.3316873257","0.3656186065","","","","","","","","74","J","1","","","110","main_expt"
"","bandit","190","436659","0.0-151.0-0.0","78154490","wem/bandit_either_2","A1M682B2WUSYJP","either","7","446","","","","","","","1","0","0","0.2404947452","","0.2","0.8","0.4","0.6","","","","","0.2233446911","0.2404947452","0.3434945318","0.3649701027","","","","","","","","74","J","1","","","111","main_expt"
"","bandit","191","438723","0.0-152.0-0.0","78154490","wem/bandit_either_2","A1M682B2WUSYJP","either","7","490","","","","","","","1","0","0","0.2959558532","","0.2","0.8","0.4","0.6","","","","","0.2170082082","0.2959558532","0.2729480053","0.3371716456","","","","","","","","74","J","1","","","112","main_expt"
"","bandit","192","440659","0.0-153.0-0.0","78154490","wem/bandit_either_2","A1M682B2WUSYJP","either","7","423","","","","","","","1","0","0","0.2966985553","","0.2","0.8","0.4","0.6","","","","","0.1912277411","0.2966985553","0.2579672073","0.2587224119","","","","","","","","74","J","1","","","113","main_expt"
"","bandit","193","442517","0.0-154.0-0.0","78154490","wem/bandit_either_2","A1M682B2WUSYJP","either","7","272","","","","","","","0","0","1","0.3289730608","","0.2","0.8","0.4","0.6","","","","","0.1691995451","0.3289730608","0.24654084","0.2384324947","","","","","","","","74","J","1","","","114","main_expt"
"","bandit","194","444160","0.0-155.0-0.0","78154490","wem/bandit_either_2","A1M682B2WUSYJP","either","7","130","","","","","","","0","0","1","0.2783705844","","0.2","0.8","0.4","0.6","","","","","0.1263730162","0.2783705844","0.246649757","0.2705755989","","","","","","","","74","J","1","","","115","main_expt"
"","bandit","195","447361","0.0-156.0-0.0","78154490","wem/bandit_either_2","A1M682B2WUSYJP","either","7","1686","","","","","","","0","0","1","0.2190482835","","0.2","0.8","0.4","0.6","","","","","0.1130092975","0.2990421824","0.2190482835","0.2666822","","","","","","","","75","K","2","","","116","main_expt"
"","bandit","196","450369","0.0-157.0-0.0","78154490","wem/bandit_either_2","A1M682B2WUSYJP","either","7","1496","","","","","","","0","0","1","","0.3214730448","0.2","0.8","0.4","0.6","0.1317362661","0.3214730448","0.1860086181","0.2664749026","","","","","","","","","","","","74","J","1","","","117","main_expt"
"","bandit","197","452288","0.0-158.0-0.0","78154490","wem/bandit_either_2","A1M682B2WUSYJP","either","7","405","","","","","","","0","0","1","0.3996160597","","0.2","0.8","0.4","0.6","","","","","0.08460291254","0.3996160597","0.1765749983","0.285497096","","","","","","","","74","J","1","","","118","main_expt"
"","bandit","198","454087","0.0-159.0-0.0","78154490","wem/bandit_either_2","A1M682B2WUSYJP","either","7","286","","","","","","","0","0","1","0.1840588368","","0.2","0.8","0.4","0.6","","","","","0.09168363065","0.4143362638","0.1840588368","0.3004427434","","","","","","","","75","K","2","","","119","main_expt"
"","bandit","199","456133","0.0-160.0-0.0","78154490","wem/bandit_either_2","A1M682B2WUSYJP","either","7","536","","","","","","","0","0","1","","0.06729372802","0.2","0.8","0.4","0.6","0.06729372802","0.372340151","0.1988357929","0.2419855731","","","","","","","","","","","","72","H","0","img/none_selected.jpg","","120","main_expt"
"","bandit","200","458287","0.0-161.0-0.0","78154490","wem/bandit_either_2","A1M682B2WUSYJP","either","7","605","","","","","","","0","0","1","0.2315674","","0.2","0.8","0.4","0.6","","","","","0.08346408207","0.3910424524","0.2315674","0.3054132847","","","","","","","","75","K","2","","","121","main_expt"
"","bandit","201","460058","0.0-162.0-0.0","78154490","wem/bandit_either_2","A1M682B2WUSYJP","either","7","255","","","","","","","0","0","1","0.2473202095","","0.2","0.8","0.4","0.6","","","","","0.05632743158","0.3813410711","0.2041322171","0.2473202095","","","","","","","","76","L","3","","","122","main_expt"
"","bandit","202","461936","0.0-163.0-0.0","78154490","wem/bandit_either_2","A1M682B2WUSYJP","either","7","290","","","","","","","0","0","1","0.4247291795","","0.2","0.8","0.4","0.6","","","","","0.05516745574","0.4247291795","0.1945268209","0.2909195989","","","","","","","","74","J","1","","","123","main_expt"
"","bandit","203","464512","0.0-164.0-0.0","78154490","wem/bandit_either_2","A1M682B2WUSYJP","either","7","1063","","","","","","","0","1","0","","0.2206749142","0.2","0.8","0.4","0.6","0.05528311039","0.4311179713","0.2206749142","0.3493750294","","","","","","","","","","","","75","K","2","","","124","main_expt"
"","bandit","204","466060","0.0-165.0-0.0","78154490","wem/bandit_either_2","A1M682B2WUSYJP","either","7","9","","","","","","","0","0","1","0.212012295","","0.2","0.8","0.4","0.6","","","","","0.07149807259","0.4085782939","0.212012295","0.3883668019","","","","","","","","75","K","2","","","125","main_expt"
"","bandit","205","467968","0.0-166.0-0.0","78154490","wem/bandit_either_2","A1M682B2WUSYJP","either","7","354","","","","","","","0","0","1","","0.1656684785","0.2","0.8","0.4","0.6","0.1137803622","0.4110861309","0.1656684785","0.3888129637","","","","","","","","","","","","75","K","2","","","126","main_expt"
"","bandit","206","470718","0.0-167.0-0.0","78154490","wem/bandit_either_2","A1M682B2WUSYJP","either","7","1240","","","","","","","0","0","1","","0.1685301808","0.2","0.8","0.4","0.6","0.1003054442","0.4214671818","0.1685301808","0.3659195129","","","","","","","","","","","","75","K","2","","","127","main_expt"
"","bandit","207","472719","0.0-168.0-0.0","78154490","wem/bandit_either_2","A1M682B2WUSYJP","either","7","471","","","","","","","1","0","0","0.36889317","","0.2","0.8","0.4","0.6","","","","","0.1378169536","0.36889317","0.1703551811","0.3689954399","","","","","","","","74","J","1","","","128","main_expt"
"","bandit","208","474695","0.0-169.0-0.0","78154490","wem/bandit_either_2","A1M682B2WUSYJP","either","7","464","","","","","","","0","0","1","0.3840267129","","0.2","0.8","0.4","0.6","","","","","0.1333081235","0.3840267129","0.1624753709","0.3600340942","","","","","","","","74","J","1","","","129","main_expt"
"","bandit","209","477566","0.0-170.0-0.0","78154490","wem/bandit_either_2","A1M682B2WUSYJP","either","7","1301","","","","","","","0","0","1","0.3809677701","","0.2","0.8","0.4","0.6","","","","","0.1682212827","0.3809677701","0.2335662737","0.3580797835","","","","","","","","74","J","1","","","130","main_expt"
"","bandit","210","479385","0.0-171.0-0.0","78154490","wem/bandit_either_2","A1M682B2WUSYJP","either","7","306","","","","","","","1","0","0","0.3785893338","","0.2","0.8","0.4","0.6","","","","","0.2193829955","0.3681933818","0.240441026","0.3785893338","","","","","","","","76","L","3","","","131","main_expt"
"","bandit","211","481250","0.0-172.0-0.0","78154490","wem/bandit_either_2","A1M682B2WUSYJP","either","7","354","","","","","","","0","0","1","0.3764735404","","0.2","0.8","0.4","0.6","","","","","0.2693349046","0.3664045944","0.2266699971","0.3764735404","","","","","","","","76","L","3","","","132","main_expt"
"","bandit","212","482858","0.0-173.0-0.0","78154490","wem/bandit_either_2","A1M682B2WUSYJP","either","7","96","","","","","","","0","1","0","","0.3433534211","0.2","0.8","0.4","0.6","0.2576546077","0.4046437197","0.1994193025","0.3433534211","","","","","","","","","","","","76","L","3","","","133","main_expt"
"","bandit","213","484424","0.0-174.0-0.0","78154490","wem/bandit_either_2","A1M682B2WUSYJP","either","7","50","","","","","","","0","0","1","","0.3606247271","0.2","0.8","0.4","0.6","0.2412372273","0.364490756","0.1891464922","0.3606247271","","","","","","","","","","","","76","L","3","","","134","main_expt"
"","bandit","214","486287","0.0-175.0-0.0","78154490","wem/bandit_either_2","A1M682B2WUSYJP","either","7","350","","","","","","","0","0","1","0.3268624306","","0.2","0.8","0.4","0.6","","","","","0.2198641054","0.311914316","0.1614798668","0.3268624306","","","","","","","","76","L","3","","","135","main_expt"
"","bandit","215","489443","0.0-176.0-0.0","78154490","wem/bandit_either_2","A1M682B2WUSYJP","either","7","1637","","","","","","","0","0","1","","0.2504132697","0.2","0.8","0.4","0.6","0.2504132697","0.2653901568","0.1880386222","0.2854606769","","","","","","","","","","","","72","H","0","img/none_selected.jpg","","136","main_expt"
"","bandit","216","491181","0.0-177.0-0.0","78154490","wem/bandit_either_2","A1M682B2WUSYJP","either","7","224","","","","","","","0","0","1","0.2413295316","","0.2","0.8","0.4","0.6","","","","","0.1912230989","0.2413295316","0.1961818793","0.3311747399","","","","","","","","74","J","1","","","137","main_expt"
"","bandit","217","493014","0.0-178.0-0.0","78154490","wem/bandit_either_2","A1M682B2WUSYJP","either","7","318","","","","","","","0","0","1","0.2060295423","","0.2","0.8","0.4","0.6","","","","","0.1576256809","0.2060295423","0.2857678963","0.2570785188","","","","","","","","74","J","1","","","138","main_expt"
"","bandit","218","495308","0.0-179.0-0.0","78154490","wem/bandit_either_2","A1M682B2WUSYJP","either","7","782","","","","","","","1","0","0","0.1809645164","","0.2","0.8","0.4","0.6","","","","","0.1019788138","0.1809645164","0.3449131854","0.2858060749","","","","","","","","74","J","1","","","139","main_expt"
"","bandit","219","497042","0.0-180.0-0.0","78154490","wem/bandit_either_2","A1M682B2WUSYJP","either","7","206","","","","","","","0","0","1","0.1843216893","","0.2","0.8","0.4","0.6","","","","","0.07754087054","0.1843216893","0.2537716732","0.2975559752","","","","","","","","74","J","1","","","140","main_expt"
"","bandit","220","499219","0.0-181.0-0.0","78154490","wem/bandit_either_2","A1M682B2WUSYJP","either","7","661","","","","","","","0","0","1","0.2858111263","","0.2","0.8","0.4","0.6","","","","","0.09489610577","0.1651876155","0.2858111263","0.2802168405","","","","","","","","75","K","2","","","141","main_expt"
"","bandit","221","501043","0.0-182.0-0.0","78154490","wem/bandit_either_2","A1M682B2WUSYJP","either","7","310","","","","","","","0","0","1","0.303049367","","0.2","0.8","0.4","0.6","","","","","0.09601428546","0.1536427928","0.303049367","0.2231986748","","","","","","","","75","K","2","","","142","main_expt"
"","bandit","222","502954","0.0-183.0-0.0","78154490","wem/bandit_either_2","A1M682B2WUSYJP","either","7","400","","","","","","","0","0","1","","0.2032880393","0.2","0.8","0.4","0.6","0.08301142993","0.1546140226","0.2969419413","0.2032880393","","","","","","","","","","","","76","L","3","","","143","main_expt"
"","bandit","223","504875","0.0-184.0-0.0","78154490","wem/bandit_either_2","A1M682B2WUSYJP","either","7","371","","","","","","","0","0","1","0.1967741464","","0.2","0.8","0.4","0.6","","","","","0.09599686985","0.1746031107","0.3128690494","0.1967741464","","","","","","","","76","L","3","","","144","main_expt"
"","bandit","224","506492","0.0-185.0-0.0","78154490","wem/bandit_either_2","A1M682B2WUSYJP","either","7","102","","","","","","","0","0","1","0.2021387556","","0.2","0.8","0.4","0.6","","","","","0.07499383622","0.2021387556","0.2991796355","0.2283154954","","","","","","","","74","J","1","","","145","main_expt"
"","bandit","225","508123","0.0-186.0-0.0","78154490","wem/bandit_either_2","A1M682B2WUSYJP","either","7","97","","","","","","","0","0","1","","0.09566861","0.2","0.8","0.4","0.6","0.09566861","0.2504344391","0.3163763193","0.2118700154","","","","","","","","","","","","72","H","0","img/none_selected.jpg","","146","main_expt"
"","bandit","226","510059","0.0-187.0-0.0","78154490","wem/bandit_either_2","A1M682B2WUSYJP","either","7","419","","","","","","","0","0","1","","0.08578591382","0.2","0.8","0.4","0.6","0.08578591382","0.2437718569","0.3198025905","0.210437557","","","","","","","","","","","","72","H","0","img/none_selected.jpg","","147","main_expt"
"","bandit","227","511905","0.0-188.0-0.0","78154490","wem/bandit_either_2","A1M682B2WUSYJP","either","7","335","","","","","","","0","0","1","","0.1147887709","0.2","0.8","0.4","0.6","0.1147887709","0.2446677265","0.2588245921","0.2370661354","","","","","","","","","","","","72","H","0","img/none_selected.jpg","","148","main_expt"
"","bandit","228","514062","0.0-189.0-0.0","78154490","wem/bandit_either_2","A1M682B2WUSYJP","either","7","644","","","","","","","1","0","0","0.2911002833","","0.2","0.8","0.4","0.6","","","","","0.1378203382","0.2911002833","0.248712437","0.2430363771","","","","","","","","74","J","1","","","149","main_expt"
"","bandit","229","516129","0.0-190.0-0.0","78154490","wem/bandit_either_2","A1M682B2WUSYJP","either","7","554","","","","","","","0","0","1","0.3529655025","","0.2","0.8","0.4","0.6","","","","","0.1414499273","0.3529655025","0.179144869","0.2242182381","","","","","","","","74","J","1","","","150","main_expt"
"","bandit","230","517841","0.0-191.0-0.0","78154490","wem/bandit_either_2","A1M682B2WUSYJP","either","7","201","","","","","","","0","0","1","0.3885741111","","0.2","0.8","0.4","0.6","","","","","0.07852348772","0.3885741111","0.1545669956","0.1997145133","","","","","","","","74","J","1","","","151","main_expt"
"","bandit","231","520803","0.0-192.0-0.0","78154490","wem/bandit_either_2","A1M682B2WUSYJP","either","7","1393","","","","","","","0","0","1","","0.1651714415","0.2","0.8","0.4","0.6","0.08485793113","0.3690499696","0.1651714415","0.2195927633","","","","","","","","","","","","75","K","2","","","152","main_expt"
"","bandit","232","524244","0.0-193.0-0.0","78154490","wem/bandit_either_2","A1M682B2WUSYJP","either","7","1863","","","","","","","0","0","1","","0.2396245514","0.2","0.8","0.4","0.6","0.1083789561","0.3710492515","0.2396245514","0.2121816628","","","","","","","","","","","","75","K","2","","","153","main_expt"
"","bandit","233","525916","0.0-194.0-0.0","78154490","wem/bandit_either_2","A1M682B2WUSYJP","either","7","110","","","","","","","0","0","1","0.2085838567","","0.2","0.8","0.4","0.6","","","","","0.109098481","0.3483335413","0.2085838567","0.1830588608","","","","","","","","75","K","2","","","154","main_expt"
"","bandit","234","527646","0.0-195.0-0.0","78154490","wem/bandit_either_2","A1M682B2WUSYJP","either","7","213","","","","","","","0","0","1","","0.2031423662","0.2","0.8","0.4","0.6","0.1758262092","0.3343760247","0.1864274254","0.2031423662","","","","","","","","","","","","76","L","3","","","155","main_expt"
"","bandit","235","530778","0.0-196.0-0.0","78154490","wem/bandit_either_2","A1M682B2WUSYJP","either","7","1618","","","","","","","0","0","1","0.3742013553","","0.2","0.8","0.4","0.6","","","","","0.2046597001","0.3742013553","0.1750870897","0.2022731065","","","","","","","","74","J","1","","","156","main_expt"
"","bandit","236","532959","0.0-197.0-0.0","78154490","wem/bandit_either_2","A1M682B2WUSYJP","either","7","667","","","","","","","0","0","1","","0.1321985386","0.2","0.8","0.4","0.6","0.1774751899","0.3620366094","0.1321985386","0.1826661219","","","","","","","","","","","","75","K","2","","","157","main_expt"
"","bandit","237","535581","0.0-198.0-0.0","78154490","wem/bandit_either_2","A1M682B2WUSYJP","either","7","1045","","","","","","","0","0","1","","0.1612033886","0.2","0.8","0.4","0.6","0.1612033886","0.3671714071","0.1341899746","0.1658993888","","","","","","","","","","","","72","H","0","img/none_selected.jpg","","158","main_expt"
"","bandit","238","537887","0.0-199.0-0.0","78154490","wem/bandit_either_2","A1M682B2WUSYJP","either","7","792","","","","","","","0","0","1","0.4015988616","","0.2","0.8","0.4","0.6","","","","","0.1586838935","0.4015988616","0.1567784951","0.1620079643","","","","","","","","74","J","1","","","159","main_expt"
"","bandit","239","540521","0.0-200.0-0.0","78154490","wem/bandit_either_2","A1M682B2WUSYJP","either","7","1115","","","","","","","0","0","1","0.1615549635","","0.2","0.8","0.4","0.6","","","","","0.2159944071","0.4004877553","0.1615549635","0.2453635642","","","","","","","","75","K","2","","","160","main_expt"
"","bandit","240","542389","0.0-201.0-0.0","78154490","wem/bandit_either_2","A1M682B2WUSYJP","either","7","236","","","","","","","0","1","0","","0.1854631015","0.2","0.8","0.4","0.6","0.2105769377","0.4095849454","0.1854631015","0.2456373749","","","","","","","","","","","","75","K","2","","","161","main_expt"
"","bandit","241","544321","0.0-202.0-0.0","78154490","wem/bandit_either_2","A1M682B2WUSYJP","either","7","385","","","","","","","0","0","1","0.21229469","","0.2","0.8","0.4","0.6","","","","","0.2006925765","0.3978002783","0.21229469","0.2460125232","","","","","","","","75","K","2","","","162","main_expt"
"","bandit","242","546181","0.0-203.0-0.0","78154490","wem/bandit_either_2","A1M682B2WUSYJP","either","7","342","","","","","","","0","1","0","","0.162194177","0.2","0.8","0.4","0.6","0.2365124807","0.4180552148","0.162194177","0.2013568893","","","","","","","","","","","","75","K","2","","","163","main_expt"
"","bandit","243","548010","0.0-204.0-0.0","78154490","wem/bandit_either_2","A1M682B2WUSYJP","either","7","313","","","","","","","0","0","1","","0.1535707797","0.2","0.8","0.4","0.6","0.2157370886","0.4407560021","0.1535707797","0.1933595846","","","","","","","","","","","","75","K","2","","","164","main_expt"
"","bandit","244","550641","0.0-205.0-0.0","78154490","wem/bandit_either_2","A1M682B2WUSYJP","either","7","1074","","","","","","","1","0","0","0.167552211","","0.2","0.8","0.4","0.6","","","","","0.2166787898","0.4582960521","0.2315934193","0.167552211","","","","","","","","76","L","3","","","165","main_expt"
"","bandit","245","552565","0.0-206.0-0.0","78154490","wem/bandit_either_2","A1M682B2WUSYJP","either","7","410","","","","","","","0","0","1","","0.1311237951","0.2","0.8","0.4","0.6","0.1846262972","0.4337500892","0.2579087381","0.1311237951","","","","","","","","","","","","76","L","3","","","166","main_expt"
"","bandit","246","555846","0.0-207.0-0.0","78154490","wem/bandit_either_2","A1M682B2WUSYJP","either","7","1730","","","","","","","0","0","1","","0.2496457694","0.2","0.8","0.4","0.6","0.1888750078","0.4537582576","0.2496457694","0.1714029316","","","","","","","","","","","","75","K","2","","","167","main_expt"
"","bandit","247","558064","0.0-208.0-0.0","78154490","wem/bandit_either_2","A1M682B2WUSYJP","either","7","640","","","","","","","0","0","1","0.234558796","","0.2","0.8","0.4","0.6","","","","","0.2315683769","0.4473485534","0.234558796","0.1494402723","","","","","","","","75","K","2","","","168","main_expt"
"","bandit","248","560162","0.0-209.0-0.0","78154490","wem/bandit_either_2","A1M682B2WUSYJP","either","7","568","","","","","","","0","0","1","0.1819888556","","0.2","0.8","0.4","0.6","","","","","0.2018123945","0.4471591033","0.2458600006","0.1819888556","","","","","","","","76","L","3","","","169","main_expt"
"","bandit","249","562192","0.0-210.0-0.0","78154490","wem/bandit_either_2","A1M682B2WUSYJP","either","7","514","","","","","","","1","0","0","0.2214583157","","0.2","0.8","0.4","0.6","","","","","0.139238222","0.4581839475","0.2214583157","0.2329206984","","","","","","","","75","K","2","","","170","main_expt"
"","bandit","250","563895","0.0-211.0-0.0","78154490","wem/bandit_either_2","A1M682B2WUSYJP","either","7","189","","","","","","","0","0","1","0.2000607923","","0.2","0.8","0.4","0.6","","","","","0.1466511374","0.4674995421","0.296208115","0.2000607923","","","","","","","","76","L","3","","","171","main_expt"
"","bandit","251","567175","0.0-212.0-0.0","78154490","wem/bandit_either_2","A1M682B2WUSYJP","either","7","1751","","","","","","","0","0","1","0.2342957318","","0.2","0.8","0.4","0.6","","","","","0.1348290388","0.4455620345","0.3062379281","0.2342957318","","","","","","","","76","L","3","","","172","main_expt"
"","bandit","252","569272","0.0-213.0-0.0","78154490","wem/bandit_either_2","A1M682B2WUSYJP","either","7","494","","","","","","","0","0","1","0.2189308077","","0.2","0.8","0.4","0.6","","","","","0.1521691919","0.4471610379","0.2498067723","0.2189308077","","","","","","","","76","L","3","","","173","main_expt"
"","bandit","253","572016","0.0-214.0-0.0","78154490","wem/bandit_either_2","A1M682B2WUSYJP","either","7","1218","","","","","","","0","0","1","","0.2191935525","0.2","0.8","0.4","0.6","0.2191935525","0.4496576915","0.1803522277","0.2373932689","","","","","","","","","","","","72","H","0","img/none_selected.jpg","","174","main_expt"
"","bandit","254","575342","0.0-215.0-0.0","78154490","wem/bandit_either_2","A1M682B2WUSYJP","either","7","1809","","","","","","","0","0","1","","0.219961305","0.2","0.8","0.4","0.6","0.219961305","0.4715297358","0.2014319342","0.2160264752","","","","","","","","","","","","72","H","0","img/none_selected.jpg","","175","main_expt"
"","bandit","255","577570","0.0-216.0-0.0","78154490","wem/bandit_either_2","A1M682B2WUSYJP","either","7","676","","","","","","","0","0","1","","0.477956151","0.2","0.8","0.4","0.6","0.1882485239","0.477956151","0.2122003168","0.1990604306","","","","","","","","","","","","74","J","1","","","176","main_expt"
"","bandit","256","579925","0.0-217.0-0.0","78154490","wem/bandit_either_2","A1M682B2WUSYJP","either","7","839","","","","","","","0","1","0","","0.4563721206","0.2","0.8","0.4","0.6","0.1644902553","0.4563721206","0.2629069455","0.1729978196","","","","","","","","","","","","74","J","1","","","177","main_expt"
"","bandit","257","581807","0.0-218.0-0.0","78154490","wem/bandit_either_2","A1M682B2WUSYJP","either","7","359","","","","","","","0","0","1","0.4409869931","","0.2","0.8","0.4","0.6","","","","","0.1713669852","0.4409869931","0.2336104206","0.1633080779","","","","","","","","74","J","1","","","178","main_expt"
"","bandit","258","583327","0.0-219.0-0.0","78154490","wem/bandit_either_2","A1M682B2WUSYJP","either","7","4","","","","","","","0","0","1","0.4243126063","","0.2","0.8","0.4","0.6","","","","","0.2263400462","0.4243126063","0.1887504226","0.1243251356","","","","","","","","74","J","1","","","179","main_expt"
"","bandit","259","585552","0.0-220.0-0.0","78154490","wem/bandit_either_2","A1M682B2WUSYJP","either","7","688","","","","","","","1","0","0","0.4312830743","","0.2","0.8","0.4","0.6","","","","","0.2036870175","0.4312830743","0.138376641","0.1150149055","","","","","","","","74","J","1","","","180","main_expt"
"","bandit","260","588127","0.0-221.0-0.0","78154490","wem/bandit_either_2","A1M682B2WUSYJP","either","7","1060","","","","","","","0","1","0","","0.4433127893","0.2","0.8","0.4","0.6","0.1934599198","0.4433127893","0.1883992559","0.1407924877","","","","","","","","","","","","74","J","1","","","181","main_expt"
"","bandit","261","590599","0.0-222.0-0.0","78154490","wem/bandit_either_2","A1M682B2WUSYJP","either","7","957","","","","","","","0","0","1","0.440136403","","0.2","0.8","0.4","0.6","","","","","0.2424515525","0.440136403","0.128889003","0.09672650852","","","","","","","","74","J","1","","","182","main_expt"
"","bandit","262","593433","0.0-223.0-0.0","78154490","wem/bandit_either_2","A1M682B2WUSYJP","either","7","1315","","","","","","","0","0","1","","0.1748769843","0.2","0.8","0.4","0.6","0.1961777535","0.4347693449","0.1748769843","0.09888002855","","","","","","","","","","","","75","K","2","","","183","main_expt"
"","bandit","263","595129","0.0-224.0-0.0","78154490","wem/bandit_either_2","A1M682B2WUSYJP","either","7","180","","","","","","","1","0","0","0.1945994373","","0.2","0.8","0.4","0.6","","","","","0.1489283113","0.4277130926","0.1945994373","0.07200145298","","","","","","","","75","K","2","","","184","main_expt"
"","bandit","264","599561","0.0-225.0-0.0","78154490","wem/bandit_either_2","A1M682B2WUSYJP","either","7","2915","","","","","","","0","0","1","0.09476413333","","0.2","0.8","0.4","0.6","","","","","0.1499965078","0.3956248437","0.1644748654","0.09476413333","","","","","","","","76","L","3","","","185","main_expt"
"","bandit","265","602956","0.0-226.0-0.0","78154490","wem/bandit_either_2","A1M682B2WUSYJP","either","7","1877","","","","","","","0","0","1","0.1504635592","","0.2","0.8","0.4","0.6","","","","","0.2169832988","0.3748928266","0.1504635592","0.06556422103","","","","","","","","75","K","2","","","186","main_expt"
"","bandit","266","605960","0.0-227.0-0.0","78154490","wem/bandit_either_2","A1M682B2WUSYJP","either","7","1485","","","","","","","0","0","1","","0.08901149072","0.2","0.8","0.4","0.6","0.2655186329","0.3848139325","0.1760039214","0.08901149072","","","","","","","","","","","","76","L","3","","","187","main_expt"
"","bandit","267","609784","0.0-228.0-0.0","78154490","wem/bandit_either_2","A1M682B2WUSYJP","either","7","2241","","","","","","","0","0","1","","0.1203267588","0.2","0.8","0.4","0.6","0.2738785118","0.3990176401","0.1203267588","0.09471428588","","","","","","","","","","","","75","K","2","","","188","main_expt"
"","bandit","268","612356","0.0-229.0-0.0","78154490","wem/bandit_either_2","A1M682B2WUSYJP","either","7","1030","","","","","","","0","0","1","","0.3041874674","0.2","0.8","0.4","0.6","0.3041874674","0.3581396838","0.1171540391","0.05118235823","","","","","","","","","","","","72","H","0","img/none_selected.jpg","","189","main_expt"
"","bandit","269","614277","0.0-230.0-0.0","78154490","wem/bandit_either_2","A1M682B2WUSYJP","either","7","390","","","","","","","0","0","1","","0.3229453735","0.2","0.8","0.4","0.6","0.3229453735","0.2882972244","0.1535230761","0.05788318751","","","","","","","","","","","","72","H","0","img/none_selected.jpg","","190","main_expt"
"","bandit","270","617160","0.0-231.0-0.0","78154490","wem/bandit_either_2","A1M682B2WUSYJP","either","7","1367","","","","","","","0","0","1","0.3145326233","","0.2","0.8","0.4","0.6","","","","","0.3818249757","0.3145326233","0.1372750947","0.08736915481","","","","","","","","74","J","1","","","191","main_expt"
"","bandit","271","619422","0.0-232.0-0.0","78154490","wem/bandit_either_2","A1M682B2WUSYJP","either","7","746","","","","","","","0","0","1","0.4157726243","","0.2","0.8","0.4","0.6","","","","","0.4157726243","0.3270603702","0.1047771501","0.08251019118","","","","","","","","72","H","0","img/none_selected.jpg","","192","main_expt"
"","bandit","272","621550","0.0-233.0-0.0","78154490","wem/bandit_either_2","A1M682B2WUSYJP","either","7","605","","","","","","","0","0","1","","0.4611608212","0.2","0.8","0.4","0.6","0.4611608212","0.3604030797","0.1100845432","0.06897628064","","","","","","","","","","","","72","H","0","img/none_selected.jpg","","193","main_expt"
"","bandit","273","623759","0.0-234.0-0.0","78154490","wem/bandit_either_2","A1M682B2WUSYJP","either","7","681","","","","","","","0","1","0","","0.4508818777","0.2","0.8","0.4","0.6","0.4508818777","0.357423186","0.1468163818","0.06801266305","","","","","","","","","","","","72","H","0","img/none_selected.jpg","","194","main_expt"
"","bandit","274","625834","0.0-235.0-0.0","78154490","wem/bandit_either_2","A1M682B2WUSYJP","either","7","559","","","","","","","1","0","0","0.3697779856","","0.2","0.8","0.4","0.6","","","","","0.4278921451","0.3697779856","0.1495594621","0.09923709358","","","","","","","","74","J","1","","","195","main_expt"
"","bandit","275","627870","0.0-236.0-0.0","78154490","wem/bandit_either_2","A1M682B2WUSYJP","either","7","514","","","","","","","0","0","1","","0.3617177512","0.2","0.8","0.4","0.6","0.4256293003","0.3617177512","0.2263220537","0.1103063831","","","","","","","","","","","","74","J","1","","","196","main_expt"
"","bandit","276","630695","0.0-237.0-0.0","78154490","wem/bandit_either_2","A1M682B2WUSYJP","either","7","1308","","","","","","","0","1","0","","0.2204718804","0.2","0.8","0.4","0.6","0.4476975038","0.3775990084","0.2204718804","0.07377144043","","","","","","","","","","","","75","K","2","","","197","main_expt"
"","bandit","277","632827","0.0-238.0-0.0","78154490","wem/bandit_either_2","A1M682B2WUSYJP","either","7","617","","","","","","","1","0","0","0.2401118457","","0.2","0.8","0.4","0.6","","","","","0.4434357272","0.4144042571","0.2401118457","0.08863448313","","","","","","","","75","K","2","","","198","main_expt"
"","bandit","278","634803","0.0-239.0-0.0","78154490","wem/bandit_either_2","A1M682B2WUSYJP","either","7","460","","","","","","","0","0","1","0.2673724497","","0.2","0.8","0.4","0.6","","","","","0.4245114622","0.4081775392","0.2673724497","0.1082179128","","","","","","","","75","K","2","","","199","main_expt"
"","bandit","279","636572","0.0-240.0-0.0","78154490","wem/bandit_either_2","A1M682B2WUSYJP","either","7","206","","","","","","","0","0","1","0.3125307902","","0.2","0.8","0.4","0.6","","","","","0.4087100315","0.4166156547","0.3125307902","0.09350688576","","","","","","","","75","K","2","","","200","main_expt"
"","bandit","280","639707","0.0-241.0-0.0","78154490","wem/bandit_either_2","A1M682B2WUSYJP","either","7","1620","","","","","","","1","0","0","0.4306537176","","0.2","0.8","0.4","0.6","","","","","0.4361521275","0.4306537176","0.2914574258","0.1036625099","","","","","","","","74","J","1","","","201","main_expt"
"","bandit","281","641907","0.0-242.0-0.0","78154490","wem/bandit_either_2","A1M682B2WUSYJP","either","7","675","","","","","","","0","0","1","","0.3332596158","0.2","0.8","0.4","0.6","0.3332596158","0.449382563","0.2550600684","0.1216733889","","","","","","","","","","","","72","H","0","img/none_selected.jpg","","202","main_expt"
"","bandit","282","644134","0.0-243.0-0.0","78154490","wem/bandit_either_2","A1M682B2WUSYJP","either","7","705","","","","","","","0","0","1","","0.3581848779","0.2","0.8","0.4","0.6","0.3581848779","0.4506576586","0.2769745997","0.120655788","","","","","","","","","","","","72","H","0","img/none_selected.jpg","","203","main_expt"
"","bandit","283","645977","0.0-244.0-0.0","78154490","wem/bandit_either_2","A1M682B2WUSYJP","either","7","322","","","","","","","0","0","1","0.1082970726","","0.2","0.8","0.4","0.6","","","","","0.3597133043","0.454839243","0.2752990059","0.1082970726","","","","","","","","76","L","3","","","204","main_expt"
"","bandit","284","648589","0.0-245.0-0.0","78154490","wem/bandit_either_2","A1M682B2WUSYJP","either","7","1086","","","","","","","0","0","1","","0.09143681274","0.2","0.8","0.4","0.6","0.3630183988","0.4512889682","0.2901512169","0.09143681274","","","","","","","","","","","","76","L","3","","","205","main_expt"
"","bandit","285","650278","0.0-246.0-0.0","78154490","wem/bandit_either_2","A1M682B2WUSYJP","either","7","169","","","","","","","0","0","1","0.08377413986","","0.2","0.8","0.4","0.6","","","","","0.3737494834","0.4591490044","0.2823763913","0.08377413986","","","","","","","","76","L","3","","","206","main_expt"
"","bandit","286","652237","0.0-247.0-0.0","78154490","wem/bandit_either_2","A1M682B2WUSYJP","either","7","412","","","","","","","0","0","1","0.1585073664","","0.2","0.8","0.4","0.6","","","","","0.3668784438","0.4650593633","0.2708062506","0.1585073664","","","","","","","","76","L","3","","","207","main_expt"
"","bandit","287","655532","0.0-248.0-0.0","78154490","wem/bandit_either_2","A1M682B2WUSYJP","either","7","1779","","","","","","","0","0","1","","0.2641553663","0.2","0.8","0.4","0.6","0.4045351895","0.4641513068","0.2641553663","0.162299901","","","","","","","","","","","","75","K","2","","","208","main_expt"
"","bandit","288","657321","0.0-249.0-0.0","78154490","wem/bandit_either_2","A1M682B2WUSYJP","either","7","267","","","","","","","0","0","1","0.4567807332","","0.2","0.8","0.4","0.6","","","","","0.4402386934","0.4567807332","0.2704675845","0.1542266077","","","","","","","","74","J","1","","","209","main_expt"
"","bandit","289","659251","0.0-250.0-0.0","78154490","wem/bandit_either_2","A1M682B2WUSYJP","either","7","318","","","","","","","0","0","1","","0.4483623408","0.2","0.8","0.4","0.6","0.4483623408","0.428253188","0.3420868926","0.1890415559","","","","","","","","","","","","72","H","0","img/none_selected.jpg","","210","main_expt"
"","bandit","290","660770","0.0-251.0-0.0","78154490","wem/bandit_either_2","A1M682B2WUSYJP","either","7","4","","","","","","","0","1","0","","0.4471415093","0.2","0.8","0.4","0.6","0.4471415093","0.410271385","0.3069688952","0.1818133019","","","","","","","","","","","","72","H","0","img/none_selected.jpg","","211","main_expt"
"","bandit","291","663438","0.0-252.0-0.0","78154490","wem/bandit_either_2","A1M682B2WUSYJP","either","7","1151","","","","","","","0","1","0","","0.4374655127","0.2","0.8","0.4","0.6","0.4374655127","0.4065587724","0.3005379093","0.1782747956","","","","","","","","","","","","72","H","0","img/none_selected.jpg","","212","main_expt"
"","bandit","292","666146","0.0-253.0-0.0","78154490","wem/bandit_either_2","A1M682B2WUSYJP","either","7","1191","","","","","","","0","0","1","","0.4381457257","0.2","0.8","0.4","0.6","0.4381457257","0.4007116542","0.213882915","0.1935195711","","","","","","","","","","","","72","H","0","img/none_selected.jpg","","213","main_expt"
"","bandit","293","668097","0.0-254.0-0.0","78154490","wem/bandit_either_2","A1M682B2WUSYJP","either","7","437","","","","","","","0","0","1","","0.4246209323","0.2","0.8","0.4","0.6","0.4643769008","0.4246209323","0.2138557204","0.2421176173","","","","","","","","","","","","74","J","1","","","214","main_expt"
"","bandit","294","669669","0.0-255.0-0.0","78154490","wem/bandit_either_2","A1M682B2WUSYJP","either","7","20","","","","","","","0","0","1","0.3993057066","","0.2","0.8","0.4","0.6","","","","","0.4328812357","0.3993057066","0.2142566612","0.2629876012","","","","","","","","74","J","1","","","215","main_expt"
"","bandit","295","673000","0.0-256.0-0.0","78154490","wem/bandit_either_2","A1M682B2WUSYJP","either","7","1816","","","","","","","1","0","0","0.3987772474","","0.2","0.8","0.4","0.6","","","","","0.4064507999","0.3987772474","0.1900351118","0.2977714141","","","","","","","","74","J","1","","","216","main_expt"
"","bandit","296","675151","0.0-257.0-0.0","78154490","wem/bandit_either_2","A1M682B2WUSYJP","either","7","637","","","","","","","1","0","0","0.4101433534","","0.2","0.8","0.4","0.6","","","","","0.4197961641","0.4101433534","0.2185169477","0.3017601552","","","","","","","","74","J","1","","","217","main_expt"
"","bandit","297","678564","0.0-258.0-0.0","78154490","wem/bandit_either_2","A1M682B2WUSYJP","either","7","1831","","","","","","","0","0","1","0.2240895604","","0.2","0.8","0.4","0.6","","","","","0.4167397569","0.4448029092","0.2240895604","0.2888566207","","","","","","","","75","K","2","","","218","main_expt"
"","bandit","298","680392","0.0-259.0-0.0","78154490","wem/bandit_either_2","A1M682B2WUSYJP","either","7","307","","","","","","","0","0","1","0.1990808675","","0.2","0.8","0.4","0.6","","","","","0.4250944588","0.4454766299","0.1990808675","0.2844008008","","","","","","","","75","K","2","","","219","main_expt"
"","bandit","299","682782","0.0-260.0-0.0","78154490","wem/bandit_either_2","A1M682B2WUSYJP","either","7","782","","","","","","","0","1","0","","0.266602996","0.2","0.8","0.4","0.6","0.4173336587","0.4610997771","0.266602996","0.2225062479","","","","","","","","","","","","75","K","2","","","220","main_expt"
"","bandit","300","685314","0.0-261.0-0.0","78154490","wem/bandit_either_2","A1M682B2WUSYJP","either","7","936","","","","","","","0","0","1","0.2443661227","","0.2","0.8","0.4","0.6","","","","","0.3944711005","0.4642289789","0.2443661227","0.2409900116","","","","","","","","75","K","2","","","221","main_expt"
"","bandit","301","688286","0.0-262.0-0.0","78154490","wem/bandit_either_2","A1M682B2WUSYJP","either","7","1454","","","","","","","0","0","1","","0.2205922116","0.2","0.8","0.4","0.6","0.3619306912","0.4641270597","0.2205922116","0.1989678636","","","","","","","","","","","","75","K","2","","","222","main_expt"
"","bandit","302","691166","0.0-263.0-0.0","78154490","wem/bandit_either_2","A1M682B2WUSYJP","either","7","1359","","","","","","","1","0","0","0.1861223506","","0.2","0.8","0.4","0.6","","","","","0.4117842179","0.4697433819","0.1861223506","0.1902867071","","","","","","","","75","K","2","","","223","main_expt"
"","bandit","303","693323","0.0-264.0-0.0","78154490","wem/bandit_either_2","A1M682B2WUSYJP","either","7","639","","","","","","","0","0","1","","0.1668884863","0.2","0.8","0.4","0.6","0.3965092367","0.460898083","0.1668884863","0.2076415522","","","","","","","","","","","","75","K","2","","","224","main_expt"
"","bandit","304","695134","0.0-265.0-0.0","78154490","wem/bandit_either_2","A1M682B2WUSYJP","either","7","292","","","","","","","0","0","1","0.1481472712","","0.2","0.8","0.4","0.6","","","","","0.4084477862","0.4394890665","0.1481472712","0.2393469174","","","","","","","","75","K","2","","","225","main_expt"
"","bandit","305","697452","0.0-266.0-0.0","78154490","wem/bandit_either_2","A1M682B2WUSYJP","either","7","797","","","","","","","1","0","0","0.2425440376","","0.2","0.8","0.4","0.6","","","","","0.4104601526","0.4520955237","0.1140846591","0.2425440376","","","","","","","","76","L","3","","","226","main_expt"
"","bandit","306","699488","0.0-267.0-0.0","78154490","wem/bandit_either_2","A1M682B2WUSYJP","either","7","463","","","","","","","0","0","1","0.4324220164","","0.2","0.8","0.4","0.6","","","","","0.3899733519","0.4324220164","0.1074218354","0.2365603363","","","","","","","","74","J","1","","","227","main_expt"
"","bandit","307","701247","0.0-268.0-0.0","78154490","wem/bandit_either_2","A1M682B2WUSYJP","either","7","244","","","","","","","1","0","0","0.4220482421","","0.2","0.8","0.4","0.6","","","","","0.3796730737","0.4220482421","0.08065165665","0.2127958296","","","","","","","","74","J","1","","","228","main_expt"
"","bandit","308","703046","0.0-269.0-0.0","78154490","wem/bandit_either_2","A1M682B2WUSYJP","either","7","271","","","","","","","0","0","1","0.3885749154","","0.2","0.8","0.4","0.6","","","","","0.4046866514","0.3885749154","0.07774059362","0.2207861463","","","","","","","","74","J","1","","","229","main_expt"
"","bandit","309","704719","0.0-270.0-0.0","78154490","wem/bandit_either_2","A1M682B2WUSYJP","either","7","152","","","","","","","0","0","1","","0.3988793555","0.2","0.8","0.4","0.6","0.3988793555","0.4023755806","0.1109483114","0.2589226453","","","","","","","","","","","","72","H","0","img/none_selected.jpg","","230","main_expt"
"","bandit","310","706368","0.0-271.0-0.0","78154490","wem/bandit_either_2","A1M682B2WUSYJP","either","7","135","","","","","","","0","0","1","0.3768725222","","0.2","0.8","0.4","0.6","","","","","0.3981898202","0.3768725222","0.05902300203","0.2956158432","","","","","","","","74","J","1","","","231","main_expt"
"","bandit","311","708544","0.0-272.0-0.0","78154490","wem/bandit_either_2","A1M682B2WUSYJP","either","7","634","","","","","","","0","0","1","0.3619917427","","0.2","0.8","0.4","0.6","","","","","0.4411941832","0.3619917427","0.06675855664","0.3202484073","","","","","","","","74","J","1","","","232","main_expt"
"","bandit","312","710427","0.0-273.0-0.0","78154490","wem/bandit_either_2","A1M682B2WUSYJP","either","7","362","","","","","","","0","1","0","","0.3833578816","0.2","0.8","0.4","0.6","0.42967461","0.3833578816","0.06703699679","0.2933644042","","","","","","","","","","","","74","J","1","","","233","main_expt"
"","bandit","313","713156","0.0-274.0-0.0","78154490","wem/bandit_either_2","A1M682B2WUSYJP","either","7","1213","","","","","","","0","0","1","","0.3552131768","0.2","0.8","0.4","0.6","0.4242798354","0.3552131768","0.05331023031","0.3106154811","","","","","","","","","","","","74","J","1","","","234","main_expt"
"","bandit","314","715130","0.0-275.0-0.0","78154490","wem/bandit_either_2","A1M682B2WUSYJP","either","7","405","","","","","","","1","0","0","0.3135084543","","0.2","0.8","0.4","0.6","","","","","0.4617388459","0.3135084543","0.05187545802","0.3158990995","","","","","","","","74","J","1","","","235","main_expt"
"","bandit","315","717034","0.0-276.0-0.0","78154490","wem/bandit_either_2","A1M682B2WUSYJP","either","7","363","","","","","","","0","0","1","0.244945467","","0.2","0.8","0.4","0.6","","","","","0.4619510484","0.244945467","0.06939909985","0.3036927748","","","","","","","","74","J","1","","","236","main_expt"
"","bandit","316","719329","0.0-277.0-0.0","78154490","wem/bandit_either_2","A1M682B2WUSYJP","either","7","780","","","","","","","0","0","1","","0.1823839079","0.2","0.8","0.4","0.6","0.4482398789","0.1823839079","0.1210409879","0.3491021326","","","","","","","","","","","","74","J","1","","","237","main_expt"
"","bandit","317","721827","0.0-278.0-0.0","78154490","wem/bandit_either_2","A1M682B2WUSYJP","either","7","979","","","","","","","0","0","1","","0.1685050226","0.2","0.8","0.4","0.6","0.4193969143","0.1685050226","0.1147840357","0.3939254097","","","","","","","","","","","","74","J","1","","","238","main_expt"
"","bandit","318","723890","0.0-279.0-0.0","78154490","wem/bandit_either_2","A1M682B2WUSYJP","either","7","545","","","","","","","0","0","1","0.1606472637","","0.2","0.8","0.4","0.6","","","","","0.4203848948","0.1606472637","0.1006463842","0.379108978","","","","","","","","74","J","1","","","239","main_expt"
"","bandit","319","725945","0.0-280.0-0.0","78154490","wem/bandit_either_2","A1M682B2WUSYJP","either","7","539","","","","","","","0","0","1","0.1512795466","","0.2","0.8","0.4","0.6","","","","","0.4489383263","0.1512795466","0.1008771133","0.3876209848","","","","","","","","74","J","1","","","240","main_expt"
"","bandit","320","728449","0.0-281.0-0.0","78154490","wem/bandit_either_2","A1M682B2WUSYJP","either","7","985","","","","","","","0","0","1","0.09981833296","","0.2","0.8","0.4","0.6","","","","","0.4636195567","0.1916219391","0.09981833296","0.3839625774","","","","","","","","75","K","2","","","241","main_expt"
"","bandit","321","730259","0.0-282.0-0.0","78154490","wem/bandit_either_2","A1M682B2WUSYJP","either","7","288","","","","","","","0","0","1","","0.3477958629","0.2","0.8","0.4","0.6","0.4575307695","0.1641013935","0.1171772993","0.3477958629","","","","","","","","","","","","76","L","3","","","242","main_expt"
"","bandit","322","732133","0.0-283.0-0.0","78154490","wem/bandit_either_2","A1M682B2WUSYJP","either","7","358","","","","","","","0","1","0","","0.3500658948","0.2","0.8","0.4","0.6","0.4449554393","0.2064320789","0.1239984651","0.3500658948","","","","","","","","","","","","76","L","3","","","243","main_expt"
"","bandit","323","733881","0.0-284.0-0.0","78154490","wem/bandit_either_2","A1M682B2WUSYJP","either","7","232","","","","","","","0","1","0","","0.3452717574","0.2","0.8","0.4","0.6","0.4525763452","0.2205496082","0.1126152289","0.3452717574","","","","","","","","","","","","76","L","3","","","244","main_expt"
"","bandit","324","736177","0.0-285.0-0.0","78154490","wem/bandit_either_2","A1M682B2WUSYJP","either","7","771","","","","","","","0","0","1","0.3162288444","","0.2","0.8","0.4","0.6","","","","","0.4753838692","0.214276823","0.1524829061","0.3162288444","","","","","","","","76","L","3","","","245","main_expt"
"","bandit","325","739511","0.0-286.0-0.0","78154490","wem/bandit_either_2","A1M682B2WUSYJP","either","7","1792","","","","","","","0","0","1","","0.4623654582","0.2","0.8","0.4","0.6","0.4623654582","0.2084567316","0.1921750243","0.2894596967","","","","","","","","","","","","72","H","0","img/none_selected.jpg","","246","main_expt"
"","bandit","326","742314","0.0-287.0-0.0","78154490","wem/bandit_either_2","A1M682B2WUSYJP","either","7","1278","","","","","","","0","0","1","","0.4331165165","0.2","0.8","0.4","0.6","0.4331165165","0.2232303491","0.1931065189","0.2642296388","","","","","","","","","","","","72","H","0","img/none_selected.jpg","","247","main_expt"
"","bandit","327","744899","0.0-288.0-0.0","78154490","wem/bandit_either_2","A1M682B2WUSYJP","either","7","1065","","","","","","","0","0","1","0.2534255255","","0.2","0.8","0.4","0.6","","","","","0.4401602984","0.2541796534","0.2189994516","0.2534255255","","","","","","","","76","L","3","","","248","main_expt"
"","bandit","328","747364","0.0-289.0-0.0","78154490","wem/bandit_either_2","A1M682B2WUSYJP","either","7","941","","","","","","","0","0","1","0.2252980971","","0.2","0.8","0.4","0.6","","","","","0.430892824","0.232462199","0.1989243371","0.2252980971","","","","","","","","76","L","3","","","249","main_expt"
