"consent","trial_type","trial_index","time_elapsed","internal_node_id","subjID","study","MID","cond","drift","rt","responses","key_press","expt_phase","like","value","connected","gems","bombs","no_reward","GemPrChosen","BombPrChosen","GainOverPainPr_0","GainOverPainPr_1","GainOverPainPr_2","GainOverPainPr_3","LosePr_0","LosePr_1","LosePr_2","LosePr_3","WinPr_0","WinPr_1","WinPr_2","WinPr_3","Q0","Q1","Q2","gender","age","ethnicity","target","respCharCode","respKey","respChoiceNum","respChoice","practice","trial_counter","trial_label"
"INL_behavioral_consent_30min_online.html","consent","0","22508","0.0-0.0","78857273","wem/bandit_either_2","A1GRPIBHW72HDU","either","7","","","","","","","","","","","","","","","","","","","","","","","","","","","","","","","","","","","","","",""
"","survey-text","1","29819","0.0-1.0","78857273","wem/bandit_either_2","A1GRPIBHW72HDU","either","7","6281","{""Q0"":""A1GRPIBHW72HDU""}","","","","","","","","","","","","","","","","","","","","","","","","","","","","","","","","","","","",""
"","text","2","43052","0.0-2.0","78857273","wem/bandit_either_2","A1GRPIBHW72HDU","either","7","12226","","32","","","","","","","","","","","","","","","","","","","","","","","","","","","","","","","","","","",""
"","text","3","52846","0.0-3.0","78857273","wem/bandit_either_2","A1GRPIBHW72HDU","either","7","9789","","32","","","","","","","","","","","","","","","","","","","","","","","","","","","","","","","","","","",""
"","text","4","84742","0.0-4.0","78857273","wem/bandit_either_2","A1GRPIBHW72HDU","either","7","31889","","32","","","","","","","","","","","","","","","","","","","","","","","","","","","","","","","","","","",""
"","text","5","100042","0.0-5.0","78857273","wem/bandit_either_2","A1GRPIBHW72HDU","either","7","15292","","32","","","","","","","","","","","","","","","","","","","","","","","","","","","","","","","","","","",""
"","text","6","119389","0.0-6.0","78857273","wem/bandit_either_2","A1GRPIBHW72HDU","either","7","19341","","32","","","","","","","","","","","","","","","","","","","","","","","","","","","","","","","","","","",""
"","text","7","129035","0.0-7.0","78857273","wem/bandit_either_2","A1GRPIBHW72HDU","either","7","9641","","32","","","","","","","","","","","","","","","","","","","","","","","","","","","","","","","","","","",""
"","text","8","134494","0.0-8.0","78857273","wem/bandit_either_2","A1GRPIBHW72HDU","either","7","5454","","32","","","","","","","","","","","","","","","","","","","","","","","","","","","","","","","","","","",""
"","identification","9","151598","0.0-9.0-0.0","78857273","wem/bandit_either_2","A1GRPIBHW72HDU","either","7","17029","","","","5","4","3","","","","","","","","","","","","","","","","","","","","","","","","the village of Zur","","","","","","",""
"","identification","10","163255","0.0-9.0-1.0","78857273","wem/bandit_either_2","A1GRPIBHW72HDU","either","7","10414","","","","0","0","0","","","","","","","","","","","","","","","","","","","","","","","","the village of Nyx","","","","","","",""
"","text","11","170189","0.0-10.0","78857273","wem/bandit_either_2","A1GRPIBHW72HDU","either","7","5913","","32","","","","","","","","","","","","","","","","","","","","","","","","","","","","","","","","","","",""
"","text","12","173935","0.0-11.0","78857273","wem/bandit_either_2","A1GRPIBHW72HDU","either","7","3740","","32","","","","","","","","","","","","","","","","","","","","","","","","","","","","","","","","","","",""
"","text","13","175981","0.0-12.0","78857273","wem/bandit_either_2","A1GRPIBHW72HDU","either","7","2040","","32","","","","","","","","","","","","","","","","","","","","","","","","","","","","","","","","","","",""
"","text","14","181157","0.0-13.0","78857273","wem/bandit_either_2","A1GRPIBHW72HDU","either","7","5172","","32","","","","","","","","","","","","","","","","","","","","","","","","","","","","","","","","","","",""
"","bandit","15","184836","0.0-14.0-0.0","78857273","wem/bandit_either_2","A1GRPIBHW72HDU","either","7","2137","","","","","","","0","0","1","0","0","","","","","0","","","","0","","","","","","","","","","","74","J","0","img/none_selected_demo.jpg","true","0",""
"","bandit","16","187997","0.0-15.0-0.0","78857273","wem/bandit_either_2","A1GRPIBHW72HDU","either","7","1621","","","","","","","0","0","1","0","0","","","","","0","","","","0","","","","","","","","","","","75","K","0","img/none_selected_demo.jpg","true","0",""
"","text","17","195764","0.0-16.0","78857273","wem/bandit_either_2","A1GRPIBHW72HDU","either","7","7761","","32","","","","","","","","","","","","","","","","","","","","","","","","","","","","","","","","","","",""
"","text","18","206031","0.0-17.0","78857273","wem/bandit_either_2","A1GRPIBHW72HDU","either","7","10259","","32","","","","","","","","","","","","","","","","","","","","","","","","","","","","","","","","","","",""
"","text","19","229353","0.0-18.0","78857273","wem/bandit_either_2","A1GRPIBHW72HDU","either","7","23316","","32","","","","","","","","","","","","","","","","","","","","","","","","","","","","","","","","","","",""
"","text","20","233072","0.0-19.0","78857273","wem/bandit_either_2","A1GRPIBHW72HDU","either","7","3712","","32","","","","","","","","","","","","","","","","","","","","","","","","","","","","","","","","","","",""
"","bandit","21","236007","0.0-20.0-0.0","78857273","wem/bandit_either_2","A1GRPIBHW72HDU","either","7","1190","","","","","","","0","1","0","","0.8","0.5","0.5","","","0.8","0.2","","","","","","","","","","","","","","74","J","0","img/none_selected_demo.jpg","true","0","80_20_practice"
"","bandit","22","238141","0.0-20.0-1.0","78857273","wem/bandit_either_2","A1GRPIBHW72HDU","either","7","601","","","","","","","0","0","1","","0.8","0.5","0.5","","","0.8","0.2","","","","","","","","","","","","","","74","J","0","img/none_selected_demo.jpg","true","0","80_20_practice"
"","bandit","23","240214","0.0-20.0-2.0","78857273","wem/bandit_either_2","A1GRPIBHW72HDU","either","7","525","","","","","","","0","0","1","0.2","","0.5","0.5","","","","","","","0.8","0.2","","","","","","","","","","75","K","1","","true","0","80_20_practice"
"","bandit","24","241912","0.0-20.0-3.0","78857273","wem/bandit_either_2","A1GRPIBHW72HDU","either","7","156","","","","","","","1","0","0","0.8","","0.5","0.5","","","","","","","0.8","0.2","","","","","","","","","","74","J","0","img/none_selected_demo.jpg","true","0","80_20_practice"
"","bandit","25","245100","0.0-20.0-4.0","78857273","wem/bandit_either_2","A1GRPIBHW72HDU","either","7","1642","","","","","","","1","0","0","0.8","","0.5","0.5","","","","","","","0.8","0.2","","","","","","","","","","74","J","0","img/none_selected_demo.jpg","true","0","80_20_practice"
"","bandit","26","247075","0.0-20.0-5.0","78857273","wem/bandit_either_2","A1GRPIBHW72HDU","either","7","432","","","","","","","1","0","0","0.8","","0.5","0.5","","","","","","","0.8","0.2","","","","","","","","","","74","J","0","img/none_selected_demo.jpg","true","0","80_20_practice"
"","bandit","27","249144","0.0-20.0-6.0","78857273","wem/bandit_either_2","A1GRPIBHW72HDU","either","7","525","","","","","","","1","0","0","0.8","","0.5","0.5","","","","","","","0.8","0.2","","","","","","","","","","74","J","0","img/none_selected_demo.jpg","true","0","80_20_practice"
"","bandit","28","251835","0.0-20.0-7.0","78857273","wem/bandit_either_2","A1GRPIBHW72HDU","either","7","386","","","","","","","1","0","0","0.8","","0.5","0.5","","","","","","","0.8","0.2","","","","","","","","","","74","J","0","img/none_selected_demo.jpg","true","0","80_20_practice"
"","bandit","29","253815","0.0-20.0-8.0","78857273","wem/bandit_either_2","A1GRPIBHW72HDU","either","7","436","","","","","","","0","1","0","","0.8","0.5","0.5","","","0.8","0.2","","","","","","","","","","","","","","74","J","0","img/none_selected_demo.jpg","true","0","80_20_practice"
"","bandit","30","255722","0.0-20.0-9.0","78857273","wem/bandit_either_2","A1GRPIBHW72HDU","either","7","362","","","","","","","0","0","1","0.8","","0.5","0.5","","","","","","","0.8","0.2","","","","","","","","","","74","J","0","img/none_selected_demo.jpg","true","0","80_20_practice"
"","bandit","31","258290","0.0-20.0-10.0","78857273","wem/bandit_either_2","A1GRPIBHW72HDU","either","7","387","","","","","","","1","0","0","0.8","","0.5","0.5","","","","","","","0.8","0.2","","","","","","","","","","74","J","0","img/none_selected_demo.jpg","true","0","80_20_practice"
"","bandit","32","260378","0.0-20.0-11.0","78857273","wem/bandit_either_2","A1GRPIBHW72HDU","either","7","536","","","","","","","0","1","0","","0.8","0.5","0.5","","","0.8","0.2","","","","","","","","","","","","","","74","J","0","img/none_selected_demo.jpg","true","0","80_20_practice"
"","bandit","33","262483","0.0-20.0-12.0","78857273","wem/bandit_either_2","A1GRPIBHW72HDU","either","7","557","","","","","","","1","0","0","0.8","","0.5","0.5","","","","","","","0.8","0.2","","","","","","","","","","74","J","0","img/none_selected_demo.jpg","true","0","80_20_practice"
"","bandit","34","264323","0.0-20.0-13.0","78857273","wem/bandit_either_2","A1GRPIBHW72HDU","either","7","295","","","","","","","1","0","0","0.8","","0.5","0.5","","","","","","","0.8","0.2","","","","","","","","","","74","J","0","img/none_selected_demo.jpg","true","0","80_20_practice"
"","bandit","35","267504","0.0-20.0-14.0","78857273","wem/bandit_either_2","A1GRPIBHW72HDU","either","7","1608","","","","","","","1","0","0","0.8","","0.5","0.5","","","","","","","0.8","0.2","","","","","","","","","","74","J","0","img/none_selected_demo.jpg","true","0","80_20_practice"
"","bandit","36","269715","0.0-20.0-15.0","78857273","wem/bandit_either_2","A1GRPIBHW72HDU","either","7","674","","","","","","","0","0","1","0.8","","0.5","0.5","","","","","","","0.8","0.2","","","","","","","","","","74","J","0","img/none_selected_demo.jpg","true","0","80_20_practice"
"","bandit","37","272016","0.0-20.0-16.0","78857273","wem/bandit_either_2","A1GRPIBHW72HDU","either","7","765","","","","","","","0","1","0","","0.8","0.5","0.5","","","0.8","0.2","","","","","","","","","","","","","","74","J","0","img/none_selected_demo.jpg","true","0","80_20_practice"
"","bandit","38","275028","0.0-20.0-17.0","78857273","wem/bandit_either_2","A1GRPIBHW72HDU","either","7","1445","","","","","","","0","1","0","","0.8","0.5","0.5","","","0.8","0.2","","","","","","","","","","","","","","74","J","0","img/none_selected_demo.jpg","true","0","80_20_practice"
"","bandit","39","276827","0.0-20.0-18.0","78857273","wem/bandit_either_2","A1GRPIBHW72HDU","either","7","265","","","","","","","0","1","0","","0.8","0.5","0.5","","","0.8","0.2","","","","","","","","","","","","","","74","J","0","img/none_selected_demo.jpg","true","0","80_20_practice"
"","bandit","40","278707","0.0-20.0-19.0","78857273","wem/bandit_either_2","A1GRPIBHW72HDU","either","7","327","","","","","","","0","0","1","","0.8","0.5","0.5","","","0.8","0.2","","","","","","","","","","","","","","74","J","0","img/none_selected_demo.jpg","true","0","80_20_practice"
"","text","41","285171","0.0-21.0","78857273","wem/bandit_either_2","A1GRPIBHW72HDU","either","7","6453","","32","","","","","","","","","","","","","","","","","","","","","","","","","","","","","","","","","","",""
"","bandit","42","289808","0.0-22.0-0.0","78857273","wem/bandit_either_2","A1GRPIBHW72HDU","either","7","3088","","","","","","","1","0","0","1","0","","","","","0","1","","","1","0","","","","","","","","","","74","J","0","img/none_selected_demo.jpg","true","0",""
"","text","43","298295","0.0-23.0","78857273","wem/bandit_either_2","A1GRPIBHW72HDU","either","7","8479","","32","","","","","","","","","","","","","","","","","","","","","","","","","","","","","","","","","","",""
"","text","44","303876","0.0-24.0","78857273","wem/bandit_either_2","A1GRPIBHW72HDU","either","7","5574","","32","","","","","","","","","","","","","","","","","","","","","","","","","","","","","","","","","","",""
"","text","45","307100","0.0-25.0","78857273","wem/bandit_either_2","A1GRPIBHW72HDU","either","7","3218","","32","","","","","","","","","","","","","","","","","","","","","","","","","","","","","","","","","","",""
"","text","46","311572","0.0-26.0","78857273","wem/bandit_either_2","A1GRPIBHW72HDU","either","7","4464","","32","","","","","","","","","","","","","","","","","","","","","","","","","","","","","","","","","","",""
"","text","47","322769","0.0-27.0","78857273","wem/bandit_either_2","A1GRPIBHW72HDU","either","7","11191","","32","","","","","","","","","","","","","","","","","","","","","","","","","","","","","","","","","","",""
"","text","48","327055","0.0-28.0","78857273","wem/bandit_either_2","A1GRPIBHW72HDU","either","7","4277","","32","","","","","","","","","","","","","","","","","","","","","","","","","","","","","","","","","","",""
"","text","49","333796","0.0-29.0","78857273","wem/bandit_either_2","A1GRPIBHW72HDU","either","7","6733","","32","","","","","","","","","","","","","","","","","","","","","","","","","","","","","","","","","","",""
"","text","50","336990","0.0-30.0","78857273","wem/bandit_either_2","A1GRPIBHW72HDU","either","7","3189","","32","","","","","","","","","","","","","","","","","","","","","","","","","","","","","","","","","","",""
"","text","51","347315","0.0-31.0","78857273","wem/bandit_either_2","A1GRPIBHW72HDU","either","7","10317","","32","","","","","","","","","","","","","","","","","","","","","","","","","","","","","","","","","","",""
"","text","52","349215","0.0-32.0","78857273","wem/bandit_either_2","A1GRPIBHW72HDU","either","7","1894","","32","","","","","","","","","","","","","","","","","","","","","","","","","","","","","","","","","","",""
"","text","53","353218","0.0-33.0","78857273","wem/bandit_either_2","A1GRPIBHW72HDU","either","7","3998","","32","","","","","","","","","","","","","","","","","","","","","","","","","","","","","","","","","","",""
"","bandit","54","356413","0.0-34.0-0.0","78857273","wem/bandit_either_2","A1GRPIBHW72HDU","either","7","860","","","","","","","0","1","0","","0.2","0.5","0.5","0.5","0.5","0.8","0.2","0.6","0.2","","","","","","","","","","","","74","J","1","","true","0","full_practice"
"","bandit","55","357954","0.0-34.0-1.0","78857273","wem/bandit_either_2","A1GRPIBHW72HDU","either","7","8","","","","","","","0","1","0","","0.8","0.5","0.5","0.5","0.5","0.8","0.2","0.6","0.2","","","","","","","","","","","","72","H","0","img/none_selected.jpg","true","0","full_practice"
"","bandit","56","361045","0.0-34.0-2.0","78857273","wem/bandit_either_2","A1GRPIBHW72HDU","either","7","1550","","","","","","","1","0","0","0.6","","0.5","0.5","0.5","0.5","","","","","0.8","0.2","0.6","0.2","","","","","","","","75","K","2","","true","0","full_practice"
"","bandit","57","363814","0.0-34.0-3.0","78857273","wem/bandit_either_2","A1GRPIBHW72HDU","either","7","149","","","","","","","0","0","1","","0.2","0.5","0.5","0.5","0.5","0.8","0.2","0.6","0.2","","","","","","","","","","","","76","L","3","","true","0","full_practice"
"","bandit","58","365349","0.0-34.0-4.0","78857273","wem/bandit_either_2","A1GRPIBHW72HDU","either","7","4","","","","","","","1","0","0","0.6","","0.5","0.5","0.5","0.5","","","","","0.8","0.2","0.6","0.2","","","","","","","","75","K","2","","true","0","full_practice"
"","bandit","59","367228","0.0-34.0-5.0","78857273","wem/bandit_either_2","A1GRPIBHW72HDU","either","7","336","","","","","","","0","1","0","","0.6","0.5","0.5","0.5","0.5","0.8","0.2","0.6","0.2","","","","","","","","","","","","75","K","2","","true","0","full_practice"
"","bandit","60","369253","0.0-34.0-6.0","78857273","wem/bandit_either_2","A1GRPIBHW72HDU","either","7","418","","","","","","","0","0","1","0.2","","0.5","0.5","0.5","0.5","","","","","0.8","0.2","0.6","0.2","","","","","","","","74","J","1","","true","0","full_practice"
"","bandit","61","371479","0.0-34.0-7.0","78857273","wem/bandit_either_2","A1GRPIBHW72HDU","either","7","5","","","","","","","0","0","1","0.8","","0.5","0.5","0.5","0.5","","","","","0.8","0.2","0.6","0.2","","","","","","","","72","H","0","img/none_selected.jpg","true","0","full_practice"
"","bandit","62","373052","0.0-34.0-8.0","78857273","wem/bandit_either_2","A1GRPIBHW72HDU","either","7","0","","","","","","","0","1","0","","0.6","0.5","0.5","0.5","0.5","0.8","0.2","0.6","0.2","","","","","","","","","","","","75","K","2","","true","0","full_practice"
"","bandit","63","374915","0.0-34.0-9.0","78857273","wem/bandit_either_2","A1GRPIBHW72HDU","either","7","330","","","","","","","1","0","0","0.6","","0.5","0.5","0.5","0.5","","","","","0.8","0.2","0.6","0.2","","","","","","","","75","K","2","","true","0","full_practice"
"","bandit","64","376864","0.0-34.0-10.0","78857273","wem/bandit_either_2","A1GRPIBHW72HDU","either","7","346","","","","","","","0","0","1","","0.6","0.5","0.5","0.5","0.5","0.8","0.2","0.6","0.2","","","","","","","","","","","","75","K","2","","true","0","full_practice"
"","bandit","65","379974","0.0-34.0-11.0","78857273","wem/bandit_either_2","A1GRPIBHW72HDU","either","7","474","","","","","","","0","0","1","0.2","","0.5","0.5","0.5","0.5","","","","","0.8","0.2","0.6","0.2","","","","","","","","74","J","1","","true","0","full_practice"
"","bandit","66","381836","0.0-34.0-12.0","78857273","wem/bandit_either_2","A1GRPIBHW72HDU","either","7","323","","","","","","","0","0","1","","0.6","0.5","0.5","0.5","0.5","0.8","0.2","0.6","0.2","","","","","","","","","","","","75","K","2","","true","0","full_practice"
"","bandit","67","383815","0.0-34.0-13.0","78857273","wem/bandit_either_2","A1GRPIBHW72HDU","either","7","435","","","","","","","1","0","0","0.8","","0.5","0.5","0.5","0.5","","","","","0.8","0.2","0.6","0.2","","","","","","","","72","H","0","img/none_selected.jpg","true","0","full_practice"
"","bandit","68","386381","0.0-34.0-14.0","78857273","wem/bandit_either_2","A1GRPIBHW72HDU","either","7","460","","","","","","","1","0","0","0.8","","0.5","0.5","0.5","0.5","","","","","0.8","0.2","0.6","0.2","","","","","","","","72","H","0","img/none_selected.jpg","true","0","full_practice"
"","bandit","69","388273","0.0-34.0-15.0","78857273","wem/bandit_either_2","A1GRPIBHW72HDU","either","7","353","","","","","","","0","1","0","","0.8","0.5","0.5","0.5","0.5","0.8","0.2","0.6","0.2","","","","","","","","","","","","72","H","0","img/none_selected.jpg","true","0","full_practice"
"","bandit","70","390206","0.0-34.0-16.0","78857273","wem/bandit_either_2","A1GRPIBHW72HDU","either","7","392","","","","","","","0","1","0","","0.8","0.5","0.5","0.5","0.5","0.8","0.2","0.6","0.2","","","","","","","","","","","","72","H","0","img/none_selected.jpg","true","0","full_practice"
"","bandit","71","392073","0.0-34.0-17.0","78857273","wem/bandit_either_2","A1GRPIBHW72HDU","either","7","331","","","","","","","1","0","0","0.8","","0.5","0.5","0.5","0.5","","","","","0.8","0.2","0.6","0.2","","","","","","","","72","H","0","img/none_selected.jpg","true","0","full_practice"
"","bandit","72","394871","0.0-34.0-18.0","78857273","wem/bandit_either_2","A1GRPIBHW72HDU","either","7","354","","","","","","","1","0","0","0.8","","0.5","0.5","0.5","0.5","","","","","0.8","0.2","0.6","0.2","","","","","","","","72","H","0","img/none_selected.jpg","true","0","full_practice"
"","bandit","73","396840","0.0-34.0-19.0","78857273","wem/bandit_either_2","A1GRPIBHW72HDU","either","7","343","","","","","","","1","0","0","0.8","","0.5","0.5","0.5","0.5","","","","","0.8","0.2","0.6","0.2","","","","","","","","72","H","0","img/none_selected.jpg","true","0","full_practice"
"","text","74","399977","0.0-35.0","78857273","wem/bandit_either_2","A1GRPIBHW72HDU","either","7","3117","","32","","","","","","","","","","","","","","","","","","","","","","","","","","","","","","","","","","",""
"","text","75","418261","0.0-36.0","78857273","wem/bandit_either_2","A1GRPIBHW72HDU","either","7","16857","","32","","","","","","","","","","","","","","","","","","","","","","","","","","","","","","","","","","",""
"","text","76","430486","0.0-37.0","78857273","wem/bandit_either_2","A1GRPIBHW72HDU","either","7","12214","","32","","","","","","","","","","","","","","","","","","","","","","","","","","","","","","","","","","",""
"","text","77","437572","0.0-38.0","78857273","wem/bandit_either_2","A1GRPIBHW72HDU","either","7","7079","","32","","","","","","","","","","","","","","","","","","","","","","","","","","","","","","","","","","",""
"","text","78","445568","0.0-39.0","78857273","wem/bandit_either_2","A1GRPIBHW72HDU","either","7","7988","","32","","","","","","","","","","","","","","","","","","","","","","","","","","","","","","","","","","",""
"","text","79","451680","0.0-40.0","78857273","wem/bandit_either_2","A1GRPIBHW72HDU","either","7","6099","","32","","","","","","","","","","","","","","","","","","","","","","","","","","","","","","","","","","",""
"","bandit","80","454389","0.0-41.0-0.0","78857273","wem/bandit_either_2","A1GRPIBHW72HDU","either","7","1138","","","","","","","0","0","1","","0.1480066451","0.4","0.8","0.2","0.6","0.01738065524","0.06530018083","0.1480066451","0.1952616071","","","","","","","","","","","","75","K","2","","","1","main_expt"
"","bandit","81","459880","0.0-42.0-0.0","78857273","wem/bandit_either_2","A1GRPIBHW72HDU","either","7","467","","","","","","","0","0","1","0.1011701763","","0.4","0.8","0.2","0.6","","","","","0.0196943787","0.1011701763","0.1053714073","0.1652234336","","","","","","","","74","J","1","","","2","main_expt"
"","bandit","82","465159","0.0-43.0-0.0","78857273","wem/bandit_either_2","A1GRPIBHW72HDU","either","7","3714","","","","","","","0","0","1","","0.01678573497","0.4","0.8","0.2","0.6","0.01678573497","0.09486719381","0.1460078221","0.1347382479","","","","","","","","","","","","72","H","0","img/none_selected.jpg","","3","main_expt"
"","bandit","83","468584","0.0-44.0-0.0","78857273","wem/bandit_either_2","A1GRPIBHW72HDU","either","7","1817","","","","","","","1","0","0","0.1684625442","","0.4","0.8","0.2","0.6","","","","","0.02981965743","0.06705802814","0.1866138214","0.1684625442","","","","","","","","76","L","3","","","4","main_expt"
"","bandit","84","470916","0.0-45.0-0.0","78857273","wem/bandit_either_2","A1GRPIBHW72HDU","either","7","731","","","","","","","0","0","1","","0.1792029032","0.4","0.8","0.2","0.6","0.02600208211","0.0822298525","0.2445348717","0.1792029032","","","","","","","","","","","","76","L","3","","","5","main_expt"
"","bandit","85","473192","0.0-46.0-0.0","78857273","wem/bandit_either_2","A1GRPIBHW72HDU","either","7","715","","","","","","","0","0","1","0.2153873139","","0.4","0.8","0.2","0.6","","","","","0.02332436933","0.09162209411","0.2546962146","0.2153873139","","","","","","","","76","L","3","","","6","main_expt"
"","bandit","86","476351","0.0-47.0-0.0","78857273","wem/bandit_either_2","A1GRPIBHW72HDU","either","7","1522","","","","","","","0","0","1","0.2344841702","","0.4","0.8","0.2","0.6","","","","","0.02864040813","0.1028820098","0.2344841702","0.1757762721","","","","","","","","75","K","2","","","7","main_expt"
"","bandit","87","478812","0.0-48.0-0.0","78857273","wem/bandit_either_2","A1GRPIBHW72HDU","either","7","905","","","","","","","0","0","1","","0.2473344203","0.4","0.8","0.2","0.6","0.02951264166","0.1532270122","0.2473344203","0.2241229746","","","","","","","","","","","","75","K","2","","","8","main_expt"
"","bandit","88","481229","0.0-49.0-0.0","78857273","wem/bandit_either_2","A1GRPIBHW72HDU","either","7","848","","","","","","","0","0","1","0.2131450397","","0.4","0.8","0.2","0.6","","","","","0.02997011939","0.2131450397","0.2642160399","0.2199426203","","","","","","","","74","J","1","","","9","main_expt"
"","bandit","89","484180","0.0-50.0-0.0","78857273","wem/bandit_either_2","A1GRPIBHW72HDU","either","7","1409","","","","","","","0","0","1","0.02489651457","","0.4","0.8","0.2","0.6","","","","","0.02489651457","0.2985754635","0.2104627424","0.1520686932","","","","","","","","72","H","0","img/none_selected.jpg","","10","main_expt"
"","bandit","90","486530","0.0-51.0-0.0","78857273","wem/bandit_either_2","A1GRPIBHW72HDU","either","7","778","","","","","","","0","0","1","","0.01651058827","0.4","0.8","0.2","0.6","0.01651058827","0.2924640086","0.219372878","0.2013349999","","","","","","","","","","","","72","H","0","img/none_selected.jpg","","11","main_expt"
"","bandit","91","488508","0.0-52.0-0.0","78857273","wem/bandit_either_2","A1GRPIBHW72HDU","either","7","418","","","","","","","0","0","1","","0.02341729431","0.4","0.8","0.2","0.6","0.02341729431","0.3264291113","0.2105839871","0.2156800105","","","","","","","","","","","","72","H","0","img/none_selected.jpg","","12","main_expt"
"","bandit","92","492150","0.0-53.0-0.0","78857273","wem/bandit_either_2","A1GRPIBHW72HDU","either","7","2099","","","","","","","1","0","0","0.3254913314","","0.4","0.8","0.2","0.6","","","","","0.0257410372","0.3254913314","0.2511698571","0.1833947696","","","","","","","","74","J","1","","","13","main_expt"
"","bandit","93","495350","0.0-54.0-0.0","78857273","wem/bandit_either_2","A1GRPIBHW72HDU","either","7","1636","","","","","","","1","0","0","0.3428504842","","0.4","0.8","0.2","0.6","","","","","0.02570014082","0.3428504842","0.2158977649","0.243643366","","","","","","","","74","J","1","","","14","main_expt"
"","bandit","94","498485","0.0-55.0-0.0","78857273","wem/bandit_either_2","A1GRPIBHW72HDU","either","7","1166","","","","","","","1","0","0","0.3244047679","","0.4","0.8","0.2","0.6","","","","","0.04268316416","0.3244047679","0.2762480727","0.2265365198","","","","","","","","74","J","1","","","15","main_expt"
"","bandit","95","501325","0.0-56.0-0.0","78857273","wem/bandit_either_2","A1GRPIBHW72HDU","either","7","1201","","","","","","","1","0","0","0.3025313629","","0.4","0.8","0.2","0.6","","","","","0.04667408308","0.3025313629","0.3202890724","0.2484951132","","","","","","","","74","J","1","","","16","main_expt"
"","bandit","96","504574","0.0-57.0-0.0","78857273","wem/bandit_either_2","A1GRPIBHW72HDU","either","7","1686","","","","","","","0","0","1","0.3291216938","","0.4","0.8","0.2","0.6","","","","","0.0506688767","0.3291216938","0.3680552247","0.2570267238","","","","","","","","74","J","1","","","17","main_expt"
"","bandit","97","508101","0.0-58.0-0.0","78857273","wem/bandit_either_2","A1GRPIBHW72HDU","either","7","1908","","","","","","","0","0","1","0.2987881532","","0.4","0.8","0.2","0.6","","","","","0.02988526167","0.2987881532","0.3968593921","0.287418789","","","","","","","","74","J","1","","","18","main_expt"
"","bandit","98","510662","0.0-59.0-0.0","78857273","wem/bandit_either_2","A1GRPIBHW72HDU","either","7","1003","","","","","","","0","0","1","","0.4192996399","0.4","0.8","0.2","0.6","0.03476350355","0.281207523","0.4192996399","0.2338710899","","","","","","","","","","","","75","K","2","","","19","main_expt"
"","bandit","99","514289","0.0-60.0-0.0","78857273","wem/bandit_either_2","A1GRPIBHW72HDU","either","7","884","","","","","","","0","0","1","0.4362768361","","0.4","0.8","0.2","0.6","","","","","0.0233687216","0.291129981","0.4362768361","0.2335293464","","","","","","","","75","K","2","","","20","main_expt"
"","bandit","100","516610","0.0-61.0-0.0","78857273","wem/bandit_either_2","A1GRPIBHW72HDU","either","7","772","","","","","","","0","0","1","0.01272547494","","0.4","0.8","0.2","0.6","","","","","0.01272547494","0.2729578326","0.4599691003","0.2434826965","","","","","","","","72","H","0","img/none_selected.jpg","","21","main_expt"
"","bandit","101","518840","0.0-62.0-0.0","78857273","wem/bandit_either_2","A1GRPIBHW72HDU","either","7","660","","","","","","","0","0","1","","0.01739491555","0.4","0.8","0.2","0.6","0.01739491555","0.2805141014","0.44353765","0.2702300591","","","","","","","","","","","","72","H","0","img/none_selected.jpg","","22","main_expt"
"","bandit","102","520770","0.0-63.0-0.0","78857273","wem/bandit_either_2","A1GRPIBHW72HDU","either","7","375","","","","","","","0","0","1","","0.3016389313","0.4","0.8","0.2","0.6","0.006692102231","0.3016389313","0.4105594395","0.2424740502","","","","","","","","","","","","74","J","1","","","23","main_expt"
"","bandit","103","523605","0.0-64.0-0.0","78857273","wem/bandit_either_2","A1GRPIBHW72HDU","either","7","1275","","","","","","","0","0","1","0.1754503809","","0.4","0.8","0.2","0.6","","","","","0.01209419849","0.2475621169","0.4243351486","0.1754503809","","","","","","","","76","L","3","","","24","main_expt"
"","bandit","104","525589","0.0-65.0-0.0","78857273","wem/bandit_either_2","A1GRPIBHW72HDU","either","7","414","","","","","","","0","0","1","0.2023019753","","0.4","0.8","0.2","0.6","","","","","0.009734580702","0.2607476102","0.4172780312","0.2023019753","","","","","","","","76","L","3","","","25","main_expt"
"","bandit","105","527573","0.0-66.0-0.0","78857273","wem/bandit_either_2","A1GRPIBHW72HDU","either","7","434","","","","","","","1","0","0","0.1887270612","","0.4","0.8","0.2","0.6","","","","","0.008596148908","0.292589008","0.3981062588","0.1887270612","","","","","","","","76","L","3","","","26","main_expt"
"","bandit","106","530579","0.0-67.0-0.0","78857273","wem/bandit_either_2","A1GRPIBHW72HDU","either","7","1454","","","","","","","0","0","1","0.2526986378","","0.4","0.8","0.2","0.6","","","","","0.01380650739","0.2978950393","0.3889188119","0.2526986378","","","","","","","","76","L","3","","","27","main_expt"
"","bandit","107","532797","0.0-68.0-0.0","78857273","wem/bandit_either_2","A1GRPIBHW72HDU","either","7","665","","","","","","","0","1","0","","0.3699095679","0.4","0.8","0.2","0.6","0.01160852189","0.337392419","0.3699095679","0.2536033627","","","","","","","","","","","","75","K","2","","","28","main_expt"
"","bandit","108","535869","0.0-69.0-0.0","78857273","wem/bandit_either_2","A1GRPIBHW72HDU","either","7","1501","","","","","","","1","0","0","0.4087832773","","0.4","0.8","0.2","0.6","","","","","0.02858314752","0.3830759015","0.4087832773","0.258258936","","","","","","","","75","K","2","","","29","main_expt"
"","bandit","109","539024","0.0-70.0-0.0","78857273","wem/bandit_either_2","A1GRPIBHW72HDU","either","7","1602","","","","","","","0","0","1","","0.4162513677","0.4","0.8","0.2","0.6","0.0265596094","0.3778881599","0.4162513677","0.3152574144","","","","","","","","","","","","75","K","2","","","30","main_expt"
"","bandit","110","541421","0.0-71.0-0.0","78857273","wem/bandit_either_2","A1GRPIBHW72HDU","either","7","832","","","","","","","0","0","1","","0.43337534","0.4","0.8","0.2","0.6","0.02828816112","0.3585458117","0.43337534","0.3508579725","","","","","","","","","","","","75","K","2","","","31","main_expt"
"","bandit","111","544179","0.0-72.0-0.0","78857273","wem/bandit_either_2","A1GRPIBHW72HDU","either","7","1204","","","","","","","0","0","1","0.03857304495","","0.4","0.8","0.2","0.6","","","","","0.03857304495","0.3511664436","0.4399105216","0.3902021543","","","","","","","","72","H","0","img/none_selected.jpg","","32","main_expt"
"","bandit","112","547149","0.0-73.0-0.0","78857273","wem/bandit_either_2","A1GRPIBHW72HDU","either","7","1409","","","","","","","0","0","1","","0.02642959278","0.4","0.8","0.2","0.6","0.02642959278","0.3924960189","0.3859623535","0.4112626521","","","","","","","","","","","","72","H","0","img/none_selected.jpg","","33","main_expt"
"","bandit","113","549417","0.0-74.0-0.0","78857273","wem/bandit_either_2","A1GRPIBHW72HDU","either","7","696","","","","","","","0","0","1","","0.06800028167","0.4","0.8","0.2","0.6","0.06800028167","0.3713907517","0.4231921331","0.3912589523","","","","","","","","","","","","72","H","0","img/none_selected.jpg","","34","main_expt"
"","bandit","114","551518","0.0-75.0-0.0","78857273","wem/bandit_either_2","A1GRPIBHW72HDU","either","7","533","","","","","","","0","0","1","0.3929004689","","0.4","0.8","0.2","0.6","","","","","0.05710280771","0.3929004689","0.3950458867","0.3663646496","","","","","","","","74","J","1","","","35","main_expt"
"","bandit","115","554892","0.0-76.0-0.0","78857273","wem/bandit_either_2","A1GRPIBHW72HDU","either","7","1734","","","","","","","0","0","1","","0.4005306787","0.4","0.8","0.2","0.6","0.07756943076","0.3820467604","0.4005306787","0.3045225128","","","","","","","","","","","","75","K","2","","","36","main_expt"
"","bandit","116","556965","0.0-77.0-0.0","78857273","wem/bandit_either_2","A1GRPIBHW72HDU","either","7","517","","","","","","","0","0","1","","0.2806474599","0.4","0.8","0.2","0.6","0.06074629621","0.3948022939","0.3972735937","0.2806474599","","","","","","","","","","","","76","L","3","","","37","main_expt"
"","bandit","117","559246","0.0-78.0-0.0","78857273","wem/bandit_either_2","A1GRPIBHW72HDU","either","7","715","","","","","","","0","0","1","0.3558759705","","0.4","0.8","0.2","0.6","","","","","0.07063042774","0.3769579019","0.38339591","0.3558759705","","","","","","","","76","L","3","","","38","main_expt"
"","bandit","118","562145","0.0-79.0-0.0","78857273","wem/bandit_either_2","A1GRPIBHW72HDU","either","7","439","","","","","","","0","0","1","","0.3906354184","0.4","0.8","0.2","0.6","0.06209293178","0.4030344636","0.3906354184","0.3194138052","","","","","","","","","","","","75","K","2","","","39","main_expt"
"","bandit","119","564367","0.0-80.0-0.0","78857273","wem/bandit_either_2","A1GRPIBHW72HDU","either","7","596","","","","","","","0","1","0","","0.3622335218","0.4","0.8","0.2","0.6","0.06952578958","0.3622335218","0.3623676206","0.3549086085","","","","","","","","","","","","74","J","1","","","40","main_expt"
"","bandit","120","566908","0.0-81.0-0.0","78857273","wem/bandit_either_2","A1GRPIBHW72HDU","either","7","960","","","","","","","1","0","0","0.3911596719","","0.4","0.8","0.2","0.6","","","","","0.1291245709","0.3911596719","0.3873704927","0.3452113815","","","","","","","","74","J","1","","","41","main_expt"
"","bandit","121","570588","0.0-82.0-0.0","78857273","wem/bandit_either_2","A1GRPIBHW72HDU","either","7","2092","","","","","","","0","0","1","0.3921858285","","0.4","0.8","0.2","0.6","","","","","0.1174523948","0.3921858285","0.359823116","0.3522960267","","","","","","","","74","J","1","","","42","main_expt"
"","bandit","122","573516","0.0-83.0-0.0","78857273","wem/bandit_either_2","A1GRPIBHW72HDU","either","7","1335","","","","","","","1","0","0","0.3831213528","","0.4","0.8","0.2","0.6","","","","","0.1201484523","0.3831213528","0.3710191411","0.3093122096","","","","","","","","74","J","1","","","43","main_expt"
"","bandit","123","578080","0.0-84.0-0.0","78857273","wem/bandit_either_2","A1GRPIBHW72HDU","either","7","1834","","","","","","","1","0","0","0.3518708159","","0.4","0.8","0.2","0.6","","","","","0.09958360536","0.3518708159","0.3874065465","0.3026159556","","","","","","","","74","J","1","","","44","main_expt"
"","bandit","124","581567","0.0-85.0-0.0","78857273","wem/bandit_either_2","A1GRPIBHW72HDU","either","7","1902","","","","","","","0","0","1","","0.3122870636","0.4","0.8","0.2","0.6","0.05173655998","0.3122870636","0.3851533971","0.3336294247","","","","","","","","","","","","74","J","1","","","45","main_expt"
"","bandit","125","585910","0.0-86.0-0.0","78857273","wem/bandit_either_2","A1GRPIBHW72HDU","either","7","1643","","","","","","","0","0","1","","0.2635721956","0.4","0.8","0.2","0.6","0.05945041096","0.2635721956","0.4055883719","0.3400222736","","","","","","","","","","","","74","J","1","","","46","main_expt"
"","bandit","126","589203","0.0-87.0-0.0","78857273","wem/bandit_either_2","A1GRPIBHW72HDU","either","7","1627","","","","","","","1","0","0","0.2856785865","","0.4","0.8","0.2","0.6","","","","","0.04375763727","0.2856785865","0.3671593179","0.328707825","","","","","","","","74","J","1","","","47","main_expt"
"","bandit","127","593570","0.0-88.0-0.0","78857273","wem/bandit_either_2","A1GRPIBHW72HDU","either","7","1800","","","","","","","0","0","1","0.2649087478","","0.4","0.8","0.2","0.6","","","","","0.0666370861","0.2649087478","0.3198203038","0.3307690822","","","","","","","","74","J","1","","","48","main_expt"
"","bandit","128","597638","0.0-89.0-0.0","78857273","wem/bandit_either_2","A1GRPIBHW72HDU","either","7","2495","","","","","","","0","0","1","0.3111357295","","0.4","0.8","0.2","0.6","","","","","0.08266213623","0.2462979357","0.3111357295","0.3438067684","","","","","","","","75","K","2","","","49","main_expt"
"","bandit","129","601234","0.0-90.0-0.0","78857273","wem/bandit_either_2","A1GRPIBHW72HDU","either","7","1960","","","","","","","0","0","1","0.3196682981","","0.4","0.8","0.2","0.6","","","","","0.08795051988","0.2490076798","0.3196682981","0.4037002216","","","","","","","","75","K","2","","","50","main_expt"
"","bandit","130","603592","0.0-91.0-0.0","78857273","wem/bandit_either_2","A1GRPIBHW72HDU","either","7","691","","","","","","","0","0","1","0.305209751","","0.4","0.8","0.2","0.6","","","","","0.07533366945","0.305209751","0.3088596379","0.3557518394","","","","","","","","74","J","1","","","51","main_expt"
"","bandit","131","606433","0.0-92.0-0.0","78857273","wem/bandit_either_2","A1GRPIBHW72HDU","either","7","1263","","","","","","","0","0","1","0.3254324358","","0.4","0.8","0.2","0.6","","","","","0.06506638851","0.3087204988","0.3060924957","0.3254324358","","","","","","","","76","L","3","","","52","main_expt"
"","bandit","132","609588","0.0-93.0-0.0","78857273","wem/bandit_either_2","A1GRPIBHW72HDU","either","7","1602","","","","","","","0","0","1","","0.2952150256","0.4","0.8","0.2","0.6","0.06562792832","0.2984188648","0.3229319808","0.2952150256","","","","","","","","","","","","76","L","3","","","53","main_expt"
"","bandit","133","612053","0.0-94.0-0.0","78857273","wem/bandit_either_2","A1GRPIBHW72HDU","either","7","886","","","","","","","0","0","1","0.04630081711","","0.4","0.8","0.2","0.6","","","","","0.04630081711","0.3353917468","0.3280138586","0.300320608","","","","","","","","72","H","0","img/none_selected.jpg","","54","main_expt"
"","bandit","134","615763","0.0-95.0-0.0","78857273","wem/bandit_either_2","A1GRPIBHW72HDU","either","7","1121","","","","","","","0","0","1","0.03868373719","","0.4","0.8","0.2","0.6","","","","","0.03868373719","0.3259144651","0.2777260571","0.2985084879","","","","","","","","72","H","0","img/none_selected.jpg","","55","main_expt"
"","bandit","135","617787","0.0-96.0-0.0","78857273","wem/bandit_either_2","A1GRPIBHW72HDU","either","7","466","","","","","","","0","0","1","","0.06235362297","0.4","0.8","0.2","0.6","0.06235362297","0.3259049121","0.1791004868","0.2607009345","","","","","","","","","","","","72","H","0","img/none_selected.jpg","","56","main_expt"
"","bandit","136","619847","0.0-97.0-0.0","78857273","wem/bandit_either_2","A1GRPIBHW72HDU","either","7","489","","","","","","","1","0","0","0.3687904078","","0.4","0.8","0.2","0.6","","","","","0.04639461243","0.3687904078","0.2182265394","0.2565854794","","","","","","","","74","J","1","","","57","main_expt"
"","bandit","137","623596","0.0-98.0-0.0","78857273","wem/bandit_either_2","A1GRPIBHW72HDU","either","7","1138","","","","","","","1","0","0","0.3422038875","","0.4","0.8","0.2","0.6","","","","","0.08954448139","0.3422038875","0.2970860181","0.319121847","","","","","","","","74","J","1","","","58","main_expt"
"","bandit","138","626498","0.0-99.0-0.0","78857273","wem/bandit_either_2","A1GRPIBHW72HDU","either","7","1351","","","","","","","0","0","1","","0.3771421139","0.4","0.8","0.2","0.6","0.07390342289","0.3771421139","0.3249685468","0.3269923399","","","","","","","","","","","","74","J","1","","","59","main_expt"
"","bandit","139","628810","0.0-100.0-0.0","78857273","wem/bandit_either_2","A1GRPIBHW72HDU","either","7","746","","","","","","","0","0","1","0.3620124399","","0.4","0.8","0.2","0.6","","","","","0.05801548519","0.3620124399","0.2931470039","0.3150968823","","","","","","","","74","J","1","","","60","main_expt"
"","bandit","140","632387","0.0-101.0-0.0","78857273","wem/bandit_either_2","A1GRPIBHW72HDU","either","7","1108","","","","","","","0","0","1","0.3958116198","","0.4","0.8","0.2","0.6","","","","","0.07333263924","0.3958116198","0.2646536279","0.324539239","","","","","","","","74","J","1","","","61","main_expt"
"","bandit","141","636227","0.0-102.0-0.0","78857273","wem/bandit_either_2","A1GRPIBHW72HDU","either","7","2230","","","","","","","0","0","1","0.3615218546","","0.4","0.8","0.2","0.6","","","","","0.07563430262","0.3615218546","0.242461968","0.3066306166","","","","","","","","74","J","1","","","62","main_expt"
"","bandit","142","640789","0.0-103.0-0.0","78857273","wem/bandit_either_2","A1GRPIBHW72HDU","either","7","3009","","","","","","","0","0","1","","0.3574266064","0.4","0.8","0.2","0.6","0.06826526778","0.3574266064","0.2206683029","0.3068900116","","","","","","","","","","","","74","J","1","","","63","main_expt"
"","bandit","143","642702","0.0-104.0-0.0","78857273","wem/bandit_either_2","A1GRPIBHW72HDU","either","7","332","","","","","","","0","0","1","0.2288959862","","0.4","0.8","0.2","0.6","","","","","0.1175271989","0.3541915859","0.2288959862","0.2936494982","","","","","","","","75","K","2","","","64","main_expt"
"","bandit","144","645421","0.0-105.0-0.0","78857273","wem/bandit_either_2","A1GRPIBHW72HDU","either","7","1156","","","","","","","0","1","0","","0.2346523549","0.4","0.8","0.2","0.6","0.1273865191","0.3339820985","0.2346523549","0.290236101","","","","","","","","","","","","75","K","2","","","65","main_expt"
"","bandit","145","648448","0.0-106.0-0.0","78857273","wem/bandit_either_2","A1GRPIBHW72HDU","either","7","1471","","","","","","","0","0","1","","0.1881688105","0.4","0.8","0.2","0.6","0.09075088943","0.3195467083","0.1881688105","0.2512036594","","","","","","","","","","","","75","K","2","","","66","main_expt"
"","bandit","146","651456","0.0-107.0-0.0","78857273","wem/bandit_either_2","A1GRPIBHW72HDU","either","7","1448","","","","","","","0","1","0","","0.231043846","0.4","0.8","0.2","0.6","0.08077075725","0.3477383846","0.231043846","0.263747572","","","","","","","","","","","","75","K","2","","","67","main_expt"
"","bandit","147","655560","0.0-108.0-0.0","78857273","wem/bandit_either_2","A1GRPIBHW72HDU","either","7","1318","","","","","","","0","0","1","","0.2576664243","0.4","0.8","0.2","0.6","0.08810311296","0.3365352069","0.2576664243","0.2892519303","","","","","","","","","","","","75","K","2","","","68","main_expt"
"","bandit","148","658397","0.0-109.0-0.0","78857273","wem/bandit_either_2","A1GRPIBHW72HDU","either","7","1274","","","","","","","0","0","1","0.2183283259","","0.4","0.8","0.2","0.6","","","","","0.1260156682","0.3148812039","0.2183283259","0.2383664846","","","","","","","","75","K","2","","","69","main_expt"
"","bandit","149","660694","0.0-110.0-0.0","78857273","wem/bandit_either_2","A1GRPIBHW72HDU","either","7","741","","","","","","","0","0","1","","0.2260484764","0.4","0.8","0.2","0.6","0.08773951932","0.3154014692","0.2260484764","0.2497111545","","","","","","","","","","","","75","K","2","","","70","main_expt"
"","bandit","150","663487","0.0-111.0-0.0","78857273","wem/bandit_either_2","A1GRPIBHW72HDU","either","7","371","","","","","","","0","0","1","0.2095843002","","0.4","0.8","0.2","0.6","","","","","0.1154304285","0.219815459","0.3196469567","0.2095843002","","","","","","","","76","L","3","","","71","main_expt"
"","bandit","151","665755","0.0-112.0-0.0","78857273","wem/bandit_either_2","A1GRPIBHW72HDU","either","7","695","","","","","","","1","0","0","0.1972488467","","0.4","0.8","0.2","0.6","","","","","0.10097247","0.2623730272","0.3644141189","0.1972488467","","","","","","","","76","L","3","","","72","main_expt"
"","bandit","152","668274","0.0-113.0-0.0","78857273","wem/bandit_either_2","A1GRPIBHW72HDU","either","7","953","","","","","","","0","1","0","","0.15494396","0.4","0.8","0.2","0.6","0.0746930591","0.2639805735","0.4081842109","0.15494396","","","","","","","","","","","","76","L","3","","","73","main_expt"
"","bandit","153","671227","0.0-114.0-0.0","78857273","wem/bandit_either_2","A1GRPIBHW72HDU","either","7","1402","","","","","","","0","0","1","0.1324790415","","0.4","0.8","0.2","0.6","","","","","0.1124392477","0.2770925356","0.4506698749","0.1324790415","","","","","","","","76","L","3","","","74","main_expt"
"","bandit","154","673778","0.0-115.0-0.0","78857273","wem/bandit_either_2","A1GRPIBHW72HDU","either","7","919","","","","","","","0","0","1","","0.179195356","0.4","0.8","0.2","0.6","0.113494578","0.2796652475","0.454520075","0.179195356","","","","","","","","","","","","76","L","3","","","75","main_expt"
"","bandit","155","676241","0.0-116.0-0.0","78857273","wem/bandit_either_2","A1GRPIBHW72HDU","either","7","906","","","","","","","1","0","0","0.1469344428","","0.4","0.8","0.2","0.6","","","","","0.1469344428","0.3153427244","0.466199952","0.215808919","","","","","","","","72","H","0","img/none_selected.jpg","","76","main_expt"
"","bandit","156","679562","0.0-117.0-0.0","78857273","wem/bandit_either_2","A1GRPIBHW72HDU","either","7","1770","","","","","","","0","0","1","","0.2152215887","0.4","0.8","0.2","0.6","0.2152215887","0.3676911864","0.4402141775","0.2312347408","","","","","","","","","","","","72","H","0","img/none_selected.jpg","","77","main_expt"
"","bandit","157","681850","0.0-118.0-0.0","78857273","wem/bandit_either_2","A1GRPIBHW72HDU","either","7","739","","","","","","","0","0","1","0.2055177618","","0.4","0.8","0.2","0.6","","","","","0.2055177618","0.3434277392","0.4525957793","0.2197025874","","","","","","","","72","H","0","img/none_selected.jpg","","78","main_expt"
"","bandit","158","684109","0.0-119.0-0.0","78857273","wem/bandit_either_2","A1GRPIBHW72HDU","either","7","701","","","","","","","0","0","1","","0.222262525","0.4","0.8","0.2","0.6","0.222262525","0.3758616161","0.4630799716","0.2227420924","","","","","","","","","","","","72","H","0","img/none_selected.jpg","","79","main_expt"
"","bandit","159","687252","0.0-120.0-0.0","78857273","wem/bandit_either_2","A1GRPIBHW72HDU","either","7","337","","","","","","","0","0","1","0.3862393514","","0.4","0.8","0.2","0.6","","","","","0.2700860438","0.3862393514","0.423693353","0.2283057493","","","","","","","","74","J","1","","","80","main_expt"
"","bandit","160","689342","0.0-121.0-0.0","78857273","wem/bandit_either_2","A1GRPIBHW72HDU","either","7","528","","","","","","","0","1","0","","0.2642688004","0.4","0.8","0.2","0.6","0.2642688004","0.3593770893","0.4319112677","0.2721525977","","","","","","","","","","","","72","H","0","img/none_selected.jpg","","81","main_expt"
"","bandit","161","692443","0.0-122.0-0.0","78857273","wem/bandit_either_2","A1GRPIBHW72HDU","either","7","1544","","","","","","","0","0","1","0.2850237184","","0.4","0.8","0.2","0.6","","","","","0.2824164754","0.4035110645","0.441827487","0.2850237184","","","","","","","","76","L","3","","","82","main_expt"
"","bandit","162","695535","0.0-123.0-0.0","78857273","wem/bandit_either_2","A1GRPIBHW72HDU","either","7","1532","","","","","","","0","0","1","0.2819095575","","0.4","0.8","0.2","0.6","","","","","0.2819095575","0.3719627038","0.4288861504","0.3236436683","","","","","","","","72","H","0","img/none_selected.jpg","","83","main_expt"
"","bandit","163","698316","0.0-124.0-0.0","78857273","wem/bandit_either_2","A1GRPIBHW72HDU","either","7","1205","","","","","","","0","1","0","","0.2589745902","0.4","0.8","0.2","0.6","0.2589745902","0.3349288927","0.4350385517","0.3339638593","","","","","","","","","","","","72","H","0","img/none_selected.jpg","","84","main_expt"
"","bandit","164","701946","0.0-125.0-0.0","78857273","wem/bandit_either_2","A1GRPIBHW72HDU","either","7","1681","","","","","","","1","0","0","0.3626504113","","0.4","0.8","0.2","0.6","","","","","0.3626504113","0.3247899262","0.4255505645","0.3795022601","","","","","","","","72","H","0","img/none_selected.jpg","","85","main_expt"
"","bandit","165","704660","0.0-126.0-0.0","78857273","wem/bandit_either_2","A1GRPIBHW72HDU","either","7","1157","","","","","","","0","0","1","0.3598915268","","0.4","0.8","0.2","0.6","","","","","0.3598915268","0.3443557019","0.4330938692","0.3835523064","","","","","","","","72","H","0","img/none_selected.jpg","","86","main_expt"
"","bandit","166","707517","0.0-127.0-0.0","78857273","wem/bandit_either_2","A1GRPIBHW72HDU","either","7","1282","","","","","","","0","0","1","0.3433052933","","0.4","0.8","0.2","0.6","","","","","0.3433052933","0.3648776167","0.4548398529","0.3772514457","","","","","","","","72","H","0","img/none_selected.jpg","","87","main_expt"
"","bandit","167","711264","0.0-128.0-0.0","78857273","wem/bandit_either_2","A1GRPIBHW72HDU","either","7","2185","","","","","","","0","0","1","","0.4022938878","0.4","0.8","0.2","0.6","0.4022938878","0.3609631839","0.4493124031","0.3766830519","","","","","","","","","","","","72","H","0","img/none_selected.jpg","","88","main_expt"
"","bandit","168","713371","0.0-129.0-0.0","78857273","wem/bandit_either_2","A1GRPIBHW72HDU","either","7","544","","","","","","","0","0","1","0.3537755119","","0.4","0.8","0.2","0.6","","","","","0.4141493151","0.3636167192","0.4161110063","0.3537755119","","","","","","","","76","L","3","","","89","main_expt"
"","bandit","169","715528","0.0-130.0-0.0","78857273","wem/bandit_either_2","A1GRPIBHW72HDU","either","7","553","","","","","","","0","0","1","0.3563441379","","0.4","0.8","0.2","0.6","","","","","0.4136124289","0.3563441379","0.405260856","0.3014761449","","","","","","","","74","J","1","","","90","main_expt"
"","bandit","170","718513","0.0-131.0-0.0","78857273","wem/bandit_either_2","A1GRPIBHW72HDU","either","7","382","","","","","","","0","0","1","","0.3827048226","0.4","0.8","0.2","0.6","0.4184852842","0.3389138503","0.3827048226","0.2694038268","","","","","","","","","","","","75","K","2","","","91","main_expt"
"","bandit","171","720714","0.0-132.0-0.0","78857273","wem/bandit_either_2","A1GRPIBHW72HDU","either","7","644","","","","","","","1","0","0","0.3552182969","","0.4","0.8","0.2","0.6","","","","","0.4456808576","0.3263360165","0.3552182969","0.2651536323","","","","","","","","75","K","2","","","92","main_expt"
"","bandit","172","723029","0.0-133.0-0.0","78857273","wem/bandit_either_2","A1GRPIBHW72HDU","either","7","729","","","","","","","0","1","0","","0.4355219805","0.4","0.8","0.2","0.6","0.4355219805","0.2844131911","0.3286897504","0.1997208586","","","","","","","","","","","","72","H","0","img/none_selected.jpg","","93","main_expt"
"","bandit","173","726585","0.0-134.0-0.0","78857273","wem/bandit_either_2","A1GRPIBHW72HDU","either","7","995","","","","","","","0","0","1","0.2442555344","","0.4","0.8","0.2","0.6","","","","","0.4609821192","0.2978465223","0.3422490236","0.2442555344","","","","","","","","76","L","3","","","94","main_expt"
"","bandit","174","729113","0.0-135.0-0.0","78857273","wem/bandit_either_2","A1GRPIBHW72HDU","either","7","885","","","","","","","0","0","1","","0.3160161054","0.4","0.8","0.2","0.6","0.4419374505","0.2638723705","0.3160161054","0.2638839348","","","","","","","","","","","","75","K","2","","","95","main_expt"
"","bandit","175","731737","0.0-136.0-0.0","78857273","wem/bandit_either_2","A1GRPIBHW72HDU","either","7","1049","","","","","","","0","1","0","","0.2945538732","0.4","0.8","0.2","0.6","0.39438674","0.2276010735","0.2945538732","0.2265245807","","","","","","","","","","","","75","K","2","","","96","main_expt"
"","bandit","176","735232","0.0-137.0-0.0","78857273","wem/bandit_either_2","A1GRPIBHW72HDU","either","7","1942","","","","","","","0","0","1","0.3617668419","","0.4","0.8","0.2","0.6","","","","","0.3617668419","0.2045446072","0.393563827","0.1969189177","","","","","","","","72","H","0","img/none_selected.jpg","","97","main_expt"
"","bandit","177","738019","0.0-138.0-0.0","78857273","wem/bandit_either_2","A1GRPIBHW72HDU","either","7","1209","","","","","","","0","1","0","","0.4046254927","0.4","0.8","0.2","0.6","0.3737913853","0.2436418828","0.4046254927","0.1761144245","","","","","","","","","","","","75","K","2","","","98","main_expt"
"","bandit","178","741968","0.0-139.0-0.0","78857273","wem/bandit_either_2","A1GRPIBHW72HDU","either","7","2392","","","","","","","0","0","1","","0.3659012549","0.4","0.8","0.2","0.6","0.4221129479","0.2473144087","0.3659012549","0.1211630765","","","","","","","","","","","","75","K","2","","","99","main_expt"
"","bandit","179","745061","0.0-140.0-0.0","78857273","wem/bandit_either_2","A1GRPIBHW72HDU","either","7","1527","","","","","","","0","0","1","","0.1257326749","0.4","0.8","0.2","0.6","0.3857893684","0.2707360286","0.400368336","0.1257326749","","","","","","","","","","","","76","L","3","","","100","main_expt"
"","bandit","180","749070","0.0-141.0-0.0","78857273","wem/bandit_either_2","A1GRPIBHW72HDU","either","7","1235","","","","","","","0","0","1","0.09975532208","","0.4","0.8","0.2","0.6","","","","","0.3635527264","0.3250409822","0.4367931528","0.09975532208","","","","","","","","76","L","3","","","101","main_expt"
"","bandit","181","751049","0.0-142.0-0.0","78857273","wem/bandit_either_2","A1GRPIBHW72HDU","either","7","432","","","","","","","1","0","0","0.4371155326","","0.4","0.8","0.2","0.6","","","","","0.3738375489","0.3088580598","0.4371155326","0.1127414424","","","","","","","","75","K","2","","","102","main_expt"
"","bandit","182","753392","0.0-143.0-0.0","78857273","wem/bandit_either_2","A1GRPIBHW72HDU","either","7","771","","","","","","","0","0","1","","0.3860163181","0.4","0.8","0.2","0.6","0.3860163181","0.2901001995","0.388648264","0.1232600734","","","","","","","","","","","","72","H","0","img/none_selected.jpg","","103","main_expt"
"","bandit","183","755426","0.0-144.0-0.0","78857273","wem/bandit_either_2","A1GRPIBHW72HDU","either","7","461","","","","","","","1","0","0","0.309645936","","0.4","0.8","0.2","0.6","","","","","0.390692362","0.309645936","0.3718469433","0.08156843846","","","","","","","","74","J","1","","","104","main_expt"
"","bandit","184","758583","0.0-145.0-0.0","78857273","wem/bandit_either_2","A1GRPIBHW72HDU","either","7","1595","","","","","","","0","1","0","","0.3920304628","0.4","0.8","0.2","0.6","0.4139082553","0.3386062745","0.3920304628","0.08245659199","","","","","","","","","","","","75","K","2","","","105","main_expt"
"","bandit","185","761107","0.0-146.0-0.0","78857273","wem/bandit_either_2","A1GRPIBHW72HDU","either","7","943","","","","","","","0","0","1","0.3733497125","","0.4","0.8","0.2","0.6","","","","","0.3295275825","0.3827539061","0.3733497125","0.1276639339","","","","","","","","75","K","2","","","106","main_expt"
"","bandit","186","763021","0.0-147.0-0.0","78857273","wem/bandit_either_2","A1GRPIBHW72HDU","either","7","279","","","","","","","0","0","1","","0.3401355396","0.4","0.8","0.2","0.6","0.3499712774","0.3401355396","0.3878439861","0.1812689745","","","","","","","","","","","","74","J","1","","","107","main_expt"
"","bandit","187","766076","0.0-148.0-0.0","78857273","wem/bandit_either_2","A1GRPIBHW72HDU","either","7","260","","","","","","","0","0","1","","0.3529013302","0.4","0.8","0.2","0.6","0.2666891207","0.3258039352","0.3529013302","0.2187982558","","","","","","","","","","","","75","K","2","","","108","main_expt"
"","bandit","188","768042","0.0-149.0-0.0","78857273","wem/bandit_either_2","A1GRPIBHW72HDU","either","7","400","","","","","","","0","0","1","0.2575067634","","0.4","0.8","0.2","0.6","","","","","0.2575067634","0.374919859","0.3457683734","0.2201216928","","","","","","","","72","H","0","img/none_selected.jpg","","109","main_expt"
"","bandit","189","770316","0.0-150.0-0.0","78857273","wem/bandit_either_2","A1GRPIBHW72HDU","either","7","692","","","","","","","0","0","1","","0.3316873257","0.4","0.8","0.2","0.6","0.2664913793","0.3656186065","0.3316873257","0.1789817232","","","","","","","","","","","","75","K","2","","","110","main_expt"
"","bandit","190","773048","0.0-151.0-0.0","78857273","wem/bandit_either_2","A1GRPIBHW72HDU","either","7","598","","","","","","","0","0","1","0.3649701027","","0.4","0.8","0.2","0.6","","","","","0.2233446911","0.3649701027","0.3434945318","0.2404947452","","","","","","","","74","J","1","","","111","main_expt"
"","bandit","191","775444","0.0-152.0-0.0","78857273","wem/bandit_either_2","A1GRPIBHW72HDU","either","7","839","","","","","","","1","0","0","0.2959558532","","0.4","0.8","0.2","0.6","","","","","0.2170082082","0.3371716456","0.2729480053","0.2959558532","","","","","","","","76","L","3","","","112","main_expt"
"","bandit","192","778612","0.0-153.0-0.0","78857273","wem/bandit_either_2","A1GRPIBHW72HDU","either","7","1589","","","","","","","0","0","1","0.2966985553","","0.4","0.8","0.2","0.6","","","","","0.1912277411","0.2587224119","0.2579672073","0.2966985553","","","","","","","","76","L","3","","","113","main_expt"
"","bandit","193","782018","0.0-154.0-0.0","78857273","wem/bandit_either_2","A1GRPIBHW72HDU","either","7","544","","","","","","","1","0","0","0.3289730608","","0.4","0.8","0.2","0.6","","","","","0.1691995451","0.2384324947","0.24654084","0.3289730608","","","","","","","","76","L","3","","","114","main_expt"
"","bandit","194","785094","0.0-155.0-0.0","78857273","wem/bandit_either_2","A1GRPIBHW72HDU","either","7","1489","","","","","","","0","1","0","","0.2783705844","0.4","0.8","0.2","0.6","0.1263730162","0.2705755989","0.246649757","0.2783705844","","","","","","","","","","","","76","L","3","","","115","main_expt"
"","bandit","195","790121","0.0-156.0-0.0","78857273","wem/bandit_either_2","A1GRPIBHW72HDU","either","7","2395","","","","","","","0","1","0","","0.2990421824","0.4","0.8","0.2","0.6","0.1130092975","0.2666822","0.2190482835","0.2990421824","","","","","","","","","","","","76","L","3","","","116","main_expt"
"","bandit","196","793228","0.0-157.0-0.0","78857273","wem/bandit_either_2","A1GRPIBHW72HDU","either","7","1525","","","","","","","0","1","0","","0.3214730448","0.4","0.8","0.2","0.6","0.1317362661","0.2664749026","0.1860086181","0.3214730448","","","","","","","","","","","","76","L","3","","","117","main_expt"
"","bandit","197","795342","0.0-158.0-0.0","78857273","wem/bandit_either_2","A1GRPIBHW72HDU","either","7","545","","","","","","","0","0","1","","0.1765749983","0.4","0.8","0.2","0.6","0.08460291254","0.285497096","0.1765749983","0.3996160597","","","","","","","","","","","","75","K","2","","","118","main_expt"
"","bandit","198","798224","0.0-159.0-0.0","78857273","wem/bandit_either_2","A1GRPIBHW72HDU","either","7","357","","","","","","","0","0","1","0.4143362638","","0.4","0.8","0.2","0.6","","","","","0.09168363065","0.3004427434","0.1840588368","0.4143362638","","","","","","","","76","L","3","","","119","main_expt"
"","bandit","199","800628","0.0-160.0-0.0","78857273","wem/bandit_either_2","A1GRPIBHW72HDU","either","7","830","","","","","","","0","0","1","0.372340151","","0.4","0.8","0.2","0.6","","","","","0.06729372802","0.2419855731","0.1988357929","0.372340151","","","","","","","","76","L","3","","","120","main_expt"
"","bandit","200","803322","0.0-161.0-0.0","78857273","wem/bandit_either_2","A1GRPIBHW72HDU","either","7","1114","","","","","","","0","0","1","","0.08346408207","0.4","0.8","0.2","0.6","0.08346408207","0.3054132847","0.2315674","0.3910424524","","","","","","","","","","","","72","H","0","img/none_selected.jpg","","121","main_expt"
"","bandit","201","806569","0.0-162.0-0.0","78857273","wem/bandit_either_2","A1GRPIBHW72HDU","either","7","1680","","","","","","","0","0","1","","0.2041322171","0.4","0.8","0.2","0.6","0.05632743158","0.2473202095","0.2041322171","0.3813410711","","","","","","","","","","","","75","K","2","","","122","main_expt"
"","bandit","202","808430","0.0-163.0-0.0","78857273","wem/bandit_either_2","A1GRPIBHW72HDU","either","7","278","","","","","","","0","0","1","0.2909195989","","0.4","0.8","0.2","0.6","","","","","0.05516745574","0.2909195989","0.1945268209","0.4247291795","","","","","","","","74","J","1","","","123","main_expt"
"","bandit","203","810341","0.0-164.0-0.0","78857273","wem/bandit_either_2","A1GRPIBHW72HDU","either","7","350","","","","","","","1","0","0","0.4311179713","","0.4","0.8","0.2","0.6","","","","","0.05528311039","0.3493750294","0.2206749142","0.4311179713","","","","","","","","76","L","3","","","124","main_expt"
"","bandit","204","813596","0.0-165.0-0.0","78857273","wem/bandit_either_2","A1GRPIBHW72HDU","either","7","1622","","","","","","","0","0","1","0.4085782939","","0.4","0.8","0.2","0.6","","","","","0.07149807259","0.3883668019","0.212012295","0.4085782939","","","","","","","","76","L","3","","","125","main_expt"
"","bandit","205","816490","0.0-166.0-0.0","78857273","wem/bandit_either_2","A1GRPIBHW72HDU","either","7","1327","","","","","","","0","0","1","0.4110861309","","0.4","0.8","0.2","0.6","","","","","0.1137803622","0.3888129637","0.1656684785","0.4110861309","","","","","","","","76","L","3","","","126","main_expt"
"","bandit","206","818741","0.0-167.0-0.0","78857273","wem/bandit_either_2","A1GRPIBHW72HDU","either","7","685","","","","","","","0","0","1","","0.1685301808","0.4","0.8","0.2","0.6","0.1003054442","0.3659195129","0.1685301808","0.4214671818","","","","","","","","","","","","75","K","2","","","127","main_expt"
"","bandit","207","821927","0.0-168.0-0.0","78857273","wem/bandit_either_2","A1GRPIBHW72HDU","either","7","1629","","","","","","","0","0","1","","0.1703551811","0.4","0.8","0.2","0.6","0.1378169536","0.3689954399","0.1703551811","0.36889317","","","","","","","","","","","","75","K","2","","","128","main_expt"
"","bandit","208","824795","0.0-169.0-0.0","78857273","wem/bandit_either_2","A1GRPIBHW72HDU","either","7","1240","","","","","","","0","0","1","0.3840267129","","0.4","0.8","0.2","0.6","","","","","0.1333081235","0.3600340942","0.1624753709","0.3840267129","","","","","","","","76","L","3","","","129","main_expt"
"","bandit","209","827034","0.0-170.0-0.0","78857273","wem/bandit_either_2","A1GRPIBHW72HDU","either","7","666","","","","","","","0","0","1","","0.1682212827","0.4","0.8","0.2","0.6","0.1682212827","0.3580797835","0.2335662737","0.3809677701","","","","","","","","","","","","72","H","0","img/none_selected.jpg","","130","main_expt"
"","bandit","210","830054","0.0-171.0-0.0","78857273","wem/bandit_either_2","A1GRPIBHW72HDU","either","7","1432","","","","","","","0","0","1","","0.2193829955","0.4","0.8","0.2","0.6","0.2193829955","0.3785893338","0.240441026","0.3681933818","","","","","","","","","","","","72","H","0","img/none_selected.jpg","","131","main_expt"
"","bandit","211","832439","0.0-172.0-0.0","78857273","wem/bandit_either_2","A1GRPIBHW72HDU","either","7","810","","","","","","","1","0","0","0.3664045944","","0.4","0.8","0.2","0.6","","","","","0.2693349046","0.3764735404","0.2266699971","0.3664045944","","","","","","","","76","L","3","","","132","main_expt"
"","bandit","212","836389","0.0-173.0-0.0","78857273","wem/bandit_either_2","A1GRPIBHW72HDU","either","7","1668","","","","","","","1","0","0","0.4046437197","","0.4","0.8","0.2","0.6","","","","","0.2576546077","0.3433534211","0.1994193025","0.4046437197","","","","","","","","76","L","3","","","133","main_expt"
"","bandit","213","838837","0.0-174.0-0.0","78857273","wem/bandit_either_2","A1GRPIBHW72HDU","either","7","892","","","","","","","0","0","1","0.364490756","","0.4","0.8","0.2","0.6","","","","","0.2412372273","0.3606247271","0.1891464922","0.364490756","","","","","","","","76","L","3","","","134","main_expt"
"","bandit","214","841180","0.0-175.0-0.0","78857273","wem/bandit_either_2","A1GRPIBHW72HDU","either","7","770","","","","","","","0","0","1","","0.311914316","0.4","0.8","0.2","0.6","0.2198641054","0.3268624306","0.1614798668","0.311914316","","","","","","","","","","","","76","L","3","","","135","main_expt"
"","bandit","215","844364","0.0-176.0-0.0","78857273","wem/bandit_either_2","A1GRPIBHW72HDU","either","7","548","","","","","","","0","0","1","","0.1880386222","0.4","0.8","0.2","0.6","0.2504132697","0.2854606769","0.1880386222","0.2653901568","","","","","","","","","","","","75","K","2","","","136","main_expt"
"","bandit","216","845953","0.0-177.0-0.0","78857273","wem/bandit_either_2","A1GRPIBHW72HDU","either","7","38","","","","","","","0","0","1","","0.2413295316","0.4","0.8","0.2","0.6","0.1912230989","0.3311747399","0.1961818793","0.2413295316","","","","","","","","","","","","76","L","3","","","137","main_expt"
"","bandit","217","848139","0.0-178.0-0.0","78857273","wem/bandit_either_2","A1GRPIBHW72HDU","either","7","610","","","","","","","0","0","1","","0.2857678963","0.4","0.8","0.2","0.6","0.1576256809","0.2570785188","0.2857678963","0.2060295423","","","","","","","","","","","","75","K","2","","","138","main_expt"
"","bandit","218","850864","0.0-179.0-0.0","78857273","wem/bandit_either_2","A1GRPIBHW72HDU","either","7","1161","","","","","","","0","0","1","","0.1019788138","0.4","0.8","0.2","0.6","0.1019788138","0.2858060749","0.3449131854","0.1809645164","","","","","","","","","","","","72","H","0","img/none_selected.jpg","","139","main_expt"
"","bandit","219","853738","0.0-180.0-0.0","78857273","wem/bandit_either_2","A1GRPIBHW72HDU","either","7","1307","","","","","","","0","0","1","","0.07754087054","0.4","0.8","0.2","0.6","0.07754087054","0.2975559752","0.2537716732","0.1843216893","","","","","","","","","","","","72","H","0","img/none_selected.jpg","","140","main_expt"
"","bandit","220","856432","0.0-181.0-0.0","78857273","wem/bandit_either_2","A1GRPIBHW72HDU","either","7","1130","","","","","","","0","0","1","","0.09489610577","0.4","0.8","0.2","0.6","0.09489610577","0.2802168405","0.2858111263","0.1651876155","","","","","","","","","","","","72","H","0","img/none_selected.jpg","","141","main_expt"
"","bandit","221","860143","0.0-182.0-0.0","78857273","wem/bandit_either_2","A1GRPIBHW72HDU","either","7","961","","","","","","","1","0","0","0.1536427928","","0.4","0.8","0.2","0.6","","","","","0.09601428546","0.2231986748","0.303049367","0.1536427928","","","","","","","","76","L","3","","","142","main_expt"
"","bandit","222","862786","0.0-183.0-0.0","78857273","wem/bandit_either_2","A1GRPIBHW72HDU","either","7","1078","","","","","","","0","0","1","0.1546140226","","0.4","0.8","0.2","0.6","","","","","0.08301142993","0.2032880393","0.2969419413","0.1546140226","","","","","","","","76","L","3","","","143","main_expt"
"","bandit","223","865772","0.0-184.0-0.0","78857273","wem/bandit_either_2","A1GRPIBHW72HDU","either","7","1416","","","","","","","0","0","1","","0.1746031107","0.4","0.8","0.2","0.6","0.09599686985","0.1967741464","0.3128690494","0.1746031107","","","","","","","","","","","","76","L","3","","","144","main_expt"
"","bandit","224","868155","0.0-185.0-0.0","78857273","wem/bandit_either_2","A1GRPIBHW72HDU","either","7","135","","","","","","","0","0","1","","0.2991796355","0.4","0.8","0.2","0.6","0.07499383622","0.2283154954","0.2991796355","0.2021387556","","","","","","","","","","","","75","K","2","","","145","main_expt"
"","bandit","225","870119","0.0-186.0-0.0","78857273","wem/bandit_either_2","A1GRPIBHW72HDU","either","7","410","","","","","","","0","0","1","0.3163763193","","0.4","0.8","0.2","0.6","","","","","0.09566861","0.2118700154","0.3163763193","0.2504344391","","","","","","","","75","K","2","","","146","main_expt"
"","bandit","226","872066","0.0-187.0-0.0","78857273","wem/bandit_either_2","A1GRPIBHW72HDU","either","7","371","","","","","","","0","0","1","0.2437718569","","0.4","0.8","0.2","0.6","","","","","0.08578591382","0.210437557","0.3198025905","0.2437718569","","","","","","","","76","L","3","","","147","main_expt"
"","bandit","227","876306","0.0-188.0-0.0","78857273","wem/bandit_either_2","A1GRPIBHW72HDU","either","7","1337","","","","","","","0","0","1","0.2446677265","","0.4","0.8","0.2","0.6","","","","","0.1147887709","0.2370661354","0.2588245921","0.2446677265","","","","","","","","76","L","3","","","148","main_expt"
"","bandit","228","877904","0.0-189.0-0.0","78857273","wem/bandit_either_2","A1GRPIBHW72HDU","either","7","33","","","","","","","0","0","1","0.2430363771","","0.4","0.8","0.2","0.6","","","","","0.1378203382","0.2430363771","0.248712437","0.2911002833","","","","","","","","74","J","1","","","149","main_expt"
"","bandit","229","879860","0.0-190.0-0.0","78857273","wem/bandit_either_2","A1GRPIBHW72HDU","either","7","375","","","","","","","1","0","0","0.3529655025","","0.4","0.8","0.2","0.6","","","","","0.1414499273","0.2242182381","0.179144869","0.3529655025","","","","","","","","76","L","3","","","150","main_expt"
"","bandit","230","883626","0.0-191.0-0.0","78857273","wem/bandit_either_2","A1GRPIBHW72HDU","either","7","1332","","","","","","","0","0","1","0.3885741111","","0.4","0.8","0.2","0.6","","","","","0.07852348772","0.1997145133","0.1545669956","0.3885741111","","","","","","","","76","L","3","","","151","main_expt"
"","bandit","231","885818","0.0-192.0-0.0","78857273","wem/bandit_either_2","A1GRPIBHW72HDU","either","7","640","","","","","","","0","1","0","","0.1651714415","0.4","0.8","0.2","0.6","0.08485793113","0.2195927633","0.1651714415","0.3690499696","","","","","","","","","","","","75","K","2","","","152","main_expt"
"","bandit","232","888653","0.0-193.0-0.0","78857273","wem/bandit_either_2","A1GRPIBHW72HDU","either","7","1268","","","","","","","0","1","0","","0.2396245514","0.4","0.8","0.2","0.6","0.1083789561","0.2121816628","0.2396245514","0.3710492515","","","","","","","","","","","","75","K","2","","","153","main_expt"
"","bandit","233","891942","0.0-194.0-0.0","78857273","wem/bandit_either_2","A1GRPIBHW72HDU","either","7","1107","","","","","","","0","0","1","","0.2085838567","0.4","0.8","0.2","0.6","0.109098481","0.1830588608","0.2085838567","0.3483335413","","","","","","","","","","","","75","K","2","","","154","main_expt"
"","bandit","234","894249","0.0-195.0-0.0","78857273","wem/bandit_either_2","A1GRPIBHW72HDU","either","7","752","","","","","","","0","1","0","","0.1864274254","0.4","0.8","0.2","0.6","0.1758262092","0.2031423662","0.1864274254","0.3343760247","","","","","","","","","","","","75","K","2","","","155","main_expt"
"","bandit","235","897562","0.0-196.0-0.0","78857273","wem/bandit_either_2","A1GRPIBHW72HDU","either","7","1681","","","","","","","0","0","1","","0.1750870897","0.4","0.8","0.2","0.6","0.2046597001","0.2022731065","0.1750870897","0.3742013553","","","","","","","","","","","","75","K","2","","","156","main_expt"
"","bandit","236","900661","0.0-197.0-0.0","78857273","wem/bandit_either_2","A1GRPIBHW72HDU","either","7","409","","","","","","","0","1","0","","0.1774751899","0.4","0.8","0.2","0.6","0.1774751899","0.1826661219","0.1321985386","0.3620366094","","","","","","","","","","","","72","H","0","img/none_selected.jpg","","157","main_expt"
"","bandit","237","903379","0.0-198.0-0.0","78857273","wem/bandit_either_2","A1GRPIBHW72HDU","either","7","1145","","","","","","","0","0","1","","0.1612033886","0.4","0.8","0.2","0.6","0.1612033886","0.1658993888","0.1341899746","0.3671714071","","","","","","","","","","","","72","H","0","img/none_selected.jpg","","158","main_expt"
"","bandit","238","905903","0.0-199.0-0.0","78857273","wem/bandit_either_2","A1GRPIBHW72HDU","either","7","942","","","","","","","0","0","1","","0.1567784951","0.4","0.8","0.2","0.6","0.1586838935","0.1620079643","0.1567784951","0.4015988616","","","","","","","","","","","","75","K","2","","","159","main_expt"
"","bandit","239","908983","0.0-200.0-0.0","78857273","wem/bandit_either_2","A1GRPIBHW72HDU","either","7","1453","","","","","","","0","0","1","","0.2159944071","0.4","0.8","0.2","0.6","0.2159944071","0.2453635642","0.1615549635","0.4004877553","","","","","","","","","","","","72","H","0","img/none_selected.jpg","","160","main_expt"
"","bandit","240","910945","0.0-201.0-0.0","78857273","wem/bandit_either_2","A1GRPIBHW72HDU","either","7","391","","","","","","","0","0","1","0.2456373749","","0.4","0.8","0.2","0.6","","","","","0.2105769377","0.2456373749","0.1854631015","0.4095849454","","","","","","","","74","J","1","","","161","main_expt"
"","bandit","241","912878","0.0-202.0-0.0","78857273","wem/bandit_either_2","A1GRPIBHW72HDU","either","7","346","","","","","","","0","1","0","","0.2006925765","0.4","0.8","0.2","0.6","0.2006925765","0.2460125232","0.21229469","0.3978002783","","","","","","","","","","","","72","H","0","img/none_selected.jpg","","162","main_expt"
"","bandit","242","916779","0.0-203.0-0.0","78857273","wem/bandit_either_2","A1GRPIBHW72HDU","either","7","2235","","","","","","","0","0","1","","0.2365124807","0.4","0.8","0.2","0.6","0.2365124807","0.2013568893","0.162194177","0.4180552148","","","","","","","","","","","","72","H","0","img/none_selected.jpg","","163","main_expt"
"","bandit","243","918607","0.0-204.0-0.0","78857273","wem/bandit_either_2","A1GRPIBHW72HDU","either","7","272","","","","","","","0","0","1","","0.1535707797","0.4","0.8","0.2","0.6","0.2157370886","0.1933595846","0.1535707797","0.4407560021","","","","","","","","","","","","75","K","2","","","164","main_expt"
"","bandit","244","921399","0.0-205.0-0.0","78857273","wem/bandit_either_2","A1GRPIBHW72HDU","either","7","1228","","","","","","","0","0","1","","0.2315934193","0.4","0.8","0.2","0.6","0.2166787898","0.167552211","0.2315934193","0.4582960521","","","","","","","","","","","","75","K","2","","","165","main_expt"
"","bandit","245","924460","0.0-206.0-0.0","78857273","wem/bandit_either_2","A1GRPIBHW72HDU","either","7","1511","","","","","","","0","1","0","","0.4337500892","0.4","0.8","0.2","0.6","0.1846262972","0.1311237951","0.2579087381","0.4337500892","","","","","","","","","","","","76","L","3","","","166","main_expt"
"","bandit","246","926637","0.0-207.0-0.0","78857273","wem/bandit_either_2","A1GRPIBHW72HDU","either","7","605","","","","","","","0","0","1","0.4537582576","","0.4","0.8","0.2","0.6","","","","","0.1888750078","0.1714029316","0.2496457694","0.4537582576","","","","","","","","76","L","3","","","167","main_expt"
"","bandit","247","928862","0.0-208.0-0.0","78857273","wem/bandit_either_2","A1GRPIBHW72HDU","either","7","647","","","","","","","0","0","1","","0.2315683769","0.4","0.8","0.2","0.6","0.2315683769","0.1494402723","0.234558796","0.4473485534","","","","","","","","","","","","72","H","0","img/none_selected.jpg","","168","main_expt"
"","bandit","248","931991","0.0-209.0-0.0","78857273","wem/bandit_either_2","A1GRPIBHW72HDU","either","7","473","","","","","","","0","0","1","0.2018123945","","0.4","0.8","0.2","0.6","","","","","0.2018123945","0.1819888556","0.2458600006","0.4471591033","","","","","","","","72","H","0","img/none_selected.jpg","","169","main_expt"
"","bandit","249","934404","0.0-210.0-0.0","78857273","wem/bandit_either_2","A1GRPIBHW72HDU","either","7","809","","","","","","","1","0","0","0.4581839475","","0.4","0.8","0.2","0.6","","","","","0.139238222","0.2329206984","0.2214583157","0.4581839475","","","","","","","","76","L","3","","","170","main_expt"
"","bandit","250","936549","0.0-211.0-0.0","78857273","wem/bandit_either_2","A1GRPIBHW72HDU","either","7","557","","","","","","","0","0","1","0.4674995421","","0.4","0.8","0.2","0.6","","","","","0.1466511374","0.2000607923","0.296208115","0.4674995421","","","","","","","","76","L","3","","","171","main_expt"
"","bandit","251","939951","0.0-212.0-0.0","78857273","wem/bandit_either_2","A1GRPIBHW72HDU","either","7","783","","","","","","","0","0","1","0.4455620345","","0.4","0.8","0.2","0.6","","","","","0.1348290388","0.2342957318","0.3062379281","0.4455620345","","","","","","","","76","L","3","","","172","main_expt"
"","bandit","252","942877","0.0-213.0-0.0","78857273","wem/bandit_either_2","A1GRPIBHW72HDU","either","7","1347","","","","","","","0","1","0","","0.2498067723","0.4","0.8","0.2","0.6","0.1521691919","0.2189308077","0.2498067723","0.4471610379","","","","","","","","","","","","75","K","2","","","173","main_expt"
"","bandit","253","947040","0.0-214.0-0.0","78857273","wem/bandit_either_2","A1GRPIBHW72HDU","either","7","1620","","","","","","","0","0","1","","0.1803522277","0.4","0.8","0.2","0.6","0.2191935525","0.2373932689","0.1803522277","0.4496576915","","","","","","","","","","","","75","K","2","","","174","main_expt"
"","bandit","254","949091","0.0-215.0-0.0","78857273","wem/bandit_either_2","A1GRPIBHW72HDU","either","7","487","","","","","","","0","1","0","","0.4715297358","0.4","0.8","0.2","0.6","0.219961305","0.2160264752","0.2014319342","0.4715297358","","","","","","","","","","","","76","L","3","","","175","main_expt"
"","bandit","255","952658","0.0-216.0-0.0","78857273","wem/bandit_either_2","A1GRPIBHW72HDU","either","7","1986","","","","","","","0","0","1","0.477956151","","0.4","0.8","0.2","0.6","","","","","0.1882485239","0.1990604306","0.2122003168","0.477956151","","","","","","","","76","L","3","","","176","main_expt"
"","bandit","256","955503","0.0-217.0-0.0","78857273","wem/bandit_either_2","A1GRPIBHW72HDU","either","7","1284","","","","","","","0","0","1","","0.2629069455","0.4","0.8","0.2","0.6","0.1644902553","0.1729978196","0.2629069455","0.4563721206","","","","","","","","","","","","75","K","2","","","177","main_expt"
"","bandit","257","958082","0.0-218.0-0.0","78857273","wem/bandit_either_2","A1GRPIBHW72HDU","either","7","1016","","","","","","","0","0","1","0.1633080779","","0.4","0.8","0.2","0.6","","","","","0.1713669852","0.1633080779","0.2336104206","0.4409869931","","","","","","","","74","J","1","","","178","main_expt"
"","bandit","258","960556","0.0-219.0-0.0","78857273","wem/bandit_either_2","A1GRPIBHW72HDU","either","7","902","","","","","","","0","0","1","","0.2263400462","0.4","0.8","0.2","0.6","0.2263400462","0.1243251356","0.1887504226","0.4243126063","","","","","","","","","","","","72","H","0","img/none_selected.jpg","","179","main_expt"
"","bandit","259","963474","0.0-220.0-0.0","78857273","wem/bandit_either_2","A1GRPIBHW72HDU","either","7","524","","","","","","","0","0","1","","0.2036870175","0.4","0.8","0.2","0.6","0.2036870175","0.1150149055","0.138376641","0.4312830743","","","","","","","","","","","","72","H","0","img/none_selected.jpg","","180","main_expt"
"","bandit","260","965444","0.0-221.0-0.0","78857273","wem/bandit_either_2","A1GRPIBHW72HDU","either","7","365","","","","","","","0","0","1","","0.1883992559","0.4","0.8","0.2","0.6","0.1934599198","0.1407924877","0.1883992559","0.4433127893","","","","","","","","","","","","75","K","2","","","181","main_expt"
"","bandit","261","967469","0.0-222.0-0.0","78857273","wem/bandit_either_2","A1GRPIBHW72HDU","either","7","450","","","","","","","0","0","1","","0.128889003","0.4","0.8","0.2","0.6","0.2424515525","0.09672650852","0.128889003","0.440136403","","","","","","","","","","","","75","K","2","","","182","main_expt"
"","bandit","262","970280","0.0-223.0-0.0","78857273","wem/bandit_either_2","A1GRPIBHW72HDU","either","7","406","","","","","","","0","0","1","","0.4347693449","0.4","0.8","0.2","0.6","0.1961777535","0.09888002855","0.1748769843","0.4347693449","","","","","","","","","","","","76","L","3","","","183","main_expt"
"","bandit","263","972307","0.0-224.0-0.0","78857273","wem/bandit_either_2","A1GRPIBHW72HDU","either","7","472","","","","","","","0","0","1","","0.4277130926","0.4","0.8","0.2","0.6","0.1489283113","0.07200145298","0.1945994373","0.4277130926","","","","","","","","","","","","76","L","3","","","184","main_expt"
"","bandit","264","974354","0.0-225.0-0.0","78857273","wem/bandit_either_2","A1GRPIBHW72HDU","either","7","437","","","","","","","0","0","1","0.09476413333","","0.4","0.8","0.2","0.6","","","","","0.1499965078","0.09476413333","0.1644748654","0.3956248437","","","","","","","","74","J","1","","","185","main_expt"
"","bandit","265","976327","0.0-226.0-0.0","78857273","wem/bandit_either_2","A1GRPIBHW72HDU","either","7","401","","","","","","","0","0","1","","0.06556422103","0.4","0.8","0.2","0.6","0.2169832988","0.06556422103","0.1504635592","0.3748928266","","","","","","","","","","","","74","J","1","","","186","main_expt"
"","bandit","266","979220","0.0-227.0-0.0","78857273","wem/bandit_either_2","A1GRPIBHW72HDU","either","7","317","","","","","","","0","0","1","","0.1760039214","0.4","0.8","0.2","0.6","0.2655186329","0.08901149072","0.1760039214","0.3848139325","","","","","","","","","","","","75","K","2","","","187","main_expt"
"","bandit","267","981427","0.0-228.0-0.0","78857273","wem/bandit_either_2","A1GRPIBHW72HDU","either","7","632","","","","","","","0","1","0","","0.3990176401","0.4","0.8","0.2","0.6","0.2738785118","0.09471428588","0.1203267588","0.3990176401","","","","","","","","","","","","76","L","3","","","188","main_expt"
"","bandit","268","983596","0.0-229.0-0.0","78857273","wem/bandit_either_2","A1GRPIBHW72HDU","either","7","590","","","","","","","0","0","1","0.3581396838","","0.4","0.8","0.2","0.6","","","","","0.3041874674","0.05118235823","0.1171540391","0.3581396838","","","","","","","","76","L","3","","","189","main_expt"
"","bandit","269","986873","0.0-230.0-0.0","78857273","wem/bandit_either_2","A1GRPIBHW72HDU","either","7","761","","","","","","","1","0","0","0.2882972244","","0.4","0.8","0.2","0.6","","","","","0.3229453735","0.05788318751","0.1535230761","0.2882972244","","","","","","","","76","L","3","","","190","main_expt"
"","bandit","270","989100","0.0-231.0-0.0","78857273","wem/bandit_either_2","A1GRPIBHW72HDU","either","7","652","","","","","","","0","0","1","","0.3145326233","0.4","0.8","0.2","0.6","0.3818249757","0.08736915481","0.1372750947","0.3145326233","","","","","","","","","","","","76","L","3","","","191","main_expt"
"","bandit","271","991137","0.0-232.0-0.0","78857273","wem/bandit_either_2","A1GRPIBHW72HDU","either","7","455","","","","","","","0","0","1","0.3270603702","","0.4","0.8","0.2","0.6","","","","","0.4157726243","0.08251019118","0.1047771501","0.3270603702","","","","","","","","76","L","3","","","192","main_expt"
"","bandit","272","993817","0.0-233.0-0.0","78857273","wem/bandit_either_2","A1GRPIBHW72HDU","either","7","408","","","","","","","0","0","1","","0.4611608212","0.4","0.8","0.2","0.6","0.4611608212","0.06897628064","0.1100845432","0.3604030797","","","","","","","","","","","","72","H","0","img/none_selected.jpg","","193","main_expt"
"","bandit","273","995780","0.0-234.0-0.0","78857273","wem/bandit_either_2","A1GRPIBHW72HDU","either","7","408","","","","","","","1","0","0","0.4508818777","","0.4","0.8","0.2","0.6","","","","","0.4508818777","0.06801266305","0.1468163818","0.357423186","","","","","","","","72","H","0","img/none_selected.jpg","","194","main_expt"
"","bandit","274","998444","0.0-235.0-0.0","78857273","wem/bandit_either_2","A1GRPIBHW72HDU","either","7","1083","","","","","","","0","0","1","","0.4278921451","0.4","0.8","0.2","0.6","0.4278921451","0.09923709358","0.1495594621","0.3697779856","","","","","","","","","","","","72","H","0","img/none_selected.jpg","","195","main_expt"
"","bandit","275","1000513","0.0-236.0-0.0","78857273","wem/bandit_either_2","A1GRPIBHW72HDU","either","7","457","","","","","","","0","0","1","0.4256293003","","0.4","0.8","0.2","0.6","","","","","0.4256293003","0.1103063831","0.2263220537","0.3617177512","","","","","","","","72","H","0","img/none_selected.jpg","","196","main_expt"
"","bandit","276","1003398","0.0-237.0-0.0","78857273","wem/bandit_either_2","A1GRPIBHW72HDU","either","7","1327","","","","","","","0","0","1","","0.07377144043","0.4","0.8","0.2","0.6","0.4476975038","0.07377144043","0.2204718804","0.3775990084","","","","","","","","","","","","74","J","1","","","197","main_expt"
"","bandit","277","1005321","0.0-238.0-0.0","78857273","wem/bandit_either_2","A1GRPIBHW72HDU","either","7","346","","","","","","","0","0","1","","0.2401118457","0.4","0.8","0.2","0.6","0.4434357272","0.08863448313","0.2401118457","0.4144042571","","","","","","","","","","","","75","K","2","","","198","main_expt"
"","bandit","278","1008077","0.0-239.0-0.0","78857273","wem/bandit_either_2","A1GRPIBHW72HDU","either","7","1183","","","","","","","0","1","0","","0.2673724497","0.4","0.8","0.2","0.6","0.4245114622","0.1082179128","0.2673724497","0.4081775392","","","","","","","","","","","","75","K","2","","","199","main_expt"
"","bandit","279","1011211","0.0-240.0-0.0","78857273","wem/bandit_either_2","A1GRPIBHW72HDU","either","7","1484","","","","","","","0","0","1","","0.3125307902","0.4","0.8","0.2","0.6","0.4087100315","0.09350688576","0.3125307902","0.4166156547","","","","","","","","","","","","75","K","2","","","200","main_expt"
"","bandit","280","1013344","0.0-241.0-0.0","78857273","wem/bandit_either_2","A1GRPIBHW72HDU","either","7","564","","","","","","","0","0","1","","0.2914574258","0.4","0.8","0.2","0.6","0.4361521275","0.1036625099","0.2914574258","0.4306537176","","","","","","","","","","","","75","K","2","","","201","main_expt"
"","bandit","281","1015342","0.0-242.0-0.0","78857273","wem/bandit_either_2","A1GRPIBHW72HDU","either","7","424","","","","","","","0","1","0","","0.2550600684","0.4","0.8","0.2","0.6","0.3332596158","0.1216733889","0.2550600684","0.449382563","","","","","","","","","","","","75","K","2","","","202","main_expt"
"","bandit","282","1018918","0.0-243.0-0.0","78857273","wem/bandit_either_2","A1GRPIBHW72HDU","either","7","2000","","","","","","","0","0","1","","0.2769745997","0.4","0.8","0.2","0.6","0.3581848779","0.120655788","0.2769745997","0.4506576586","","","","","","","","","","","","75","K","2","","","203","main_expt"
"","bandit","283","1020938","0.0-244.0-0.0","78857273","wem/bandit_either_2","A1GRPIBHW72HDU","either","7","360","","","","","","","0","1","0","","0.454839243","0.4","0.8","0.2","0.6","0.3597133043","0.1082970726","0.2752990059","0.454839243","","","","","","","","","","","","76","L","3","","","204","main_expt"
"","bandit","284","1025254","0.0-245.0-0.0","78857273","wem/bandit_either_2","A1GRPIBHW72HDU","either","7","1738","","","","","","","0","1","0","","0.4512889682","0.4","0.8","0.2","0.6","0.3630183988","0.09143681274","0.2901512169","0.4512889682","","","","","","","","","","","","76","L","3","","","205","main_expt"
"","bandit","285","1027442","0.0-246.0-0.0","78857273","wem/bandit_either_2","A1GRPIBHW72HDU","either","7","593","","","","","","","0","0","1","","0.4591490044","0.4","0.8","0.2","0.6","0.3737494834","0.08377413986","0.2823763913","0.4591490044","","","","","","","","","","","","76","L","3","","","206","main_expt"
"","bandit","286","1029622","0.0-247.0-0.0","78857273","wem/bandit_either_2","A1GRPIBHW72HDU","either","7","606","","","","","","","1","0","0","0.4650593633","","0.4","0.8","0.2","0.6","","","","","0.3668784438","0.1585073664","0.2708062506","0.4650593633","","","","","","","","76","L","3","","","207","main_expt"
"","bandit","287","1033659","0.0-248.0-0.0","78857273","wem/bandit_either_2","A1GRPIBHW72HDU","either","7","1409","","","","","","","0","0","1","","0.4641513068","0.4","0.8","0.2","0.6","0.4045351895","0.162299901","0.2641553663","0.4641513068","","","","","","","","","","","","76","L","3","","","208","main_expt"
"","bandit","288","1035601","0.0-249.0-0.0","78857273","wem/bandit_either_2","A1GRPIBHW72HDU","either","7","366","","","","","","","1","0","0","0.4567807332","","0.4","0.8","0.2","0.6","","","","","0.4402386934","0.1542266077","0.2704675845","0.4567807332","","","","","","","","76","L","3","","","209","main_expt"
"","bandit","289","1038591","0.0-250.0-0.0","78857273","wem/bandit_either_2","A1GRPIBHW72HDU","either","7","1414","","","","","","","0","1","0","","0.428253188","0.4","0.8","0.2","0.6","0.4483623408","0.1890415559","0.3420868926","0.428253188","","","","","","","","","","","","76","L","3","","","210","main_expt"
"","bandit","290","1042089","0.0-251.0-0.0","78857273","wem/bandit_either_2","A1GRPIBHW72HDU","either","7","1853","","","","","","","0","1","0","","0.410271385","0.4","0.8","0.2","0.6","0.4471415093","0.1818133019","0.3069688952","0.410271385","","","","","","","","","","","","76","L","3","","","211","main_expt"
"","bandit","291","1045223","0.0-252.0-0.0","78857273","wem/bandit_either_2","A1GRPIBHW72HDU","either","7","1563","","","","","","","0","0","1","0.4065587724","","0.4","0.8","0.2","0.6","","","","","0.4374655127","0.1782747956","0.3005379093","0.4065587724","","","","","","","","76","L","3","","","212","main_expt"
"","bandit","292","1048251","0.0-253.0-0.0","78857273","wem/bandit_either_2","A1GRPIBHW72HDU","either","7","613","","","","","","","0","1","0","","0.4007116542","0.4","0.8","0.2","0.6","0.4381457257","0.1935195711","0.213882915","0.4007116542","","","","","","","","","","","","76","L","3","","","213","main_expt"
"","bandit","293","1051697","0.0-254.0-0.0","78857273","wem/bandit_either_2","A1GRPIBHW72HDU","either","7","1880","","","","","","","1","0","0","0.4246209323","","0.4","0.8","0.2","0.6","","","","","0.4643769008","0.2421176173","0.2138557204","0.4246209323","","","","","","","","76","L","3","","","214","main_expt"
"","bandit","294","1056151","0.0-255.0-0.0","78857273","wem/bandit_either_2","A1GRPIBHW72HDU","either","7","1753","","","","","","","0","0","1","0.3993057066","","0.4","0.8","0.2","0.6","","","","","0.4328812357","0.2629876012","0.2142566612","0.3993057066","","","","","","","","76","L","3","","","215","main_expt"
"","bandit","295","1057863","0.0-256.0-0.0","78857273","wem/bandit_either_2","A1GRPIBHW72HDU","either","7","154","","","","","","","0","0","1","0.3987772474","","0.4","0.8","0.2","0.6","","","","","0.4064507999","0.2977714141","0.1900351118","0.3987772474","","","","","","","","76","L","3","","","216","main_expt"
"","bandit","296","1060662","0.0-257.0-0.0","78857273","wem/bandit_either_2","A1GRPIBHW72HDU","either","7","1218","","","","","","","0","0","1","","0.2185169477","0.4","0.8","0.2","0.6","0.4197961641","0.3017601552","0.2185169477","0.4101433534","","","","","","","","","","","","75","K","2","","","217","main_expt"
"","bandit","297","1062688","0.0-258.0-0.0","78857273","wem/bandit_either_2","A1GRPIBHW72HDU","either","7","382","","","","","","","1","0","0","0.4167397569","","0.4","0.8","0.2","0.6","","","","","0.4167397569","0.2888566207","0.2240895604","0.4448029092","","","","","","","","72","H","0","img/none_selected.jpg","","218","main_expt"
"","bandit","298","1065850","0.0-259.0-0.0","78857273","wem/bandit_either_2","A1GRPIBHW72HDU","either","7","1605","","","","","","","0","0","1","","0.4250944588","0.4","0.8","0.2","0.6","0.4250944588","0.2844008008","0.1990808675","0.4454766299","","","","","","","","","","","","72","H","0","img/none_selected.jpg","","219","main_expt"
"","bandit","299","1069032","0.0-260.0-0.0","78857273","wem/bandit_either_2","A1GRPIBHW72HDU","either","7","1592","","","","","","","0","0","1","0.4173336587","","0.4","0.8","0.2","0.6","","","","","0.4173336587","0.2225062479","0.266602996","0.4610997771","","","","","","","","72","H","0","img/none_selected.jpg","","220","main_expt"
"","bandit","300","1072193","0.0-261.0-0.0","78857273","wem/bandit_either_2","A1GRPIBHW72HDU","either","7","381","","","","","","","0","1","0","","0.4642289789","0.4","0.8","0.2","0.6","0.3944711005","0.2409900116","0.2443661227","0.4642289789","","","","","","","","","","","","76","L","3","","","221","main_expt"
"","bandit","301","1074355","0.0-262.0-0.0","78857273","wem/bandit_either_2","A1GRPIBHW72HDU","either","7","595","","","","","","","0","0","1","0.4641270597","","0.4","0.8","0.2","0.6","","","","","0.3619306912","0.1989678636","0.2205922116","0.4641270597","","","","","","","","76","L","3","","","222","main_expt"
"","bandit","302","1076642","0.0-263.0-0.0","78857273","wem/bandit_either_2","A1GRPIBHW72HDU","either","7","704","","","","","","","0","0","1","","0.4117842179","0.4","0.8","0.2","0.6","0.4117842179","0.1902867071","0.1861223506","0.4697433819","","","","","","","","","","","","72","H","0","img/none_selected.jpg","","223","main_expt"
"","bandit","303","1079987","0.0-264.0-0.0","78857273","wem/bandit_either_2","A1GRPIBHW72HDU","either","7","890","","","","","","","0","0","1","","0.1668884863","0.4","0.8","0.2","0.6","0.3965092367","0.2076415522","0.1668884863","0.460898083","","","","","","","","","","","","75","K","2","","","224","main_expt"
"","bandit","304","1081587","0.0-265.0-0.0","78857273","wem/bandit_either_2","A1GRPIBHW72HDU","either","7","40","","","","","","","0","0","1","","0.2393469174","0.4","0.8","0.2","0.6","0.4084477862","0.2393469174","0.1481472712","0.4394890665","","","","","","","","","","","","74","J","1","","","225","main_expt"
"","bandit","305","1083820","0.0-266.0-0.0","78857273","wem/bandit_either_2","A1GRPIBHW72HDU","either","7","646","","","","","","","0","0","1","0.2425440376","","0.4","0.8","0.2","0.6","","","","","0.4104601526","0.2425440376","0.1140846591","0.4520955237","","","","","","","","74","J","1","","","226","main_expt"
"","bandit","306","1085749","0.0-267.0-0.0","78857273","wem/bandit_either_2","A1GRPIBHW72HDU","either","7","337","","","","","","","0","0","1","","0.4324220164","0.4","0.8","0.2","0.6","0.3899733519","0.2365603363","0.1074218354","0.4324220164","","","","","","","","","","","","76","L","3","","","227","main_expt"
"","bandit","307","1088972","0.0-268.0-0.0","78857273","wem/bandit_either_2","A1GRPIBHW72HDU","either","7","460","","","","","","","0","0","1","0.08065165665","","0.4","0.8","0.2","0.6","","","","","0.3796730737","0.2127958296","0.08065165665","0.4220482421","","","","","","","","75","K","2","","","228","main_expt"
"","bandit","308","1091025","0.0-269.0-0.0","78857273","wem/bandit_either_2","A1GRPIBHW72HDU","either","7","464","","","","","","","0","0","1","","0.3885749154","0.4","0.8","0.2","0.6","0.4046866514","0.2207861463","0.07774059362","0.3885749154","","","","","","","","","","","","76","L","3","","","229","main_expt"
"","bandit","309","1093085","0.0-270.0-0.0","78857273","wem/bandit_either_2","A1GRPIBHW72HDU","either","7","481","","","","","","","0","1","0","","0.3988793555","0.4","0.8","0.2","0.6","0.3988793555","0.2589226453","0.1109483114","0.4023755806","","","","","","","","","","","","72","H","0","img/none_selected.jpg","","230","main_expt"
"","bandit","310","1096166","0.0-271.0-0.0","78857273","wem/bandit_either_2","A1GRPIBHW72HDU","either","7","1523","","","","","","","0","0","1","0.3981898202","","0.4","0.8","0.2","0.6","","","","","0.3981898202","0.2956158432","0.05902300203","0.3768725222","","","","","","","","72","H","0","img/none_selected.jpg","","231","main_expt"
"","bandit","311","1098598","0.0-272.0-0.0","78857273","wem/bandit_either_2","A1GRPIBHW72HDU","either","7","862","","","","","","","0","1","0","","0.4411941832","0.4","0.8","0.2","0.6","0.4411941832","0.3202484073","0.06675855664","0.3619917427","","","","","","","","","","","","72","H","0","img/none_selected.jpg","","232","main_expt"
"","bandit","312","1103071","0.0-273.0-0.0","78857273","wem/bandit_either_2","A1GRPIBHW72HDU","either","7","1788","","","","","","","0","0","1","0.42967461","","0.4","0.8","0.2","0.6","","","","","0.42967461","0.2933644042","0.06703699679","0.3833578816","","","","","","","","72","H","0","img/none_selected.jpg","","233","main_expt"
"","bandit","313","1105067","0.0-274.0-0.0","78857273","wem/bandit_either_2","A1GRPIBHW72HDU","either","7","433","","","","","","","0","0","1","0.4242798354","","0.4","0.8","0.2","0.6","","","","","0.4242798354","0.3106154811","0.05331023031","0.3552131768","","","","","","","","72","H","0","img/none_selected.jpg","","234","main_expt"
"","bandit","314","1107502","0.0-275.0-0.0","78857273","wem/bandit_either_2","A1GRPIBHW72HDU","either","7","738","","","","","","","0","0","1","","0.4617388459","0.4","0.8","0.2","0.6","0.4617388459","0.3158990995","0.05187545802","0.3135084543","","","","","","","","","","","","72","H","0","img/none_selected.jpg","","235","main_expt"
"","bandit","315","1109462","0.0-276.0-0.0","78857273","wem/bandit_either_2","A1GRPIBHW72HDU","either","7","373","","","","","","","0","0","1","","0.06939909985","0.4","0.8","0.2","0.6","0.4619510484","0.3036927748","0.06939909985","0.244945467","","","","","","","","","","","","75","K","2","","","236","main_expt"
"","bandit","316","1112710","0.0-277.0-0.0","78857273","wem/bandit_either_2","A1GRPIBHW72HDU","either","7","1679","","","","","","","0","0","1","","0.3491021326","0.4","0.8","0.2","0.6","0.4482398789","0.3491021326","0.1210409879","0.1823839079","","","","","","","","","","","","74","J","1","","","237","main_expt"
"","bandit","317","1115416","0.0-278.0-0.0","78857273","wem/bandit_either_2","A1GRPIBHW72HDU","either","7","1097","","","","","","","1","0","0","0.3939254097","","0.4","0.8","0.2","0.6","","","","","0.4193969143","0.3939254097","0.1147840357","0.1685050226","","","","","","","","74","J","1","","","238","main_expt"
"","bandit","318","1119150","0.0-279.0-0.0","78857273","wem/bandit_either_2","A1GRPIBHW72HDU","either","7","1390","","","","","","","0","0","1","0.379108978","","0.4","0.8","0.2","0.6","","","","","0.4203848948","0.379108978","0.1006463842","0.1606472637","","","","","","","","74","J","1","","","239","main_expt"
"","bandit","319","1121113","0.0-280.0-0.0","78857273","wem/bandit_either_2","A1GRPIBHW72HDU","either","7","400","","","","","","","0","0","1","","0.1008771133","0.4","0.8","0.2","0.6","0.4489383263","0.3876209848","0.1008771133","0.1512795466","","","","","","","","","","","","75","K","2","","","240","main_expt"
"","bandit","320","1123160","0.0-281.0-0.0","78857273","wem/bandit_either_2","A1GRPIBHW72HDU","either","7","461","","","","","","","0","0","1","0.1916219391","","0.4","0.8","0.2","0.6","","","","","0.4636195567","0.3839625774","0.09981833296","0.1916219391","","","","","","","","76","L","3","","","241","main_expt"
"","bandit","321","1125537","0.0-282.0-0.0","78857273","wem/bandit_either_2","A1GRPIBHW72HDU","either","7","803","","","","","","","0","0","1","0.1641013935","","0.4","0.8","0.2","0.6","","","","","0.4575307695","0.3477958629","0.1171772993","0.1641013935","","","","","","","","76","L","3","","","242","main_expt"
"","bandit","322","1128484","0.0-283.0-0.0","78857273","wem/bandit_either_2","A1GRPIBHW72HDU","either","7","1378","","","","","","","0","0","1","","0.1239984651","0.4","0.8","0.2","0.6","0.4449554393","0.3500658948","0.1239984651","0.2064320789","","","","","","","","","","","","75","K","2","","","243","main_expt"
"","bandit","323","1130806","0.0-284.0-0.0","78857273","wem/bandit_either_2","A1GRPIBHW72HDU","either","7","733","","","","","","","0","0","1","0.4525763452","","0.4","0.8","0.2","0.6","","","","","0.4525763452","0.3452717574","0.1126152289","0.2205496082","","","","","","","","72","H","0","img/none_selected.jpg","","244","main_expt"
"","bandit","324","1133169","0.0-285.0-0.0","78857273","wem/bandit_either_2","A1GRPIBHW72HDU","either","7","780","","","","","","","0","0","1","","0.4753838692","0.4","0.8","0.2","0.6","0.4753838692","0.3162288444","0.1524829061","0.214276823","","","","","","","","","","","","72","H","0","img/none_selected.jpg","","245","main_expt"
"","bandit","325","1135953","0.0-286.0-0.0","78857273","wem/bandit_either_2","A1GRPIBHW72HDU","either","7","269","","","","","","","0","0","1","0.2894596967","","0.4","0.8","0.2","0.6","","","","","0.4623654582","0.2894596967","0.1921750243","0.2084567316","","","","","","","","74","J","1","","","246","main_expt"
