"consent","trial_type","trial_index","time_elapsed","internal_node_id","subjID","study","MID","cond","drift","rt","responses","key_press","expt_phase","like","value","connected","gems","bombs","no_reward","GemPrChosen","BombPrChosen","GainOverPainPr_0","GainOverPainPr_1","GainOverPainPr_2","GainOverPainPr_3","LosePr_0","LosePr_1","LosePr_2","LosePr_3","WinPr_0","WinPr_1","WinPr_2","WinPr_3","Q0","Q1","Q2","gender","age","ethnicity","target","respCharCode","respKey","respChoiceNum","respChoice","practice","trial_counter","trial_label"
"INL_behavioral_consent_30min_online.html","consent","0","56669","0.0-0.0","79608217","wem/bandit_either_2","A39GADIK8RLMVC","either","6","","","","","","","","","","","","","","","","","","","","","","","","","","","","","","","","","","","","","",""
"","survey-text","1","67319","0.0-1.0","79608217","wem/bandit_either_2","A39GADIK8RLMVC","either","6","9612","{""Q0"":""A39GADIK8RLMVC""}","","","","","","","","","","","","","","","","","","","","","","","","","","","","","","","","","","","",""
"","text","2","77632","0.0-2.0","79608217","wem/bandit_either_2","A39GADIK8RLMVC","either","6","9301","","32","","","","","","","","","","","","","","","","","","","","","","","","","","","","","","","","","","",""
"","text","3","81244","0.0-3.0","79608217","wem/bandit_either_2","A39GADIK8RLMVC","either","6","3605","","32","","","","","","","","","","","","","","","","","","","","","","","","","","","","","","","","","","",""
"","text","4","90261","0.0-4.0","79608217","wem/bandit_either_2","A39GADIK8RLMVC","either","6","9009","","32","","","","","","","","","","","","","","","","","","","","","","","","","","","","","","","","","","",""
"","text","5","101653","0.0-5.0","79608217","wem/bandit_either_2","A39GADIK8RLMVC","either","6","11381","","32","","","","","","","","","","","","","","","","","","","","","","","","","","","","","","","","","","",""
"","text","6","108578","0.0-6.0","79608217","wem/bandit_either_2","A39GADIK8RLMVC","either","6","6916","","32","","","","","","","","","","","","","","","","","","","","","","","","","","","","","","","","","","",""
"","text","7","112336","0.0-7.0","79608217","wem/bandit_either_2","A39GADIK8RLMVC","either","6","3753","","32","","","","","","","","","","","","","","","","","","","","","","","","","","","","","","","","","","",""
"","text","8","115903","0.0-8.0","79608217","wem/bandit_either_2","A39GADIK8RLMVC","either","6","3561","","32","","","","","","","","","","","","","","","","","","","","","","","","","","","","","","","","","","",""
"","identification","9","119969","0.0-9.0-0.0","79608217","wem/bandit_either_2","A39GADIK8RLMVC","either","6","3998","","","","3","3","3","","","","","","","","","","","","","","","","","","","","","","","","the village of Zur","","","","","","",""
"","identification","10","122846","0.0-9.0-1.0","79608217","wem/bandit_either_2","A39GADIK8RLMVC","either","6","1811","","","","3","3","3","","","","","","","","","","","","","","","","","","","","","","","","the village of Nyx","","","","","","",""
"","text","11","130408","0.0-10.0","79608217","wem/bandit_either_2","A39GADIK8RLMVC","either","6","6552","","32","","","","","","","","","","","","","","","","","","","","","","","","","","","","","","","","","","",""
"","text","12","132631","0.0-11.0","79608217","wem/bandit_either_2","A39GADIK8RLMVC","either","6","2219","","32","","","","","","","","","","","","","","","","","","","","","","","","","","","","","","","","","","",""
"","text","13","134471","0.0-12.0","79608217","wem/bandit_either_2","A39GADIK8RLMVC","either","6","1837","","32","","","","","","","","","","","","","","","","","","","","","","","","","","","","","","","","","","",""
"","text","14","140432","0.0-13.0","79608217","wem/bandit_either_2","A39GADIK8RLMVC","either","6","5956","","32","","","","","","","","","","","","","","","","","","","","","","","","","","","","","","","","","","",""
"","bandit","15","143449","0.0-14.0-0.0","79608217","wem/bandit_either_2","A39GADIK8RLMVC","either","6","1473","","","","","","","0","0","1","0","0","","","","","0","","","","0","","","","","","","","","","","74","J","0","img/none_selected_demo.jpg","true","0",""
"","bandit","16","145736","0.0-15.0-0.0","79608217","wem/bandit_either_2","A39GADIK8RLMVC","either","6","694","","","","","","","0","0","1","0","0","","","","","0","","","","0","","","","","","","","","","","75","K","0","img/none_selected_demo.jpg","true","0",""
"","text","17","149131","0.0-16.0","79608217","wem/bandit_either_2","A39GADIK8RLMVC","either","6","3387","","32","","","","","","","","","","","","","","","","","","","","","","","","","","","","","","","","","","",""
"","text","18","154437","0.0-17.0","79608217","wem/bandit_either_2","A39GADIK8RLMVC","either","6","5294","","32","","","","","","","","","","","","","","","","","","","","","","","","","","","","","","","","","","",""
"","text","19","165155","0.0-18.0","79608217","wem/bandit_either_2","A39GADIK8RLMVC","either","6","10708","","32","","","","","","","","","","","","","","","","","","","","","","","","","","","","","","","","","","",""
"","text","20","168960","0.0-19.0","79608217","wem/bandit_either_2","A39GADIK8RLMVC","either","6","3797","","32","","","","","","","","","","","","","","","","","","","","","","","","","","","","","","","","","","",""
"","bandit","21","171124","0.0-20.0-0.0","79608217","wem/bandit_either_2","A39GADIK8RLMVC","either","6","606","","","","","","","0","0","1","0.8","","0.5","0.5","","","","","","","0.8","0.2","","","","","","","","","","74","J","0","img/none_selected_demo.jpg","true","0","80_20_practice"
"","bandit","22","173066","0.0-20.0-1.0","79608217","wem/bandit_either_2","A39GADIK8RLMVC","either","6","394","","","","","","","0","0","1","0.2","","0.5","0.5","","","","","","","0.8","0.2","","","","","","","","","","75","K","1","","true","0","80_20_practice"
"","bandit","23","174867","0.0-20.0-2.0","79608217","wem/bandit_either_2","A39GADIK8RLMVC","either","6","261","","","","","","","0","0","1","","0.2","0.5","0.5","","","0.8","0.2","","","","","","","","","","","","","","75","K","1","","true","0","80_20_practice"
"","bandit","24","176674","0.0-20.0-3.0","79608217","wem/bandit_either_2","A39GADIK8RLMVC","either","6","270","","","","","","","0","0","1","","0.8","0.5","0.5","","","0.8","0.2","","","","","","","","","","","","","","74","J","0","img/none_selected_demo.jpg","true","0","80_20_practice"
"","bandit","25","178268","0.0-20.0-4.0","79608217","wem/bandit_either_2","A39GADIK8RLMVC","either","6","62","","","","","","","1","0","0","0.8","","0.5","0.5","","","","","","","0.8","0.2","","","","","","","","","","74","J","0","img/none_selected_demo.jpg","true","0","80_20_practice"
"","bandit","26","180081","0.0-20.0-5.0","79608217","wem/bandit_either_2","A39GADIK8RLMVC","either","6","275","","","","","","","1","0","0","0.8","","0.5","0.5","","","","","","","0.8","0.2","","","","","","","","","","74","J","0","img/none_selected_demo.jpg","true","0","80_20_practice"
"","bandit","27","181641","0.0-20.0-6.0","79608217","wem/bandit_either_2","A39GADIK8RLMVC","either","6","22","","","","","","","0","0","1","0.8","","0.5","0.5","","","","","","","0.8","0.2","","","","","","","","","","74","J","0","img/none_selected_demo.jpg","true","0","80_20_practice"
"","bandit","28","183897","0.0-20.0-7.0","79608217","wem/bandit_either_2","A39GADIK8RLMVC","either","6","716","","","","","","","0","1","0","","0.8","0.5","0.5","","","0.8","0.2","","","","","","","","","","","","","","74","J","0","img/none_selected_demo.jpg","true","0","80_20_practice"
"","bandit","29","185820","0.0-20.0-8.0","79608217","wem/bandit_either_2","A39GADIK8RLMVC","either","6","390","","","","","","","1","0","0","0.8","","0.5","0.5","","","","","","","0.8","0.2","","","","","","","","","","74","J","0","img/none_selected_demo.jpg","true","0","80_20_practice"
"","bandit","30","187639","0.0-20.0-9.0","79608217","wem/bandit_either_2","A39GADIK8RLMVC","either","6","286","","","","","","","0","1","0","","0.8","0.5","0.5","","","0.8","0.2","","","","","","","","","","","","","","74","J","0","img/none_selected_demo.jpg","true","0","80_20_practice"
"","bandit","31","189450","0.0-20.0-10.0","79608217","wem/bandit_either_2","A39GADIK8RLMVC","either","6","259","","","","","","","1","0","0","0.8","","0.5","0.5","","","","","","","0.8","0.2","","","","","","","","","","74","J","0","img/none_selected_demo.jpg","true","0","80_20_practice"
"","bandit","32","191302","0.0-20.0-11.0","79608217","wem/bandit_either_2","A39GADIK8RLMVC","either","6","237","","","","","","","0","0","1","","0.2","0.5","0.5","","","0.8","0.2","","","","","","","","","","","","","","75","K","1","","true","0","80_20_practice"
"","bandit","33","192885","0.0-20.0-12.0","79608217","wem/bandit_either_2","A39GADIK8RLMVC","either","6","50","","","","","","","0","0","1","0.2","","0.5","0.5","","","","","","","0.8","0.2","","","","","","","","","","75","K","1","","true","0","80_20_practice"
"","bandit","34","194640","0.0-20.0-13.0","79608217","wem/bandit_either_2","A39GADIK8RLMVC","either","6","217","","","","","","","0","0","1","","0.2","0.5","0.5","","","0.8","0.2","","","","","","","","","","","","","","75","K","1","","true","0","80_20_practice"
"","bandit","35","196238","0.0-20.0-14.0","79608217","wem/bandit_either_2","A39GADIK8RLMVC","either","6","58","","","","","","","0","0","1","","0.2","0.5","0.5","","","0.8","0.2","","","","","","","","","","","","","","75","K","1","","true","0","80_20_practice"
"","bandit","36","197998","0.0-20.0-15.0","79608217","wem/bandit_either_2","A39GADIK8RLMVC","either","6","213","","","","","","","0","0","1","0.2","","0.5","0.5","","","","","","","0.8","0.2","","","","","","","","","","75","K","1","","true","0","80_20_practice"
"","bandit","37","199548","0.0-20.0-16.0","79608217","wem/bandit_either_2","A39GADIK8RLMVC","either","6","15","","","","","","","0","0","1","0.2","","0.5","0.5","","","","","","","0.8","0.2","","","","","","","","","","75","K","1","","true","0","80_20_practice"
"","bandit","38","201333","0.0-20.0-17.0","79608217","wem/bandit_either_2","A39GADIK8RLMVC","either","6","247","","","","","","","0","0","1","0.8","","0.5","0.5","","","","","","","0.8","0.2","","","","","","","","","","74","J","0","img/none_selected_demo.jpg","true","0","80_20_practice"
"","bandit","39","202908","0.0-20.0-18.0","79608217","wem/bandit_either_2","A39GADIK8RLMVC","either","6","41","","","","","","","0","1","0","","0.8","0.5","0.5","","","0.8","0.2","","","","","","","","","","","","","","74","J","0","img/none_selected_demo.jpg","true","0","80_20_practice"
"","bandit","40","204693","0.0-20.0-19.0","79608217","wem/bandit_either_2","A39GADIK8RLMVC","either","6","251","","","","","","","1","0","0","0.8","","0.5","0.5","","","","","","","0.8","0.2","","","","","","","","","","74","J","0","img/none_selected_demo.jpg","true","0","80_20_practice"
"","text","41","207545","0.0-21.0","79608217","wem/bandit_either_2","A39GADIK8RLMVC","either","6","2848","","32","","","","","","","","","","","","","","","","","","","","","","","","","","","","","","","","","","",""
"","bandit","42","209858","0.0-22.0-0.0","79608217","wem/bandit_either_2","A39GADIK8RLMVC","either","6","724","","","","","","","1","0","0","1","0","","","","","0","1","","","1","0","","","","","","","","","","74","J","0","img/none_selected_demo.jpg","true","0",""
"","text","43","216483","0.0-23.0","79608217","wem/bandit_either_2","A39GADIK8RLMVC","either","6","6619","","32","","","","","","","","","","","","","","","","","","","","","","","","","","","","","","","","","","",""
"","text","44","218962","0.0-24.0","79608217","wem/bandit_either_2","A39GADIK8RLMVC","either","6","2465","","32","","","","","","","","","","","","","","","","","","","","","","","","","","","","","","","","","","",""
"","text","45","220961","0.0-25.0","79608217","wem/bandit_either_2","A39GADIK8RLMVC","either","6","1986","","32","","","","","","","","","","","","","","","","","","","","","","","","","","","","","","","","","","",""
"","text","46","223233","0.0-26.0","79608217","wem/bandit_either_2","A39GADIK8RLMVC","either","6","2267","","32","","","","","","","","","","","","","","","","","","","","","","","","","","","","","","","","","","",""
"","text","47","226708","0.0-27.0","79608217","wem/bandit_either_2","A39GADIK8RLMVC","either","6","3460","","32","","","","","","","","","","","","","","","","","","","","","","","","","","","","","","","","","","",""
"","text","48","229210","0.0-28.0","79608217","wem/bandit_either_2","A39GADIK8RLMVC","either","6","2491","","32","","","","","","","","","","","","","","","","","","","","","","","","","","","","","","","","","","",""
"","text","49","231869","0.0-29.0","79608217","wem/bandit_either_2","A39GADIK8RLMVC","either","6","2640","","32","","","","","","","","","","","","","","","","","","","","","","","","","","","","","","","","","","",""
"","text","50","234242","0.0-30.0","79608217","wem/bandit_either_2","A39GADIK8RLMVC","either","6","2362","","32","","","","","","","","","","","","","","","","","","","","","","","","","","","","","","","","","","",""
"","text","51","237812","0.0-31.0","79608217","wem/bandit_either_2","A39GADIK8RLMVC","either","6","3555","","32","","","","","","","","","","","","","","","","","","","","","","","","","","","","","","","","","","",""
"","text","52","239261","0.0-32.0","79608217","wem/bandit_either_2","A39GADIK8RLMVC","either","6","1432","","32","","","","","","","","","","","","","","","","","","","","","","","","","","","","","","","","","","",""
"","text","53","240697","0.0-33.0","79608217","wem/bandit_either_2","A39GADIK8RLMVC","either","6","1421","","32","","","","","","","","","","","","","","","","","","","","","","","","","","","","","","","","","","",""
"","bandit","54","243715","0.0-34.0-0.0","79608217","wem/bandit_either_2","A39GADIK8RLMVC","either","6","1457","","","","","","","0","1","0","","0.8","0.5","0.5","0.5","0.5","0.8","0.2","0.6","0.2","","","","","","","","","","","","72","H","0","img/none_selected.jpg","true","0","full_practice"
"","bandit","55","245284","0.0-34.0-1.0","79608217","wem/bandit_either_2","A39GADIK8RLMVC","either","6","22","","","","","","","0","0","1","0.2","","0.5","0.5","0.5","0.5","","","","","0.8","0.2","0.6","0.2","","","","","","","","74","J","1","","true","0","full_practice"
"","bandit","56","247166","0.0-34.0-2.0","79608217","wem/bandit_either_2","A39GADIK8RLMVC","either","6","340","","","","","","","0","0","1","","0.2","0.5","0.5","0.5","0.5","0.8","0.2","0.6","0.2","","","","","","","","","","","","76","L","3","","true","0","full_practice"
"","bandit","57","248898","0.0-34.0-3.0","79608217","wem/bandit_either_2","A39GADIK8RLMVC","either","6","194","","","","","","","0","1","0","","0.6","0.5","0.5","0.5","0.5","0.8","0.2","0.6","0.2","","","","","","","","","","","","75","K","2","","true","0","full_practice"
"","bandit","58","250672","0.0-34.0-4.0","79608217","wem/bandit_either_2","A39GADIK8RLMVC","either","6","237","","","","","","","0","1","0","","0.8","0.5","0.5","0.5","0.5","0.8","0.2","0.6","0.2","","","","","","","","","","","","72","H","0","img/none_selected.jpg","true","0","full_practice"
"","bandit","59","252457","0.0-34.0-5.0","79608217","wem/bandit_either_2","A39GADIK8RLMVC","either","6","245","","","","","","","0","0","1","","0.6","0.5","0.5","0.5","0.5","0.8","0.2","0.6","0.2","","","","","","","","","","","","75","K","2","","true","0","full_practice"
"","bandit","60","254182","0.0-34.0-6.0","79608217","wem/bandit_either_2","A39GADIK8RLMVC","either","6","186","","","","","","","0","0","1","","0.8","0.5","0.5","0.5","0.5","0.8","0.2","0.6","0.2","","","","","","","","","","","","72","H","0","img/none_selected.jpg","true","0","full_practice"
"","bandit","61","255945","0.0-34.0-7.0","79608217","wem/bandit_either_2","A39GADIK8RLMVC","either","6","226","","","","","","","0","1","0","","0.6","0.5","0.5","0.5","0.5","0.8","0.2","0.6","0.2","","","","","","","","","","","","75","K","2","","true","0","full_practice"
"","bandit","62","257641","0.0-34.0-8.0","79608217","wem/bandit_either_2","A39GADIK8RLMVC","either","6","154","","","","","","","0","0","1","","0.2","0.5","0.5","0.5","0.5","0.8","0.2","0.6","0.2","","","","","","","","","","","","74","J","1","","true","0","full_practice"
"","bandit","63","259511","0.0-34.0-9.0","79608217","wem/bandit_either_2","A39GADIK8RLMVC","either","6","330","","","","","","","0","0","1","","0.2","0.5","0.5","0.5","0.5","0.8","0.2","0.6","0.2","","","","","","","","","","","","76","L","3","","true","0","full_practice"
"","bandit","64","261333","0.0-34.0-10.0","79608217","wem/bandit_either_2","A39GADIK8RLMVC","either","6","272","","","","","","","0","0","1","0.8","","0.5","0.5","0.5","0.5","","","","","0.8","0.2","0.6","0.2","","","","","","","","72","H","0","img/none_selected.jpg","true","0","full_practice"
"","bandit","65","263137","0.0-34.0-11.0","79608217","wem/bandit_either_2","A39GADIK8RLMVC","either","6","262","","","","","","","0","0","1","0.2","","0.5","0.5","0.5","0.5","","","","","0.8","0.2","0.6","0.2","","","","","","","","74","J","1","","true","0","full_practice"
"","bandit","66","264827","0.0-34.0-12.0","79608217","wem/bandit_either_2","A39GADIK8RLMVC","either","6","141","","","","","","","0","0","1","","0.6","0.5","0.5","0.5","0.5","0.8","0.2","0.6","0.2","","","","","","","","","","","","75","K","2","","true","0","full_practice"
"","bandit","67","266617","0.0-34.0-13.0","79608217","wem/bandit_either_2","A39GADIK8RLMVC","either","6","250","","","","","","","0","0","1","","0.2","0.5","0.5","0.5","0.5","0.8","0.2","0.6","0.2","","","","","","","","","","","","76","L","3","","true","0","full_practice"
"","bandit","68","268416","0.0-34.0-14.0","79608217","wem/bandit_either_2","A39GADIK8RLMVC","either","6","255","","","","","","","0","0","1","0.6","","0.5","0.5","0.5","0.5","","","","","0.8","0.2","0.6","0.2","","","","","","","","75","K","2","","true","0","full_practice"
"","bandit","69","270192","0.0-34.0-15.0","79608217","wem/bandit_either_2","A39GADIK8RLMVC","either","6","234","","","","","","","0","0","1","","0.6","0.5","0.5","0.5","0.5","0.8","0.2","0.6","0.2","","","","","","","","","","","","75","K","2","","true","0","full_practice"
"","bandit","70","271986","0.0-34.0-16.0","79608217","wem/bandit_either_2","A39GADIK8RLMVC","either","6","250","","","","","","","0","0","1","","0.2","0.5","0.5","0.5","0.5","0.8","0.2","0.6","0.2","","","","","","","","","","","","74","J","1","","true","0","full_practice"
"","bandit","71","273648","0.0-34.0-17.0","79608217","wem/bandit_either_2","A39GADIK8RLMVC","either","6","113","","","","","","","0","0","1","","0.2","0.5","0.5","0.5","0.5","0.8","0.2","0.6","0.2","","","","","","","","","","","","74","J","1","","true","0","full_practice"
"","bandit","72","275463","0.0-34.0-18.0","79608217","wem/bandit_either_2","A39GADIK8RLMVC","either","6","277","","","","","","","0","1","0","","0.8","0.5","0.5","0.5","0.5","0.8","0.2","0.6","0.2","","","","","","","","","","","","72","H","0","img/none_selected.jpg","true","0","full_practice"
"","bandit","73","277108","0.0-34.0-19.0","79608217","wem/bandit_either_2","A39GADIK8RLMVC","either","6","106","","","","","","","1","0","0","0.8","","0.5","0.5","0.5","0.5","","","","","0.8","0.2","0.6","0.2","","","","","","","","72","H","0","img/none_selected.jpg","true","0","full_practice"
"","text","74","279543","0.0-35.0","79608217","wem/bandit_either_2","A39GADIK8RLMVC","either","6","2408","","32","","","","","","","","","","","","","","","","","","","","","","","","","","","","","","","","","","",""
"","text","75","288655","0.0-36.0","79608217","wem/bandit_either_2","A39GADIK8RLMVC","either","6","8099","","32","","","","","","","","","","","","","","","","","","","","","","","","","","","","","","","","","","",""
"","text","76","296561","0.0-37.0","79608217","wem/bandit_either_2","A39GADIK8RLMVC","either","6","7893","","32","","","","","","","","","","","","","","","","","","","","","","","","","","","","","","","","","","",""
"","text","77","302060","0.0-38.0","79608217","wem/bandit_either_2","A39GADIK8RLMVC","either","6","5479","","32","","","","","","","","","","","","","","","","","","","","","","","","","","","","","","","","","","",""
"","text","78","306142","0.0-39.0","79608217","wem/bandit_either_2","A39GADIK8RLMVC","either","6","4062","","32","","","","","","","","","","","","","","","","","","","","","","","","","","","","","","","","","","",""
"","text","79","312843","0.0-40.0","79608217","wem/bandit_either_2","A39GADIK8RLMVC","either","6","6688","","32","","","","","","","","","","","","","","","","","","","","","","","","","","","","","","","","","","",""
"","bandit","80","315511","0.0-41.0-0.0","79608217","wem/bandit_either_2","A39GADIK8RLMVC","either","6","1099","","","","","","","0","0","1","","0.06094066238","0.4","0.2","0.8","0.6","0.06094066238","0.1720655487","0.4656478179","0.1734470434","","","","","","","","","","","","72","H","0","img/none_selected.jpg","","1","main_expt"
"","bandit","81","317344","0.0-42.0-0.0","79608217","wem/bandit_either_2","A39GADIK8RLMVC","either","6","269","","","","","","","0","0","1","","0.04941180107","0.4","0.2","0.8","0.6","0.04941180107","0.1607886358","0.4661883906","0.1582158198","","","","","","","","","","","","72","H","0","img/none_selected.jpg","","2","main_expt"
"","bandit","82","319156","0.0-43.0-0.0","79608217","wem/bandit_either_2","A39GADIK8RLMVC","either","6","274","","","","","","","0","0","1","0.09066711981","","0.4","0.2","0.8","0.6","","","","","0.09066711981","0.1825924006","0.4608397999","0.1264016625","","","","","","","","72","H","0","img/none_selected.jpg","","3","main_expt"
"","bandit","83","320971","0.0-44.0-0.0","79608217","wem/bandit_either_2","A39GADIK8RLMVC","either","6","270","","","","","","","0","0","1","","0.1572982515","0.4","0.2","0.8","0.6","0.07815644495","0.1572982515","0.4568511376","0.1212924903","","","","","","","","","","","","74","J","1","","","4","main_expt"
"","bandit","84","322818","0.0-45.0-0.0","79608217","wem/bandit_either_2","A39GADIK8RLMVC","either","6","304","","","","","","","0","0","1","","0.1873501432","0.4","0.2","0.8","0.6","0.06547040057","0.1873501432","0.4576747282","0.1603104869","","","","","","","","","","","","74","J","1","","","5","main_expt"
"","bandit","85","324601","0.0-46.0-0.0","79608217","wem/bandit_either_2","A39GADIK8RLMVC","either","6","241","","","","","","","0","0","1","0.1484719509","","0.4","0.2","0.8","0.6","","","","","0.09500806419","0.1484719509","0.4673201091","0.1916070739","","","","","","","","74","J","1","","","6","main_expt"
"","bandit","86","326397","0.0-47.0-0.0","79608217","wem/bandit_either_2","A39GADIK8RLMVC","either","6","259","","","","","","","1","0","0","0.4671816856","","0.4","0.2","0.8","0.6","","","","","0.1156714339","0.1368680622","0.4671816856","0.1624213819","","","","","","","","75","K","2","","","7","main_expt"
"","bandit","87","328185","0.0-48.0-0.0","79608217","wem/bandit_either_2","A39GADIK8RLMVC","either","6","247","","","","","","","1","0","0","0.4577650209","","0.4","0.2","0.8","0.6","","","","","0.08939878806","0.1412197478","0.4577650209","0.1529627983","","","","","","","","75","K","2","","","8","main_expt"
"","bandit","88","329983","0.0-49.0-0.0","79608217","wem/bandit_either_2","A39GADIK8RLMVC","either","6","257","","","","","","","1","0","0","0.4538037209","","0.4","0.2","0.8","0.6","","","","","0.1379609943","0.1285241668","0.4538037209","0.1638779","","","","","","","","75","K","2","","","9","main_expt"
"","bandit","89","331801","0.0-50.0-0.0","79608217","wem/bandit_either_2","A39GADIK8RLMVC","either","6","274","","","","","","","1","0","0","0.4567906288","","0.4","0.2","0.8","0.6","","","","","0.08892925829","0.1137500729","0.4567906288","0.1682184418","","","","","","","","75","K","2","","","10","main_expt"
"","bandit","90","333566","0.0-51.0-0.0","79608217","wem/bandit_either_2","A39GADIK8RLMVC","either","6","214","","","","","","","0","0","1","0.4707556997","","0.4","0.2","0.8","0.6","","","","","0.1053961985","0.1134058804","0.4707556997","0.1511948373","","","","","","","","75","K","2","","","11","main_expt"
"","bandit","91","335321","0.0-52.0-0.0","79608217","wem/bandit_either_2","A39GADIK8RLMVC","either","6","202","","","","","","","0","0","1","0.4534589675","","0.4","0.2","0.8","0.6","","","","","0.1267534428","0.1358134986","0.4534589675","0.2144966391","","","","","","","","75","K","2","","","12","main_expt"
"","bandit","92","337124","0.0-53.0-0.0","79608217","wem/bandit_either_2","A39GADIK8RLMVC","either","6","254","","","","","","","1","0","0","0.4474824422","","0.4","0.2","0.8","0.6","","","","","0.1179877152","0.1105925571","0.4474824422","0.1443049275","","","","","","","","75","K","2","","","13","main_expt"
"","bandit","93","338945","0.0-54.0-0.0","79608217","wem/bandit_either_2","A39GADIK8RLMVC","either","6","278","","","","","","","1","0","0","0.4125602811","","0.4","0.2","0.8","0.6","","","","","0.1300626215","0.09057326494","0.4125602811","0.149160688","","","","","","","","75","K","2","","","14","main_expt"
"","bandit","94","340728","0.0-55.0-0.0","79608217","wem/bandit_either_2","A39GADIK8RLMVC","either","6","232","","","","","","","0","0","1","0.3715785473","","0.4","0.2","0.8","0.6","","","","","0.1129073675","0.05963436345","0.3715785473","0.1525333278","","","","","","","","75","K","2","","","15","main_expt"
"","bandit","95","342520","0.0-56.0-0.0","79608217","wem/bandit_either_2","A39GADIK8RLMVC","either","6","249","","","","","","","0","0","1","0.3670357029","","0.4","0.2","0.8","0.6","","","","","0.1132840383","0.03970917029","0.3670357029","0.1437253933","","","","","","","","75","K","2","","","16","main_expt"
"","bandit","96","344322","0.0-57.0-0.0","79608217","wem/bandit_either_2","A39GADIK8RLMVC","either","6","255","","","","","","","0","0","1","0.333794799","","0.4","0.2","0.8","0.6","","","","","0.1530786807","0.03301664506","0.333794799","0.1191274054","","","","","","","","75","K","2","","","17","main_expt"
"","bandit","97","346007","0.0-58.0-0.0","79608217","wem/bandit_either_2","A39GADIK8RLMVC","either","6","140","","","","","","","0","0","1","0.1231388663","","0.4","0.2","0.8","0.6","","","","","0.1367655081","0.0325619","0.3720862831","0.1231388663","","","","","","","","76","L","3","","","18","main_expt"
"","bandit","98","347671","0.0-59.0-0.0","79608217","wem/bandit_either_2","A39GADIK8RLMVC","either","6","123","","","","","","","0","0","1","","0.1014962652","0.4","0.2","0.8","0.6","0.1519969922","0.05136562407","0.3940248177","0.1014962652","","","","","","","","","","","","76","L","3","","","19","main_expt"
"","bandit","99","349464","0.0-60.0-0.0","79608217","wem/bandit_either_2","A39GADIK8RLMVC","either","6","253","","","","","","","0","0","1","","0.1184271466","0.4","0.2","0.8","0.6","0.2344823222","0.05620034239","0.3980303587","0.1184271466","","","","","","","","","","","","76","L","3","","","20","main_expt"
"","bandit","100","351215","0.0-61.0-0.0","79608217","wem/bandit_either_2","A39GADIK8RLMVC","either","6","209","","","","","","","0","0","1","0.2227593861","","0.4","0.2","0.8","0.6","","","","","0.2227593861","0.04865895453","0.405953395","0.1434190777","","","","","","","","72","H","0","img/none_selected.jpg","","21","main_expt"
"","bandit","101","352767","0.0-62.0-0.0","79608217","wem/bandit_either_2","A39GADIK8RLMVC","either","6","0","","","","","","","0","0","1","","0.1831098024","0.4","0.2","0.8","0.6","0.1831098024","0.05276066643","0.37898799","0.1323354157","","","","","","","","","","","","72","H","0","img/none_selected.jpg","","22","main_expt"
"","bandit","102","354599","0.0-63.0-0.0","79608217","wem/bandit_either_2","A39GADIK8RLMVC","either","6","285","","","","","","","0","1","0","","0.1660310818","0.4","0.2","0.8","0.6","0.1660310818","0.05284133488","0.3661255489","0.1384191998","","","","","","","","","","","","72","H","0","img/none_selected.jpg","","23","main_expt"
"","bandit","103","356419","0.0-64.0-0.0","79608217","wem/bandit_either_2","A39GADIK8RLMVC","either","6","269","","","","","","","0","0","1","","0.1400827643","0.4","0.2","0.8","0.6","0.1400827643","0.0333904923","0.3576379461","0.1395593146","","","","","","","","","","","","72","H","0","img/none_selected.jpg","","24","main_expt"
"","bandit","104","358169","0.0-65.0-0.0","79608217","wem/bandit_either_2","A39GADIK8RLMVC","either","6","212","","","","","","","0","0","1","0.2022937807","","0.4","0.2","0.8","0.6","","","","","0.2022937807","0.04666446392","0.3346121782","0.1696236693","","","","","","","","72","H","0","img/none_selected.jpg","","25","main_expt"
"","bandit","105","359965","0.0-66.0-0.0","79608217","wem/bandit_either_2","A39GADIK8RLMVC","either","6","252","","","","","","","1","0","0","0.1725383963","","0.4","0.2","0.8","0.6","","","","","0.1725383963","0.04067930801","0.3790434843","0.1754084838","","","","","","","","72","H","0","img/none_selected.jpg","","26","main_expt"
"","bandit","106","361937","0.0-67.0-0.0","79608217","wem/bandit_either_2","A39GADIK8RLMVC","either","6","430","","","","","","","1","0","0","0.1735642386","","0.4","0.2","0.8","0.6","","","","","0.1735642386","0.03070036018","0.3744762435","0.118483546","","","","","","","","72","H","0","img/none_selected.jpg","","27","main_expt"
"","bandit","107","363990","0.0-68.0-0.0","79608217","wem/bandit_either_2","A39GADIK8RLMVC","either","6","513","","","","","","","0","0","1","","0.149532802","0.4","0.2","0.8","0.6","0.149532802","0.02292460278","0.3650769418","0.1259847853","","","","","","","","","","","","72","H","0","img/none_selected.jpg","","28","main_expt"
"","bandit","108","365830","0.0-69.0-0.0","79608217","wem/bandit_either_2","A39GADIK8RLMVC","either","6","291","","","","","","","0","0","1","","0.1597785082","0.4","0.2","0.8","0.6","0.1597785082","0.03476379039","0.3299345172","0.1072727049","","","","","","","","","","","","72","H","0","img/none_selected.jpg","","29","main_expt"
"","bandit","109","367655","0.0-70.0-0.0","79608217","wem/bandit_either_2","A39GADIK8RLMVC","either","6","282","","","","","","","0","1","0","","0.1978771271","0.4","0.2","0.8","0.6","0.1978771271","0.04211589453","0.3010095271","0.07952930744","","","","","","","","","","","","72","H","0","img/none_selected.jpg","","30","main_expt"
"","bandit","110","369526","0.0-71.0-0.0","79608217","wem/bandit_either_2","A39GADIK8RLMVC","either","6","287","","","","","","","0","0","1","0.1928768267","","0.4","0.2","0.8","0.6","","","","","0.1928768267","0.04495483672","0.331530841","0.09691030242","","","","","","","","72","H","0","img/none_selected.jpg","","31","main_expt"
"","bandit","111","371398","0.0-72.0-0.0","79608217","wem/bandit_either_2","A39GADIK8RLMVC","either","6","326","","","","","","","0","0","1","","0.1511047494","0.4","0.2","0.8","0.6","0.1511047494","0.04126869591","0.3469043085","0.1338720944","","","","","","","","","","","","72","H","0","img/none_selected.jpg","","32","main_expt"
"","bandit","112","373186","0.0-73.0-0.0","79608217","wem/bandit_either_2","A39GADIK8RLMVC","either","6","232","","","","","","","0","0","1","","0.09247049486","0.4","0.2","0.8","0.6","0.09247049486","0.02396570111","0.2778139242","0.1428203538","","","","","","","","","","","","72","H","0","img/none_selected.jpg","","33","main_expt"
"","bandit","113","375030","0.0-74.0-0.0","79608217","wem/bandit_either_2","A39GADIK8RLMVC","either","6","278","","","","","","","0","0","1","","0.03561151332","0.4","0.2","0.8","0.6","0.1127946788","0.03561151332","0.236883459","0.1258169527","","","","","","","","","","","","74","J","1","","","34","main_expt"
"","bandit","114","376731","0.0-75.0-0.0","79608217","wem/bandit_either_2","A39GADIK8RLMVC","either","6","150","","","","","","","0","0","1","","0.04565222073","0.4","0.2","0.8","0.6","0.1279928094","0.04565222073","0.2656196476","0.1652362889","","","","","","","","","","","","74","J","1","","","35","main_expt"
"","bandit","115","378541","0.0-76.0-0.0","79608217","wem/bandit_either_2","A39GADIK8RLMVC","either","6","223","","","","","","","0","0","1","","0.05036449293","0.4","0.2","0.8","0.6","0.09285608896","0.05036449293","0.2309028503","0.1472348388","","","","","","","","","","","","74","J","1","","","36","main_expt"
"","bandit","116","380562","0.0-77.0-0.0","79608217","wem/bandit_either_2","A39GADIK8RLMVC","either","6","475","","","","","","","0","0","1","0.1961267878","","0.4","0.2","0.8","0.6","","","","","0.1251507517","0.04764774511","0.1961267878","0.20581188","","","","","","","","75","K","2","","","37","main_expt"
"","bandit","117","382230","0.0-78.0-0.0","79608217","wem/bandit_either_2","A39GADIK8RLMVC","either","6","93","","","","","","","0","0","1","0.2197692452","","0.4","0.2","0.8","0.6","","","","","0.1248439258","0.04692466818","0.2197692452","0.2096070571","","","","","","","","75","K","2","","","38","main_expt"
"","bandit","118","384046","0.0-79.0-0.0","79608217","wem/bandit_either_2","A39GADIK8RLMVC","either","6","265","","","","","","","0","0","1","0.1783178102","","0.4","0.2","0.8","0.6","","","","","0.1192858938","0.06150360576","0.1783178102","0.1888903691","","","","","","","","75","K","2","","","39","main_expt"
"","bandit","119","385803","0.0-80.0-0.0","79608217","wem/bandit_either_2","A39GADIK8RLMVC","either","6","208","","","","","","","0","0","1","0.1769314034","","0.4","0.2","0.8","0.6","","","","","0.1457630933","0.1025324214","0.1354267005","0.1769314034","","","","","","","","76","L","3","","","40","main_expt"
"","bandit","120","387607","0.0-81.0-0.0","79608217","wem/bandit_either_2","A39GADIK8RLMVC","either","6","257","","","","","","","0","0","1","","0.1764673912","0.4","0.2","0.8","0.6","0.1788887836","0.1278282258","0.1307301687","0.1764673912","","","","","","","","","","","","76","L","3","","","41","main_expt"
"","bandit","121","389209","0.0-82.0-0.0","79608217","wem/bandit_either_2","A39GADIK8RLMVC","either","6","54","","","","","","","0","0","1","0.1164002711","","0.4","0.2","0.8","0.6","","","","","0.1550439797","0.1144783829","0.1002459791","0.1164002711","","","","","","","","76","L","3","","","42","main_expt"
"","bandit","122","391030","0.0-83.0-0.0","79608217","wem/bandit_either_2","A39GADIK8RLMVC","either","6","278","","","","","","","0","0","1","0.1624336935","","0.4","0.2","0.8","0.6","","","","","0.1624336935","0.148274456","0.06131682752","0.1248357276","","","","","","","","72","H","0","img/none_selected.jpg","","43","main_expt"
"","bandit","123","392803","0.0-84.0-0.0","79608217","wem/bandit_either_2","A39GADIK8RLMVC","either","6","231","","","","","","","0","0","1","","0.2610419313","0.4","0.2","0.8","0.6","0.2610419313","0.1733993608","0.05757194937","0.1801883524","","","","","","","","","","","","72","H","0","img/none_selected.jpg","","44","main_expt"
"","bandit","124","394548","0.0-85.0-0.0","79608217","wem/bandit_either_2","A39GADIK8RLMVC","either","6","204","","","","","","","0","0","1","0.2547096211","","0.4","0.2","0.8","0.6","","","","","0.2547096211","0.1731137141","0.06317169253","0.1536252234","","","","","","","","72","H","0","img/none_selected.jpg","","45","main_expt"
"","bandit","125","396241","0.0-86.0-0.0","79608217","wem/bandit_either_2","A39GADIK8RLMVC","either","6","148","","","","","","","0","1","0","","0.2577534017","0.4","0.2","0.8","0.6","0.2690630982","0.2577534017","0.08604650327","0.1453657368","","","","","","","","","","","","74","J","1","","","46","main_expt"
"","bandit","126","397869","0.0-87.0-0.0","79608217","wem/bandit_either_2","A39GADIK8RLMVC","either","6","87","","","","","","","0","0","1","","0.2436059896","0.4","0.2","0.8","0.6","0.2613787364","0.2436059896","0.07503215105","0.1163474927","","","","","","","","","","","","74","J","1","","","47","main_expt"
"","bandit","127","399720","0.0-88.0-0.0","79608217","wem/bandit_either_2","A39GADIK8RLMVC","either","6","313","","","","","","","0","0","1","","0.261356988","0.4","0.2","0.8","0.6","0.2764851171","0.261356988","0.09661626413","0.1187671899","","","","","","","","","","","","74","J","1","","","48","main_expt"
"","bandit","128","401533","0.0-89.0-0.0","79608217","wem/bandit_either_2","A39GADIK8RLMVC","either","6","266","","","","","","","0","1","0","","0.2707362224","0.4","0.2","0.8","0.6","0.2628846066","0.2707362224","0.141419135","0.1321787199","","","","","","","","","","","","74","J","1","","","49","main_expt"
"","bandit","129","403381","0.0-90.0-0.0","79608217","wem/bandit_either_2","A39GADIK8RLMVC","either","6","301","","","","","","","0","0","1","","0.2733601765","0.4","0.2","0.8","0.6","0.3634831931","0.2733601765","0.1341637883","0.1310663867","","","","","","","","","","","","74","J","1","","","50","main_expt"
"","bandit","130","405223","0.0-91.0-0.0","79608217","wem/bandit_either_2","A39GADIK8RLMVC","either","6","289","","","","","","","0","0","1","","0.2590969561","0.4","0.2","0.8","0.6","0.3771608335","0.2590969561","0.1225974466","0.1450472339","","","","","","","","","","","","74","J","1","","","51","main_expt"
"","bandit","131","406975","0.0-92.0-0.0","79608217","wem/bandit_either_2","A39GADIK8RLMVC","either","6","208","","","","","","","0","0","1","","0.2515646212","0.4","0.2","0.8","0.6","0.3093307572","0.2515646212","0.1145468474","0.1731775471","","","","","","","","","","","","74","J","1","","","52","main_expt"
"","bandit","132","408646","0.0-93.0-0.0","79608217","wem/bandit_either_2","A39GADIK8RLMVC","either","6","126","","","","","","","0","0","1","0.1059564611","","0.4","0.2","0.8","0.6","","","","","0.2990929044","0.2257746054","0.1059564611","0.2258016315","","","","","","","","75","K","2","","","53","main_expt"
"","bandit","133","410432","0.0-94.0-0.0","79608217","wem/bandit_either_2","A39GADIK8RLMVC","either","6","221","","","","","","","0","0","1","0.1090017536","","0.4","0.2","0.8","0.6","","","","","0.2221679908","0.2750925763","0.1090017536","0.2172527187","","","","","","","","75","K","2","","","54","main_expt"
"","bandit","134","412093","0.0-95.0-0.0","79608217","wem/bandit_either_2","A39GADIK8RLMVC","either","6","116","","","","","","","0","0","1","","0.1249444004","0.4","0.2","0.8","0.6","0.1886471815","0.3608357377","0.1249444004","0.1652356872","","","","","","","","","","","","75","K","2","","","55","main_expt"
"","bandit","135","413892","0.0-96.0-0.0","79608217","wem/bandit_either_2","A39GADIK8RLMVC","either","6","238","","","","","","","1","0","0","0.1576418272","","0.4","0.2","0.8","0.6","","","","","0.1973213641","0.4022545085","0.09043885587","0.1576418272","","","","","","","","76","L","3","","","56","main_expt"
"","bandit","136","415605","0.0-97.0-0.0","79608217","wem/bandit_either_2","A39GADIK8RLMVC","either","6","155","","","","","","","0","0","1","0.180776926","","0.4","0.2","0.8","0.6","","","","","0.2207101474","0.3867568464","0.07448640425","0.180776926","","","","","","","","76","L","3","","","57","main_expt"
"","bandit","137","417428","0.0-98.0-0.0","79608217","wem/bandit_either_2","A39GADIK8RLMVC","either","6","265","","","","","","","0","0","1","0.1489081552","","0.4","0.2","0.8","0.6","","","","","0.2480089655","0.3840355114","0.09808879237","0.1489081552","","","","","","","","76","L","3","","","58","main_expt"
"","bandit","138","419251","0.0-99.0-0.0","79608217","wem/bandit_either_2","A39GADIK8RLMVC","either","6","266","","","","","","","0","0","1","0.125555473","","0.4","0.2","0.8","0.6","","","","","0.2667579505","0.3617876187","0.0721355853","0.125555473","","","","","","","","76","L","3","","","59","main_expt"
"","bandit","139","421012","0.0-100.0-0.0","79608217","wem/bandit_either_2","A39GADIK8RLMVC","either","6","204","","","","","","","0","0","1","","0.2637313595","0.4","0.2","0.8","0.6","0.2637313595","0.3018070945","0.08871326978","0.1228814318","","","","","","","","","","","","72","H","0","img/none_selected.jpg","","60","main_expt"
"","bandit","140","422718","0.0-101.0-0.0","79608217","wem/bandit_either_2","A39GADIK8RLMVC","either","6","148","","","","","","","0","0","1","","0.2400462537","0.4","0.2","0.8","0.6","0.2400462537","0.2687465691","0.1472383223","0.195834737","","","","","","","","","","","","72","H","0","img/none_selected.jpg","","61","main_expt"
"","bandit","141","424541","0.0-102.0-0.0","79608217","wem/bandit_either_2","A39GADIK8RLMVC","either","6","272","","","","","","","0","0","1","0.2396546157","","0.4","0.2","0.8","0.6","","","","","0.2396546157","0.287622952","0.1625866577","0.1952904108","","","","","","","","72","H","0","img/none_selected.jpg","","62","main_expt"
"","bandit","142","426266","0.0-103.0-0.0","79608217","wem/bandit_either_2","A39GADIK8RLMVC","either","6","182","","","","","","","0","1","0","","0.2060093557","0.4","0.2","0.8","0.6","0.2558687718","0.2060093557","0.1196153378","0.187392073","","","","","","","","","","","","74","J","1","","","63","main_expt"
"","bandit","143","428093","0.0-104.0-0.0","79608217","wem/bandit_either_2","A39GADIK8RLMVC","either","6","274","","","","","","","0","0","1","","0.1865830226","0.4","0.2","0.8","0.6","0.1789331692","0.1865830226","0.1025290435","0.1774517964","","","","","","","","","","","","74","J","1","","","64","main_expt"
"","bandit","144","429923","0.0-105.0-0.0","79608217","wem/bandit_either_2","A39GADIK8RLMVC","either","6","278","","","","","","","0","1","0","","0.2242960511","0.4","0.2","0.8","0.6","0.2041721298","0.2242960511","0.06637487434","0.1956590225","","","","","","","","","","","","74","J","1","","","65","main_expt"
"","bandit","145","431744","0.0-106.0-0.0","79608217","wem/bandit_either_2","A39GADIK8RLMVC","either","6","270","","","","","","","0","0","1","","0.213739571","0.4","0.2","0.8","0.6","0.1083731131","0.213739571","0.09888809835","0.1559932489","","","","","","","","","","","","74","J","1","","","66","main_expt"
"","bandit","146","433395","0.0-107.0-0.0","79608217","wem/bandit_either_2","A39GADIK8RLMVC","either","6","99","","","","","","","0","0","1","","0.2463093088","0.4","0.2","0.8","0.6","0.08148965902","0.2463093088","0.08542348091","0.1327283285","","","","","","","","","","","","74","J","1","","","67","main_expt"
"","bandit","147","435136","0.0-108.0-0.0","79608217","wem/bandit_either_2","A39GADIK8RLMVC","either","6","197","","","","","","","0","0","1","","0.1863602012","0.4","0.2","0.8","0.6","0.115871946","0.1863602012","0.05648132023","0.1646421129","","","","","","","","","","","","74","J","1","","","68","main_expt"
"","bandit","148","436737","0.0-109.0-0.0","79608217","wem/bandit_either_2","A39GADIK8RLMVC","either","6","54","","","","","","","0","0","1","","0.07427448495","0.4","0.2","0.8","0.6","0.1049465522","0.1481768435","0.07427448495","0.1879918005","","","","","","","","","","","","75","K","2","","","69","main_expt"
"","bandit","149","438500","0.0-110.0-0.0","79608217","wem/bandit_either_2","A39GADIK8RLMVC","either","6","206","","","","","","","0","1","0","","0.1052870039","0.4","0.2","0.8","0.6","0.1224614501","0.2062415021","0.1052870039","0.1708527721","","","","","","","","","","","","75","K","2","","","70","main_expt"
"","bandit","150","440333","0.0-111.0-0.0","79608217","wem/bandit_either_2","A39GADIK8RLMVC","either","6","283","","","","","","","0","0","1","0.1114501371","","0.4","0.2","0.8","0.6","","","","","0.1687358413","0.2175562698","0.1114501371","0.1930923514","","","","","","","","75","K","2","","","71","main_expt"
"","bandit","151","442055","0.0-112.0-0.0","79608217","wem/bandit_either_2","A39GADIK8RLMVC","either","6","145","","","","","","","0","0","1","0.1282799478","","0.4","0.2","0.8","0.6","","","","","0.1902964731","0.2182173038","0.1282799478","0.2289396243","","","","","","","","75","K","2","","","72","main_expt"
"","bandit","152","443859","0.0-113.0-0.0","79608217","wem/bandit_either_2","A39GADIK8RLMVC","either","6","266","","","","","","","1","0","0","0.1113050996","","0.4","0.2","0.8","0.6","","","","","0.1764690901","0.1629952044","0.1113050996","0.2223781067","","","","","","","","75","K","2","","","73","main_expt"
"","bandit","153","445660","0.0-114.0-0.0","79608217","wem/bandit_either_2","A39GADIK8RLMVC","either","6","242","","","","","","","0","0","1","0.1573287606","","0.4","0.2","0.8","0.6","","","","","0.1720288853","0.2291178652","0.1573287606","0.1664819569","","","","","","","","75","K","2","","","74","main_expt"
"","bandit","154","447307","0.0-115.0-0.0","79608217","wem/bandit_either_2","A39GADIK8RLMVC","either","6","91","","","","","","","0","0","1","0.168318459","","0.4","0.2","0.8","0.6","","","","","0.098780463","0.2087405931","0.168318459","0.1157276324","","","","","","","","75","K","2","","","75","main_expt"
"","bandit","155","449077","0.0-116.0-0.0","79608217","wem/bandit_either_2","A39GADIK8RLMVC","either","6","212","","","","","","","0","0","1","0.131742089","","0.4","0.2","0.8","0.6","","","","","0.08192786134","0.1981976751","0.131742089","0.06912044911","","","","","","","","75","K","2","","","76","main_expt"
"","bandit","156","450673","0.0-117.0-0.0","79608217","wem/bandit_either_2","A39GADIK8RLMVC","either","6","46","","","","","","","0","0","1","","0.06151132513","0.4","0.2","0.8","0.6","0.03620126105","0.2302368041","0.1382621175","0.06151132513","","","","","","","","","","","","76","L","3","","","77","main_expt"
"","bandit","157","452361","0.0-118.0-0.0","79608217","wem/bandit_either_2","A39GADIK8RLMVC","either","6","129","","","","","","","0","0","1","","0.08824794056","0.4","0.2","0.8","0.6","0.03362754592","0.2538269909","0.1351161864","0.08824794056","","","","","","","","","","","","76","L","3","","","78","main_expt"
"","bandit","158","454190","0.0-119.0-0.0","79608217","wem/bandit_either_2","A39GADIK8RLMVC","either","6","281","","","","","","","0","0","1","","0.08425003046","0.4","0.2","0.8","0.6","0.03917851348","0.221492582","0.1125986002","0.08425003046","","","","","","","","","","","","76","L","3","","","79","main_expt"
"","bandit","159","455949","0.0-120.0-0.0","79608217","wem/bandit_either_2","A39GADIK8RLMVC","either","6","205","","","","","","","0","0","1","0.06916691586","","0.4","0.2","0.8","0.6","","","","","0.06916691586","0.2126184008","0.1071358869","0.1059393704","","","","","","","","72","H","0","img/none_selected.jpg","","80","main_expt"
"","bandit","160","457560","0.0-121.0-0.0","79608217","wem/bandit_either_2","A39GADIK8RLMVC","either","6","59","","","","","","","0","0","1","0.1110223174","","0.4","0.2","0.8","0.6","","","","","0.1110223174","0.1803612399","0.1410751298","0.114990546","","","","","","","","72","H","0","img/none_selected.jpg","","81","main_expt"
"","bandit","161","459209","0.0-122.0-0.0","79608217","wem/bandit_either_2","A39GADIK8RLMVC","either","6","94","","","","","","","0","0","1","","0.08899533144","0.4","0.2","0.8","0.6","0.08899533144","0.1883980103","0.1518454263","0.1246300745","","","","","","","","","","","","72","H","0","img/none_selected.jpg","","82","main_expt"
"","bandit","162","461001","0.0-123.0-0.0","79608217","wem/bandit_either_2","A39GADIK8RLMVC","either","6","241","","","","","","","0","0","1","","0.2099895667","0.4","0.2","0.8","0.6","0.1383499545","0.2099895667","0.1285150734","0.1523433176","","","","","","","","","","","","74","J","1","","","83","main_expt"
"","bandit","163","462752","0.0-124.0-0.0","79608217","wem/bandit_either_2","A39GADIK8RLMVC","either","6","188","","","","","","","0","0","1","","0.1760666055","0.4","0.2","0.8","0.6","0.1815119679","0.1760666055","0.1083679187","0.1230513595","","","","","","","","","","","","74","J","1","","","84","main_expt"
"","bandit","164","464463","0.0-125.0-0.0","79608217","wem/bandit_either_2","A39GADIK8RLMVC","either","6","177","","","","","","","0","0","1","","0.2077415988","0.4","0.2","0.8","0.6","0.2121304898","0.2077415988","0.08985983991","0.1460595132","","","","","","","","","","","","74","J","1","","","85","main_expt"
"","bandit","165","466188","0.0-126.0-0.0","79608217","wem/bandit_either_2","A39GADIK8RLMVC","either","6","177","","","","","","","0","0","1","0.08377758623","","0.4","0.2","0.8","0.6","","","","","0.1931166697","0.1940704576","0.08377758623","0.1578730034","","","","","","","","75","K","2","","","86","main_expt"
"","bandit","166","467819","0.0-127.0-0.0","79608217","wem/bandit_either_2","A39GADIK8RLMVC","either","6","88","","","","","","","0","0","1","0.08340742779","","0.4","0.2","0.8","0.6","","","","","0.1908876969","0.1920524506","0.08340742779","0.1329566931","","","","","","","","75","K","2","","","87","main_expt"
"","bandit","167","469656","0.0-128.0-0.0","79608217","wem/bandit_either_2","A39GADIK8RLMVC","either","6","254","","","","","","","1","0","0","0.06937011617","","0.4","0.2","0.8","0.6","","","","","0.1727332377","0.2525081946","0.06937011617","0.1156353122","","","","","","","","75","K","2","","","88","main_expt"
"","bandit","168","471463","0.0-129.0-0.0","79608217","wem/bandit_either_2","A39GADIK8RLMVC","either","6","258","","","","","","","0","0","1","0.08556693901","","0.4","0.2","0.8","0.6","","","","","0.1747664758","0.2476280913","0.08556693901","0.1169245856","","","","","","","","75","K","2","","","89","main_expt"
"","bandit","169","473232","0.0-130.0-0.0","79608217","wem/bandit_either_2","A39GADIK8RLMVC","either","6","205","","","","","","","0","0","1","0.1013294801","","0.4","0.2","0.8","0.6","","","","","0.1302891894","0.2476417222","0.1013294801","0.1276927611","","","","","","","","75","K","2","","","90","main_expt"
"","bandit","170","474831","0.0-131.0-0.0","79608217","wem/bandit_either_2","A39GADIK8RLMVC","either","6","52","","","","","","","0","0","1","","0.1567130635","0.4","0.2","0.8","0.6","0.1143331172","0.1875867431","0.1567130635","0.1633868825","","","","","","","","","","","","75","K","2","","","91","main_expt"
"","bandit","171","476551","0.0-132.0-0.0","79608217","wem/bandit_either_2","A39GADIK8RLMVC","either","6","173","","","","","","","0","0","1","0.2172033847","","0.4","0.2","0.8","0.6","","","","","0.1674068059","0.1804963823","0.1214255195","0.2172033847","","","","","","","","76","L","3","","","92","main_expt"
"","bandit","172","478258","0.0-133.0-0.0","79608217","wem/bandit_either_2","A39GADIK8RLMVC","either","6","161","","","","","","","0","0","1","","0.2178255547","0.4","0.2","0.8","0.6","0.1405005834","0.1468121695","0.1317465968","0.2178255547","","","","","","","","","","","","76","L","3","","","93","main_expt"
"","bandit","173","480063","0.0-134.0-0.0","79608217","wem/bandit_either_2","A39GADIK8RLMVC","either","6","250","","","","","","","1","0","0","0.2058786334","","0.4","0.2","0.8","0.6","","","","","0.1338278818","0.1270151289","0.1810196293","0.2058786334","","","","","","","","76","L","3","","","94","main_expt"
"","bandit","174","481874","0.0-135.0-0.0","79608217","wem/bandit_either_2","A39GADIK8RLMVC","either","6","259","","","","","","","0","0","1","0.2009860572","","0.4","0.2","0.8","0.6","","","","","0.16416917","0.1049494322","0.1537803575","0.2009860572","","","","","","","","76","L","3","","","95","main_expt"
"","bandit","175","483703","0.0-136.0-0.0","79608217","wem/bandit_either_2","A39GADIK8RLMVC","either","6","266","","","","","","","0","0","1","0.2792576191","","0.4","0.2","0.8","0.6","","","","","0.1075549125","0.1242023773","0.2255368078","0.2792576191","","","","","","","","76","L","3","","","96","main_expt"
"","bandit","176","485474","0.0-137.0-0.0","79608217","wem/bandit_either_2","A39GADIK8RLMVC","either","6","209","","","","","","","0","0","1","0.291042229","","0.4","0.2","0.8","0.6","","","","","0.07285617598","0.101802889","0.1881791955","0.291042229","","","","","","","","76","L","3","","","97","main_expt"
"","bandit","177","487121","0.0-138.0-0.0","79608217","wem/bandit_either_2","A39GADIK8RLMVC","either","6","82","","","","","","","0","0","1","","0.1128802937","0.4","0.2","0.8","0.6","0.1128802937","0.08559904752","0.1722186849","0.2919937097","","","","","","","","","","","","72","H","0","img/none_selected.jpg","","98","main_expt"
"","bandit","178","488828","0.0-139.0-0.0","79608217","wem/bandit_either_2","A39GADIK8RLMVC","either","6","155","","","","","","","0","0","1","0.07338875894","","0.4","0.2","0.8","0.6","","","","","0.07338875894","0.04480153982","0.2581810796","0.338066437","","","","","","","","72","H","0","img/none_selected.jpg","","99","main_expt"
"","bandit","179","490598","0.0-140.0-0.0","79608217","wem/bandit_either_2","A39GADIK8RLMVC","either","6","219","","","","","","","0","0","1","0.06256672301","","0.4","0.2","0.8","0.6","","","","","0.06256672301","0.03694367041","0.3094702251","0.3466775547","","","","","","","","72","H","0","img/none_selected.jpg","","100","main_expt"
"","bandit","180","492218","0.0-141.0-0.0","79608217","wem/bandit_either_2","A39GADIK8RLMVC","either","6","67","","","","","","","0","0","1","","0.02534596886","0.4","0.2","0.8","0.6","0.06765033746","0.02534596886","0.3217449289","0.3776837944","","","","","","","","","","","","74","J","1","","","101","main_expt"
"","bandit","181","493872","0.0-142.0-0.0","79608217","wem/bandit_either_2","A39GADIK8RLMVC","either","6","103","","","","","","","0","0","1","0.03456503798","","0.4","0.2","0.8","0.6","","","","","0.08460413752","0.03456503798","0.3656493725","0.3988278911","","","","","","","","74","J","1","","","102","main_expt"
"","bandit","182","495561","0.0-143.0-0.0","79608217","wem/bandit_either_2","A39GADIK8RLMVC","either","6","131","","","","","","","0","0","1","","0.03116272615","0.4","0.2","0.8","0.6","0.1149622558","0.03116272615","0.4097417878","0.3642388176","","","","","","","","","","","","74","J","1","","","103","main_expt"
"","bandit","183","497254","0.0-144.0-0.0","79608217","wem/bandit_either_2","A39GADIK8RLMVC","either","6","121","","","","","","","0","0","1","0.4005896235","","0.4","0.2","0.8","0.6","","","","","0.1223821921","0.04034009898","0.4005896235","0.3059376685","","","","","","","","75","K","2","","","104","main_expt"
"","bandit","184","498958","0.0-145.0-0.0","79608217","wem/bandit_either_2","A39GADIK8RLMVC","either","6","143","","","","","","","0","0","1","","0.3967946647","0.4","0.2","0.8","0.6","0.1302837569","0.06132200156","0.3967946647","0.2658022239","","","","","","","","","","","","75","K","2","","","105","main_expt"
"","bandit","185","500624","0.0-146.0-0.0","79608217","wem/bandit_either_2","A39GADIK8RLMVC","either","6","90","","","","","","","0","0","1","","0.3920329447","0.4","0.2","0.8","0.6","0.1405927316","0.03171667797","0.3920329447","0.2583534607","","","","","","","","","","","","75","K","2","","","106","main_expt"
"","bandit","186","502324","0.0-147.0-0.0","79608217","wem/bandit_either_2","A39GADIK8RLMVC","either","6","144","","","","","","","0","0","1","","0.2402432731","0.4","0.2","0.8","0.6","0.1835021143","0.06603394544","0.3973329777","0.2402432731","","","","","","","","","","","","76","L","3","","","107","main_expt"
"","bandit","187","504051","0.0-148.0-0.0","79608217","wem/bandit_either_2","A39GADIK8RLMVC","either","6","179","","","","","","","1","0","0","0.2364509509","","0.4","0.2","0.8","0.6","","","","","0.2124513917","0.08137973005","0.3839010997","0.2364509509","","","","","","","","76","L","3","","","108","main_expt"
"","bandit","188","505848","0.0-149.0-0.0","79608217","wem/bandit_either_2","A39GADIK8RLMVC","either","6","254","","","","","","","0","0","1","0.2164051194","","0.4","0.2","0.8","0.6","","","","","0.218007314","0.04765661509","0.3879107289","0.2164051194","","","","","","","","76","L","3","","","109","main_expt"
"","bandit","189","507658","0.0-150.0-0.0","79608217","wem/bandit_either_2","A39GADIK8RLMVC","either","6","259","","","","","","","0","0","1","0.1611838666","","0.4","0.2","0.8","0.6","","","","","0.229469423","0.06789381979","0.3989855113","0.1611838666","","","","","","","","76","L","3","","","110","main_expt"
"","bandit","190","509466","0.0-151.0-0.0","79608217","wem/bandit_either_2","A39GADIK8RLMVC","either","6","251","","","","","","","0","1","0","","0.2042622235","0.4","0.2","0.8","0.6","0.2923436213","0.08972795074","0.3959495959","0.2042622235","","","","","","","","","","","","76","L","3","","","111","main_expt"
"","bandit","191","511018","0.0-152.0-0.0","79608217","wem/bandit_either_2","A39GADIK8RLMVC","either","6","1","","","","","","","0","0","1","0.2113733305","","0.4","0.2","0.8","0.6","","","","","0.2778802509","0.1176683061","0.335596647","0.2113733305","","","","","","","","76","L","3","","","112","main_expt"
"","bandit","192","513008","0.0-153.0-0.0","79608217","wem/bandit_either_2","A39GADIK8RLMVC","either","6","411","","","","","","","0","0","1","0.220236308","","0.4","0.2","0.8","0.6","","","","","0.2852166322","0.1973953549","0.2876347753","0.220236308","","","","","","","","76","L","3","","","113","main_expt"
"","bandit","193","514599","0.0-154.0-0.0","79608217","wem/bandit_either_2","A39GADIK8RLMVC","either","6","43","","","","","","","0","0","1","0.2453392608","","0.4","0.2","0.8","0.6","","","","","0.3222351196","0.200840576","0.2811359795","0.2453392608","","","","","","","","76","L","3","","","114","main_expt"
"","bandit","194","516301","0.0-155.0-0.0","79608217","wem/bandit_either_2","A39GADIK8RLMVC","either","6","135","","","","","","","0","0","1","0.2056035349","","0.4","0.2","0.8","0.6","","","","","0.2865303103","0.2544006126","0.2056035349","0.2311931225","","","","","","","","75","K","2","","","115","main_expt"
"","bandit","195","517884","0.0-156.0-0.0","79608217","wem/bandit_either_2","A39GADIK8RLMVC","either","6","31","","","","","","","0","0","1","0.2435386161","","0.4","0.2","0.8","0.6","","","","","0.1901772154","0.2264812366","0.2435386161","0.2290532582","","","","","","","","75","K","2","","","116","main_expt"
"","bandit","196","519674","0.0-157.0-0.0","79608217","wem/bandit_either_2","A39GADIK8RLMVC","either","6","225","","","","","","","0","0","1","0.2523066444","","0.4","0.2","0.8","0.6","","","","","0.1854727963","0.2535822563","0.2523066444","0.2610634121","","","","","","","","75","K","2","","","117","main_expt"
"","bandit","197","521321","0.0-158.0-0.0","79608217","wem/bandit_either_2","A39GADIK8RLMVC","either","6","93","","","","","","","0","0","1","0.288462609","","0.4","0.2","0.8","0.6","","","","","0.223078523","0.288462609","0.258758296","0.2915584027","","","","","","","","74","J","1","","","118","main_expt"
"","bandit","198","523073","0.0-159.0-0.0","79608217","wem/bandit_either_2","A39GADIK8RLMVC","either","6","199","","","","","","","0","1","0","","0.3077733757","0.4","0.2","0.8","0.6","0.2157898803","0.3077733757","0.2513882557","0.3240034744","","","","","","","","","","","","74","J","1","","","119","main_expt"
"","bandit","199","524938","0.0-160.0-0.0","79608217","wem/bandit_either_2","A39GADIK8RLMVC","either","6","306","","","","","","","0","0","1","","0.3470363664","0.4","0.2","0.8","0.6","0.2055853597","0.3470363664","0.2178230887","0.3584552205","","","","","","","","","","","","74","J","1","","","120","main_expt"
"","bandit","200","526765","0.0-161.0-0.0","79608217","wem/bandit_either_2","A39GADIK8RLMVC","either","6","265","","","","","","","0","0","1","","0.36369082","0.4","0.2","0.8","0.6","0.2308362602","0.36369082","0.2249913612","0.3392259721","","","","","","","","","","","","74","J","1","","","121","main_expt"
"","bandit","201","528334","0.0-162.0-0.0","79608217","wem/bandit_either_2","A39GADIK8RLMVC","either","6","10","","","","","","","0","1","0","","0.3740977319","0.4","0.2","0.8","0.6","0.1858821776","0.3740977319","0.2135386538","0.3211990091","","","","","","","","","","","","74","J","1","","","122","main_expt"
"","bandit","202","530174","0.0-163.0-0.0","79608217","wem/bandit_either_2","A39GADIK8RLMVC","either","6","276","","","","","","","0","0","1","0.3617230251","","0.4","0.2","0.8","0.6","","","","","0.1948645322","0.3617230251","0.2742148462","0.3082515077","","","","","","","","74","J","1","","","123","main_expt"
"","bandit","203","531879","0.0-164.0-0.0","79608217","wem/bandit_either_2","A39GADIK8RLMVC","either","6","157","","","","","","","0","0","1","","0.3189133642","0.4","0.2","0.8","0.6","0.1875433284","0.3189133642","0.3092488957","0.3337980485","","","","","","","","","","","","74","J","1","","","124","main_expt"
"","bandit","204","533587","0.0-165.0-0.0","79608217","wem/bandit_either_2","A39GADIK8RLMVC","either","6","154","","","","","","","0","0","1","0.3134342975","","0.4","0.2","0.8","0.6","","","","","0.1805360773","0.3134342975","0.2832498899","0.2815584253","","","","","","","","74","J","1","","","125","main_expt"
"","bandit","205","535217","0.0-166.0-0.0","79608217","wem/bandit_either_2","A39GADIK8RLMVC","either","6","73","","","","","","","0","0","1","0.2889117865","","0.4","0.2","0.8","0.6","","","","","0.2199741614","0.2889117865","0.321902755","0.2544389989","","","","","","","","74","J","1","","","126","main_expt"
"","bandit","206","536928","0.0-167.0-0.0","79608217","wem/bandit_either_2","A39GADIK8RLMVC","either","6","160","","","","","","","1","0","0","0.212963778","","0.4","0.2","0.8","0.6","","","","","0.212963778","0.3101500906","0.3163630435","0.217883989","","","","","","","","72","H","0","img/none_selected.jpg","","127","main_expt"
"","bandit","207","538692","0.0-168.0-0.0","79608217","wem/bandit_either_2","A39GADIK8RLMVC","either","6","202","","","","","","","0","0","1","0.1853882534","","0.4","0.2","0.8","0.6","","","","","0.1853882534","0.3257933697","0.3242789072","0.1941215274","","","","","","","","72","H","0","img/none_selected.jpg","","128","main_expt"
"","bandit","208","540526","0.0-169.0-0.0","79608217","wem/bandit_either_2","A39GADIK8RLMVC","either","6","274","","","","","","","0","0","1","0.1486900389","","0.4","0.2","0.8","0.6","","","","","0.1486900389","0.2767822115","0.3430844202","0.2093197904","","","","","","","","72","H","0","img/none_selected.jpg","","129","main_expt"
"","bandit","209","542292","0.0-170.0-0.0","79608217","wem/bandit_either_2","A39GADIK8RLMVC","either","6","200","","","","","","","0","0","1","","0.1581202816","0.4","0.2","0.8","0.6","0.1581202816","0.3389859305","0.3487272729","0.2325895014","","","","","","","","","","","","72","H","0","img/none_selected.jpg","","130","main_expt"
"","bandit","210","544167","0.0-171.0-0.0","79608217","wem/bandit_either_2","A39GADIK8RLMVC","either","6","315","","","","","","","0","0","1","","0.2807576759","0.4","0.2","0.8","0.6","0.1189605486","0.2807576759","0.3850752379","0.2680880231","","","","","","","","","","","","74","J","1","","","131","main_expt"
"","bandit","211","545803","0.0-172.0-0.0","79608217","wem/bandit_either_2","A39GADIK8RLMVC","either","6","70","","","","","","","0","0","1","0.2044414959","","0.4","0.2","0.8","0.6","","","","","0.08638656351","0.2044414959","0.3547422913","0.2053564998","","","","","","","","74","J","1","","","132","main_expt"
"","bandit","212","547465","0.0-173.0-0.0","79608217","wem/bandit_either_2","A39GADIK8RLMVC","either","6","106","","","","","","","0","0","1","","0.2352631215","0.4","0.2","0.8","0.6","0.104542274","0.2352631215","0.3256782816","0.2102644512","","","","","","","","","","","","74","J","1","","","133","main_expt"
"","bandit","213","549202","0.0-174.0-0.0","79608217","wem/bandit_either_2","A39GADIK8RLMVC","either","6","175","","","","","","","0","1","0","","0.2479378245","0.4","0.2","0.8","0.6","0.1401790922","0.2808822736","0.2479378245","0.2028105977","","","","","","","","","","","","75","K","2","","","134","main_expt"
"","bandit","214","550983","0.0-175.0-0.0","79608217","wem/bandit_either_2","A39GADIK8RLMVC","either","6","221","","","","","","","0","0","1","0.24301602","","0.4","0.2","0.8","0.6","","","","","0.1818128853","0.3053704558","0.24301602","0.1556880781","","","","","","","","75","K","2","","","135","main_expt"
"","bandit","215","553513","0.0-176.0-0.0","79608217","wem/bandit_either_2","A39GADIK8RLMVC","either","6","973","","","","","","","0","0","1","0.2630427063","","0.4","0.2","0.8","0.6","","","","","0.1583738081","0.3140058771","0.2630427063","0.1428421262","","","","","","","","75","K","2","","","136","main_expt"
"","bandit","216","555218","0.0-177.0-0.0","79608217","wem/bandit_either_2","A39GADIK8RLMVC","either","6","155","","","","","","","0","0","1","0.3053425806","","0.4","0.2","0.8","0.6","","","","","0.1497920091","0.323699752","0.3053425806","0.1039390038","","","","","","","","75","K","2","","","137","main_expt"
"","bandit","217","556770","0.0-178.0-0.0","79608217","wem/bandit_either_2","A39GADIK8RLMVC","either","6","0","","","","","","","0","0","1","","0.07132433681","0.4","0.2","0.8","0.6","0.1128601551","0.3435108126","0.3588623722","0.07132433681","","","","","","","","","","","","76","L","3","","","138","main_expt"
"","bandit","218","558468","0.0-179.0-0.0","79608217","wem/bandit_either_2","A39GADIK8RLMVC","either","6","146","","","","","","","0","0","1","","0.1047165976","0.4","0.2","0.8","0.6","0.1073604677","0.3505637202","0.2762704672","0.1047165976","","","","","","","","","","","","76","L","3","","","139","main_expt"
"","bandit","219","560281","0.0-180.0-0.0","79608217","wem/bandit_either_2","A39GADIK8RLMVC","either","6","260","","","","","","","0","1","0","","0.09043849554","0.4","0.2","0.8","0.6","0.1376710563","0.4185251601","0.2475753012","0.09043849554","","","","","","","","","","","","76","L","3","","","140","main_expt"
"","bandit","220","562076","0.0-181.0-0.0","79608217","wem/bandit_either_2","A39GADIK8RLMVC","either","6","234","","","","","","","1","0","0","0.05096505815","","0.4","0.2","0.8","0.6","","","","","0.1412662962","0.4225289085","0.2436306075","0.05096505815","","","","","","","","76","L","3","","","141","main_expt"
"","bandit","221","563886","0.0-182.0-0.0","79608217","wem/bandit_either_2","A39GADIK8RLMVC","either","6","233","","","","","","","0","0","1","","0.02973759478","0.4","0.2","0.8","0.6","0.1543424817","0.455259632","0.1998899021","0.02973759478","","","","","","","","","","","","76","L","3","","","142","main_expt"
"","bandit","222","565573","0.0-183.0-0.0","79608217","wem/bandit_either_2","A39GADIK8RLMVC","either","6","128","","","","","","","0","0","1","0.04457260366","","0.4","0.2","0.8","0.6","","","","","0.1552636118","0.4287003803","0.2568100034","0.04457260366","","","","","","","","76","L","3","","","143","main_expt"
"","bandit","223","567311","0.0-184.0-0.0","79608217","wem/bandit_either_2","A39GADIK8RLMVC","either","6","185","","","","","","","0","0","1","0.04060115041","","0.4","0.2","0.8","0.6","","","","","0.2241753426","0.4260506414","0.2859833531","0.04060115041","","","","","","","","76","L","3","","","144","main_expt"
"","bandit","224","569003","0.0-185.0-0.0","79608217","wem/bandit_either_2","A39GADIK8RLMVC","either","6","92","","","","","","","0","0","1","","0.2484131349","0.4","0.2","0.8","0.6","0.2484131349","0.4202170594","0.2080640158","0.06712401514","","","","","","","","","","","","72","H","0","img/none_selected.jpg","","145","main_expt"
"","bandit","225","570817","0.0-186.0-0.0","79608217","wem/bandit_either_2","A39GADIK8RLMVC","either","6","246","","","","","","","0","1","0","","0.2905032103","0.4","0.2","0.8","0.6","0.2905032103","0.4333226383","0.2469639643","0.08780921534","","","","","","","","","","","","72","H","0","img/none_selected.jpg","","146","main_expt"
"","bandit","226","572570","0.0-187.0-0.0","79608217","wem/bandit_either_2","A39GADIK8RLMVC","either","6","187","","","","","","","0","0","1","0.2846703457","","0.4","0.2","0.8","0.6","","","","","0.2846703457","0.4340954059","0.2169279296","0.1333368233","","","","","","","","72","H","0","img/none_selected.jpg","","147","main_expt"
"","bandit","227","574233","0.0-188.0-0.0","79608217","wem/bandit_either_2","A39GADIK8RLMVC","either","6","105","","","","","","","0","1","0","","0.3010433131","0.4","0.2","0.8","0.6","0.3010433131","0.3903754431","0.1248284812","0.09264147873","","","","","","","","","","","","72","H","0","img/none_selected.jpg","","148","main_expt"
"","bandit","228","576057","0.0-189.0-0.0","79608217","wem/bandit_either_2","A39GADIK8RLMVC","either","6","264","","","","","","","0","0","1","","0.3421268102","0.4","0.2","0.8","0.6","0.3421268102","0.4161192262","0.1498862571","0.123708687","","","","","","","","","","","","72","H","0","img/none_selected.jpg","","149","main_expt"
"","bandit","229","577754","0.0-190.0-0.0","79608217","wem/bandit_either_2","A39GADIK8RLMVC","either","6","137","","","","","","","0","0","1","","0.3382865341","0.4","0.2","0.8","0.6","0.3382865341","0.4545257836","0.2044632824","0.1087811601","","","","","","","","","","","","72","H","0","img/none_selected.jpg","","150","main_expt"
"","bandit","230","579571","0.0-191.0-0.0","79608217","wem/bandit_either_2","A39GADIK8RLMVC","either","6","264","","","","","","","0","0","1","","0.3031951358","0.4","0.2","0.8","0.6","0.3031951358","0.4553704948","0.1630699797","0.1640336927","","","","","","","","","","","","72","H","0","img/none_selected.jpg","","151","main_expt"
"","bandit","231","581138","0.0-192.0-0.0","79608217","wem/bandit_either_2","A39GADIK8RLMVC","either","6","14","","","","","","","0","0","1","0.1534962237","","0.4","0.2","0.8","0.6","","","","","0.3163498213","0.4692720684","0.1534962237","0.1474195158","","","","","","","","75","K","2","","","152","main_expt"
"","bandit","232","582823","0.0-193.0-0.0","79608217","wem/bandit_either_2","A39GADIK8RLMVC","either","6","131","","","","","","","1","0","0","0.1506701345","","0.4","0.2","0.8","0.6","","","","","0.3205280093","0.4794448159","0.1506701345","0.1200421148","","","","","","","","75","K","2","","","153","main_expt"
"","bandit","233","584635","0.0-194.0-0.0","79608217","wem/bandit_either_2","A39GADIK8RLMVC","either","6","262","","","","","","","0","0","1","0.1810992197","","0.4","0.2","0.8","0.6","","","","","0.2780981807","0.4762011242","0.1810992197","0.1295208369","","","","","","","","75","K","2","","","154","main_expt"
"","bandit","234","586417","0.0-195.0-0.0","79608217","wem/bandit_either_2","A39GADIK8RLMVC","either","6","222","","","","","","","0","0","1","","0.2574031695","0.4","0.2","0.8","0.6","0.2543788853","0.4797315341","0.2574031695","0.1189574303","","","","","","","","","","","","75","K","2","","","155","main_expt"
"","bandit","235","588203","0.0-196.0-0.0","79608217","wem/bandit_either_2","A39GADIK8RLMVC","either","6","193","","","","","","","0","0","1","0.1838662476","","0.4","0.2","0.8","0.6","","","","","0.2601772157","0.4815153028","0.1838662476","0.1511338071","","","","","","","","75","K","2","","","156","main_expt"
"","bandit","236","589741","0.0-197.0-0.0","79608217","wem/bandit_either_2","A39GADIK8RLMVC","either","6","5","","","","","","","0","1","0","","0.4769669351","0.4","0.2","0.8","0.6","0.27050514","0.4769669351","0.1951262555","0.1494559257","","","","","","","","","","","","74","J","1","","","157","main_expt"
"","bandit","237","591363","0.0-198.0-0.0","79608217","wem/bandit_either_2","A39GADIK8RLMVC","either","6","72","","","","","","","0","1","0","","0.4819637572","0.4","0.2","0.8","0.6","0.2912044809","0.4819637572","0.1711173681","0.1398300683","","","","","","","","","","","","74","J","1","","","158","main_expt"
"","bandit","238","593160","0.0-199.0-0.0","79608217","wem/bandit_either_2","A39GADIK8RLMVC","either","6","228","","","","","","","0","0","1","","0.4802617926","0.4","0.2","0.8","0.6","0.2863852675","0.4802617926","0.1262927185","0.1482700517","","","","","","","","","","","","74","J","1","","","159","main_expt"
"","bandit","239","594819","0.0-200.0-0.0","79608217","wem/bandit_either_2","A39GADIK8RLMVC","either","6","96","","","","","","","0","0","1","","0.4834703177","0.4","0.2","0.8","0.6","0.3188379944","0.4834703177","0.1289005464","0.1327856751","","","","","","","","","","","","74","J","1","","","160","main_expt"
"","bandit","240","596866","0.0-201.0-0.0","79608217","wem/bandit_either_2","A39GADIK8RLMVC","either","6","493","","","","","","","1","0","0","0.4783639554","","0.4","0.2","0.8","0.6","","","","","0.3918259889","0.4783639554","0.07062595825","0.1936248495","","","","","","","","74","J","1","","","161","main_expt"
"","bandit","241","598665","0.0-202.0-0.0","79608217","wem/bandit_either_2","A39GADIK8RLMVC","either","6","243","","","","","","","0","0","1","","0.4702379588","0.4","0.2","0.8","0.6","0.3825352776","0.4702379588","0.08554885259","0.1917288119","","","","","","","","","","","","74","J","1","","","162","main_expt"
"","bandit","242","600336","0.0-203.0-0.0","79608217","wem/bandit_either_2","A39GADIK8RLMVC","either","6","114","","","","","","","1","0","0","0.4761999765","","0.4","0.2","0.8","0.6","","","","","0.3500114378","0.4761999765","0.05790820845","0.2410074379","","","","","","","","74","J","1","","","163","main_expt"
"","bandit","243","602153","0.0-204.0-0.0","79608217","wem/bandit_either_2","A39GADIK8RLMVC","either","6","261","","","","","","","0","1","0","","0.4683988395","0.4","0.2","0.8","0.6","0.3138306729","0.4683988395","0.04744410613","0.2717164652","","","","","","","","","","","","74","J","1","","","164","main_expt"
"","bandit","244","604021","0.0-205.0-0.0","79608217","wem/bandit_either_2","A39GADIK8RLMVC","either","6","300","","","","","","","0","1","0","","0.4594806004","0.4","0.2","0.8","0.6","0.3066591237","0.4594806004","0.07721988326","0.3360488911","","","","","","","","","","","","74","J","1","","","165","main_expt"
"","bandit","245","605875","0.0-206.0-0.0","79608217","wem/bandit_either_2","A39GADIK8RLMVC","either","6","258","","","","","","","0","0","1","0.4769271284","","0.4","0.2","0.8","0.6","","","","","0.359337808","0.4769271284","0.09276645858","0.3288768439","","","","","","","","74","J","1","","","166","main_expt"
"","bandit","246","607503","0.0-207.0-0.0","79608217","wem/bandit_either_2","A39GADIK8RLMVC","either","6","61","","","","","","","0","1","0","","0.4824675089","0.4","0.2","0.8","0.6","0.3888119778","0.4824675089","0.1092251717","0.341079324","","","","","","","","","","","","74","J","1","","","167","main_expt"
"","bandit","247","609319","0.0-208.0-0.0","79608217","wem/bandit_either_2","A39GADIK8RLMVC","either","6","257","","","","","","","0","0","1","","0.4731218304","0.4","0.2","0.8","0.6","0.3188253523","0.4731218304","0.09704797424","0.2972081376","","","","","","","","","","","","74","J","1","","","168","main_expt"
"","bandit","248","610946","0.0-209.0-0.0","79608217","wem/bandit_either_2","A39GADIK8RLMVC","either","6","70","","","","","","","0","1","0","","0.4558692975","0.4","0.2","0.8","0.6","0.3035082617","0.4558692975","0.1131958007","0.2716537329","","","","","","","","","","","","74","J","1","","","169","main_expt"
"","bandit","249","612593","0.0-210.0-0.0","79608217","wem/bandit_either_2","A39GADIK8RLMVC","either","6","92","","","","","","","0","1","0","","0.424927817","0.4","0.2","0.8","0.6","0.3540810543","0.424927817","0.1636150477","0.3705489528","","","","","","","","","","","","74","J","1","","","170","main_expt"
"","bandit","250","614268","0.0-211.0-0.0","79608217","wem/bandit_either_2","A39GADIK8RLMVC","either","6","123","","","","","","","0","0","1","","0.4254050478","0.4","0.2","0.8","0.6","0.2912941695","0.4254050478","0.1889182236","0.3259531709","","","","","","","","","","","","74","J","1","","","171","main_expt"
"","bandit","251","615939","0.0-212.0-0.0","79608217","wem/bandit_either_2","A39GADIK8RLMVC","either","6","118","","","","","","","0","0","1","0.4319935488","","0.4","0.2","0.8","0.6","","","","","0.2964718019","0.4319935488","0.1494540944","0.3253578443","","","","","","","","74","J","1","","","172","main_expt"
"","bandit","252","617687","0.0-213.0-0.0","79608217","wem/bandit_either_2","A39GADIK8RLMVC","either","6","193","","","","","","","0","0","1","","0.4157756128","0.4","0.2","0.8","0.6","0.2411205861","0.4157756128","0.1700291406","0.3133285256","","","","","","","","","","","","74","J","1","","","173","main_expt"
"","bandit","253","619519","0.0-214.0-0.0","79608217","wem/bandit_either_2","A39GADIK8RLMVC","either","6","277","","","","","","","0","0","1","0.3470844982","","0.4","0.2","0.8","0.6","","","","","0.2132737127","0.3650518631","0.2007600912","0.3470844982","","","","","","","","76","L","3","","","174","main_expt"
"","bandit","254","621287","0.0-215.0-0.0","79608217","wem/bandit_either_2","A39GADIK8RLMVC","either","6","212","","","","","","","0","1","0","","0.3615725976","0.4","0.2","0.8","0.6","0.2722172758","0.3583375904","0.1613291475","0.3615725976","","","","","","","","","","","","76","L","3","","","175","main_expt"
"","bandit","255","623113","0.0-216.0-0.0","79608217","wem/bandit_either_2","A39GADIK8RLMVC","either","6","270","","","","","","","0","0","1","","0.3592449917","0.4","0.2","0.8","0.6","0.3158297255","0.3849487833","0.1618540135","0.3592449917","","","","","","","","","","","","76","L","3","","","176","main_expt"
"","bandit","256","624926","0.0-217.0-0.0","79608217","wem/bandit_either_2","A39GADIK8RLMVC","either","6","229","","","","","","","0","1","0","","0.3614776984","0.4","0.2","0.8","0.6","0.3033070912","0.3741193846","0.1337509382","0.3614776984","","","","","","","","","","","","76","L","3","","","177","main_expt"
"","bandit","257","626724","0.0-218.0-0.0","79608217","wem/bandit_either_2","A39GADIK8RLMVC","either","6","241","","","","","","","0","0","1","0.4042649322","","0.4","0.2","0.8","0.6","","","","","0.3070990366","0.3704436283","0.172909152","0.4042649322","","","","","","","","76","L","3","","","178","main_expt"
"","bandit","258","628330","0.0-219.0-0.0","79608217","wem/bandit_either_2","A39GADIK8RLMVC","either","6","46","","","","","","","0","0","1","0.3626499081","","0.4","0.2","0.8","0.6","","","","","0.349206168","0.3718647044","0.2306318455","0.3626499081","","","","","","","","76","L","3","","","179","main_expt"
"","bandit","259","630089","0.0-220.0-0.0","79608217","wem/bandit_either_2","A39GADIK8RLMVC","either","6","201","","","","","","","0","0","1","0.365831292","","0.4","0.2","0.8","0.6","","","","","0.3533593609","0.3144845341","0.2531752843","0.365831292","","","","","","","","76","L","3","","","180","main_expt"
"","bandit","260","631767","0.0-221.0-0.0","79608217","wem/bandit_either_2","A39GADIK8RLMVC","either","6","120","","","","","","","0","0","1","","0.3792633926","0.4","0.2","0.8","0.6","0.3792633926","0.3328992573","0.2995137733","0.3720079561","","","","","","","","","","","","72","H","0","img/none_selected.jpg","","181","main_expt"
"","bandit","261","633315","0.0-222.0-0.0","79608217","wem/bandit_either_2","A39GADIK8RLMVC","either","6","1","","","","","","","0","0","1","0.4170401524","","0.4","0.2","0.8","0.6","","","","","0.4170401524","0.3443004049","0.2818604164","0.3747751333","","","","","","","","72","H","0","img/none_selected.jpg","","182","main_expt"
"","bandit","262","635183","0.0-223.0-0.0","79608217","wem/bandit_either_2","A39GADIK8RLMVC","either","6","309","","","","","","","1","0","0","0.4349898381","","0.4","0.2","0.8","0.6","","","","","0.4349898381","0.3572445505","0.2706787236","0.3772869326","","","","","","","","72","H","0","img/none_selected.jpg","","183","main_expt"
"","bandit","263","637052","0.0-224.0-0.0","79608217","wem/bandit_either_2","A39GADIK8RLMVC","either","6","306","","","","","","","0","1","0","","0.4355724899","0.4","0.2","0.8","0.6","0.4355724899","0.358140682","0.2788381055","0.3719200221","","","","","","","","","","","","72","H","0","img/none_selected.jpg","","184","main_expt"
"","bandit","264","638795","0.0-225.0-0.0","79608217","wem/bandit_either_2","A39GADIK8RLMVC","either","6","183","","","","","","","0","1","0","","0.443517249","0.4","0.2","0.8","0.6","0.443517249","0.2938856532","0.2591604306","0.3759280431","","","","","","","","","","","","72","H","0","img/none_selected.jpg","","185","main_expt"
"","bandit","265","640364","0.0-226.0-0.0","79608217","wem/bandit_either_2","A39GADIK8RLMVC","either","6","12","","","","","","","0","0","1","0.4185550765","","0.4","0.2","0.8","0.6","","","","","0.4185550765","0.2570442146","0.1717283936","0.3686405037","","","","","","","","72","H","0","img/none_selected.jpg","","186","main_expt"
"","bandit","266","641994","0.0-227.0-0.0","79608217","wem/bandit_either_2","A39GADIK8RLMVC","either","6","73","","","","","","","0","0","1","0.1399016055","","0.4","0.2","0.8","0.6","","","","","0.4582246802","0.2781151114","0.1399016055","0.3693778387","","","","","","","","75","K","2","","","187","main_expt"
"","bandit","267","643760","0.0-228.0-0.0","79608217","wem/bandit_either_2","A39GADIK8RLMVC","either","6","205","","","","","","","1","0","0","0.116743447","","0.4","0.2","0.8","0.6","","","","","0.4499637214","0.2510368257","0.116743447","0.3858781765","","","","","","","","75","K","2","","","188","main_expt"
"","bandit","268","645543","0.0-229.0-0.0","79608217","wem/bandit_either_2","A39GADIK8RLMVC","either","6","227","","","","","","","0","0","1","","0.09810356538","0.4","0.2","0.8","0.6","0.4681283031","0.2299291889","0.09810356538","0.353665234","","","","","","","","","","","","75","K","2","","","189","main_expt"
"","bandit","269","647741","0.0-230.0-0.0","79608217","wem/bandit_either_2","A39GADIK8RLMVC","either","6","640","","","","","","","0","0","1","","0.1333212727","0.4","0.2","0.8","0.6","0.4672384316","0.2957770397","0.1333212727","0.3702546744","","","","","","","","","","","","75","K","2","","","190","main_expt"
"","bandit","270","649551","0.0-231.0-0.0","79608217","wem/bandit_either_2","A39GADIK8RLMVC","either","6","258","","","","","","","0","0","1","0.07289491444","","0.4","0.2","0.8","0.6","","","","","0.4633056668","0.2806998676","0.07289491444","0.3373283559","","","","","","","","75","K","2","","","191","main_expt"
"","bandit","271","651155","0.0-232.0-0.0","79608217","wem/bandit_either_2","A39GADIK8RLMVC","either","6","45","","","","","","","0","0","1","","0.2578649702","0.4","0.2","0.8","0.6","0.4701423021","0.2578649702","0.09060717316","0.3717228864","","","","","","","","","","","","74","J","1","","","192","main_expt"
"","bandit","272","652947","0.0-233.0-0.0","79608217","wem/bandit_either_2","A39GADIK8RLMVC","either","6","230","","","","","","","0","1","0","","0.3019093773","0.4","0.2","0.8","0.6","0.4625827917","0.3019093773","0.1038106097","0.3861484819","","","","","","","","","","","","74","J","1","","","193","main_expt"
"","bandit","273","654780","0.0-234.0-0.0","79608217","wem/bandit_either_2","A39GADIK8RLMVC","either","6","269","","","","","","","0","0","1","","0.3028603149","0.4","0.2","0.8","0.6","0.4480064119","0.3028603149","0.1222204007","0.3884838939","","","","","","","","","","","","74","J","1","","","194","main_expt"
"","bandit","274","656672","0.0-235.0-0.0","79608217","wem/bandit_either_2","A39GADIK8RLMVC","either","6","333","","","","","","","0","1","0","","0.2933095063","0.4","0.2","0.8","0.6","0.4263193963","0.2933095063","0.1230179676","0.4058549971","","","","","","","","","","","","74","J","1","","","195","main_expt"
"","bandit","275","658495","0.0-236.0-0.0","79608217","wem/bandit_either_2","A39GADIK8RLMVC","either","6","281","","","","","","","0","0","1","","0.3333663608","0.4","0.2","0.8","0.6","0.4399191733","0.3333663608","0.1972068901","0.3894648227","","","","","","","","","","","","74","J","1","","","196","main_expt"
"","bandit","276","660442","0.0-237.0-0.0","79608217","wem/bandit_either_2","A39GADIK8RLMVC","either","6","391","","","","","","","0","0","1","","0.3472763543","0.4","0.2","0.8","0.6","0.4303685687","0.3472763543","0.2091218652","0.3452919481","","","","","","","","","","","","74","J","1","","","197","main_expt"
"","bandit","277","662197","0.0-238.0-0.0","79608217","wem/bandit_either_2","A39GADIK8RLMVC","either","6","188","","","","","","","0","1","0","","0.3420385624","0.4","0.2","0.8","0.6","0.4166638701","0.3420385624","0.2316117542","0.3571156804","","","","","","","","","","","","74","J","1","","","198","main_expt"
"","bandit","278","664036","0.0-239.0-0.0","79608217","wem/bandit_either_2","A39GADIK8RLMVC","either","6","279","","","","","","","0","0","1","0.3009927129","","0.4","0.2","0.8","0.6","","","","","0.4166192342","0.3009927129","0.1983173389","0.3761278261","","","","","","","","74","J","1","","","199","main_expt"
"","bandit","279","665725","0.0-240.0-0.0","79608217","wem/bandit_either_2","A39GADIK8RLMVC","either","6","136","","","","","","","0","0","1","","0.2834367318","0.4","0.2","0.8","0.6","0.4065109498","0.2834367318","0.2275108597","0.3623939384","","","","","","","","","","","","74","J","1","","","200","main_expt"
"","bandit","280","667525","0.0-241.0-0.0","79608217","wem/bandit_either_2","A39GADIK8RLMVC","either","6","253","","","","","","","0","0","1","0.2305195973","","0.4","0.2","0.8","0.6","","","","","0.4210367682","0.2305195973","0.2753755663","0.3470966653","","","","","","","","74","J","1","","","201","main_expt"
"","bandit","281","669202","0.0-242.0-0.0","79608217","wem/bandit_either_2","A39GADIK8RLMVC","either","6","103","","","","","","","0","0","1","0.3738670455","","0.4","0.2","0.8","0.6","","","","","0.4059774394","0.236439039","0.2867984519","0.3738670455","","","","","","","","76","L","3","","","202","main_expt"
"","bandit","282","670812","0.0-243.0-0.0","79608217","wem/bandit_either_2","A39GADIK8RLMVC","either","6","44","","","","","","","0","0","1","0.4434414113","","0.4","0.2","0.8","0.6","","","","","0.4217634448","0.207292508","0.227681123","0.4434414113","","","","","","","","76","L","3","","","203","main_expt"
"","bandit","283","672610","0.0-244.0-0.0","79608217","wem/bandit_either_2","A39GADIK8RLMVC","either","6","237","","","","","","","0","0","1","0.4363530878","","0.4","0.2","0.8","0.6","","","","","0.417590799","0.2706274655","0.2421814767","0.4363530878","","","","","","","","76","L","3","","","204","main_expt"
"","bandit","284","674297","0.0-245.0-0.0","79608217","wem/bandit_either_2","A39GADIK8RLMVC","either","6","124","","","","","","","0","0","1","0.2250127273","","0.4","0.2","0.8","0.6","","","","","0.3892328218","0.2688171721","0.2250127273","0.4390009565","","","","","","","","75","K","2","","","205","main_expt"
"","bandit","285","675911","0.0-246.0-0.0","79608217","wem/bandit_either_2","A39GADIK8RLMVC","either","6","56","","","","","","","0","0","1","0.2148063869","","0.4","0.2","0.8","0.6","","","","","0.3877758809","0.2774640617","0.2148063869","0.4606838579","","","","","","","","75","K","2","","","206","main_expt"
"","bandit","286","677717","0.0-247.0-0.0","79608217","wem/bandit_either_2","A39GADIK8RLMVC","either","6","246","","","","","","","1","0","0","0.2370073307","","0.4","0.2","0.8","0.6","","","","","0.3344078408","0.31303597","0.2370073307","0.4679198071","","","","","","","","75","K","2","","","207","main_expt"
"","bandit","287","679551","0.0-248.0-0.0","79608217","wem/bandit_either_2","A39GADIK8RLMVC","either","6","279","","","","","","","0","0","1","0.1736764344","","0.4","0.2","0.8","0.6","","","","","0.3285414067","0.3187850143","0.1736764344","0.4731710197","","","","","","","","75","K","2","","","208","main_expt"
"","bandit","288","681367","0.0-249.0-0.0","79608217","wem/bandit_either_2","A39GADIK8RLMVC","either","6","251","","","","","","","0","0","1","0.2033963155","","0.4","0.2","0.8","0.6","","","","","0.337659841","0.3031297305","0.2033963155","0.472507437","","","","","","","","75","K","2","","","209","main_expt"
"","bandit","289","683216","0.0-250.0-0.0","79608217","wem/bandit_either_2","A39GADIK8RLMVC","either","6","291","","","","","","","1","0","0","0.1849029676","","0.4","0.2","0.8","0.6","","","","","0.322880172","0.3593083662","0.1849029676","0.4759946166","","","","","","","","75","K","2","","","210","main_expt"
"","bandit","290","685023","0.0-251.0-0.0","79608217","wem/bandit_either_2","A39GADIK8RLMVC","either","6","246","","","","","","","0","0","1","","0.08033524441","0.4","0.2","0.8","0.6","0.3440981268","0.3758292662","0.08033524441","0.4838002785","","","","","","","","","","","","75","K","2","","","211","main_expt"
"","bandit","291","686645","0.0-252.0-0.0","79608217","wem/bandit_either_2","A39GADIK8RLMVC","either","6","55","","","","","","","0","0","1","0.1024936548","","0.4","0.2","0.8","0.6","","","","","0.3135232579","0.3771764803","0.1024936548","0.4871609062","","","","","","","","75","K","2","","","212","main_expt"
"","bandit","292","688422","0.0-253.0-0.0","79608217","wem/bandit_either_2","A39GADIK8RLMVC","either","6","220","","","","","","","0","0","1","","0.1380366818","0.4","0.2","0.8","0.6","0.328558382","0.3935517348","0.1380366818","0.4829725273","","","","","","","","","","","","75","K","2","","","213","main_expt"
"","bandit","293","690038","0.0-254.0-0.0","79608217","wem/bandit_either_2","A39GADIK8RLMVC","either","6","55","","","","","","","0","1","0","","0.3024402918","0.4","0.2","0.8","0.6","0.3024402918","0.3792377037","0.1206441992","0.4742933803","","","","","","","","","","","","72","H","0","img/none_selected.jpg","","214","main_expt"
"","bandit","294","691710","0.0-255.0-0.0","79608217","wem/bandit_either_2","A39GADIK8RLMVC","either","6","117","","","","","","","0","1","0","","0.3024001881","0.4","0.2","0.8","0.6","0.3024001881","0.3364308411","0.1320715796","0.4754417465","","","","","","","","","","","","72","H","0","img/none_selected.jpg","","215","main_expt"
"","bandit","295","693542","0.0-256.0-0.0","79608217","wem/bandit_either_2","A39GADIK8RLMVC","either","6","276","","","","","","","0","0","1","","0.2975117226","0.4","0.2","0.8","0.6","0.2975117226","0.3348871659","0.1152906885","0.4764866221","","","","","","","","","","","","72","H","0","img/none_selected.jpg","","216","main_expt"
"","bandit","296","695357","0.0-257.0-0.0","79608217","wem/bandit_either_2","A39GADIK8RLMVC","either","6","261","","","","","","","0","1","0","","0.3331298207","0.4","0.2","0.8","0.6","0.3331298207","0.321293363","0.1191406027","0.4727866334","","","","","","","","","","","","72","H","0","img/none_selected.jpg","","217","main_expt"
"","bandit","297","697151","0.0-258.0-0.0","79608217","wem/bandit_either_2","A39GADIK8RLMVC","either","6","219","","","","","","","0","0","1","","0.2905667849","0.4","0.2","0.8","0.6","0.2905667849","0.3530973922","0.1177717736","0.4664653133","","","","","","","","","","","","72","H","0","img/none_selected.jpg","","218","main_expt"
"","bandit","298","698820","0.0-259.0-0.0","79608217","wem/bandit_either_2","A39GADIK8RLMVC","either","6","115","","","","","","","0","0","1","","0.2701708387","0.4","0.2","0.8","0.6","0.2701708387","0.3837093308","0.1178729669","0.4636837267","","","","","","","","","","","","72","H","0","img/none_selected.jpg","","219","main_expt"
"","bandit","299","700462","0.0-260.0-0.0","79608217","wem/bandit_either_2","A39GADIK8RLMVC","either","6","86","","","","","","","0","0","1","","0.2395453957","0.4","0.2","0.8","0.6","0.2395453957","0.3651541458","0.1284790336","0.4599900571","","","","","","","","","","","","72","H","0","img/none_selected.jpg","","220","main_expt"
"","bandit","300","702023","0.0-261.0-0.0","79608217","wem/bandit_either_2","A39GADIK8RLMVC","either","6","1","","","","","","","0","0","1","","0.254085412","0.4","0.2","0.8","0.6","0.2770622605","0.254085412","0.147465279","0.4490722186","","","","","","","","","","","","74","J","1","","","221","main_expt"
"","bandit","301","703655","0.0-262.0-0.0","79608217","wem/bandit_either_2","A39GADIK8RLMVC","either","6","70","","","","","","","0","1","0","","0.2590796483","0.4","0.2","0.8","0.6","0.3390746663","0.2590796483","0.1441925756","0.4253353094","","","","","","","","","","","","74","J","1","","","222","main_expt"
"","bandit","302","705478","0.0-263.0-0.0","79608217","wem/bandit_either_2","A39GADIK8RLMVC","either","6","266","","","","","","","0","0","1","","0.2640852941","0.4","0.2","0.8","0.6","0.384843876","0.2640852941","0.1731110736","0.4559825987","","","","","","","","","","","","74","J","1","","","223","main_expt"
"","bandit","303","707331","0.0-264.0-0.0","79608217","wem/bandit_either_2","A39GADIK8RLMVC","either","6","298","","","","","","","0","1","0","","0.2636590797","0.4","0.2","0.8","0.6","0.4367619307","0.2636590797","0.1124600034","0.464560515","","","","","","","","","","","","74","J","1","","","224","main_expt"
"","bandit","304","709134","0.0-265.0-0.0","79608217","wem/bandit_either_2","A39GADIK8RLMVC","either","6","239","","","","","","","0","1","0","","0.3110444069","0.4","0.2","0.8","0.6","0.42055701","0.3110444069","0.1174510337","0.4528378766","","","","","","","","","","","","74","J","1","","","225","main_expt"
"","bandit","305","710913","0.0-266.0-0.0","79608217","wem/bandit_either_2","A39GADIK8RLMVC","either","6","215","","","","","","","0","0","1","","0.3268768972","0.4","0.2","0.8","0.6","0.4282593698","0.3268768972","0.1494320736","0.4585160156","","","","","","","","","","","","74","J","1","","","226","main_expt"
"","bandit","306","712670","0.0-267.0-0.0","79608217","wem/bandit_either_2","A39GADIK8RLMVC","either","6","202","","","","","","","0","0","1","","0.3112991039","0.4","0.2","0.8","0.6","0.4213985596","0.3112991039","0.1655037845","0.4525914875","","","","","","","","","","","","74","J","1","","","227","main_expt"
"","bandit","307","714442","0.0-268.0-0.0","79608217","wem/bandit_either_2","A39GADIK8RLMVC","either","6","201","","","","","","","0","0","1","","0.3481066565","0.4","0.2","0.8","0.6","0.4115599459","0.3481066565","0.1595877114","0.4618810074","","","","","","","","","","","","74","J","1","","","228","main_expt"
"","bandit","308","716041","0.0-269.0-0.0","79608217","wem/bandit_either_2","A39GADIK8RLMVC","either","6","41","","","","","","","0","0","1","","0.375967734","0.4","0.2","0.8","0.6","0.375967734","0.3267856819","0.1811982871","0.4661541784","","","","","","","","","","","","72","H","0","img/none_selected.jpg","","229","main_expt"
"","bandit","309","717833","0.0-270.0-0.0","79608217","wem/bandit_either_2","A39GADIK8RLMVC","either","6","225","","","","","","","1","0","0","0.4172813036","","0.4","0.2","0.8","0.6","","","","","0.4172813036","0.3043034776","0.2088208598","0.4681373403","","","","","","","","72","H","0","img/none_selected.jpg","","230","main_expt"
"","bandit","310","719577","0.0-271.0-0.0","79608217","wem/bandit_either_2","A39GADIK8RLMVC","either","6","166","","","","","","","0","0","1","0.3871641603","","0.4","0.2","0.8","0.6","","","","","0.3871641603","0.3127123154","0.2062946352","0.4733838814","","","","","","","","72","H","0","img/none_selected.jpg","","231","main_expt"
"","bandit","311","721284","0.0-272.0-0.0","79608217","wem/bandit_either_2","A39GADIK8RLMVC","either","6","130","","","","","","","0","0","1","","0.3381606844","0.4","0.2","0.8","0.6","0.3381606844","0.3039198066","0.1448621505","0.455942125","","","","","","","","","","","","72","H","0","img/none_selected.jpg","","232","main_expt"
"","bandit","312","723121","0.0-273.0-0.0","79608217","wem/bandit_either_2","A39GADIK8RLMVC","either","6","265","","","","","","","0","0","1","0.2918198365","","0.4","0.2","0.8","0.6","","","","","0.2918198365","0.2846072758","0.1096360744","0.4523014459","","","","","","","","72","H","0","img/none_selected.jpg","","233","main_expt"
"","bandit","313","724865","0.0-274.0-0.0","79608217","wem/bandit_either_2","A39GADIK8RLMVC","either","6","143","","","","","","","1","0","0","0.4715877437","","0.4","0.2","0.8","0.6","","","","","0.3016980071","0.2430061478","0.1102272527","0.4715877437","","","","","","","","76","L","3","","","234","main_expt"
"","bandit","314","726566","0.0-275.0-0.0","79608217","wem/bandit_either_2","A39GADIK8RLMVC","either","6","156","","","","","","","0","1","0","","0.4667146267","0.4","0.2","0.8","0.6","0.2940059945","0.263037213","0.1428859574","0.4667146267","","","","","","","","","","","","76","L","3","","","235","main_expt"
"","bandit","315","728395","0.0-276.0-0.0","79608217","wem/bandit_either_2","A39GADIK8RLMVC","either","6","256","","","","","","","0","0","1","0.4638430617","","0.4","0.2","0.8","0.6","","","","","0.2926833733","0.2976510001","0.1659437887","0.4638430617","","","","","","","","76","L","3","","","236","main_expt"
"","bandit","316","730214","0.0-277.0-0.0","79608217","wem/bandit_either_2","A39GADIK8RLMVC","either","6","244","","","","","","","0","0","1","0.4584702359","","0.4","0.2","0.8","0.6","","","","","0.278351659","0.2789990486","0.1948695303","0.4584702359","","","","","","","","76","L","3","","","237","main_expt"
"","bandit","317","732046","0.0-278.0-0.0","79608217","wem/bandit_either_2","A39GADIK8RLMVC","either","6","254","","","","","","","0","0","1","0.4297714473","","0.4","0.2","0.8","0.6","","","","","0.2475781625","0.2760904485","0.2231382717","0.4297714473","","","","","","","","76","L","3","","","238","main_expt"
"","bandit","318","733603","0.0-279.0-0.0","79608217","wem/bandit_either_2","A39GADIK8RLMVC","either","6","1","","","","","","","0","0","1","","0.2679201555","0.4","0.2","0.8","0.6","0.2476463542","0.2679201555","0.2118273477","0.4225482751","","","","","","","","","","","","74","J","1","","","239","main_expt"
"","bandit","319","735487","0.0-280.0-0.0","79608217","wem/bandit_either_2","A39GADIK8RLMVC","either","6","323","","","","","","","0","0","1","","0.1815101208","0.4","0.2","0.8","0.6","0.2691810592","0.1815101208","0.175879666","0.3911766626","","","","","","","","","","","","74","J","1","","","240","main_expt"
"","bandit","320","737152","0.0-281.0-0.0","79608217","wem/bandit_either_2","A39GADIK8RLMVC","either","6","101","","","","","","","0","0","1","0.2107278188","","0.4","0.2","0.8","0.6","","","","","0.2600118225","0.2107278188","0.2619723004","0.3576719612","","","","","","","","74","J","1","","","241","main_expt"
"","bandit","321","738817","0.0-282.0-0.0","79608217","wem/bandit_either_2","A39GADIK8RLMVC","either","6","98","","","","","","","1","0","0","0.253357122","","0.4","0.2","0.8","0.6","","","","","0.2585740571","0.1890457695","0.253357122","0.3649942216","","","","","","","","75","K","2","","","242","main_expt"
"","bandit","322","740449","0.0-283.0-0.0","79608217","wem/bandit_either_2","A39GADIK8RLMVC","either","6","71","","","","","","","1","0","0","0.2937411872","","0.4","0.2","0.8","0.6","","","","","0.1943885749","0.1983598585","0.2937411872","0.3462843793","","","","","","","","75","K","2","","","243","main_expt"
"","bandit","323","742221","0.0-284.0-0.0","79608217","wem/bandit_either_2","A39GADIK8RLMVC","either","6","213","","","","","","","0","0","1","0.2743784529","","0.4","0.2","0.8","0.6","","","","","0.1861062248","0.2165838592","0.2743784529","0.3520149162","","","","","","","","75","K","2","","","244","main_expt"
"","bandit","324","744045","0.0-285.0-0.0","79608217","wem/bandit_either_2","A39GADIK8RLMVC","either","6","252","","","","","","","0","0","1","0.2734657034","","0.4","0.2","0.8","0.6","","","","","0.1398782291","0.1823109088","0.2734657034","0.3483485742","","","","","","","","75","K","2","","","245","main_expt"
"","bandit","325","745647","0.0-286.0-0.0","79608217","wem/bandit_either_2","A39GADIK8RLMVC","either","6","44","","","","","","","0","0","1","0.2285423815","","0.4","0.2","0.8","0.6","","","","","0.1392076576","0.172760958","0.2285423815","0.3814570076","","","","","","","","75","K","2","","","246","main_expt"
"","bandit","326","747338","0.0-287.0-0.0","79608217","wem/bandit_either_2","A39GADIK8RLMVC","either","6","92","","","","","","","0","0","1","0.2028121248","","0.4","0.2","0.8","0.6","","","","","0.2028121248","0.1955602127","0.269943793","0.3871035364","","","","","","","","72","H","0","img/none_selected.jpg","","247","main_expt"
"","bandit","327","748979","0.0-288.0-0.0","79608217","wem/bandit_either_2","A39GADIK8RLMVC","either","6","97","","","","","","","0","1","0","","0.2522392451","0.4","0.2","0.8","0.6","0.2522392451","0.1770790361","0.2974302923","0.3746835134","","","","","","","","","","","","72","H","0","img/none_selected.jpg","","248","main_expt"
