"consent","trial_type","trial_index","time_elapsed","internal_node_id","subjID","study","MID","cond","drift","rt","responses","key_press","expt_phase","like","value","connected","gems","bombs","no_reward","GemPrChosen","BombPrChosen","GainOverPainPr_0","GainOverPainPr_1","GainOverPainPr_2","GainOverPainPr_3","LosePr_0","LosePr_1","LosePr_2","LosePr_3","WinPr_0","WinPr_1","WinPr_2","WinPr_3","Q0","Q1","Q2","gender","age","ethnicity","target","respCharCode","respKey","respChoiceNum","respChoice","practice","trial_counter","trial_label"
"INL_behavioral_consent_30min_online.html","consent","0","32509","0.0-0.0","81210373","wem/bandit_either_2","A34L0OOVHMBN90","either","4","","","","","","","","","","","","","","","","","","","","","","","","","","","","","","","","","","","","","",""
"","survey-text","1","38176","0.0-1.0","81210373","wem/bandit_either_2","A34L0OOVHMBN90","either","4","4632","{""Q0"":""A34L0OOVHMBN90""}","","","","","","","","","","","","","","","","","","","","","","","","","","","","","","","","","","","",""
"","text","2","46166","0.0-2.0","81210373","wem/bandit_either_2","A34L0OOVHMBN90","either","4","6980","","32","","","","","","","","","","","","","","","","","","","","","","","","","","","","","","","","","","",""
"","text","3","75015","0.0-3.0","81210373","wem/bandit_either_2","A34L0OOVHMBN90","either","4","28844","","32","","","","","","","","","","","","","","","","","","","","","","","","","","","","","","","","","","",""
"","text","4","87159","0.0-4.0","81210373","wem/bandit_either_2","A34L0OOVHMBN90","either","4","12137","","32","","","","","","","","","","","","","","","","","","","","","","","","","","","","","","","","","","",""
"","text","5","117717","0.0-5.0","81210373","wem/bandit_either_2","A34L0OOVHMBN90","either","4","30549","","32","","","","","","","","","","","","","","","","","","","","","","","","","","","","","","","","","","",""
"","text","6","128924","0.0-6.0","81210373","wem/bandit_either_2","A34L0OOVHMBN90","either","4","11200","","32","","","","","","","","","","","","","","","","","","","","","","","","","","","","","","","","","","",""
"","text","7","133334","0.0-7.0","81210373","wem/bandit_either_2","A34L0OOVHMBN90","either","4","4405","","32","","","","","","","","","","","","","","","","","","","","","","","","","","","","","","","","","","",""
"","text","8","135333","0.0-8.0","81210373","wem/bandit_either_2","A34L0OOVHMBN90","either","4","1993","","32","","","","","","","","","","","","","","","","","","","","","","","","","","","","","","","","","","",""
"","identification","9","140498","0.0-9.0-0.0","81210373","wem/bandit_either_2","A34L0OOVHMBN90","either","4","5098","","","","3","3","3","","","","","","","","","","","","","","","","","","","","","","","","the village of Zur","","","","","","",""
"","identification","10","146648","0.0-9.0-1.0","81210373","wem/bandit_either_2","A34L0OOVHMBN90","either","4","5098","","","","0","0","0","","","","","","","","","","","","","","","","","","","","","","","","the village of Nyx","","","","","","",""
"","text","11","150288","0.0-10.0","81210373","wem/bandit_either_2","A34L0OOVHMBN90","either","4","2635","","32","","","","","","","","","","","","","","","","","","","","","","","","","","","","","","","","","","",""
"","text","12","151103","0.0-11.0","81210373","wem/bandit_either_2","A34L0OOVHMBN90","either","4","810","","32","","","","","","","","","","","","","","","","","","","","","","","","","","","","","","","","","","",""
"","text","13","152036","0.0-12.0","81210373","wem/bandit_either_2","A34L0OOVHMBN90","either","4","930","","32","","","","","","","","","","","","","","","","","","","","","","","","","","","","","","","","","","",""
"","text","14","156276","0.0-13.0","81210373","wem/bandit_either_2","A34L0OOVHMBN90","either","4","4237","","32","","","","","","","","","","","","","","","","","","","","","","","","","","","","","","","","","","",""
"","bandit","15","166103","0.0-14.0-0.0","81210373","wem/bandit_either_2","A34L0OOVHMBN90","either","4","8294","","","","","","","0","0","1","0","0","","","","","0","","","","0","","","","","","","","","","","74","J","0","img/none_selected_demo.jpg","true","0",""
"","bandit","16","172976","0.0-15.0-0.0","81210373","wem/bandit_either_2","A34L0OOVHMBN90","either","4","5356","","","","","","","0","0","1","0","0","","","","","0","","","","0","","","","","","","","","","","75","K","0","img/none_selected_demo.jpg","true","0",""
"","text","17","181973","0.0-16.0","81210373","wem/bandit_either_2","A34L0OOVHMBN90","either","4","8993","","32","","","","","","","","","","","","","","","","","","","","","","","","","","","","","","","","","","",""
"","text","18","202792","0.0-17.0","81210373","wem/bandit_either_2","A34L0OOVHMBN90","either","4","20813","","32","","","","","","","","","","","","","","","","","","","","","","","","","","","","","","","","","","",""
"","text","19","206582","0.0-18.0","81210373","wem/bandit_either_2","A34L0OOVHMBN90","either","4","3787","","32","","","","","","","","","","","","","","","","","","","","","","","","","","","","","","","","","","",""
"","text","20","208956","0.0-19.0","81210373","wem/bandit_either_2","A34L0OOVHMBN90","either","4","2369","","32","","","","","","","","","","","","","","","","","","","","","","","","","","","","","","","","","","",""
"","bandit","21","211666","0.0-20.0-0.0","81210373","wem/bandit_either_2","A34L0OOVHMBN90","either","4","1198","","","","","","","1","0","0","0.8","","0.5","0.5","","","","","","","0.8","0.2","","","","","","","","","","74","J","0","img/none_selected_demo.jpg","true","0","80_20_practice"
"","bandit","22","213713","0.0-20.0-1.0","81210373","wem/bandit_either_2","A34L0OOVHMBN90","either","4","534","","","","","","","0","0","1","","0.8","0.5","0.5","","","0.8","0.2","","","","","","","","","","","","","","74","J","0","img/none_selected_demo.jpg","true","0","80_20_practice"
"","bandit","23","216760","0.0-20.0-2.0","81210373","wem/bandit_either_2","A34L0OOVHMBN90","either","4","1529","","","","","","","0","0","1","0.8","","0.5","0.5","","","","","","","0.8","0.2","","","","","","","","","","74","J","0","img/none_selected_demo.jpg","true","0","80_20_practice"
"","bandit","24","220601","0.0-20.0-3.0","81210373","wem/bandit_either_2","A34L0OOVHMBN90","either","4","2327","","","","","","","0","1","0","","0.8","0.5","0.5","","","0.8","0.2","","","","","","","","","","","","","","74","J","0","img/none_selected_demo.jpg","true","0","80_20_practice"
"","bandit","25","223076","0.0-20.0-4.0","81210373","wem/bandit_either_2","A34L0OOVHMBN90","either","4","956","","","","","","","0","0","1","","0.2","0.5","0.5","","","0.8","0.2","","","","","","","","","","","","","","75","K","1","","true","0","80_20_practice"
"","bandit","26","224996","0.0-20.0-5.0","81210373","wem/bandit_either_2","A34L0OOVHMBN90","either","4","406","","","","","","","0","1","0","","0.2","0.5","0.5","","","0.8","0.2","","","","","","","","","","","","","","75","K","1","","true","0","80_20_practice"
"","bandit","27","227236","0.0-20.0-6.0","81210373","wem/bandit_either_2","A34L0OOVHMBN90","either","4","727","","","","","","","0","0","1","0.2","","0.5","0.5","","","","","","","0.8","0.2","","","","","","","","","","75","K","1","","true","0","80_20_practice"
"","bandit","28","228955","0.0-20.0-7.0","81210373","wem/bandit_either_2","A34L0OOVHMBN90","either","4","207","","","","","","","0","0","1","0.2","","0.5","0.5","","","","","","","0.8","0.2","","","","","","","","","","75","K","1","","true","0","80_20_practice"
"","bandit","29","230545","0.0-20.0-8.0","81210373","wem/bandit_either_2","A34L0OOVHMBN90","either","4","75","","","","","","","0","0","1","0.2","","0.5","0.5","","","","","","","0.8","0.2","","","","","","","","","","75","K","1","","true","0","80_20_practice"
"","bandit","30","233072","0.0-20.0-9.0","81210373","wem/bandit_either_2","A34L0OOVHMBN90","either","4","1004","","","","","","","0","0","1","0.2","","0.5","0.5","","","","","","","0.8","0.2","","","","","","","","","","75","K","1","","true","0","80_20_practice"
"","bandit","31","234837","0.0-20.0-10.0","81210373","wem/bandit_either_2","A34L0OOVHMBN90","either","4","218","","","","","","","0","0","1","0.2","","0.5","0.5","","","","","","","0.8","0.2","","","","","","","","","","75","K","1","","true","0","80_20_practice"
"","bandit","32","236532","0.0-20.0-11.0","81210373","wem/bandit_either_2","A34L0OOVHMBN90","either","4","180","","","","","","","0","0","1","0.2","","0.5","0.5","","","","","","","0.8","0.2","","","","","","","","","","75","K","1","","true","0","80_20_practice"
"","bandit","33","238113","0.0-20.0-12.0","81210373","wem/bandit_either_2","A34L0OOVHMBN90","either","4","65","","","","","","","1","0","0","0.2","","0.5","0.5","","","","","","","0.8","0.2","","","","","","","","","","75","K","1","","true","0","80_20_practice"
"","bandit","34","239895","0.0-20.0-13.0","81210373","wem/bandit_either_2","A34L0OOVHMBN90","either","4","267","","","","","","","0","1","0","","0.2","0.5","0.5","","","0.8","0.2","","","","","","","","","","","","","","75","K","1","","true","0","80_20_practice"
"","bandit","35","241830","0.0-20.0-14.0","81210373","wem/bandit_either_2","A34L0OOVHMBN90","either","4","416","","","","","","","1","0","0","0.8","","0.5","0.5","","","","","","","0.8","0.2","","","","","","","","","","74","J","0","img/none_selected_demo.jpg","true","0","80_20_practice"
"","bandit","36","243493","0.0-20.0-15.0","81210373","wem/bandit_either_2","A34L0OOVHMBN90","either","4","148","","","","","","","0","1","0","","0.8","0.5","0.5","","","0.8","0.2","","","","","","","","","","","","","","74","J","0","img/none_selected_demo.jpg","true","0","80_20_practice"
"","bandit","37","245383","0.0-20.0-16.0","81210373","wem/bandit_either_2","A34L0OOVHMBN90","either","4","375","","","","","","","1","0","0","0.8","","0.5","0.5","","","","","","","0.8","0.2","","","","","","","","","","74","J","0","img/none_selected_demo.jpg","true","0","80_20_practice"
"","bandit","38","247415","0.0-20.0-17.0","81210373","wem/bandit_either_2","A34L0OOVHMBN90","either","4","515","","","","","","","1","0","0","0.8","","0.5","0.5","","","","","","","0.8","0.2","","","","","","","","","","74","J","0","img/none_selected_demo.jpg","true","0","80_20_practice"
"","bandit","39","250502","0.0-20.0-18.0","81210373","wem/bandit_either_2","A34L0OOVHMBN90","either","4","1574","","","","","","","0","0","1","0.8","","0.5","0.5","","","","","","","0.8","0.2","","","","","","","","","","74","J","0","img/none_selected_demo.jpg","true","0","80_20_practice"
"","bandit","40","252470","0.0-20.0-19.0","81210373","wem/bandit_either_2","A34L0OOVHMBN90","either","4","455","","","","","","","1","0","0","0.8","","0.5","0.5","","","","","","","0.8","0.2","","","","","","","","","","74","J","0","img/none_selected_demo.jpg","true","0","80_20_practice"
"","text","41","256225","0.0-21.0","81210373","wem/bandit_either_2","A34L0OOVHMBN90","either","4","3749","","32","","","","","","","","","","","","","","","","","","","","","","","","","","","","","","","","","","",""
"","bandit","42","258979","0.0-22.0-0.0","81210373","wem/bandit_either_2","A34L0OOVHMBN90","either","4","1240","","","","","","","1","0","0","1","0","","","","","0","1","","","1","0","","","","","","","","","","74","J","0","img/none_selected_demo.jpg","true","0",""
"","text","43","276515","0.0-23.0","81210373","wem/bandit_either_2","A34L0OOVHMBN90","either","4","17528","","74","","","","","","","","","","","","","","","","","","","","","","","","","","","","","","","","","","",""
"","text","44","278818","0.0-24.0","81210373","wem/bandit_either_2","A34L0OOVHMBN90","either","4","2297","","32","","","","","","","","","","","","","","","","","","","","","","","","","","","","","","","","","","",""
"","text","45","280560","0.0-25.0","81210373","wem/bandit_either_2","A34L0OOVHMBN90","either","4","1732","","32","","","","","","","","","","","","","","","","","","","","","","","","","","","","","","","","","","",""
"","text","46","283118","0.0-26.0","81210373","wem/bandit_either_2","A34L0OOVHMBN90","either","4","2553","","32","","","","","","","","","","","","","","","","","","","","","","","","","","","","","","","","","","",""
"","text","47","286786","0.0-27.0","81210373","wem/bandit_either_2","A34L0OOVHMBN90","either","4","3663","","32","","","","","","","","","","","","","","","","","","","","","","","","","","","","","","","","","","",""
"","text","48","287982","0.0-28.0","81210373","wem/bandit_either_2","A34L0OOVHMBN90","either","4","1191","","32","","","","","","","","","","","","","","","","","","","","","","","","","","","","","","","","","","",""
"","text","49","289057","0.0-29.0","81210373","wem/bandit_either_2","A34L0OOVHMBN90","either","4","1069","","32","","","","","","","","","","","","","","","","","","","","","","","","","","","","","","","","","","",""
"","text","50","289730","0.0-30.0","81210373","wem/bandit_either_2","A34L0OOVHMBN90","either","4","668","","32","","","","","","","","","","","","","","","","","","","","","","","","","","","","","","","","","","",""
"","text","51","297032","0.0-31.0","81210373","wem/bandit_either_2","A34L0OOVHMBN90","either","4","7297","","32","","","","","","","","","","","","","","","","","","","","","","","","","","","","","","","","","","",""
"","text","52","297923","0.0-32.0","81210373","wem/bandit_either_2","A34L0OOVHMBN90","either","4","882","","32","","","","","","","","","","","","","","","","","","","","","","","","","","","","","","","","","","",""
"","text","53","299145","0.0-33.0","81210373","wem/bandit_either_2","A34L0OOVHMBN90","either","4","1216","","32","","","","","","","","","","","","","","","","","","","","","","","","","","","","","","","","","","",""
"","bandit","54","304001","0.0-34.0-0.0","81210373","wem/bandit_either_2","A34L0OOVHMBN90","either","4","3339","","","","","","","1","0","0","0.8","","0.5","0.5","0.5","0.5","","","","","0.8","0.2","0.6","0.2","","","","","","","","72","H","0","img/none_selected.jpg","true","0","full_practice"
"","bandit","55","305961","0.0-34.0-1.0","81210373","wem/bandit_either_2","A34L0OOVHMBN90","either","4","440","","","","","","","0","1","0","","0.8","0.5","0.5","0.5","0.5","0.8","0.2","0.6","0.2","","","","","","","","","","","","72","H","0","img/none_selected.jpg","true","0","full_practice"
"","bandit","56","307829","0.0-34.0-2.0","81210373","wem/bandit_either_2","A34L0OOVHMBN90","either","4","352","","","","","","","1","0","0","0.8","","0.5","0.5","0.5","0.5","","","","","0.8","0.2","0.6","0.2","","","","","","","","72","H","0","img/none_selected.jpg","true","0","full_practice"
"","bandit","57","310277","0.0-34.0-3.0","81210373","wem/bandit_either_2","A34L0OOVHMBN90","either","4","927","","","","","","","1","0","0","0.8","","0.5","0.5","0.5","0.5","","","","","0.8","0.2","0.6","0.2","","","","","","","","72","H","0","img/none_selected.jpg","true","0","full_practice"
"","bandit","58","312199","0.0-34.0-4.0","81210373","wem/bandit_either_2","A34L0OOVHMBN90","either","4","405","","","","","","","0","0","1","","0.8","0.5","0.5","0.5","0.5","0.8","0.2","0.6","0.2","","","","","","","","","","","","72","H","0","img/none_selected.jpg","true","0","full_practice"
"","bandit","59","313776","0.0-34.0-5.0","81210373","wem/bandit_either_2","A34L0OOVHMBN90","either","4","63","","","","","","","0","1","0","","0.8","0.5","0.5","0.5","0.5","0.8","0.2","0.6","0.2","","","","","","","","","","","","72","H","0","img/none_selected.jpg","true","0","full_practice"
"","bandit","60","315456","0.0-34.0-6.0","81210373","wem/bandit_either_2","A34L0OOVHMBN90","either","4","163","","","","","","","1","0","0","0.8","","0.5","0.5","0.5","0.5","","","","","0.8","0.2","0.6","0.2","","","","","","","","72","H","0","img/none_selected.jpg","true","0","full_practice"
"","bandit","61","317172","0.0-34.0-7.0","81210373","wem/bandit_either_2","A34L0OOVHMBN90","either","4","197","","","","","","","1","0","0","0.8","","0.5","0.5","0.5","0.5","","","","","0.8","0.2","0.6","0.2","","","","","","","","72","H","0","img/none_selected.jpg","true","0","full_practice"
"","bandit","62","318705","0.0-34.0-8.0","81210373","wem/bandit_either_2","A34L0OOVHMBN90","either","4","16","","","","","","","0","0","1","0.8","","0.5","0.5","0.5","0.5","","","","","0.8","0.2","0.6","0.2","","","","","","","","72","H","0","img/none_selected.jpg","true","0","full_practice"
"","bandit","63","321387","0.0-34.0-9.0","81210373","wem/bandit_either_2","A34L0OOVHMBN90","either","4","1163","","","","","","","0","0","1","","0.2","0.5","0.5","0.5","0.5","0.8","0.2","0.6","0.2","","","","","","","","","","","","74","J","1","","true","0","full_practice"
"","bandit","64","323042","0.0-34.0-10.0","81210373","wem/bandit_either_2","A34L0OOVHMBN90","either","4","137","","","","","","","0","0","1","","0.2","0.5","0.5","0.5","0.5","0.8","0.2","0.6","0.2","","","","","","","","","","","","74","J","1","","true","0","full_practice"
"","bandit","65","324752","0.0-34.0-11.0","81210373","wem/bandit_either_2","A34L0OOVHMBN90","either","4","188","","","","","","","0","0","1","0.2","","0.5","0.5","0.5","0.5","","","","","0.8","0.2","0.6","0.2","","","","","","","","74","J","1","","true","0","full_practice"
"","bandit","66","326320","0.0-34.0-12.0","81210373","wem/bandit_either_2","A34L0OOVHMBN90","either","4","51","","","","","","","0","0","1","","0.2","0.5","0.5","0.5","0.5","0.8","0.2","0.6","0.2","","","","","","","","","","","","74","J","1","","true","0","full_practice"
"","bandit","67","327922","0.0-34.0-13.0","81210373","wem/bandit_either_2","A34L0OOVHMBN90","either","4","87","","","","","","","0","0","1","","0.2","0.5","0.5","0.5","0.5","0.8","0.2","0.6","0.2","","","","","","","","","","","","74","J","1","","true","0","full_practice"
"","bandit","68","329675","0.0-34.0-14.0","81210373","wem/bandit_either_2","A34L0OOVHMBN90","either","4","237","","","","","","","0","0","1","0.2","","0.5","0.5","0.5","0.5","","","","","0.8","0.2","0.6","0.2","","","","","","","","74","J","1","","true","0","full_practice"
"","bandit","69","331431","0.0-34.0-15.0","81210373","wem/bandit_either_2","A34L0OOVHMBN90","either","4","231","","","","","","","0","0","1","","0.2","0.5","0.5","0.5","0.5","0.8","0.2","0.6","0.2","","","","","","","","","","","","74","J","1","","true","0","full_practice"
"","bandit","70","333269","0.0-34.0-16.0","81210373","wem/bandit_either_2","A34L0OOVHMBN90","either","4","312","","","","","","","0","0","1","","0.6","0.5","0.5","0.5","0.5","0.8","0.2","0.6","0.2","","","","","","","","","","","","75","K","2","","true","0","full_practice"
"","bandit","71","334903","0.0-34.0-17.0","81210373","wem/bandit_either_2","A34L0OOVHMBN90","either","4","110","","","","","","","0","0","1","","0.6","0.5","0.5","0.5","0.5","0.8","0.2","0.6","0.2","","","","","","","","","","","","75","K","2","","true","0","full_practice"
"","bandit","72","336710","0.0-34.0-18.0","81210373","wem/bandit_either_2","A34L0OOVHMBN90","either","4","293","","","","","","","0","0","1","","0.6","0.5","0.5","0.5","0.5","0.8","0.2","0.6","0.2","","","","","","","","","","","","75","K","2","","true","0","full_practice"
"","bandit","73","338557","0.0-34.0-19.0","81210373","wem/bandit_either_2","A34L0OOVHMBN90","either","4","332","","","","","","","0","1","0","","0.6","0.5","0.5","0.5","0.5","0.8","0.2","0.6","0.2","","","","","","","","","","","","75","K","2","","true","0","full_practice"
"","text","74","340172","0.0-35.0","81210373","wem/bandit_either_2","A34L0OOVHMBN90","either","4","1594","","32","","","","","","","","","","","","","","","","","","","","","","","","","","","","","","","","","","",""
"","text","75","348324","0.0-36.0","81210373","wem/bandit_either_2","A34L0OOVHMBN90","either","4","7145","","32","","","","","","","","","","","","","","","","","","","","","","","","","","","","","","","","","","",""
"","text","76","351305","0.0-37.0","81210373","wem/bandit_either_2","A34L0OOVHMBN90","either","4","2974","","32","","","","","","","","","","","","","","","","","","","","","","","","","","","","","","","","","","",""
"","text","77","353258","0.0-38.0","81210373","wem/bandit_either_2","A34L0OOVHMBN90","either","4","1945","","32","","","","","","","","","","","","","","","","","","","","","","","","","","","","","","","","","","",""
"","text","78","357258","0.0-39.0","81210373","wem/bandit_either_2","A34L0OOVHMBN90","either","4","3994","","32","","","","","","","","","","","","","","","","","","","","","","","","","","","","","","","","","","",""
"","text","79","358296","0.0-40.0","81210373","wem/bandit_either_2","A34L0OOVHMBN90","either","4","1031","","32","","","","","","","","","","","","","","","","","","","","","","","","","","","","","","","","","","",""
"","bandit","80","361789","0.0-41.0-0.0","81210373","wem/bandit_either_2","A34L0OOVHMBN90","either","4","1969","","","","","","","1","0","0","0.3894728165","","0.2","0.8","0.4","0.6","","","","","0.3894728165","0.3242650943","0.3525715257","0.2771551185","","","","","","","","72","H","0","img/none_selected.jpg","","1","main_expt"
"","bandit","81","363979","0.0-42.0-0.0","81210373","wem/bandit_either_2","A34L0OOVHMBN90","either","4","676","","","","","","","0","1","0","","0.363660736","0.2","0.8","0.4","0.6","0.363660736","0.3296228245","0.390153736","0.3030893157","","","","","","","","","","","","72","H","0","img/none_selected.jpg","","2","main_expt"
"","bandit","82","366625","0.0-43.0-0.0","81210373","wem/bandit_either_2","A34L0OOVHMBN90","either","4","1127","","","","","","","0","1","0","","0.3842171554","0.2","0.8","0.4","0.6","0.3842171554","0.3102780753","0.3725447061","0.3211059343","","","","","","","","","","","","72","H","0","img/none_selected.jpg","","3","main_expt"
"","bandit","83","368541","0.0-44.0-0.0","81210373","wem/bandit_either_2","A34L0OOVHMBN90","either","4","403","","","","","","","0","0","1","","0.3831963053","0.2","0.8","0.4","0.6","0.3831963053","0.2749892112","0.3431524481","0.2804386453","","","","","","","","","","","","72","H","0","img/none_selected.jpg","","4","main_expt"
"","bandit","84","370210","0.0-45.0-0.0","81210373","wem/bandit_either_2","A34L0OOVHMBN90","either","4","156","","","","","","","0","0","1","","0.4056596471","0.2","0.8","0.4","0.6","0.4056596471","0.3037824898","0.3448007793","0.2609559086","","","","","","","","","","","","72","H","0","img/none_selected.jpg","","5","main_expt"
"","bandit","85","372033","0.0-46.0-0.0","81210373","wem/bandit_either_2","A34L0OOVHMBN90","either","4","299","","","","","","","0","1","0","","0.4409946319","0.2","0.8","0.4","0.6","0.4409946319","0.3217417103","0.3980888019","0.2259287768","","","","","","","","","","","","72","H","0","img/none_selected.jpg","","6","main_expt"
"","bandit","86","373946","0.0-47.0-0.0","81210373","wem/bandit_either_2","A34L0OOVHMBN90","either","4","398","","","","","","","0","0","1","0.3018715163","","0.2","0.8","0.4","0.6","","","","","0.3821747998","0.3018715163","0.3693121862","0.2433618728","","","","","","","","74","J","1","","","7","main_expt"
"","bandit","87","375912","0.0-48.0-0.0","81210373","wem/bandit_either_2","A34L0OOVHMBN90","either","4","449","","","","","","","1","0","0","0.3643645816","","0.2","0.8","0.4","0.6","","","","","0.3841844813","0.3643645816","0.2933697555","0.2025356769","","","","","","","","74","J","1","","","8","main_expt"
"","bandit","88","377886","0.0-49.0-0.0","81210373","wem/bandit_either_2","A34L0OOVHMBN90","either","4","448","","","","","","","0","1","0","","0.3418610374","0.2","0.8","0.4","0.6","0.3412237964","0.3418610374","0.3036212831","0.1441028094","","","","","","","","","","","","74","J","1","","","9","main_expt"
"","bandit","89","379819","0.0-50.0-0.0","81210373","wem/bandit_either_2","A34L0OOVHMBN90","either","4","413","","","","","","","1","0","0","0.3190157878","","0.2","0.8","0.4","0.6","","","","","0.3256420777","0.3190157878","0.308020301","0.1736005971","","","","","","","","74","J","1","","","10","main_expt"
"","bandit","90","381519","0.0-51.0-0.0","81210373","wem/bandit_either_2","A34L0OOVHMBN90","either","4","165","","","","","","","1","0","0","0.2998731478","","0.2","0.8","0.4","0.6","","","","","0.3514007431","0.2998731478","0.3065973113","0.1836365694","","","","","","","","74","J","1","","","11","main_expt"
"","bandit","91","383081","0.0-52.0-0.0","81210373","wem/bandit_either_2","A34L0OOVHMBN90","either","4","43","","","","","","","1","0","0","0.2942822571","","0.2","0.8","0.4","0.6","","","","","0.3722032088","0.2942822571","0.3271859636","0.2143869662","","","","","","","","74","J","1","","","12","main_expt"
"","bandit","92","384848","0.0-53.0-0.0","81210373","wem/bandit_either_2","A34L0OOVHMBN90","either","4","252","","","","","","","0","0","1","","0.3009212619","0.2","0.8","0.4","0.6","0.3681707299","0.3009212619","0.2761076709","0.1637139448","","","","","","","","","","","","74","J","1","","","13","main_expt"
"","bandit","93","386481","0.0-54.0-0.0","81210373","wem/bandit_either_2","A34L0OOVHMBN90","either","4","116","","","","","","","0","0","1","","0.3227424667","0.2","0.8","0.4","0.6","0.3528222564","0.3227424667","0.2311164494","0.1488535162","","","","","","","","","","","","74","J","1","","","14","main_expt"
"","bandit","94","388304","0.0-55.0-0.0","81210373","wem/bandit_either_2","A34L0OOVHMBN90","either","4","298","","","","","","","0","0","1","","0.2905977425","0.2","0.8","0.4","0.6","0.3738838661","0.3547546862","0.2905977425","0.1332411271","","","","","","","","","","","","75","K","2","","","15","main_expt"
"","bandit","95","390217","0.0-56.0-0.0","81210373","wem/bandit_either_2","A34L0OOVHMBN90","either","4","396","","","","","","","0","0","1","","0.2924554969","0.2","0.8","0.4","0.6","0.3385239332","0.3241157583","0.2924554969","0.09882415698","","","","","","","","","","","","75","K","2","","","16","main_expt"
"","bandit","96","392397","0.0-57.0-0.0","81210373","wem/bandit_either_2","A34L0OOVHMBN90","either","4","657","","","","","","","0","0","1","","0.3114836302","0.2","0.8","0.4","0.6","0.3111355138","0.3363410386","0.3114836302","0.1069157009","","","","","","","","","","","","75","K","2","","","17","main_expt"
"","bandit","97","394048","0.0-58.0-0.0","81210373","wem/bandit_either_2","A34L0OOVHMBN90","either","4","107","","","","","","","0","0","1","0.3215333475","","0.2","0.8","0.4","0.6","","","","","0.3487767647","0.3880947854","0.3215333475","0.134958137","","","","","","","","75","K","2","","","18","main_expt"
"","bandit","98","395942","0.0-59.0-0.0","81210373","wem/bandit_either_2","A34L0OOVHMBN90","either","4","378","","","","","","","0","0","1","0.2733398822","","0.2","0.8","0.4","0.6","","","","","0.3010303499","0.4116912081","0.2733398822","0.1230418706","","","","","","","","75","K","2","","","19","main_expt"
"","bandit","99","397909","0.0-60.0-0.0","81210373","wem/bandit_either_2","A34L0OOVHMBN90","either","4","448","","","","","","","0","0","1","","0.2351410235","0.2","0.8","0.4","0.6","0.2907203997","0.3973894305","0.2351410235","0.09866604889","","","","","","","","","","","","75","K","2","","","20","main_expt"
"","bandit","100","399884","0.0-61.0-0.0","81210373","wem/bandit_either_2","A34L0OOVHMBN90","either","4","455","","","","","","","0","0","1","","0.2257810982","0.2","0.8","0.4","0.6","0.3088108907","0.369037109","0.2257810982","0.1021222834","","","","","","","","","","","","75","K","2","","","21","main_expt"
"","bandit","101","402351","0.0-62.0-0.0","81210373","wem/bandit_either_2","A34L0OOVHMBN90","either","4","949","","","","","","","0","0","1","0.2221856846","","0.2","0.8","0.4","0.6","","","","","0.349202701","0.4179468344","0.2221856846","0.1234138809","","","","","","","","75","K","2","","","22","main_expt"
"","bandit","102","404375","0.0-63.0-0.0","81210373","wem/bandit_either_2","A34L0OOVHMBN90","either","4","508","","","","","","","0","0","1","","0.2127124712","0.2","0.8","0.4","0.6","0.3785068464","0.4276062926","0.2127124712","0.1030640584","","","","","","","","","","","","75","K","2","","","23","main_expt"
"","bandit","103","406021","0.0-64.0-0.0","81210373","wem/bandit_either_2","A34L0OOVHMBN90","either","4","121","","","","","","","0","0","1","","0.1882566648","0.2","0.8","0.4","0.6","0.4012919653","0.4078122208","0.1882566648","0.1261035851","","","","","","","","","","","","75","K","2","","","24","main_expt"
"","bandit","104","408879","0.0-65.0-0.0","81210373","wem/bandit_either_2","A34L0OOVHMBN90","either","4","1321","","","","","","","0","0","1","0.1273223766","","0.2","0.8","0.4","0.6","","","","","0.400899794","0.3950411191","0.1273223766","0.1796705612","","","","","","","","75","K","2","","","25","main_expt"
"","bandit","105","410763","0.0-66.0-0.0","81210373","wem/bandit_either_2","A34L0OOVHMBN90","either","4","367","","","","","","","0","0","1","","0.15747458","0.2","0.8","0.4","0.6","0.4126274585","0.4322303329","0.15747458","0.2414651519","","","","","","","","","","","","75","K","2","","","26","main_expt"
"","bandit","106","412877","0.0-67.0-0.0","81210373","wem/bandit_either_2","A34L0OOVHMBN90","either","4","596","","","","","","","0","1","0","","0.1442684908","0.2","0.8","0.4","0.6","0.3992263875","0.4353643722","0.1442684908","0.2005374927","","","","","","","","","","","","75","K","2","","","27","main_expt"
"","bandit","107","414718","0.0-68.0-0.0","81210373","wem/bandit_either_2","A34L0OOVHMBN90","either","4","324","","","","","","","0","0","1","0.4464017809","","0.2","0.8","0.4","0.6","","","","","0.3846584236","0.4464017809","0.2255404594","0.3197257227","","","","","","","","74","J","1","","","28","main_expt"
"","bandit","108","416578","0.0-69.0-0.0","81210373","wem/bandit_either_2","A34L0OOVHMBN90","either","4","340","","","","","","","1","0","0","0.4417109462","","0.2","0.8","0.4","0.6","","","","","0.3561298134","0.4417109462","0.2730951691","0.3141869899","","","","","","","","74","J","1","","","29","main_expt"
"","bandit","109","418117","0.0-70.0-0.0","81210373","wem/bandit_either_2","A34L0OOVHMBN90","either","4","16","","","","","","","0","1","0","","0.4065908859","0.2","0.8","0.4","0.6","0.3101363315","0.4065908859","0.2890412698","0.3445991012","","","","","","","","","","","","74","J","1","","","30","main_expt"
"","bandit","110","419741","0.0-71.0-0.0","81210373","wem/bandit_either_2","A34L0OOVHMBN90","either","4","109","","","","","","","0","0","1","0.3954582793","","0.2","0.8","0.4","0.6","","","","","0.3322219809","0.3954582793","0.3309226042","0.3456655029","","","","","","","","74","J","1","","","31","main_expt"
"","bandit","111","421390","0.0-72.0-0.0","81210373","wem/bandit_either_2","A34L0OOVHMBN90","either","4","133","","","","","","","0","0","1","","0.3716723047","0.2","0.8","0.4","0.6","0.3516269472","0.3716723047","0.3519301717","0.3826172224","","","","","","","","","","","","74","J","1","","","32","main_expt"
"","bandit","112","423395","0.0-73.0-0.0","81210373","wem/bandit_either_2","A34L0OOVHMBN90","either","4","486","","","","","","","1","0","0","0.3799724366","","0.2","0.8","0.4","0.6","","","","","0.3852085553","0.3799724366","0.3414953842","0.3804083149","","","","","","","","74","J","1","","","33","main_expt"
"","bandit","113","425377","0.0-74.0-0.0","81210373","wem/bandit_either_2","A34L0OOVHMBN90","either","4","457","","","","","","","1","0","0","0.409480615","","0.2","0.8","0.4","0.6","","","","","0.4196644934","0.409480615","0.2938412915","0.3808178469","","","","","","","","74","J","1","","","34","main_expt"
"","bandit","114","428175","0.0-75.0-0.0","81210373","wem/bandit_either_2","A34L0OOVHMBN90","either","4","1283","","","","","","","0","0","1","0.3869649509","","0.2","0.8","0.4","0.6","","","","","0.420891004","0.3869649509","0.2256616696","0.376129724","","","","","","","","74","J","1","","","35","main_expt"
"","bandit","115","430026","0.0-76.0-0.0","81210373","wem/bandit_either_2","A34L0OOVHMBN90","either","4","332","","","","","","","0","0","1","0.3045389962","","0.2","0.8","0.4","0.6","","","","","0.3808881167","0.3045389962","0.2525957923","0.4027809904","","","","","","","","74","J","1","","","36","main_expt"
"","bandit","116","431728","0.0-77.0-0.0","81210373","wem/bandit_either_2","A34L0OOVHMBN90","either","4","185","","","","","","","0","0","1","0.2954217214","","0.2","0.8","0.4","0.6","","","","","0.3634360393","0.2954217214","0.2333373749","0.3715556026","","","","","","","","74","J","1","","","37","main_expt"
"","bandit","117","433422","0.0-78.0-0.0","81210373","wem/bandit_either_2","A34L0OOVHMBN90","either","4","168","","","","","","","0","0","1","0.2749906923","","0.2","0.8","0.4","0.6","","","","","0.3432691328","0.2749906923","0.2126884676","0.354842885","","","","","","","","74","J","1","","","38","main_expt"
"","bandit","118","434949","0.0-79.0-0.0","81210373","wem/bandit_either_2","A34L0OOVHMBN90","either","4","5","","","","","","","0","0","1","0.2911873598","","0.2","0.8","0.4","0.6","","","","","0.3113322025","0.2911873598","0.212498526","0.3066825603","","","","","","","","74","J","1","","","39","main_expt"
"","bandit","119","437047","0.0-80.0-0.0","81210373","wem/bandit_either_2","A34L0OOVHMBN90","either","4","574","","","","","","","1","0","0","0.3066149412","","0.2","0.8","0.4","0.6","","","","","0.3298138996","0.3066149412","0.2031275136","0.3208648015","","","","","","","","74","J","1","","","40","main_expt"
"","bandit","120","438984","0.0-81.0-0.0","81210373","wem/bandit_either_2","A34L0OOVHMBN90","either","4","420","","","","","","","0","0","1","0.2612722093","","0.2","0.8","0.4","0.6","","","","","0.3590557929","0.2612722093","0.2409224204","0.2774570704","","","","","","","","74","J","1","","","41","main_expt"
"","bandit","121","440712","0.0-82.0-0.0","81210373","wem/bandit_either_2","A34L0OOVHMBN90","either","4","210","","","","","","","0","0","1","","0.2579482203","0.2","0.8","0.4","0.6","0.3455434044","0.2579482203","0.2166695961","0.3092882543","","","","","","","","","","","","74","J","1","","","42","main_expt"
"","bandit","122","442274","0.0-83.0-0.0","81210373","wem/bandit_either_2","A34L0OOVHMBN90","either","4","35","","","","","","","1","0","0","0.2232302517","","0.2","0.8","0.4","0.6","","","","","0.4020043176","0.2232302517","0.2314197793","0.3161251671","","","","","","","","74","J","1","","","43","main_expt"
"","bandit","123","444179","0.0-84.0-0.0","81210373","wem/bandit_either_2","A34L0OOVHMBN90","either","4","371","","","","","","","0","0","1","","0.2435669349","0.2","0.8","0.4","0.6","0.4088695108","0.2435669349","0.1889371852","0.3032549762","","","","","","","","","","","","74","J","1","","","44","main_expt"
"","bandit","124","446827","0.0-85.0-0.0","81210373","wem/bandit_either_2","A34L0OOVHMBN90","either","4","1112","","","","","","","0","0","1","0.1885724617","","0.2","0.8","0.4","0.6","","","","","0.3914045207","0.1885724617","0.2152104473","0.3012359134","","","","","","","","74","J","1","","","45","main_expt"
"","bandit","125","449850","0.0-86.0-0.0","81210373","wem/bandit_either_2","A34L0OOVHMBN90","either","4","1506","","","","","","","0","0","1","0.104230756","","0.2","0.8","0.4","0.6","","","","","0.3682142312","0.104230756","0.2260726972","0.2994346937","","","","","","","","74","J","1","","","46","main_expt"
"","bandit","126","451794","0.0-87.0-0.0","81210373","wem/bandit_either_2","A34L0OOVHMBN90","either","4","393","","","","","","","0","0","1","0.09013225529","","0.2","0.8","0.4","0.6","","","","","0.3462276735","0.09013225529","0.2330399618","0.3169549043","","","","","","","","74","J","1","","","47","main_expt"
"","bandit","127","453382","0.0-88.0-0.0","81210373","wem/bandit_either_2","A34L0OOVHMBN90","either","4","71","","","","","","","0","0","1","0.1066227192","","0.2","0.8","0.4","0.6","","","","","0.3501405617","0.1066227192","0.2769685944","0.3137179834","","","","","","","","74","J","1","","","48","main_expt"
"","bandit","128","455205","0.0-89.0-0.0","81210373","wem/bandit_either_2","A34L0OOVHMBN90","either","4","302","","","","","","","0","0","1","0.1273062614","","0.2","0.8","0.4","0.6","","","","","0.3607669766","0.1273062614","0.2954986192","0.3026837323","","","","","","","","74","J","1","","","49","main_expt"
"","bandit","129","456858","0.0-90.0-0.0","81210373","wem/bandit_either_2","A34L0OOVHMBN90","either","4","132","","","","","","","0","0","1","","0.08158159543","0.2","0.8","0.4","0.6","0.3776327681","0.08158159543","0.2730110453","0.2690248343","","","","","","","","","","","","74","J","1","","","50","main_expt"
"","bandit","130","458592","0.0-91.0-0.0","81210373","wem/bandit_either_2","A34L0OOVHMBN90","either","4","211","","","","","","","0","0","1","","0.08035098666","0.2","0.8","0.4","0.6","0.3922012959","0.08035098666","0.2672659715","0.2407215714","","","","","","","","","","","","74","J","1","","","51","main_expt"
"","bandit","131","460380","0.0-92.0-0.0","81210373","wem/bandit_either_2","A34L0OOVHMBN90","either","4","266","","","","","","","0","0","1","0.1007468434","","0.2","0.8","0.4","0.6","","","","","0.3532085343","0.1007468434","0.2552972095","0.2758158767","","","","","","","","74","J","1","","","52","main_expt"
"","bandit","132","462126","0.0-93.0-0.0","81210373","wem/bandit_either_2","A34L0OOVHMBN90","either","4","228","","","","","","","0","0","1","0.3597378762","","0.2","0.8","0.4","0.6","","","","","0.3597378762","0.1479770317","0.1954439593","0.2661511239","","","","","","","","72","H","0","img/none_selected.jpg","","53","main_expt"
"","bandit","133","464017","0.0-94.0-0.0","81210373","wem/bandit_either_2","A34L0OOVHMBN90","either","4","372","","","","","","","0","0","1","0.3553644404","","0.2","0.8","0.4","0.6","","","","","0.3553644404","0.1450389045","0.1250298759","0.250303373","","","","","","","","72","H","0","img/none_selected.jpg","","54","main_expt"
"","bandit","134","465573","0.0-95.0-0.0","81210373","wem/bandit_either_2","A34L0OOVHMBN90","either","4","26","","","","","","","0","0","1","","0.3427354451","0.2","0.8","0.4","0.6","0.3427354451","0.1678096349","0.1224949652","0.1850572083","","","","","","","","","","","","72","H","0","img/none_selected.jpg","","55","main_expt"
"","bandit","135","467220","0.0-96.0-0.0","81210373","wem/bandit_either_2","A34L0OOVHMBN90","either","4","123","","","","","","","0","0","1","","0.3158877586","0.2","0.8","0.4","0.6","0.3158877586","0.1748395718","0.1312048923","0.2410157884","","","","","","","","","","","","72","H","0","img/none_selected.jpg","","56","main_expt"
"","bandit","136","469001","0.0-97.0-0.0","81210373","wem/bandit_either_2","A34L0OOVHMBN90","either","4","259","","","","","","","1","0","0","0.3224611445","","0.2","0.8","0.4","0.6","","","","","0.3224611445","0.146986137","0.14452077","0.2657224069","","","","","","","","72","H","0","img/none_selected.jpg","","57","main_expt"
"","bandit","137","470561","0.0-98.0-0.0","81210373","wem/bandit_either_2","A34L0OOVHMBN90","either","4","38","","","","","","","0","1","0","","0.3378672788","0.2","0.8","0.4","0.6","0.3378672788","0.1316135006","0.1198415177","0.2361308133","","","","","","","","","","","","72","H","0","img/none_selected.jpg","","58","main_expt"
"","bandit","138","472499","0.0-99.0-0.0","81210373","wem/bandit_either_2","A34L0OOVHMBN90","either","4","421","","","","","","","0","0","1","","0.3438075972","0.2","0.8","0.4","0.6","0.3438075972","0.1776120447","0.1674914914","0.2078360154","","","","","","","","","","","","72","H","0","img/none_selected.jpg","","59","main_expt"
"","bandit","139","474156","0.0-100.0-0.0","81210373","wem/bandit_either_2","A34L0OOVHMBN90","either","4","131","","","","","","","0","0","1","0.2034864675","","0.2","0.8","0.4","0.6","","","","","0.2950987239","0.2034864675","0.147959707","0.2256957235","","","","","","","","74","J","1","","","60","main_expt"
"","bandit","140","475724","0.0-101.0-0.0","81210373","wem/bandit_either_2","A34L0OOVHMBN90","either","4","44","","","","","","","0","0","1","0.1325668513","","0.2","0.8","0.4","0.6","","","","","0.2939622289","0.1325668513","0.1217284172","0.2713547376","","","","","","","","74","J","1","","","61","main_expt"
"","bandit","141","477445","0.0-102.0-0.0","81210373","wem/bandit_either_2","A34L0OOVHMBN90","either","4","203","","","","","","","0","0","1","","0.125492747","0.2","0.8","0.4","0.6","0.2907096119","0.125492747","0.1392905859","0.2800078023","","","","","","","","","","","","74","J","1","","","62","main_expt"
"","bandit","142","479179","0.0-103.0-0.0","81210373","wem/bandit_either_2","A34L0OOVHMBN90","either","4","208","","","","","","","1","0","0","0.1081989139","","0.2","0.8","0.4","0.6","","","","","0.2696382907","0.1081989139","0.1953314019","0.362183352","","","","","","","","74","J","1","","","63","main_expt"
"","bandit","143","480719","0.0-104.0-0.0","81210373","wem/bandit_either_2","A34L0OOVHMBN90","either","4","21","","","","","","","0","0","1","0.09104284411","","0.2","0.8","0.4","0.6","","","","","0.2496415039","0.09104284411","0.2618523415","0.3354395381","","","","","","","","74","J","1","","","64","main_expt"
"","bandit","144","482903","0.0-105.0-0.0","81210373","wem/bandit_either_2","A34L0OOVHMBN90","either","4","661","","","","","","","0","0","1","0.1264903162","","0.2","0.8","0.4","0.6","","","","","0.2364994079","0.1264903162","0.2686672798","0.2893845237","","","","","","","","74","J","1","","","65","main_expt"
"","bandit","145","485109","0.0-106.0-0.0","81210373","wem/bandit_either_2","A34L0OOVHMBN90","either","4","687","","","","","","","0","0","1","0.1665937301","","0.2","0.8","0.4","0.6","","","","","0.2541683514","0.1665937301","0.2451656397","0.2355717356","","","","","","","","74","J","1","","","66","main_expt"
"","bandit","146","488819","0.0-107.0-0.0","81210373","wem/bandit_either_2","A34L0OOVHMBN90","either","4","2186","","","","","","","0","0","1","","0.1740025863","0.2","0.8","0.4","0.6","0.2985471382","0.1740025863","0.2445320338","0.2848755716","","","","","","","","","","","","74","J","1","","","67","main_expt"
"","bandit","147","492238","0.0-108.0-0.0","81210373","wem/bandit_either_2","A34L0OOVHMBN90","either","4","1898","","","","","","","1","0","0","0.2300011382","","0.2","0.8","0.4","0.6","","","","","0.3391290389","0.2300011382","0.2261158315","0.3341158043","","","","","","","","74","J","1","","","68","main_expt"
"","bandit","148","493947","0.0-109.0-0.0","81210373","wem/bandit_either_2","A34L0OOVHMBN90","either","4","193","","","","","","","0","0","1","0.1768594062","","0.2","0.8","0.4","0.6","","","","","0.3114764975","0.1768594062","0.1627286519","0.3253412689","","","","","","","","74","J","1","","","69","main_expt"
"","bandit","149","495898","0.0-110.0-0.0","81210373","wem/bandit_either_2","A34L0OOVHMBN90","either","4","429","","","","","","","0","0","1","0.1906145184","","0.2","0.8","0.4","0.6","","","","","0.3056328376","0.1906145184","0.1301009224","0.3280915152","","","","","","","","74","J","1","","","70","main_expt"
"","bandit","150","498079","0.0-111.0-0.0","81210373","wem/bandit_either_2","A34L0OOVHMBN90","either","4","656","","","","","","","0","0","1","0.1451664327","","0.2","0.8","0.4","0.6","","","","","0.3445325487","0.1451664327","0.1356707761","0.3772643828","","","","","","","","74","J","1","","","71","main_expt"
"","bandit","151","500228","0.0-112.0-0.0","81210373","wem/bandit_either_2","A34L0OOVHMBN90","either","4","623","","","","","","","0","0","1","0.1091447996","","0.2","0.8","0.4","0.6","","","","","0.364612409","0.1091447996","0.1045412551","0.4074174212","","","","","","","","74","J","1","","","72","main_expt"
"","bandit","152","502730","0.0-113.0-0.0","81210373","wem/bandit_either_2","A34L0OOVHMBN90","either","4","975","","","","","","","0","0","1","0.1248737042","","0.2","0.8","0.4","0.6","","","","","0.4454774056","0.1248737042","0.0867882282","0.3736299767","","","","","","","","74","J","1","","","73","main_expt"
"","bandit","153","504606","0.0-114.0-0.0","81210373","wem/bandit_either_2","A34L0OOVHMBN90","either","4","357","","","","","","","0","0","1","0.1073746888","","0.2","0.8","0.4","0.6","","","","","0.4492830973","0.1073746888","0.1018359722","0.383211712","","","","","","","","74","J","1","","","74","main_expt"
"","bandit","154","507133","0.0-115.0-0.0","81210373","wem/bandit_either_2","A34L0OOVHMBN90","either","4","1008","","","","","","","0","0","1","0.1051395745","","0.2","0.8","0.4","0.6","","","","","0.449321966","0.1051395745","0.09443707336","0.3681962321","","","","","","","","74","J","1","","","75","main_expt"
"","bandit","155","508977","0.0-116.0-0.0","81210373","wem/bandit_either_2","A34L0OOVHMBN90","either","4","325","","","","","","","0","0","1","0.09171451076","","0.2","0.8","0.4","0.6","","","","","0.4299726132","0.09171451076","0.08768691443","0.3574328021","","","","","","","","74","J","1","","","76","main_expt"
"","bandit","156","511024","0.0-117.0-0.0","81210373","wem/bandit_either_2","A34L0OOVHMBN90","either","4","524","","","","","","","0","0","1","0.1256070833","","0.2","0.8","0.4","0.6","","","","","0.4349340462","0.1256070833","0.07744448812","0.4041720962","","","","","","","","74","J","1","","","77","main_expt"
"","bandit","157","513181","0.0-118.0-0.0","81210373","wem/bandit_either_2","A34L0OOVHMBN90","either","4","634","","","","","","","0","0","1","0.1398604905","","0.2","0.8","0.4","0.6","","","","","0.4112950215","0.1398604905","0.05712631425","0.4000946746","","","","","","","","74","J","1","","","78","main_expt"
"","bandit","158","514959","0.0-119.0-0.0","81210373","wem/bandit_either_2","A34L0OOVHMBN90","either","4","258","","","","","","","0","0","1","0.1303191282","","0.2","0.8","0.4","0.6","","","","","0.4123046053","0.1303191282","0.03981704588","0.425248604","","","","","","","","74","J","1","","","79","main_expt"
"","bandit","159","518837","0.0-120.0-0.0","81210373","wem/bandit_either_2","A34L0OOVHMBN90","either","4","2358","","","","","","","0","0","1","0.1491340647","","0.2","0.8","0.4","0.6","","","","","0.4345430878","0.1491340647","0.02961196177","0.4263383456","","","","","","","","74","J","1","","","80","main_expt"
"","bandit","160","521763","0.0-121.0-0.0","81210373","wem/bandit_either_2","A34L0OOVHMBN90","either","4","1405","","","","","","","0","0","1","0.1484119081","","0.2","0.8","0.4","0.6","","","","","0.4255274095","0.1484119081","0.0408206899","0.4377411966","","","","","","","","74","J","1","","","81","main_expt"
"","bandit","161","523561","0.0-122.0-0.0","81210373","wem/bandit_either_2","A34L0OOVHMBN90","either","4","276","","","","","","","0","0","1","0.135460029","","0.2","0.8","0.4","0.6","","","","","0.4266934287","0.135460029","0.03491361241","0.4263216968","","","","","","","","74","J","1","","","82","main_expt"
"","bandit","162","525784","0.0-123.0-0.0","81210373","wem/bandit_either_2","A34L0OOVHMBN90","either","4","707","","","","","","","0","0","1","0.09497461961","","0.2","0.8","0.4","0.6","","","","","0.4321646522","0.09497461961","0.01881925386","0.4536492548","","","","","","","","74","J","1","","","83","main_expt"
"","bandit","163","527445","0.0-124.0-0.0","81210373","wem/bandit_either_2","A34L0OOVHMBN90","either","4","143","","","","","","","0","0","1","0.0956585677","","0.2","0.8","0.4","0.6","","","","","0.43129245","0.0956585677","0.03441768066","0.4344769981","","","","","","","","74","J","1","","","84","main_expt"
"","bandit","164","529715","0.0-125.0-0.0","81210373","wem/bandit_either_2","A34L0OOVHMBN90","either","4","752","","","","","","","0","0","1","0.08427930603","","0.2","0.8","0.4","0.6","","","","","0.4307495417","0.08427930603","0.04015732792","0.4167097255","","","","","","","","74","J","1","","","85","main_expt"
"","bandit","165","531514","0.0-126.0-0.0","81210373","wem/bandit_either_2","A34L0OOVHMBN90","either","4","278","","","","","","","0","1","0","","0.09540141202","0.2","0.8","0.4","0.6","0.4327415212","0.09540141202","0.0462821445","0.4215971904","","","","","","","","","","","","74","J","1","","","86","main_expt"
"","bandit","166","533428","0.0-127.0-0.0","81210373","wem/bandit_either_2","A34L0OOVHMBN90","either","4","394","","","","","","","0","0","1","0.06504543429","","0.2","0.8","0.4","0.6","","","","","0.4507305815","0.06504543429","0.07236867375","0.3962725568","","","","","","","","74","J","1","","","87","main_expt"
"","bandit","167","536261","0.0-128.0-0.0","81210373","wem/bandit_either_2","A34L0OOVHMBN90","either","4","1298","","","","","","","0","1","0","","0.05894337134","0.2","0.8","0.4","0.6","0.4571393315","0.05894337134","0.1132918069","0.4038430626","","","","","","","","","","","","74","J","1","","","88","main_expt"
"","bandit","168","538569","0.0-129.0-0.0","81210373","wem/bandit_either_2","A34L0OOVHMBN90","either","4","752","","","","","","","0","0","1","0.06803635399","","0.2","0.8","0.4","0.6","","","","","0.4639779763","0.06803635399","0.1466354559","0.4247877058","","","","","","","","74","J","1","","","89","main_expt"
"","bandit","169","540316","0.0-130.0-0.0","81210373","wem/bandit_either_2","A34L0OOVHMBN90","either","4","229","","","","","","","0","0","1","","0.1746819083","0.2","0.8","0.4","0.6","0.4620017245","0.09657856289","0.1746819083","0.4196700557","","","","","","","","","","","","75","K","2","","","90","main_expt"
"","bandit","170","541972","0.0-131.0-0.0","81210373","wem/bandit_either_2","A34L0OOVHMBN90","either","4","136","","","","","","","1","0","0","0.1864657318","","0.2","0.8","0.4","0.6","","","","","0.4492963398","0.08522031428","0.1864657318","0.401758082","","","","","","","","75","K","2","","","91","main_expt"
"","bandit","171","543934","0.0-132.0-0.0","81210373","wem/bandit_either_2","A34L0OOVHMBN90","either","4","434","","","","","","","0","1","0","","0.2124622091","0.2","0.8","0.4","0.6","0.462009279","0.07078380504","0.2124622091","0.3422099147","","","","","","","","","","","","75","K","2","","","92","main_expt"
"","bandit","172","546612","0.0-133.0-0.0","81210373","wem/bandit_either_2","A34L0OOVHMBN90","either","4","1142","","","","","","","0","1","0","","0.245786276","0.2","0.8","0.4","0.6","0.4363090379","0.0564278809","0.245786276","0.3279059742","","","","","","","","","","","","75","K","2","","","93","main_expt"
"","bandit","173","616532","0.0-134.0-0.0","81210373","wem/bandit_either_2","A34L0OOVHMBN90","either","4","68379","","","","","","","0","0","1","0.06067733924","","0.2","0.8","0.4","0.6","","","","","0.4457519602","0.06067733924","0.2316759231","0.3155724737","","","","","","","","74","J","1","","","94","main_expt"
"","bandit","174","618195","0.0-135.0-0.0","81210373","wem/bandit_either_2","A34L0OOVHMBN90","either","4","143","","","","","","","0","0","1","","0.4231248902","0.2","0.8","0.4","0.6","0.4231248902","0.08632751489","0.2231756969","0.3519625041","","","","","","","","","","","","72","H","0","img/none_selected.jpg","","95","main_expt"
"","bandit","175","619749","0.0-136.0-0.0","81210373","wem/bandit_either_2","A34L0OOVHMBN90","either","4","34","","","","","","","0","0","1","","0.4210676831","0.2","0.8","0.4","0.6","0.4210676831","0.08481729553","0.1957128212","0.3661455107","","","","","","","","","","","","72","H","0","img/none_selected.jpg","","96","main_expt"
"","bandit","176","621411","0.0-137.0-0.0","81210373","wem/bandit_either_2","A34L0OOVHMBN90","either","4","141","","","","","","","1","0","0","0.4022895305","","0.2","0.8","0.4","0.6","","","","","0.4022895305","0.08386440452","0.1638116915","0.3558031673","","","","","","","","72","H","0","img/none_selected.jpg","","97","main_expt"
"","bandit","177","623031","0.0-138.0-0.0","81210373","wem/bandit_either_2","A34L0OOVHMBN90","either","4","79","","","","","","","0","0","1","","0.4187351015","0.2","0.8","0.4","0.6","0.4187351015","0.0940701929","0.1405816365","0.3558230887","","","","","","","","","","","","72","H","0","img/none_selected.jpg","","98","main_expt"
"","bandit","178","624624","0.0-139.0-0.0","81210373","wem/bandit_either_2","A34L0OOVHMBN90","either","4","7","","","","","","","0","0","1","","0.3981340028","0.2","0.8","0.4","0.6","0.3981340028","0.1285058524","0.1435678602","0.3064708089","","","","","","","","","","","","72","H","0","img/none_selected.jpg","","99","main_expt"
"","bandit","179","654202","0.0-140.0-0.0","81210373","wem/bandit_either_2","A34L0OOVHMBN90","either","4","28060","","","","","","","0","0","1","0.065882019","","0.2","0.8","0.4","0.6","","","","","0.3520446815","0.065882019","0.1478754355","0.352498313","","","","","","","","74","J","1","","","100","main_expt"
"","bandit","180","655984","0.0-141.0-0.0","81210373","wem/bandit_either_2","A34L0OOVHMBN90","either","4","253","","","","","","","0","0","1","0.05692140794","","0.2","0.8","0.4","0.6","","","","","0.3715523215","0.05692140794","0.1532559328","0.3511810171","","","","","","","","74","J","1","","","101","main_expt"
"","bandit","181","657627","0.0-142.0-0.0","81210373","wem/bandit_either_2","A34L0OOVHMBN90","either","4","120","","","","","","","0","0","1","0.04322280369","","0.2","0.8","0.4","0.6","","","","","0.3966955113","0.04322280369","0.15857411","0.3246867477","","","","","","","","74","J","1","","","102","main_expt"
"","bandit","182","659234","0.0-143.0-0.0","81210373","wem/bandit_either_2","A34L0OOVHMBN90","either","4","77","","","","","","","0","0","1","0.05121437093","","0.2","0.8","0.4","0.6","","","","","0.3865714765","0.05121437093","0.1552377357","0.2827689756","","","","","","","","74","J","1","","","103","main_expt"
"","bandit","183","660766","0.0-144.0-0.0","81210373","wem/bandit_either_2","A34L0OOVHMBN90","either","4","8","","","","","","","0","0","1","0.06548077564","","0.2","0.8","0.4","0.6","","","","","0.3440646931","0.06548077564","0.1584193753","0.3307995119","","","","","","","","74","J","1","","","104","main_expt"
"","bandit","184","662295","0.0-145.0-0.0","81210373","wem/bandit_either_2","A34L0OOVHMBN90","either","4","4","","","","","","","0","0","1","0.07577357845","","0.2","0.8","0.4","0.6","","","","","0.330981063","0.07577357845","0.192058402","0.3078297571","","","","","","","","74","J","1","","","105","main_expt"
"","bandit","185","663926","0.0-146.0-0.0","81210373","wem/bandit_either_2","A34L0OOVHMBN90","either","4","111","","","","","","","0","0","1","","0.09041352565","0.2","0.8","0.4","0.6","0.3317280627","0.09041352565","0.1562344916","0.3202685942","","","","","","","","","","","","74","J","1","","","106","main_expt"
"","bandit","186","665609","0.0-147.0-0.0","81210373","wem/bandit_either_2","A34L0OOVHMBN90","either","4","156","","","","","","","0","0","1","","0.1184921167","0.2","0.8","0.4","0.6","0.2760665195","0.1184921167","0.1493116313","0.3163418234","","","","","","","","","","","","74","J","1","","","107","main_expt"
"","bandit","187","667237","0.0-148.0-0.0","81210373","wem/bandit_either_2","A34L0OOVHMBN90","either","4","107","","","","","","","0","0","1","","0.1057615429","0.2","0.8","0.4","0.6","0.2826301941","0.1057615429","0.1357435498","0.3425943818","","","","","","","","","","","","74","J","1","","","108","main_expt"
"","bandit","188","668902","0.0-149.0-0.0","81210373","wem/bandit_either_2","A34L0OOVHMBN90","either","4","144","","","","","","","0","0","1","0.1464484126","","0.2","0.8","0.4","0.6","","","","","0.318117281","0.1464484126","0.1164074326","0.2852030557","","","","","","","","74","J","1","","","109","main_expt"
"","bandit","189","670725","0.0-150.0-0.0","81210373","wem/bandit_either_2","A34L0OOVHMBN90","either","4","305","","","","","","","0","0","1","","0.1444451916","0.2","0.8","0.4","0.6","0.3358587519","0.1641354829","0.1444451916","0.3392406975","","","","","","","","","","","","75","K","2","","","110","main_expt"
"","bandit","190","672389","0.0-151.0-0.0","81210373","wem/bandit_either_2","A34L0OOVHMBN90","either","4","140","","","","","","","0","0","1","","0.09905323685","0.2","0.8","0.4","0.6","0.3031660534","0.1386891192","0.09905323685","0.3023411017","","","","","","","","","","","","75","K","2","","","111","main_expt"
"","bandit","191","674084","0.0-152.0-0.0","81210373","wem/bandit_either_2","A34L0OOVHMBN90","either","4","174","","","","","","","0","0","1","0.09652445584","","0.2","0.8","0.4","0.6","","","","","0.2773548355","0.1847512065","0.09652445584","0.296849772","","","","","","","","75","K","2","","","112","main_expt"
"","bandit","192","675617","0.0-153.0-0.0","81210373","wem/bandit_either_2","A34L0OOVHMBN90","either","4","4","","","","","","","0","0","1","0.09961189632","","0.2","0.8","0.4","0.6","","","","","0.2370758425","0.1304555333","0.09961189632","0.2673419259","","","","","","","","75","K","2","","","113","main_expt"
"","bandit","193","677356","0.0-154.0-0.0","81210373","wem/bandit_either_2","A34L0OOVHMBN90","either","4","217","","","","","","","0","0","1","","0.1036139638","0.2","0.8","0.4","0.6","0.1821928837","0.1770102637","0.1036139638","0.2670531803","","","","","","","","","","","","75","K","2","","","114","main_expt"
"","bandit","194","679011","0.0-155.0-0.0","81210373","wem/bandit_either_2","A34L0OOVHMBN90","either","4","120","","","","","","","0","0","1","0.0968506792","","0.2","0.8","0.4","0.6","","","","","0.1315453283","0.1564651975","0.0968506792","0.2825009356","","","","","","","","75","K","2","","","115","main_expt"
"","bandit","195","680842","0.0-156.0-0.0","81210373","wem/bandit_either_2","A34L0OOVHMBN90","either","4","310","","","","","","","0","0","1","0.08782875681","","0.2","0.8","0.4","0.6","","","","","0.1102777544","0.1665702367","0.08782875681","0.3237719372","","","","","","","","75","K","2","","","116","main_expt"
"","bandit","196","682639","0.0-157.0-0.0","81210373","wem/bandit_either_2","A34L0OOVHMBN90","either","4","274","","","","","","","0","0","1","","0.06031800864","0.2","0.8","0.4","0.6","0.1101610351","0.1530687496","0.06031800864","0.3154846423","","","","","","","","","","","","75","K","2","","","117","main_expt"
"","bandit","197","684259","0.0-158.0-0.0","81210373","wem/bandit_either_2","A34L0OOVHMBN90","either","4","92","","","","","","","0","0","1","","0.05633053331","0.2","0.8","0.4","0.6","0.122460482","0.1674206906","0.05633053331","0.2584508078","","","","","","","","","","","","75","K","2","","","118","main_expt"
"","bandit","198","686028","0.0-159.0-0.0","81210373","wem/bandit_either_2","A34L0OOVHMBN90","either","4","248","","","","","","","0","0","1","","0.07530514027","0.2","0.8","0.4","0.6","0.1451868924","0.1990215448","0.07530514027","0.2141905193","","","","","","","","","","","","75","K","2","","","119","main_expt"
"","bandit","199","688190","0.0-160.0-0.0","81210373","wem/bandit_either_2","A34L0OOVHMBN90","either","4","641","","","","","","","0","0","1","","0.09092593383","0.2","0.8","0.4","0.6","0.09092593383","0.2208640619","0.09639595661","0.2341954374","","","","","","","","","","","","72","H","0","img/none_selected.jpg","","120","main_expt"
"","bandit","200","689935","0.0-161.0-0.0","81210373","wem/bandit_either_2","A34L0OOVHMBN90","either","4","219","","","","","","","0","0","1","","0.1080456108","0.2","0.8","0.4","0.6","0.1080456108","0.2602917539","0.1421799471","0.1886372651","","","","","","","","","","","","72","H","0","img/none_selected.jpg","","121","main_expt"
"","bandit","201","691596","0.0-162.0-0.0","81210373","wem/bandit_either_2","A34L0OOVHMBN90","either","4","136","","","","","","","0","0","1","","0.1169053248","0.2","0.8","0.4","0.6","0.1169053248","0.2512498235","0.1624760489","0.1597592322","","","","","","","","","","","","72","H","0","img/none_selected.jpg","","122","main_expt"
"","bandit","202","693222","0.0-163.0-0.0","81210373","wem/bandit_either_2","A34L0OOVHMBN90","either","4","100","","","","","","","0","0","1","","0.1571594809","0.2","0.8","0.4","0.6","0.1571594809","0.2266242761","0.1640214383","0.1895266442","","","","","","","","","","","","72","H","0","img/none_selected.jpg","","123","main_expt"
"","bandit","203","694816","0.0-164.0-0.0","81210373","wem/bandit_either_2","A34L0OOVHMBN90","either","4","74","","","","","","","0","1","0","","0.2231804049","0.2","0.8","0.4","0.6","0.2231804049","0.2373824638","0.2014340991","0.2042850732","","","","","","","","","","","","72","H","0","img/none_selected.jpg","","124","main_expt"
"","bandit","204","696562","0.0-165.0-0.0","81210373","wem/bandit_either_2","A34L0OOVHMBN90","either","4","220","","","","","","","0","0","1","0.2232794356","","0.2","0.8","0.4","0.6","","","","","0.2232794356","0.2538727107","0.2229229076","0.1812515389","","","","","","","","72","H","0","img/none_selected.jpg","","125","main_expt"
"","bandit","205","698300","0.0-166.0-0.0","81210373","wem/bandit_either_2","A34L0OOVHMBN90","either","4","216","","","","","","","0","0","1","","0.2316903634","0.2","0.8","0.4","0.6","0.2316903634","0.290219491","0.2324712723","0.1694736183","","","","","","","","","","","","72","H","0","img/none_selected.jpg","","126","main_expt"
"","bandit","206","699945","0.0-167.0-0.0","81210373","wem/bandit_either_2","A34L0OOVHMBN90","either","4","113","","","","","","","0","0","1","","0.2337524142","0.2","0.8","0.4","0.6","0.2337524142","0.2542505169","0.2628391623","0.1624528765","","","","","","","","","","","","72","H","0","img/none_selected.jpg","","127","main_expt"
"","bandit","207","701686","0.0-168.0-0.0","81210373","wem/bandit_either_2","A34L0OOVHMBN90","either","4","218","","","","","","","0","1","0","","0.2198210178","0.2","0.8","0.4","0.6","0.2198210178","0.2582316027","0.2654356302","0.1632982916","","","","","","","","","","","","72","H","0","img/none_selected.jpg","","128","main_expt"
"","bandit","208","703371","0.0-169.0-0.0","81210373","wem/bandit_either_2","A34L0OOVHMBN90","either","4","156","","","","","","","0","0","1","0.3267566011","","0.2","0.8","0.4","0.6","","","","","0.2280168395","0.3267566011","0.2070569149","0.2264598068","","","","","","","","74","J","1","","","129","main_expt"
"","bandit","209","704917","0.0-170.0-0.0","81210373","wem/bandit_either_2","A34L0OOVHMBN90","either","4","24","","","","","","","0","0","1","","0.3323271388","0.2","0.8","0.4","0.6","0.243895296","0.3323271388","0.2579182239","0.202760285","","","","","","","","","","","","74","J","1","","","130","main_expt"
"","bandit","210","706464","0.0-171.0-0.0","81210373","wem/bandit_either_2","A34L0OOVHMBN90","either","4","18","","","","","","","0","0","1","0.2666668646","","0.2","0.8","0.4","0.6","","","","","0.2164454501","0.2666668646","0.2329110821","0.1585094705","","","","","","","","74","J","1","","","131","main_expt"
"","bandit","211","708038","0.0-172.0-0.0","81210373","wem/bandit_either_2","A34L0OOVHMBN90","either","4","41","","","","","","","0","0","1","0.2359119393","","0.2","0.8","0.4","0.6","","","","","0.200468731","0.2359119393","0.2400232435","0.1304261544","","","","","","","","74","J","1","","","132","main_expt"
"","bandit","212","709638","0.0-173.0-0.0","81210373","wem/bandit_either_2","A34L0OOVHMBN90","either","4","79","","","","","","","0","0","1","0.2540740643","","0.2","0.8","0.4","0.6","","","","","0.2038597077","0.2540740643","0.2084798617","0.09339990826","","","","","","","","74","J","1","","","133","main_expt"
"","bandit","213","711247","0.0-174.0-0.0","81210373","wem/bandit_either_2","A34L0OOVHMBN90","either","4","80","","","","","","","0","0","1","0.2414927735","","0.2","0.8","0.4","0.6","","","","","0.2263269307","0.2414927735","0.2034544","0.08524612959","","","","","","","","74","J","1","","","134","main_expt"
"","bandit","214","712833","0.0-175.0-0.0","81210373","wem/bandit_either_2","A34L0OOVHMBN90","either","4","61","","","","","","","0","0","1","0.2632369982","","0.2","0.8","0.4","0.6","","","","","0.2686469146","0.2632369982","0.2088958693","0.0622033461","","","","","","","","74","J","1","","","135","main_expt"
"","bandit","215","714453","0.0-176.0-0.0","81210373","wem/bandit_either_2","A34L0OOVHMBN90","either","4","88","","","","","","","1","0","0","0.3032623762","","0.2","0.8","0.4","0.6","","","","","0.3170393738","0.3032623762","0.2573758916","0.05632890875","","","","","","","","74","J","1","","","136","main_expt"
"","bandit","216","716064","0.0-177.0-0.0","81210373","wem/bandit_either_2","A34L0OOVHMBN90","either","4","87","","","","","","","1","0","0","0.2984046037","","0.2","0.8","0.4","0.6","","","","","0.338962466","0.2984046037","0.2467438462","0.06052980877","","","","","","","","74","J","1","","","137","main_expt"
"","bandit","217","717721","0.0-178.0-0.0","81210373","wem/bandit_either_2","A34L0OOVHMBN90","either","4","120","","","","","","","1","0","0","0.3110629865","","0.2","0.8","0.4","0.6","","","","","0.3586643031","0.3110629865","0.2221944767","0.1038497792","","","","","","","","74","J","1","","","138","main_expt"
"","bandit","218","719420","0.0-179.0-0.0","81210373","wem/bandit_either_2","A34L0OOVHMBN90","either","4","176","","","","","","","0","0","1","0.3048373826","","0.2","0.8","0.4","0.6","","","","","0.3430902759","0.3048373826","0.2750517365","0.08561062373","","","","","","","","74","J","1","","","139","main_expt"
"","bandit","219","721002","0.0-180.0-0.0","81210373","wem/bandit_either_2","A34L0OOVHMBN90","either","4","57","","","","","","","0","0","1","0.3163642845","","0.2","0.8","0.4","0.6","","","","","0.3777112835","0.3163642845","0.277474309","0.08025295029","","","","","","","","74","J","1","","","140","main_expt"
"","bandit","220","722544","0.0-181.0-0.0","81210373","wem/bandit_either_2","A34L0OOVHMBN90","either","4","3","","","","","","","0","0","1","","0.2213861514","0.2","0.8","0.4","0.6","0.4276051364","0.2213861514","0.2932007391","0.09309891757","","","","","","","","","","","","74","J","1","","","141","main_expt"
"","bandit","221","724071","0.0-182.0-0.0","81210373","wem/bandit_either_2","A34L0OOVHMBN90","either","4","6","","","","","","","0","0","1","0.2492613222","","0.2","0.8","0.4","0.6","","","","","0.4312347149","0.2492613222","0.3001807938","0.1107976638","","","","","","","","74","J","1","","","142","main_expt"
"","bandit","222","725765","0.0-183.0-0.0","81210373","wem/bandit_either_2","A34L0OOVHMBN90","either","4","173","","","","","","","0","0","1","0.2645663874","","0.2","0.8","0.4","0.6","","","","","0.386657586","0.2645663874","0.3640878437","0.09575525052","","","","","","","","74","J","1","","","143","main_expt"
"","bandit","223","727347","0.0-184.0-0.0","81210373","wem/bandit_either_2","A34L0OOVHMBN90","either","4","54","","","","","","","0","0","1","0.2928215939","","0.2","0.8","0.4","0.6","","","","","0.3409851627","0.2928215939","0.2706796495","0.07222794989","","","","","","","","74","J","1","","","144","main_expt"
"","bandit","224","728914","0.0-185.0-0.0","81210373","wem/bandit_either_2","A34L0OOVHMBN90","either","4","46","","","","","","","0","0","1","","0.3178979655","0.2","0.8","0.4","0.6","0.3538709708","0.3178979655","0.2359726437","0.03203798906","","","","","","","","","","","","74","J","1","","","145","main_expt"
"","bandit","225","730634","0.0-186.0-0.0","81210373","wem/bandit_either_2","A34L0OOVHMBN90","either","4","197","","","","","","","0","0","1","0.2850957273","","0.2","0.8","0.4","0.6","","","","","0.2745956728","0.2850957273","0.2200332621","0.03073079809","","","","","","","","74","J","1","","","146","main_expt"
"","bandit","226","732324","0.0-187.0-0.0","81210373","wem/bandit_either_2","A34L0OOVHMBN90","either","4","166","","","","","","","0","0","1","","0.2483519338","0.2","0.8","0.4","0.6","0.2375793476","0.2483519338","0.1957794229","0.05105424151","","","","","","","","","","","","74","J","1","","","147","main_expt"
"","bandit","227","733881","0.0-188.0-0.0","81210373","wem/bandit_either_2","A34L0OOVHMBN90","either","4","34","","","","","","","0","0","1","0.2309770791","","0.2","0.8","0.4","0.6","","","","","0.2954602587","0.2309770791","0.1790722045","0.04045355104","","","","","","","","74","J","1","","","148","main_expt"
"","bandit","228","737586","0.0-189.0-0.0","81210373","wem/bandit_either_2","A34L0OOVHMBN90","either","4","2179","","","","","","","0","0","1","0.1759049641","","0.2","0.8","0.4","0.6","","","","","0.3435099865","0.1759049641","0.2189150546","0.06416506337","","","","","","","","74","J","1","","","149","main_expt"
"","bandit","229","739286","0.0-190.0-0.0","81210373","wem/bandit_either_2","A34L0OOVHMBN90","either","4","161","","","","","","","0","0","1","0.1910702346","","0.2","0.8","0.4","0.6","","","","","0.268900415","0.1910702346","0.2119229637","0.07819388902","","","","","","","","74","J","1","","","150","main_expt"
"","bandit","230","740908","0.0-191.0-0.0","81210373","wem/bandit_either_2","A34L0OOVHMBN90","either","4","96","","","","","","","0","0","1","","0.1799178466","0.2","0.8","0.4","0.6","0.2326488896","0.1799178466","0.2472398003","0.1186979887","","","","","","","","","","","","74","J","1","","","151","main_expt"
"","bandit","231","742518","0.0-192.0-0.0","81210373","wem/bandit_either_2","A34L0OOVHMBN90","either","4","89","","","","","","","0","0","1","0.1826140084","","0.2","0.8","0.4","0.6","","","","","0.2768057641","0.1826140084","0.2148428051","0.1084773402","","","","","","","","74","J","1","","","152","main_expt"
"","bandit","232","744166","0.0-193.0-0.0","81210373","wem/bandit_either_2","A34L0OOVHMBN90","either","4","125","","","","","","","0","0","1","0.147924298","","0.2","0.8","0.4","0.6","","","","","0.2997660112","0.147924298","0.1598057249","0.1314289417","","","","","","","","74","J","1","","","153","main_expt"
"","bandit","233","745849","0.0-194.0-0.0","81210373","wem/bandit_either_2","A34L0OOVHMBN90","either","4","153","","","","","","","0","0","1","0.1388357139","","0.2","0.8","0.4","0.6","","","","","0.3196464983","0.1388357139","0.1489099923","0.1354051011","","","","","","","","74","J","1","","","154","main_expt"
"","bandit","234","747461","0.0-195.0-0.0","81210373","wem/bandit_either_2","A34L0OOVHMBN90","either","4","89","","","","","","","0","1","0","","0.1658398244","0.2","0.8","0.4","0.6","0.3141654429","0.1658398244","0.1502541116","0.1085215933","","","","","","","","","","","","74","J","1","","","155","main_expt"
"","bandit","235","749097","0.0-196.0-0.0","81210373","wem/bandit_either_2","A34L0OOVHMBN90","either","4","107","","","","","","","0","0","1","0.1104921729","","0.2","0.8","0.4","0.6","","","","","0.2667217688","0.1104921729","0.1605084188","0.1383379057","","","","","","","","74","J","1","","","156","main_expt"
"","bandit","236","750633","0.0-197.0-0.0","81210373","wem/bandit_either_2","A34L0OOVHMBN90","either","4","4","","","","","","","0","0","1","","0.09530810267","0.2","0.8","0.4","0.6","0.2867075714","0.09530810267","0.1684101418","0.1428990181","","","","","","","","","","","","74","J","1","","","157","main_expt"
"","bandit","237","752346","0.0-198.0-0.0","81210373","wem/bandit_either_2","A34L0OOVHMBN90","either","4","190","","","","","","","0","0","1","0.1211627972","","0.2","0.8","0.4","0.6","","","","","0.2788639118","0.1211627972","0.1807688322","0.07455979893","","","","","","","","74","J","1","","","158","main_expt"
"","bandit","238","754033","0.0-199.0-0.0","81210373","wem/bandit_either_2","A34L0OOVHMBN90","either","4","153","","","","","","","0","0","1","0.1012897464","","0.2","0.8","0.4","0.6","","","","","0.3020710819","0.1012897464","0.1516426412","0.1009372764","","","","","","","","74","J","1","","","159","main_expt"
"","bandit","239","755607","0.0-200.0-0.0","81210373","wem/bandit_either_2","A34L0OOVHMBN90","either","4","51","","","","","","","0","0","1","0.1188035868","","0.2","0.8","0.4","0.6","","","","","0.3404227007","0.1188035868","0.1638698877","0.05118862797","","","","","","","","74","J","1","","","160","main_expt"
"","bandit","240","757168","0.0-201.0-0.0","81210373","wem/bandit_either_2","A34L0OOVHMBN90","either","4","28","","","","","","","0","0","1","0.1606836622","","0.2","0.8","0.4","0.6","","","","","0.2876249865","0.1606836622","0.1645359983","0.05265847637","","","","","","","","74","J","1","","","161","main_expt"
"","bandit","241","758709","0.0-202.0-0.0","81210373","wem/bandit_either_2","A34L0OOVHMBN90","either","4","13","","","","","","","0","0","1","0.1859884171","","0.2","0.8","0.4","0.6","","","","","0.2401308511","0.1859884171","0.2509918509","0.07938684611","","","","","","","","74","J","1","","","162","main_expt"
"","bandit","242","796005","0.0-203.0-0.0","81210373","wem/bandit_either_2","A34L0OOVHMBN90","either","4","35766","","","","","","","0","0","1","","0.2486605046","0.2","0.8","0.4","0.6","0.2486605046","0.2528258464","0.1883685458","0.0970900163","","","","","","","","","","","","72","H","0","img/none_selected.jpg","","163","main_expt"
"","bandit","243","797724","0.0-204.0-0.0","81210373","wem/bandit_either_2","A34L0OOVHMBN90","either","4","196","","","","","","","0","0","1","","0.2515292425","0.2","0.8","0.4","0.6","0.22675384","0.2515292425","0.2179532334","0.07401968201","","","","","","","","","","","","74","J","1","","","164","main_expt"
"","bandit","244","799886","0.0-205.0-0.0","81210373","wem/bandit_either_2","A34L0OOVHMBN90","either","4","630","","","","","","","1","0","0","0.2068970429","","0.2","0.8","0.4","0.6","","","","","0.2841151948","0.2068970429","0.2143704678","0.06633104104","","","","","","","","74","J","1","","","165","main_expt"
"","bandit","245","801423","0.0-206.0-0.0","81210373","wem/bandit_either_2","A34L0OOVHMBN90","either","4","12","","","","","","","1","0","0","0.1413778631","","0.2","0.8","0.4","0.6","","","","","0.2842980464","0.1413778631","0.2175899085","0.05309652092","","","","","","","","74","J","1","","","166","main_expt"
"","bandit","246","803130","0.0-207.0-0.0","81210373","wem/bandit_either_2","A34L0OOVHMBN90","either","4","175","","","","","","","0","0","1","0.1999497975","","0.2","0.8","0.4","0.6","","","","","0.3007590714","0.1999497975","0.2137120923","0.07357446968","","","","","","","","74","J","1","","","167","main_expt"
"","bandit","247","804668","0.0-208.0-0.0","81210373","wem/bandit_either_2","A34L0OOVHMBN90","either","4","13","","","","","","","0","0","1","0.1696145944","","0.2","0.8","0.4","0.6","","","","","0.2884936601","0.1696145944","0.2331560811","0.1054325378","","","","","","","","74","J","1","","","168","main_expt"
"","bandit","248","806225","0.0-209.0-0.0","81210373","wem/bandit_either_2","A34L0OOVHMBN90","either","4","31","","","","","","","0","0","1","0.1338518967","","0.2","0.8","0.4","0.6","","","","","0.2803439438","0.1338518967","0.2367963754","0.08536867429","","","","","","","","74","J","1","","","169","main_expt"
"","bandit","249","807902","0.0-210.0-0.0","81210373","wem/bandit_either_2","A34L0OOVHMBN90","either","4","154","","","","","","","0","0","1","0.1307598277","","0.2","0.8","0.4","0.6","","","","","0.3010437192","0.1307598277","0.2378050175","0.1083432756","","","","","","","","74","J","1","","","170","main_expt"
"","bandit","250","809630","0.0-211.0-0.0","81210373","wem/bandit_either_2","A34L0OOVHMBN90","either","4","201","","","","","","","0","0","1","0.1200375331","","0.2","0.8","0.4","0.6","","","","","0.3243802095","0.1200375331","0.2253696972","0.09185370626","","","","","","","","74","J","1","","","171","main_expt"
"","bandit","251","811280","0.0-212.0-0.0","81210373","wem/bandit_either_2","A34L0OOVHMBN90","either","4","128","","","","","","","0","0","1","0.07514546963","","0.2","0.8","0.4","0.6","","","","","0.3140094691","0.07514546963","0.2903394368","0.09458096772","","","","","","","","74","J","1","","","172","main_expt"
"","bandit","252","826791","0.0-213.0-0.0","81210373","wem/bandit_either_2","A34L0OOVHMBN90","either","4","13977","","","","","","","1","0","0","0.07704486673","","0.2","0.8","0.4","0.6","","","","","0.2433770114","0.07704486673","0.2384828248","0.1016296913","","","","","","","","74","J","1","","","173","main_expt"
"","bandit","253","828367","0.0-214.0-0.0","81210373","wem/bandit_either_2","A34L0OOVHMBN90","either","4","53","","","","","","","0","0","1","0.04061738922","","0.2","0.8","0.4","0.6","","","","","0.2080779891","0.04061738922","0.2823111034","0.117107939","","","","","","","","74","J","1","","","174","main_expt"
"","bandit","254","829972","0.0-215.0-0.0","81210373","wem/bandit_either_2","A34L0OOVHMBN90","either","4","79","","","","","","","0","0","1","","0.02968316822","0.2","0.8","0.4","0.6","0.2211365803","0.02968316822","0.292147578","0.1254773658","","","","","","","","","","","","74","J","1","","","175","main_expt"
"","bandit","255","831610","0.0-216.0-0.0","81210373","wem/bandit_either_2","A34L0OOVHMBN90","either","4","115","","","","","","","0","0","1","0.04419366322","","0.2","0.8","0.4","0.6","","","","","0.231280906","0.04419366322","0.2928295457","0.1518856622","","","","","","","","74","J","1","","","176","main_expt"
"","bandit","256","833212","0.0-217.0-0.0","81210373","wem/bandit_either_2","A34L0OOVHMBN90","either","4","79","","","","","","","0","0","1","0.04140429262","","0.2","0.8","0.4","0.6","","","","","0.1689881391","0.04140429262","0.297241693","0.1502483312","","","","","","","","74","J","1","","","177","main_expt"
"","bandit","257","834894","0.0-218.0-0.0","81210373","wem/bandit_either_2","A34L0OOVHMBN90","either","4","151","","","","","","","0","0","1","0.06103489621","","0.2","0.8","0.4","0.6","","","","","0.1699404395","0.06103489621","0.276241128","0.2073149786","","","","","","","","74","J","1","","","178","main_expt"
"","bandit","258","836585","0.0-219.0-0.0","81210373","wem/bandit_either_2","A34L0OOVHMBN90","either","4","141","","","","","","","0","0","1","0.053608248","","0.2","0.8","0.4","0.6","","","","","0.1571972967","0.053608248","0.2405339857","0.1928578162","","","","","","","","74","J","1","","","179","main_expt"
"","bandit","259","838227","0.0-220.0-0.0","81210373","wem/bandit_either_2","A34L0OOVHMBN90","either","4","114","","","","","","","0","0","1","0.06289379635","","0.2","0.8","0.4","0.6","","","","","0.1567782565","0.06289379635","0.233428307","0.1412953234","","","","","","","","74","J","1","","","180","main_expt"
"","bandit","260","839918","0.0-221.0-0.0","81210373","wem/bandit_either_2","A34L0OOVHMBN90","either","4","166","","","","","","","0","0","1","0.07748386732","","0.2","0.8","0.4","0.6","","","","","0.1492691696","0.07748386732","0.1459310114","0.1258774719","","","","","","","","74","J","1","","","181","main_expt"
"","bandit","261","841605","0.0-222.0-0.0","81210373","wem/bandit_either_2","A34L0OOVHMBN90","either","4","158","","","","","","","0","0","1","0.096714051","","0.2","0.8","0.4","0.6","","","","","0.1609613705","0.096714051","0.1796360657","0.1121960069","","","","","","","","74","J","1","","","182","main_expt"
"","bandit","262","850876","0.0-223.0-0.0","81210373","wem/bandit_either_2","A34L0OOVHMBN90","either","4","7739","","","","","","","0","0","1","","0.05351369794","0.2","0.8","0.4","0.6","0.1982891881","0.05351369794","0.1907874973","0.08335286121","","","","","","","","","","","","74","J","1","","","183","main_expt"
"","bandit","263","852468","0.0-224.0-0.0","81210373","wem/bandit_either_2","A34L0OOVHMBN90","either","4","63","","","","","","","0","1","0","","0.08854511538","0.2","0.8","0.4","0.6","0.1703318442","0.08854511538","0.1451627339","0.1085923678","","","","","","","","","","","","74","J","1","","","184","main_expt"
"","bandit","264","854029","0.0-225.0-0.0","81210373","wem/bandit_either_2","A34L0OOVHMBN90","either","4","25","","","","","","","0","0","1","0.136385666","","0.2","0.8","0.4","0.6","","","","","0.09566746086","0.136385666","0.1692531577","0.1113654269","","","","","","","","74","J","1","","","185","main_expt"
"","bandit","265","857915","0.0-226.0-0.0","81210373","wem/bandit_either_2","A34L0OOVHMBN90","either","4","2329","","","","","","","1","0","0","0.1848043888","","0.2","0.8","0.4","0.6","","","","","0.1254261761","0.1848043888","0.1885113298","0.1383531569","","","","","","","","74","J","1","","","186","main_expt"
"","bandit","266","859508","0.0-227.0-0.0","81210373","wem/bandit_either_2","A34L0OOVHMBN90","either","4","64","","","","","","","0","0","1","0.1640989128","","0.2","0.8","0.4","0.6","","","","","0.1081798115","0.1640989128","0.2088125345","0.1739713275","","","","","","","","74","J","1","","","187","main_expt"
"","bandit","267","861151","0.0-228.0-0.0","81210373","wem/bandit_either_2","A34L0OOVHMBN90","either","4","106","","","","","","","0","0","1","0.1301402021","","0.2","0.8","0.4","0.6","","","","","0.08529062399","0.1301402021","0.2228369986","0.1926366302","","","","","","","","74","J","1","","","188","main_expt"
"","bandit","268","862825","0.0-229.0-0.0","81210373","wem/bandit_either_2","A34L0OOVHMBN90","either","4","145","","","","","","","0","0","1","","0.1980942663","0.2","0.8","0.4","0.6","0.07250281893","0.1980942663","0.2567428292","0.2499935398","","","","","","","","","","","","74","J","1","","","189","main_expt"
"","bandit","269","864449","0.0-230.0-0.0","81210373","wem/bandit_either_2","A34L0OOVHMBN90","either","4","95","","","","","","","0","0","1","0.1842725295","","0.2","0.8","0.4","0.6","","","","","0.07895395147","0.1842725295","0.3177850294","0.2367317824","","","","","","","","74","J","1","","","190","main_expt"
"","bandit","270","866110","0.0-231.0-0.0","81210373","wem/bandit_either_2","A34L0OOVHMBN90","either","4","128","","","","","","","0","0","1","0.2087081259","","0.2","0.8","0.4","0.6","","","","","0.06204701637","0.2087081259","0.2876912335","0.2515026666","","","","","","","","74","J","1","","","191","main_expt"
"","bandit","271","867840","0.0-232.0-0.0","81210373","wem/bandit_either_2","A34L0OOVHMBN90","either","4","201","","","","","","","0","0","1","0.1800110976","","0.2","0.8","0.4","0.6","","","","","0.064067899","0.1800110976","0.2383873749","0.2451916405","","","","","","","","74","J","1","","","192","main_expt"
"","bandit","272","869372","0.0-233.0-0.0","81210373","wem/bandit_either_2","A34L0OOVHMBN90","either","4","4","","","","","","","0","0","1","0.1519186298","","0.2","0.8","0.4","0.6","","","","","0.1286650472","0.1519186298","0.24690957","0.2353451433","","","","","","","","74","J","1","","","193","main_expt"
"","bandit","273","871065","0.0-234.0-0.0","81210373","wem/bandit_either_2","A34L0OOVHMBN90","either","4","156","","","","","","","0","0","1","0.1431656489","","0.2","0.8","0.4","0.6","","","","","0.1746490116","0.1431656489","0.2728455101","0.307075739","","","","","","","","74","J","1","","","194","main_expt"
"","bandit","274","872647","0.0-235.0-0.0","81210373","wem/bandit_either_2","A34L0OOVHMBN90","either","4","56","","","","","","","1","0","0","0.1868251083","","0.2","0.8","0.4","0.6","","","","","0.129035247","0.1868251083","0.2421292151","0.3011001907","","","","","","","","74","J","1","","","195","main_expt"
"","bandit","275","874308","0.0-236.0-0.0","81210373","wem/bandit_either_2","A34L0OOVHMBN90","either","4","130","","","","","","","0","0","1","","0.176624335","0.2","0.8","0.4","0.6","0.09052040682","0.176624335","0.2598052724","0.2861216794","","","","","","","","","","","","74","J","1","","","196","main_expt"
"","bandit","276","875837","0.0-237.0-0.0","81210373","wem/bandit_either_2","A34L0OOVHMBN90","either","4","1","","","","","","","1","0","0","0.2383323772","","0.2","0.8","0.4","0.6","","","","","0.08675464884","0.2383323772","0.2540930088","0.2121549007","","","","","","","","74","J","1","","","197","main_expt"
"","bandit","277","877403","0.0-238.0-0.0","81210373","wem/bandit_either_2","A34L0OOVHMBN90","either","4","35","","","","","","","1","0","0","0.260618614","","0.2","0.8","0.4","0.6","","","","","0.09429549835","0.260618614","0.2460150375","0.260340052","","","","","","","","74","J","1","","","198","main_expt"
"","bandit","278","878965","0.0-239.0-0.0","81210373","wem/bandit_either_2","A34L0OOVHMBN90","either","4","30","","","","","","","0","0","1","0.2935067364","","0.2","0.8","0.4","0.6","","","","","0.09303778716","0.2935067364","0.2217343644","0.3009562829","","","","","","","","74","J","1","","","199","main_expt"
"","bandit","279","880530","0.0-240.0-0.0","81210373","wem/bandit_either_2","A34L0OOVHMBN90","either","4","39","","","","","","","0","0","1","","0.362920627","0.2","0.8","0.4","0.6","0.07354084322","0.362920627","0.2830302048","0.3430896668","","","","","","","","","","","","74","J","1","","","200","main_expt"
"","bandit","280","882150","0.0-241.0-0.0","81210373","wem/bandit_either_2","A34L0OOVHMBN90","either","4","92","","","","","","","0","0","1","0.3119044903","","0.2","0.8","0.4","0.6","","","","","0.08115367452","0.3119044903","0.3175621279","0.2973668079","","","","","","","","74","J","1","","","201","main_expt"
"","bandit","281","883694","0.0-242.0-0.0","81210373","wem/bandit_either_2","A34L0OOVHMBN90","either","4","14","","","","","","","1","0","0","0.3095695708","","0.2","0.8","0.4","0.6","","","","","0.0774842685","0.3095695708","0.3049471546","0.3219337599","","","","","","","","74","J","1","","","202","main_expt"
"","bandit","282","885322","0.0-243.0-0.0","81210373","wem/bandit_either_2","A34L0OOVHMBN90","either","4","90","","","","","","","0","0","1","","0.3005459379","0.2","0.8","0.4","0.6","0.09704724367","0.3005459379","0.2975042969","0.3229991028","","","","","","","","","","","","74","J","1","","","203","main_expt"
"","bandit","283","886973","0.0-244.0-0.0","81210373","wem/bandit_either_2","A34L0OOVHMBN90","either","4","116","","","","","","","1","0","0","0.3116824409","","0.2","0.8","0.4","0.6","","","","","0.1224111047","0.3116824409","0.2268457719","0.3077995671","","","","","","","","74","J","1","","","204","main_expt"
"","bandit","284","888508","0.0-245.0-0.0","81210373","wem/bandit_either_2","A34L0OOVHMBN90","either","4","6","","","","","","","1","0","0","0.3291635812","","0.2","0.8","0.4","0.6","","","","","0.1627664319","0.3291635812","0.2582085449","0.3070199156","","","","","","","","74","J","1","","","205","main_expt"
"","bandit","285","890223","0.0-246.0-0.0","81210373","wem/bandit_either_2","A34L0OOVHMBN90","either","4","182","","","","","","","0","0","1","0.4008790519","","0.2","0.8","0.4","0.6","","","","","0.1604236747","0.4008790519","0.2841247045","0.3109683939","","","","","","","","74","J","1","","","206","main_expt"
"","bandit","286","891926","0.0-247.0-0.0","81210373","wem/bandit_either_2","A34L0OOVHMBN90","either","4","171","","","","","","","0","0","1","0.4202180382","","0.2","0.8","0.4","0.6","","","","","0.126388554","0.4202180382","0.3333225396","0.2845075958","","","","","","","","74","J","1","","","207","main_expt"
"","bandit","287","893628","0.0-248.0-0.0","81210373","wem/bandit_either_2","A34L0OOVHMBN90","either","4","152","","","","","","","0","0","1","0.4168586074","","0.2","0.8","0.4","0.6","","","","","0.1602309633","0.4168586074","0.290219871","0.2419557814","","","","","","","","74","J","1","","","208","main_expt"
"","bandit","288","895184","0.0-249.0-0.0","81210373","wem/bandit_either_2","A34L0OOVHMBN90","either","4","12","","","","","","","0","0","1","","0.3949328033","0.2","0.8","0.4","0.6","0.2009997365","0.3949328033","0.3426384504","0.2449545816","","","","","","","","","","","","74","J","1","","","209","main_expt"
"","bandit","289","896915","0.0-250.0-0.0","81210373","wem/bandit_either_2","A34L0OOVHMBN90","either","4","184","","","","","","","0","1","0","","0.41782505","0.2","0.8","0.4","0.6","0.1997114924","0.41782505","0.2932754766","0.2176860071","","","","","","","","","","","","74","J","1","","","210","main_expt"
"","bandit","290","898616","0.0-251.0-0.0","81210373","wem/bandit_either_2","A34L0OOVHMBN90","either","4","175","","","","","","","0","0","1","0.4377941382","","0.2","0.8","0.4","0.6","","","","","0.2631807131","0.4377941382","0.2522206247","0.2460847292","","","","","","","","74","J","1","","","211","main_expt"
"","bandit","291","900331","0.0-252.0-0.0","81210373","wem/bandit_either_2","A34L0OOVHMBN90","either","4","179","","","","","","","1","0","0","0.4619006446","","0.2","0.8","0.4","0.6","","","","","0.2008991105","0.4619006446","0.2323705111","0.2017704833","","","","","","","","74","J","1","","","212","main_expt"
"","bandit","292","901902","0.0-253.0-0.0","81210373","wem/bandit_either_2","A34L0OOVHMBN90","either","4","34","","","","","","","0","0","1","0.4508737721","","0.2","0.8","0.4","0.6","","","","","0.1656487101","0.4508737721","0.2815580385","0.1891715169","","","","","","","","74","J","1","","","213","main_expt"
"","bandit","293","903444","0.0-254.0-0.0","81210373","wem/bandit_either_2","A34L0OOVHMBN90","either","4","11","","","","","","","1","0","0","0.4639731149","","0.2","0.8","0.4","0.6","","","","","0.213788386","0.4639731149","0.2955812139","0.1819308411","","","","","","","","74","J","1","","","214","main_expt"
"","bandit","294","904983","0.0-255.0-0.0","81210373","wem/bandit_either_2","A34L0OOVHMBN90","either","4","9","","","","","","","0","0","1","","0.4690757113","0.2","0.8","0.4","0.6","0.2206736926","0.4690757113","0.2988647484","0.1406935411","","","","","","","","","","","","74","J","1","","","215","main_expt"
"","bandit","295","906587","0.0-256.0-0.0","81210373","wem/bandit_either_2","A34L0OOVHMBN90","either","4","77","","","","","","","1","0","0","0.4685680314","","0.2","0.8","0.4","0.6","","","","","0.2270120675","0.4685680314","0.3361974059","0.206739756","","","","","","","","74","J","1","","","216","main_expt"
"","bandit","296","908123","0.0-257.0-0.0","81210373","wem/bandit_either_2","A34L0OOVHMBN90","either","4","9","","","","","","","1","0","0","0.4873952874","","0.2","0.8","0.4","0.6","","","","","0.2561581829","0.4873952874","0.2764506131","0.178624692","","","","","","","","74","J","1","","","217","main_expt"
"","bandit","297","909710","0.0-258.0-0.0","81210373","wem/bandit_either_2","A34L0OOVHMBN90","either","4","54","","","","","","","0","0","1","","0.4790671899","0.2","0.8","0.4","0.6","0.2785758431","0.4790671899","0.299893698","0.2021641755","","","","","","","","","","","","74","J","1","","","218","main_expt"
"","bandit","298","911261","0.0-259.0-0.0","81210373","wem/bandit_either_2","A34L0OOVHMBN90","either","4","18","","","","","","","0","0","1","0.4769795117","","0.2","0.8","0.4","0.6","","","","","0.2707863597","0.4769795117","0.3213687962","0.2076996705","","","","","","","","74","J","1","","","219","main_expt"
"","bandit","299","912832","0.0-260.0-0.0","81210373","wem/bandit_either_2","A34L0OOVHMBN90","either","4","37","","","","","","","0","0","1","0.4746148145","","0.2","0.8","0.4","0.6","","","","","0.2262269101","0.4746148145","0.3782095139","0.2479045362","","","","","","","","74","J","1","","","220","main_expt"
"","bandit","300","914444","0.0-261.0-0.0","81210373","wem/bandit_either_2","A34L0OOVHMBN90","either","4","87","","","","","","","0","0","1","0.4789253058","","0.2","0.8","0.4","0.6","","","","","0.2522421151","0.4789253058","0.3572699546","0.251163546","","","","","","","","74","J","1","","","221","main_expt"
"","bandit","301","915976","0.0-262.0-0.0","81210373","wem/bandit_either_2","A34L0OOVHMBN90","either","4","4","","","","","","","1","0","0","0.4765400837","","0.2","0.8","0.4","0.6","","","","","0.2323100388","0.4765400837","0.332217079","0.2653622565","","","","","","","","74","J","1","","","222","main_expt"
"","bandit","302","917506","0.0-263.0-0.0","81210373","wem/bandit_either_2","A34L0OOVHMBN90","either","4","1","","","","","","","1","0","0","0.4872993944","","0.2","0.8","0.4","0.6","","","","","0.2013525365","0.4872993944","0.3327789551","0.2034578964","","","","","","","","74","J","1","","","223","main_expt"
"","bandit","303","919098","0.0-264.0-0.0","81210373","wem/bandit_either_2","A34L0OOVHMBN90","either","4","64","","","","","","","1","0","0","0.4864577786","","0.2","0.8","0.4","0.6","","","","","0.2017363432","0.4864577786","0.3720138676","0.1176985371","","","","","","","","74","J","1","","","224","main_expt"
"","bandit","304","920667","0.0-265.0-0.0","81210373","wem/bandit_either_2","A34L0OOVHMBN90","either","4","34","","","","","","","1","0","0","0.4815865163","","0.2","0.8","0.4","0.6","","","","","0.1608447522","0.4815865163","0.4035982493","0.08531446518","","","","","","","","74","J","1","","","225","main_expt"
"","bandit","305","922225","0.0-266.0-0.0","81210373","wem/bandit_either_2","A34L0OOVHMBN90","either","4","28","","","","","","","0","0","1","0.4781941344","","0.2","0.8","0.4","0.6","","","","","0.2023183299","0.4781941344","0.3538577565","0.0901010045","","","","","","","","74","J","1","","","226","main_expt"
"","bandit","306","923816","0.0-267.0-0.0","81210373","wem/bandit_either_2","A34L0OOVHMBN90","either","4","54","","","","","","","0","0","1","0.4742279627","","0.2","0.8","0.4","0.6","","","","","0.1555458008","0.4742279627","0.4205879778","0.06499555022","","","","","","","","74","J","1","","","227","main_expt"
"","bandit","307","925394","0.0-268.0-0.0","81210373","wem/bandit_either_2","A34L0OOVHMBN90","either","4","50","","","","","","","1","0","0","0.4597327255","","0.2","0.8","0.4","0.6","","","","","0.1210896773","0.4597327255","0.4082381823","0.06967502077","","","","","","","","74","J","1","","","228","main_expt"
"","bandit","308","926966","0.0-269.0-0.0","81210373","wem/bandit_either_2","A34L0OOVHMBN90","either","4","41","","","","","","","0","0","1","0.4733003713","","0.2","0.8","0.4","0.6","","","","","0.1206830913","0.4733003713","0.4274963613","0.07642173418","","","","","","","","74","J","1","","","229","main_expt"
"","bandit","309","928541","0.0-270.0-0.0","81210373","wem/bandit_either_2","A34L0OOVHMBN90","either","4","48","","","","","","","1","0","0","0.4832022084","","0.2","0.8","0.4","0.6","","","","","0.1334008039","0.4832022084","0.4362488765","0.04973788902","","","","","","","","74","J","1","","","230","main_expt"
"","bandit","310","930122","0.0-271.0-0.0","81210373","wem/bandit_either_2","A34L0OOVHMBN90","either","4","42","","","","","","","0","0","1","","0.4802630573","0.2","0.8","0.4","0.6","0.1048467088","0.4802630573","0.4420629534","0.07419495466","","","","","","","","","","","","74","J","1","","","231","main_expt"
"","bandit","311","931726","0.0-272.0-0.0","81210373","wem/bandit_either_2","A34L0OOVHMBN90","either","4","76","","","","","","","1","0","0","0.4739318499","","0.2","0.8","0.4","0.6","","","","","0.1184002818","0.4739318499","0.4287414635","0.08125260149","","","","","","","","74","J","1","","","232","main_expt"
"","bandit","312","933263","0.0-273.0-0.0","81210373","wem/bandit_either_2","A34L0OOVHMBN90","either","4","2","","","","","","","1","0","0","0.4709765286","","0.2","0.8","0.4","0.6","","","","","0.08533064469","0.4709765286","0.4395511981","0.06057073796","","","","","","","","74","J","1","","","233","main_expt"
"","bandit","313","934810","0.0-274.0-0.0","81210373","wem/bandit_either_2","A34L0OOVHMBN90","either","4","6","","","","","","","0","0","1","","0.4658145356","0.2","0.8","0.4","0.6","0.1190123434","0.4658145356","0.4479240545","0.1037411708","","","","","","","","","","","","74","J","1","","","234","main_expt"
"","bandit","314","936393","0.0-275.0-0.0","81210373","wem/bandit_either_2","A34L0OOVHMBN90","either","4","51","","","","","","","0","0","1","0.4312508187","","0.2","0.8","0.4","0.6","","","","","0.1392024459","0.4312508187","0.4476644646","0.1267441937","","","","","","","","74","J","1","","","235","main_expt"
"","bandit","315","938026","0.0-276.0-0.0","81210373","wem/bandit_either_2","A34L0OOVHMBN90","either","4","99","","","","","","","1","0","0","0.4323277229","","0.2","0.8","0.4","0.6","","","","","0.1076242464","0.4323277229","0.457106966","0.1002206095","","","","","","","","74","J","1","","","236","main_expt"
"","bandit","316","939623","0.0-277.0-0.0","81210373","wem/bandit_either_2","A34L0OOVHMBN90","either","4","70","","","","","","","0","0","1","0.4517679415","","0.2","0.8","0.4","0.6","","","","","0.1539911713","0.4517679415","0.4097288684","0.08353940566","","","","","","","","74","J","1","","","237","main_expt"
"","bandit","317","941304","0.0-278.0-0.0","81210373","wem/bandit_either_2","A34L0OOVHMBN90","either","4","143","","","","","","","0","0","1","0.4476427196","","0.2","0.8","0.4","0.6","","","","","0.1833253983","0.4476427196","0.4530646831","0.07847158511","","","","","","","","74","J","1","","","238","main_expt"
"","bandit","318","943003","0.0-279.0-0.0","81210373","wem/bandit_either_2","A34L0OOVHMBN90","either","4","168","","","","","","","1","0","0","0.4421551546","","0.2","0.8","0.4","0.6","","","","","0.185515968","0.4421551546","0.4532148127","0.1132310855","","","","","","","","74","J","1","","","239","main_expt"
"","bandit","319","944623","0.0-280.0-0.0","81210373","wem/bandit_either_2","A34L0OOVHMBN90","either","4","93","","","","","","","0","0","1","0.4205303603","","0.2","0.8","0.4","0.6","","","","","0.2545144829","0.4205303603","0.4456906816","0.130249024","","","","","","","","74","J","1","","","240","main_expt"
"","bandit","320","946275","0.0-281.0-0.0","81210373","wem/bandit_either_2","A34L0OOVHMBN90","either","4","121","","","","","","","1","0","0","0.4304808994","","0.2","0.8","0.4","0.6","","","","","0.1902236802","0.4304808994","0.4515134246","0.1356270161","","","","","","","","74","J","1","","","241","main_expt"
"","bandit","321","947804","0.0-282.0-0.0","81210373","wem/bandit_either_2","A34L0OOVHMBN90","either","4","1","","","","","","","1","0","0","0.4318168925","","0.2","0.8","0.4","0.6","","","","","0.2196571485","0.4318168925","0.4640222466","0.1402569013","","","","","","","","74","J","1","","","242","main_expt"
"","bandit","322","949380","0.0-283.0-0.0","81210373","wem/bandit_either_2","A34L0OOVHMBN90","either","4","52","","","","","","","0","0","1","0.4437639365","","0.2","0.8","0.4","0.6","","","","","0.2691755858","0.4437639365","0.4305348251","0.1851652895","","","","","","","","74","J","1","","","243","main_expt"
"","bandit","323","951020","0.0-284.0-0.0","81210373","wem/bandit_either_2","A34L0OOVHMBN90","either","4","116","","","","","","","0","0","1","0.4444545885","","0.2","0.8","0.4","0.6","","","","","0.2689580194","0.4444545885","0.4444417595","0.1871667761","","","","","","","","74","J","1","","","244","main_expt"
"","bandit","324","952591","0.0-285.0-0.0","81210373","wem/bandit_either_2","A34L0OOVHMBN90","either","4","44","","","","","","","0","0","1","0.445216333","","0.2","0.8","0.4","0.6","","","","","0.1935089033","0.445216333","0.4468105605","0.1881322931","","","","","","","","74","J","1","","","245","main_expt"
"","bandit","325","954261","0.0-286.0-0.0","81210373","wem/bandit_either_2","A34L0OOVHMBN90","either","4","136","","","","","","","0","0","1","0.4767449203","","0.2","0.8","0.4","0.6","","","","","0.1466547275","0.4767449203","0.4453418505","0.187853128","","","","","","","","74","J","1","","","246","main_expt"
"","bandit","326","955902","0.0-287.0-0.0","81210373","wem/bandit_either_2","A34L0OOVHMBN90","either","4","106","","","","","","","0","0","1","0.4530054638","","0.2","0.8","0.4","0.6","","","","","0.1275107348","0.4530054638","0.4426138654","0.1952756904","","","","","","","","74","J","1","","","247","main_expt"
"","bandit","327","957488","0.0-288.0-0.0","81210373","wem/bandit_either_2","A34L0OOVHMBN90","either","4","58","","","","","","","0","0","1","","0.4326938674","0.2","0.8","0.4","0.6","0.107785627","0.4326938674","0.464375056","0.1722543521","","","","","","","","","","","","74","J","1","","","248","main_expt"
"","bandit","328","959120","0.0-289.0-0.0","81210373","wem/bandit_either_2","A34L0OOVHMBN90","either","4","100","","","","","","","1","0","0","0.4276367863","","0.2","0.8","0.4","0.6","","","","","0.1169449123","0.4276367863","0.4416705694","0.1935833679","","","","","","","","74","J","1","","","249","main_expt"
"","bandit","329","960771","0.0-290.0-0.0","81210373","wem/bandit_either_2","A34L0OOVHMBN90","either","4","101","","","","","","","0","0","1","0.4602627553","","0.2","0.8","0.4","0.6","","","","","0.1474950258","0.4602627553","0.4352039605","0.1783221165","","","","","","","","74","J","1","","","250","main_expt"
