"consent","trial_type","trial_index","time_elapsed","internal_node_id","subjID","study","MID","cond","drift","rt","responses","key_press","expt_phase","like","value","connected","gems","bombs","no_reward","GemPrChosen","BombPrChosen","GainOverPainPr_0","GainOverPainPr_1","GainOverPainPr_2","GainOverPainPr_3","LosePr_0","LosePr_1","LosePr_2","LosePr_3","WinPr_0","WinPr_1","WinPr_2","WinPr_3","Q0","Q1","Q2","gender","age","ethnicity","target","respCharCode","respKey","respChoiceNum","respChoice","practice","trial_counter","trial_label"
"INL_behavioral_consent_30min_online.html","consent","0","11468","0.0-0.0","82123600","wem/bandit_either_2","A2V27A9GZA1NR2","either","5","","","","","","","","","","","","","","","","","","","","","","","","","","","","","","","","","","","","","",""
"","survey-text","1","15560","0.0-1.0","82123600","wem/bandit_either_2","A2V27A9GZA1NR2","either","5","3085","{""Q0"":""A2V27A9GZA1NR2""}","","","","","","","","","","","","","","","","","","","","","","","","","","","","","","","","","","","",""
"","text","2","29732","0.0-2.0","82123600","wem/bandit_either_2","A2V27A9GZA1NR2","either","5","13170","","32","","","","","","","","","","","","","","","","","","","","","","","","","","","","","","","","","","",""
"","text","3","45659","0.0-3.0","82123600","wem/bandit_either_2","A2V27A9GZA1NR2","either","5","15926","","32","","","","","","","","","","","","","","","","","","","","","","","","","","","","","","","","","","",""
"","text","4","86968","0.0-4.0","82123600","wem/bandit_either_2","A2V27A9GZA1NR2","either","5","41308","","32","","","","","","","","","","","","","","","","","","","","","","","","","","","","","","","","","","",""
"","text","5","112471","0.0-5.0","82123600","wem/bandit_either_2","A2V27A9GZA1NR2","either","5","25503","","32","","","","","","","","","","","","","","","","","","","","","","","","","","","","","","","","","","",""
"","text","6","136256","0.0-6.0","82123600","wem/bandit_either_2","A2V27A9GZA1NR2","either","5","23783","","32","","","","","","","","","","","","","","","","","","","","","","","","","","","","","","","","","","",""
"","text","7","151291","0.0-7.0","82123600","wem/bandit_either_2","A2V27A9GZA1NR2","either","5","15034","","32","","","","","","","","","","","","","","","","","","","","","","","","","","","","","","","","","","",""
"","text","8","159850","0.0-8.0","82123600","wem/bandit_either_2","A2V27A9GZA1NR2","either","5","8558","","32","","","","","","","","","","","","","","","","","","","","","","","","","","","","","","","","","","",""
"","identification","9","174504","0.0-9.0-0.0","82123600","wem/bandit_either_2","A2V27A9GZA1NR2","either","5","14640","","","","0","0","0","","","","","","","","","","","","","","","","","","","","","","","","the village of Zur","","","","","","",""
"","identification","10","181425","0.0-9.0-1.0","82123600","wem/bandit_either_2","A2V27A9GZA1NR2","either","5","5912","","","","3","3","3","","","","","","","","","","","","","","","","","","","","","","","","the village of Nyx","","","","","","",""
"","text","11","190683","0.0-10.0","82123600","wem/bandit_either_2","A2V27A9GZA1NR2","either","5","8256","","32","","","","","","","","","","","","","","","","","","","","","","","","","","","","","","","","","","",""
"","text","12","193657","0.0-11.0","82123600","wem/bandit_either_2","A2V27A9GZA1NR2","either","5","2973","","32","","","","","","","","","","","","","","","","","","","","","","","","","","","","","","","","","","",""
"","text","13","198890","0.0-12.0","82123600","wem/bandit_either_2","A2V27A9GZA1NR2","either","5","5231","","32","","","","","","","","","","","","","","","","","","","","","","","","","","","","","","","","","","",""
"","text","14","206787","0.0-13.0","82123600","wem/bandit_either_2","A2V27A9GZA1NR2","either","5","7896","","32","","","","","","","","","","","","","","","","","","","","","","","","","","","","","","","","","","",""
"","bandit","15","211914","0.0-14.0-0.0","82123600","wem/bandit_either_2","A2V27A9GZA1NR2","either","5","3619","","","","","","","0","0","1","0","0","","","","","0","","","","0","","","","","","","","","","","74","J","0","img/none_selected_demo.jpg","true","0",""
"","bandit","16","215768","0.0-15.0-0.0","82123600","wem/bandit_either_2","A2V27A9GZA1NR2","either","5","2350","","","","","","","0","0","1","0","0","","","","","0","","","","0","","","","","","","","","","","75","K","0","img/none_selected_demo.jpg","true","0",""
"","text","17","225005","0.0-16.0","82123600","wem/bandit_either_2","A2V27A9GZA1NR2","either","5","9235","","32","","","","","","","","","","","","","","","","","","","","","","","","","","","","","","","","","","",""
"","text","18","245317","0.0-17.0","82123600","wem/bandit_either_2","A2V27A9GZA1NR2","either","5","20310","","32","","","","","","","","","","","","","","","","","","","","","","","","","","","","","","","","","","",""
"","text","19","260629","0.0-18.0","82123600","wem/bandit_either_2","A2V27A9GZA1NR2","either","5","15311","","32","","","","","","","","","","","","","","","","","","","","","","","","","","","","","","","","","","",""
"","text","20","265372","0.0-19.0","82123600","wem/bandit_either_2","A2V27A9GZA1NR2","either","5","4741","","32","","","","","","","","","","","","","","","","","","","","","","","","","","","","","","","","","","",""
"","bandit","21","268266","0.0-20.0-0.0","82123600","wem/bandit_either_2","A2V27A9GZA1NR2","either","5","1389","","","","","","","0","1","0","","0.8","0.5","0.5","","","0.8","0.2","","","","","","","","","","","","","","74","J","0","img/none_selected_demo.jpg","true","0","80_20_practice"
"","bandit","22","272341","0.0-20.0-1.0","82123600","wem/bandit_either_2","A2V27A9GZA1NR2","either","5","2569","","","","","","","1","0","0","0.2","","0.5","0.5","","","","","","","0.8","0.2","","","","","","","","","","75","K","1","","true","0","80_20_practice"
"","bandit","23","274683","0.0-20.0-2.0","82123600","wem/bandit_either_2","A2V27A9GZA1NR2","either","5","839","","","","","","","0","0","1","0.2","","0.5","0.5","","","","","","","0.8","0.2","","","","","","","","","","75","K","1","","true","0","80_20_practice"
"","bandit","24","277413","0.0-20.0-3.0","82123600","wem/bandit_either_2","A2V27A9GZA1NR2","either","5","1224","","","","","","","0","1","0","","0.2","0.5","0.5","","","0.8","0.2","","","","","","","","","","","","","","75","K","1","","true","0","80_20_practice"
"","bandit","25","279404","0.0-20.0-4.0","82123600","wem/bandit_either_2","A2V27A9GZA1NR2","either","5","487","","","","","","","0","0","1","","0.2","0.5","0.5","","","0.8","0.2","","","","","","","","","","","","","","75","K","1","","true","0","80_20_practice"
"","bandit","26","281204","0.0-20.0-5.0","82123600","wem/bandit_either_2","A2V27A9GZA1NR2","either","5","295","","","","","","","0","0","1","","0.2","0.5","0.5","","","0.8","0.2","","","","","","","","","","","","","","75","K","1","","true","0","80_20_practice"
"","bandit","27","283205","0.0-20.0-6.0","82123600","wem/bandit_either_2","A2V27A9GZA1NR2","either","5","496","","","","","","","0","1","0","","0.2","0.5","0.5","","","0.8","0.2","","","","","","","","","","","","","","75","K","1","","true","0","80_20_practice"
"","bandit","28","285010","0.0-20.0-7.0","82123600","wem/bandit_either_2","A2V27A9GZA1NR2","either","5","302","","","","","","","0","1","0","","0.8","0.5","0.5","","","0.8","0.2","","","","","","","","","","","","","","74","J","0","img/none_selected_demo.jpg","true","0","80_20_practice"
"","bandit","29","286773","0.0-20.0-8.0","82123600","wem/bandit_either_2","A2V27A9GZA1NR2","either","5","257","","","","","","","0","0","1","0.2","","0.5","0.5","","","","","","","0.8","0.2","","","","","","","","","","75","K","1","","true","0","80_20_practice"
"","bandit","30","288563","0.0-20.0-9.0","82123600","wem/bandit_either_2","A2V27A9GZA1NR2","either","5","286","","","","","","","0","1","0","","0.8","0.5","0.5","","","0.8","0.2","","","","","","","","","","","","","","74","J","0","img/none_selected_demo.jpg","true","0","80_20_practice"
"","bandit","31","290155","0.0-20.0-10.0","82123600","wem/bandit_either_2","A2V27A9GZA1NR2","either","5","87","","","","","","","0","0","1","","0.2","0.5","0.5","","","0.8","0.2","","","","","","","","","","","","","","75","K","1","","true","0","80_20_practice"
"","bandit","32","291859","0.0-20.0-11.0","82123600","wem/bandit_either_2","A2V27A9GZA1NR2","either","5","200","","","","","","","0","0","1","","0.2","0.5","0.5","","","0.8","0.2","","","","","","","","","","","","","","75","K","1","","true","0","80_20_practice"
"","bandit","33","293622","0.0-20.0-12.0","82123600","wem/bandit_either_2","A2V27A9GZA1NR2","either","5","256","","","","","","","0","0","1","0.2","","0.5","0.5","","","","","","","0.8","0.2","","","","","","","","","","75","K","1","","true","0","80_20_practice"
"","bandit","34","295324","0.0-20.0-13.0","82123600","wem/bandit_either_2","A2V27A9GZA1NR2","either","5","198","","","","","","","0","0","1","","0.2","0.5","0.5","","","0.8","0.2","","","","","","","","","","","","","","75","K","1","","true","0","80_20_practice"
"","bandit","35","296988","0.0-20.0-14.0","82123600","wem/bandit_either_2","A2V27A9GZA1NR2","either","5","158","","","","","","","0","0","1","0.2","","0.5","0.5","","","","","","","0.8","0.2","","","","","","","","","","75","K","1","","true","0","80_20_practice"
"","bandit","36","298493","0.0-20.0-15.0","82123600","wem/bandit_either_2","A2V27A9GZA1NR2","either","5","1","","","","","","","1","0","0","0.2","","0.5","0.5","","","","","","","0.8","0.2","","","","","","","","","","75","K","1","","true","0","80_20_practice"
"","bandit","37","300276","0.0-20.0-16.0","82123600","wem/bandit_either_2","A2V27A9GZA1NR2","either","5","278","","","","","","","0","1","0","","0.2","0.5","0.5","","","0.8","0.2","","","","","","","","","","","","","","75","K","1","","true","0","80_20_practice"
"","bandit","38","302156","0.0-20.0-17.0","82123600","wem/bandit_either_2","A2V27A9GZA1NR2","either","5","375","","","","","","","0","1","0","","0.2","0.5","0.5","","","0.8","0.2","","","","","","","","","","","","","","75","K","1","","true","0","80_20_practice"
"","bandit","39","303923","0.0-20.0-18.0","82123600","wem/bandit_either_2","A2V27A9GZA1NR2","either","5","264","","","","","","","0","1","0","","0.8","0.5","0.5","","","0.8","0.2","","","","","","","","","","","","","","74","J","0","img/none_selected_demo.jpg","true","0","80_20_practice"
"","bandit","40","305618","0.0-20.0-19.0","82123600","wem/bandit_either_2","A2V27A9GZA1NR2","either","5","192","","","","","","","0","0","1","","0.2","0.5","0.5","","","0.8","0.2","","","","","","","","","","","","","","75","K","1","","true","0","80_20_practice"
"","text","41","314664","0.0-21.0","82123600","wem/bandit_either_2","A2V27A9GZA1NR2","either","5","9043","","32","","","","","","","","","","","","","","","","","","","","","","","","","","","","","","","","","","",""
"","bandit","42","321244","0.0-22.0-0.0","82123600","wem/bandit_either_2","A2V27A9GZA1NR2","either","5","5076","","","","","","","0","1","0","0","1","","","","","0","1","","","1","0","","","","","","","","","","75","K","1","","true","0",""
"","text","43","329208","0.0-23.0","82123600","wem/bandit_either_2","A2V27A9GZA1NR2","either","5","7962","","32","","","","","","","","","","","","","","","","","","","","","","","","","","","","","","","","","","",""
"","text","44","333641","0.0-24.0","82123600","wem/bandit_either_2","A2V27A9GZA1NR2","either","5","4431","","32","","","","","","","","","","","","","","","","","","","","","","","","","","","","","","","","","","",""
"","text","45","338152","0.0-25.0","82123600","wem/bandit_either_2","A2V27A9GZA1NR2","either","5","4510","","32","","","","","","","","","","","","","","","","","","","","","","","","","","","","","","","","","","",""
"","text","46","342697","0.0-26.0","82123600","wem/bandit_either_2","A2V27A9GZA1NR2","either","5","4542","","32","","","","","","","","","","","","","","","","","","","","","","","","","","","","","","","","","","",""
"","text","47","350697","0.0-27.0","82123600","wem/bandit_either_2","A2V27A9GZA1NR2","either","5","7998","","32","","","","","","","","","","","","","","","","","","","","","","","","","","","","","","","","","","",""
"","text","48","359977","0.0-28.0","82123600","wem/bandit_either_2","A2V27A9GZA1NR2","either","5","9278","","32","","","","","","","","","","","","","","","","","","","","","","","","","","","","","","","","","","",""
"","text","49","366969","0.0-29.0","82123600","wem/bandit_either_2","A2V27A9GZA1NR2","either","5","6989","","32","","","","","","","","","","","","","","","","","","","","","","","","","","","","","","","","","","",""
"","text","50","370530","0.0-30.0","82123600","wem/bandit_either_2","A2V27A9GZA1NR2","either","5","3559","","32","","","","","","","","","","","","","","","","","","","","","","","","","","","","","","","","","","",""
"","text","51","380376","0.0-31.0","82123600","wem/bandit_either_2","A2V27A9GZA1NR2","either","5","9844","","32","","","","","","","","","","","","","","","","","","","","","","","","","","","","","","","","","","",""
"","text","52","387913","0.0-32.0","82123600","wem/bandit_either_2","A2V27A9GZA1NR2","either","5","7536","","32","","","","","","","","","","","","","","","","","","","","","","","","","","","","","","","","","","",""
"","text","53","389544","0.0-33.0","82123600","wem/bandit_either_2","A2V27A9GZA1NR2","either","5","1629","","32","","","","","","","","","","","","","","","","","","","","","","","","","","","","","","","","","","",""
"","bandit","54","393093","0.0-34.0-0.0","82123600","wem/bandit_either_2","A2V27A9GZA1NR2","either","5","2045","","","","","","","0","0","1","","0.2","0.5","0.5","0.5","0.5","0.8","0.2","0.6","0.2","","","","","","","","","","","","74","J","1","","true","0","full_practice"
"","bandit","55","394935","0.0-34.0-1.0","82123600","wem/bandit_either_2","A2V27A9GZA1NR2","either","5","335","","","","","","","0","1","0","","0.8","0.5","0.5","0.5","0.5","0.8","0.2","0.6","0.2","","","","","","","","","","","","72","H","0","img/none_selected.jpg","true","0","full_practice"
"","bandit","56","396729","0.0-34.0-2.0","82123600","wem/bandit_either_2","A2V27A9GZA1NR2","either","5","288","","","","","","","0","0","1","0.6","","0.5","0.5","0.5","0.5","","","","","0.8","0.2","0.6","0.2","","","","","","","","75","K","2","","true","0","full_practice"
"","bandit","57","398235","0.0-34.0-3.0","82123600","wem/bandit_either_2","A2V27A9GZA1NR2","either","5","1","","","","","","","0","0","1","","0.2","0.5","0.5","0.5","0.5","0.8","0.2","0.6","0.2","","","","","","","","","","","","76","L","3","","true","0","full_practice"
"","bandit","58","400259","0.0-34.0-4.0","82123600","wem/bandit_either_2","A2V27A9GZA1NR2","either","5","518","","","","","","","1","0","0","0.8","","0.5","0.5","0.5","0.5","","","","","0.8","0.2","0.6","0.2","","","","","","","","72","H","0","img/none_selected.jpg","true","0","full_practice"
"","bandit","59","402065","0.0-34.0-5.0","82123600","wem/bandit_either_2","A2V27A9GZA1NR2","either","5","301","","","","","","","0","1","0","","0.8","0.5","0.5","0.5","0.5","0.8","0.2","0.6","0.2","","","","","","","","","","","","72","H","0","img/none_selected.jpg","true","0","full_practice"
"","bandit","60","403906","0.0-34.0-6.0","82123600","wem/bandit_either_2","A2V27A9GZA1NR2","either","5","335","","","","","","","1","0","0","0.8","","0.5","0.5","0.5","0.5","","","","","0.8","0.2","0.6","0.2","","","","","","","","72","H","0","img/none_selected.jpg","true","0","full_practice"
"","bandit","61","405664","0.0-34.0-7.0","82123600","wem/bandit_either_2","A2V27A9GZA1NR2","either","5","255","","","","","","","1","0","0","0.8","","0.5","0.5","0.5","0.5","","","","","0.8","0.2","0.6","0.2","","","","","","","","72","H","0","img/none_selected.jpg","true","0","full_practice"
"","bandit","62","407385","0.0-34.0-8.0","82123600","wem/bandit_either_2","A2V27A9GZA1NR2","either","5","216","","","","","","","1","0","0","0.8","","0.5","0.5","0.5","0.5","","","","","0.8","0.2","0.6","0.2","","","","","","","","72","H","0","img/none_selected.jpg","true","0","full_practice"
"","bandit","63","409136","0.0-34.0-9.0","82123600","wem/bandit_either_2","A2V27A9GZA1NR2","either","5","248","","","","","","","0","1","0","","0.8","0.5","0.5","0.5","0.5","0.8","0.2","0.6","0.2","","","","","","","","","","","","72","H","0","img/none_selected.jpg","true","0","full_practice"
"","bandit","64","410938","0.0-34.0-10.0","82123600","wem/bandit_either_2","A2V27A9GZA1NR2","either","5","297","","","","","","","0","0","1","","0.2","0.5","0.5","0.5","0.5","0.8","0.2","0.6","0.2","","","","","","","","","","","","74","J","1","","true","0","full_practice"
"","bandit","65","412521","0.0-34.0-11.0","82123600","wem/bandit_either_2","A2V27A9GZA1NR2","either","5","78","","","","","","","1","0","0","0.8","","0.5","0.5","0.5","0.5","","","","","0.8","0.2","0.6","0.2","","","","","","","","72","H","0","img/none_selected.jpg","true","0","full_practice"
"","bandit","66","414279","0.0-34.0-12.0","82123600","wem/bandit_either_2","A2V27A9GZA1NR2","either","5","254","","","","","","","0","1","0","","0.6","0.5","0.5","0.5","0.5","0.8","0.2","0.6","0.2","","","","","","","","","","","","75","K","2","","true","0","full_practice"
"","bandit","67","415864","0.0-34.0-13.0","82123600","wem/bandit_either_2","A2V27A9GZA1NR2","either","5","80","","","","","","","1","0","0","0.8","","0.5","0.5","0.5","0.5","","","","","0.8","0.2","0.6","0.2","","","","","","","","72","H","0","img/none_selected.jpg","true","0","full_practice"
"","bandit","68","417490","0.0-34.0-14.0","82123600","wem/bandit_either_2","A2V27A9GZA1NR2","either","5","120","","","","","","","0","0","1","0.2","","0.5","0.5","0.5","0.5","","","","","0.8","0.2","0.6","0.2","","","","","","","","76","L","3","","true","0","full_practice"
"","bandit","69","419042","0.0-34.0-15.0","82123600","wem/bandit_either_2","A2V27A9GZA1NR2","either","5","46","","","","","","","1","0","0","0.8","","0.5","0.5","0.5","0.5","","","","","0.8","0.2","0.6","0.2","","","","","","","","72","H","0","img/none_selected.jpg","true","0","full_practice"
"","bandit","70","420682","0.0-34.0-16.0","82123600","wem/bandit_either_2","A2V27A9GZA1NR2","either","5","135","","","","","","","0","0","1","","0.2","0.5","0.5","0.5","0.5","0.8","0.2","0.6","0.2","","","","","","","","","","","","74","J","1","","true","0","full_practice"
"","bandit","71","422234","0.0-34.0-17.0","82123600","wem/bandit_either_2","A2V27A9GZA1NR2","either","5","48","","","","","","","0","1","0","","0.8","0.5","0.5","0.5","0.5","0.8","0.2","0.6","0.2","","","","","","","","","","","","72","H","0","img/none_selected.jpg","true","0","full_practice"
"","bandit","72","423856","0.0-34.0-18.0","82123600","wem/bandit_either_2","A2V27A9GZA1NR2","either","5","117","","","","","","","1","0","0","0.8","","0.5","0.5","0.5","0.5","","","","","0.8","0.2","0.6","0.2","","","","","","","","72","H","0","img/none_selected.jpg","true","0","full_practice"
"","bandit","73","425455","0.0-34.0-19.0","82123600","wem/bandit_either_2","A2V27A9GZA1NR2","either","5","96","","","","","","","1","0","0","0.8","","0.5","0.5","0.5","0.5","","","","","0.8","0.2","0.6","0.2","","","","","","","","72","H","0","img/none_selected.jpg","true","0","full_practice"
"","text","74","431420","0.0-35.0","82123600","wem/bandit_either_2","A2V27A9GZA1NR2","either","5","5958","","32","","","","","","","","","","","","","","","","","","","","","","","","","","","","","","","","","","",""
"","text","75","455663","0.0-36.0","82123600","wem/bandit_either_2","A2V27A9GZA1NR2","either","5","23240","","32","","","","","","","","","","","","","","","","","","","","","","","","","","","","","","","","","","",""
"","text","76","458893","0.0-37.0","82123600","wem/bandit_either_2","A2V27A9GZA1NR2","either","5","3229","","32","","","","","","","","","","","","","","","","","","","","","","","","","","","","","","","","","","",""
"","text","77","461053","0.0-38.0","82123600","wem/bandit_either_2","A2V27A9GZA1NR2","either","5","2158","","32","","","","","","","","","","","","","","","","","","","","","","","","","","","","","","","","","","",""
"","text","78","467158","0.0-39.0","82123600","wem/bandit_either_2","A2V27A9GZA1NR2","either","5","6103","","32","","","","","","","","","","","","","","","","","","","","","","","","","","","","","","","","","","",""
"","text","79","470470","0.0-40.0","82123600","wem/bandit_either_2","A2V27A9GZA1NR2","either","5","3309","","32","","","","","","","","","","","","","","","","","","","","","","","","","","","","","","","","","","",""
"","bandit","80","474308","0.0-41.0-0.0","82123600","wem/bandit_either_2","A2V27A9GZA1NR2","either","5","2332","","","","","","","0","0","1","","0.3897275569","0.2","0.4","0.8","0.6","0.3897275569","0.3340388524","0.4265570961","0.1165465043","","","","","","","","","","","","72","H","0","img/none_selected.jpg","","1","main_expt"
"","bandit","81","476147","0.0-42.0-0.0","82123600","wem/bandit_either_2","A2V27A9GZA1NR2","either","5","334","","","","","","","0","0","1","0.3223834482","","0.2","0.4","0.8","0.6","","","","","0.3911966266","0.3223834482","0.4177099958","0.08371899021","","","","","","","","74","J","1","","","2","main_expt"
"","bandit","82","477963","0.0-43.0-0.0","82123600","wem/bandit_either_2","A2V27A9GZA1NR2","either","5","311","","","","","","","0","0","1","","0.4074861021","0.2","0.4","0.8","0.6","0.4074861021","0.3585509001","0.4192185534","0.04339790364","","","","","","","","","","","","72","H","0","img/none_selected.jpg","","3","main_expt"
"","bandit","83","479645","0.0-44.0-0.0","82123600","wem/bandit_either_2","A2V27A9GZA1NR2","either","5","176","","","","","","","0","0","1","0.4241610434","","0.2","0.4","0.8","0.6","","","","","0.3965638453","0.3416436242","0.4241610434","0.04073472785","","","","","","","","75","K","2","","","4","main_expt"
"","bandit","84","481291","0.0-45.0-0.0","82123600","wem/bandit_either_2","A2V27A9GZA1NR2","either","5","141","","","","","","","0","0","1","","0.3688269119","0.2","0.4","0.8","0.6","0.3688269119","0.3444758892","0.4284837315","0.04731773769","","","","","","","","","","","","72","H","0","img/none_selected.jpg","","5","main_expt"
"","bandit","85","482939","0.0-46.0-0.0","82123600","wem/bandit_either_2","A2V27A9GZA1NR2","either","5","143","","","","","","","0","0","1","0.05617088868","","0.2","0.4","0.8","0.6","","","","","0.3865867917","0.3574177426","0.4328708062","0.05617088868","","","","","","","","76","L","3","","","6","main_expt"
"","bandit","86","484739","0.0-47.0-0.0","82123600","wem/bandit_either_2","A2V27A9GZA1NR2","either","5","294","","","","","","","0","0","1","","0.4294719924","0.2","0.4","0.8","0.6","0.4294719924","0.3634052143","0.4176545671","0.05606577856","","","","","","","","","","","","72","H","0","img/none_selected.jpg","","7","main_expt"
"","bandit","87","486547","0.0-48.0-0.0","82123600","wem/bandit_either_2","A2V27A9GZA1NR2","either","5","302","","","","","","","0","0","1","","0.3675420607","0.2","0.4","0.8","0.6","0.4210378118","0.3675420607","0.4022395488","0.09244853328","","","","","","","","","","","","74","J","1","","","8","main_expt"
"","bandit","88","488108","0.0-49.0-0.0","82123600","wem/bandit_either_2","A2V27A9GZA1NR2","either","5","55","","","","","","","0","0","1","0.3929004949","","0.2","0.4","0.8","0.6","","","","","0.4502112583","0.3921196104","0.3929004949","0.1271341085","","","","","","","","75","K","2","","","9","main_expt"
"","bandit","89","489723","0.0-50.0-0.0","82123600","wem/bandit_either_2","A2V27A9GZA1NR2","either","5","111","","","","","","","0","1","0","","0.4452653155","0.2","0.4","0.8","0.6","0.4452653155","0.4026182126","0.3863711448","0.1370717255","","","","","","","","","","","","72","H","0","img/none_selected.jpg","","10","main_expt"
"","bandit","90","491716","0.0-51.0-0.0","82123600","wem/bandit_either_2","A2V27A9GZA1NR2","either","5","486","","","","","","","0","1","0","","0.4352349267","0.2","0.4","0.8","0.6","0.4352349267","0.3543069494","0.4205849279","0.1275050207","","","","","","","","","","","","72","H","0","img/none_selected.jpg","","11","main_expt"
"","bandit","91","493420","0.0-52.0-0.0","82123600","wem/bandit_either_2","A2V27A9GZA1NR2","either","5","198","","","","","","","0","0","1","0.122317004","","0.2","0.4","0.8","0.6","","","","","0.4029030639","0.3504097904","0.4525069231","0.122317004","","","","","","","","76","L","3","","","12","main_expt"
"","bandit","92","495155","0.0-53.0-0.0","82123600","wem/bandit_either_2","A2V27A9GZA1NR2","either","5","230","","","","","","","0","0","1","","0.1251711411","0.2","0.4","0.8","0.6","0.4198147105","0.2787441393","0.4485799753","0.1251711411","","","","","","","","","","","","76","L","3","","","13","main_expt"
"","bandit","93","496963","0.0-54.0-0.0","82123600","wem/bandit_either_2","A2V27A9GZA1NR2","either","5","303","","","","","","","0","0","1","0.4504049656","","0.2","0.4","0.8","0.6","","","","","0.3761312174","0.2723245106","0.4504049656","0.1380641988","","","","","","","","75","K","2","","","14","main_expt"
"","bandit","94","498571","0.0-55.0-0.0","82123600","wem/bandit_either_2","A2V27A9GZA1NR2","either","5","103","","","","","","","0","0","1","","0.2010812313","0.2","0.4","0.8","0.6","0.4017507227","0.3687644442","0.4281165459","0.2010812313","","","","","","","","","","","","76","L","3","","","15","main_expt"
"","bandit","95","500196","0.0-56.0-0.0","82123600","wem/bandit_either_2","A2V27A9GZA1NR2","either","5","119","","","","","","","0","0","1","","0.3859888637","0.2","0.4","0.8","0.6","0.3859888637","0.3992289848","0.4035101098","0.1747275657","","","","","","","","","","","","72","H","0","img/none_selected.jpg","","16","main_expt"
"","bandit","96","501953","0.0-57.0-0.0","82123600","wem/bandit_either_2","A2V27A9GZA1NR2","either","5","253","","","","","","","1","0","0","0.4067061876","","0.2","0.4","0.8","0.6","","","","","0.3706978481","0.4067061876","0.4063691663","0.1816524112","","","","","","","","74","J","1","","","17","main_expt"
"","bandit","97","503531","0.0-58.0-0.0","82123600","wem/bandit_either_2","A2V27A9GZA1NR2","either","5","71","","","","","","","0","0","1","","0.3969002131","0.2","0.4","0.8","0.6","0.3323991027","0.3969002131","0.4201618032","0.1700798448","","","","","","","","","","","","74","J","1","","","18","main_expt"
"","bandit","98","505244","0.0-59.0-0.0","82123600","wem/bandit_either_2","A2V27A9GZA1NR2","either","5","207","","","","","","","0","1","0","","0.3301718366","0.2","0.4","0.8","0.6","0.3301718366","0.3930099592","0.3868389751","0.1998500639","","","","","","","","","","","","72","H","0","img/none_selected.jpg","","19","main_expt"
"","bandit","99","506804","0.0-60.0-0.0","82123600","wem/bandit_either_2","A2V27A9GZA1NR2","either","5","54","","","","","","","0","0","1","0.3868875991","","0.2","0.4","0.8","0.6","","","","","0.3714618997","0.3791602553","0.3868875991","0.2418808817","","","","","","","","75","K","2","","","20","main_expt"
"","bandit","100","508580","0.0-61.0-0.0","82123600","wem/bandit_either_2","A2V27A9GZA1NR2","either","5","270","","","","","","","0","0","1","","0.4127515201","0.2","0.4","0.8","0.6","0.3621694591","0.4127515201","0.4253770554","0.2293341009","","","","","","","","","","","","74","J","1","","","21","main_expt"
"","bandit","101","510373","0.0-62.0-0.0","82123600","wem/bandit_either_2","A2V27A9GZA1NR2","either","5","286","","","","","","","0","0","1","0.2074184163","","0.2","0.4","0.8","0.6","","","","","0.3648829928","0.4164833055","0.4285762007","0.2074184163","","","","","","","","76","L","3","","","22","main_expt"
"","bandit","102","511905","0.0-63.0-0.0","82123600","wem/bandit_either_2","A2V27A9GZA1NR2","either","5","29","","","","","","","0","1","0","","0.4143027846","0.2","0.4","0.8","0.6","0.2856994719","0.4143027846","0.4082522222","0.1832507358","","","","","","","","","","","","74","J","1","","","23","main_expt"
"","bandit","103","513700","0.0-64.0-0.0","82123600","wem/bandit_either_2","A2V27A9GZA1NR2","either","5","288","","","","","","","0","1","0","","0.3152516524","0.2","0.4","0.8","0.6","0.3152516524","0.3649270698","0.4027270218","0.1469425149","","","","","","","","","","","","72","H","0","img/none_selected.jpg","","24","main_expt"
"","bandit","104","515313","0.0-65.0-0.0","82123600","wem/bandit_either_2","A2V27A9GZA1NR2","either","5","110","","","","","","","0","1","0","","0.2778145345","0.2","0.4","0.8","0.6","0.2778145345","0.392676409","0.4100212433","0.102794739","","","","","","","","","","","","72","H","0","img/none_selected.jpg","","25","main_expt"
"","bandit","105","516871","0.0-66.0-0.0","82123600","wem/bandit_either_2","A2V27A9GZA1NR2","either","5","48","","","","","","","0","0","1","0.4031565401","","0.2","0.4","0.8","0.6","","","","","0.3170506137","0.4031565401","0.4190791169","0.1173732637","","","","","","","","74","J","1","","","26","main_expt"
"","bandit","106","518503","0.0-67.0-0.0","82123600","wem/bandit_either_2","A2V27A9GZA1NR2","either","5","126","","","","","","","1","0","0","0.4527212376","","0.2","0.4","0.8","0.6","","","","","0.3223143746","0.4245959001","0.4527212376","0.08835016803","","","","","","","","75","K","2","","","27","main_expt"
"","bandit","107","520111","0.0-68.0-0.0","82123600","wem/bandit_either_2","A2V27A9GZA1NR2","either","5","102","","","","","","","0","0","1","","0.4232885055","0.2","0.4","0.8","0.6","0.3234472479","0.4232885055","0.4480998813","0.1134440288","","","","","","","","","","","","74","J","1","","","28","main_expt"
"","bandit","108","522056","0.0-69.0-0.0","82123600","wem/bandit_either_2","A2V27A9GZA1NR2","either","5","437","","","","","","","0","0","1","0.4628669208","","0.2","0.4","0.8","0.6","","","","","0.2881425904","0.4495512981","0.4628669208","0.1982905849","","","","","","","","75","K","2","","","29","main_expt"
"","bandit","109","523704","0.0-70.0-0.0","82123600","wem/bandit_either_2","A2V27A9GZA1NR2","either","5","142","","","","","","","0","0","1","","0.2366655967","0.2","0.4","0.8","0.6","0.2326555855","0.4485299892","0.4565655028","0.2366655967","","","","","","","","","","","","76","L","3","","","30","main_expt"
"","bandit","110","525312","0.0-71.0-0.0","82123600","wem/bandit_either_2","A2V27A9GZA1NR2","either","5","102","","","","","","","0","0","1","0.4686031056","","0.2","0.4","0.8","0.6","","","","","0.2364604256","0.4599237238","0.4686031056","0.1622470467","","","","","","","","75","K","2","","","31","main_expt"
"","bandit","111","526855","0.0-72.0-0.0","82123600","wem/bandit_either_2","A2V27A9GZA1NR2","either","5","38","","","","","","","0","0","1","","0.4508116693","0.2","0.4","0.8","0.6","0.2451982598","0.4508116693","0.4659582456","0.1771911602","","","","","","","","","","","","74","J","1","","","32","main_expt"
"","bandit","112","528558","0.0-73.0-0.0","82123600","wem/bandit_either_2","A2V27A9GZA1NR2","either","5","198","","","","","","","0","0","1","0.1622836308","","0.2","0.4","0.8","0.6","","","","","0.2360369815","0.45101727","0.4810757035","0.1622836308","","","","","","","","76","L","3","","","33","main_expt"
"","bandit","113","530103","0.0-74.0-0.0","82123600","wem/bandit_either_2","A2V27A9GZA1NR2","either","5","39","","","","","","","0","0","1","0.4842727378","","0.2","0.4","0.8","0.6","","","","","0.2317763892","0.4340174653","0.4842727378","0.1655985557","","","","","","","","75","K","2","","","34","main_expt"
"","bandit","114","531680","0.0-75.0-0.0","82123600","wem/bandit_either_2","A2V27A9GZA1NR2","either","5","72","","","","","","","0","0","1","","0.4745470136","0.2","0.4","0.8","0.6","0.2527891731","0.4040147441","0.4745470136","0.1492797185","","","","","","","","","","","","75","K","2","","","35","main_expt"
"","bandit","115","533207","0.0-76.0-0.0","82123600","wem/bandit_either_2","A2V27A9GZA1NR2","either","5","22","","","","","","","1","0","0","0.4268829696","","0.2","0.4","0.8","0.6","","","","","0.2641283143","0.4268829696","0.4440965139","0.1504543003","","","","","","","","74","J","1","","","36","main_expt"
"","bandit","116","534797","0.0-77.0-0.0","82123600","wem/bandit_either_2","A2V27A9GZA1NR2","either","5","86","","","","","","","0","1","0","","0.4544425755","0.2","0.4","0.8","0.6","0.2309310423","0.4562327564","0.4544425755","0.1064249526","","","","","","","","","","","","75","K","2","","","37","main_expt"
"","bandit","117","536453","0.0-78.0-0.0","82123600","wem/bandit_either_2","A2V27A9GZA1NR2","either","5","150","","","","","","","1","0","0","0.4481627861","","0.2","0.4","0.8","0.6","","","","","0.2093170459","0.4481627861","0.4700138218","0.1346530267","","","","","","","","74","J","1","","","38","main_expt"
"","bandit","118","538167","0.0-79.0-0.0","82123600","wem/bandit_either_2","A2V27A9GZA1NR2","either","5","206","","","","","","","1","0","0","0.4475890948","","0.2","0.4","0.8","0.6","","","","","0.1398625959","0.4475890948","0.466948448","0.1303494481","","","","","","","","74","J","1","","","39","main_expt"
"","bandit","119","539959","0.0-80.0-0.0","82123600","wem/bandit_either_2","A2V27A9GZA1NR2","either","5","287","","","","","","","0","0","1","0.4501575696","","0.2","0.4","0.8","0.6","","","","","0.09690087606","0.4501575696","0.4679256248","0.1492074344","","","","","","","","74","J","1","","","40","main_expt"
"","bandit","120","541753","0.0-81.0-0.0","82123600","wem/bandit_either_2","A2V27A9GZA1NR2","either","5","287","","","","","","","0","0","1","0.1370672299","","0.2","0.4","0.8","0.6","","","","","0.1129569356","0.4121884666","0.445537573","0.1370672299","","","","","","","","76","L","3","","","41","main_expt"
"","bandit","121","543528","0.0-82.0-0.0","82123600","wem/bandit_either_2","A2V27A9GZA1NR2","either","5","268","","","","","","","0","0","1","0.4379939247","","0.2","0.4","0.8","0.6","","","","","0.1227033228","0.4379939247","0.4521531226","0.08144147181","","","","","","","","74","J","1","","","42","main_expt"
"","bandit","122","545344","0.0-83.0-0.0","82123600","wem/bandit_either_2","A2V27A9GZA1NR2","either","5","309","","","","","","","0","0","1","","0.06793865388","0.2","0.4","0.8","0.6","0.08393287497","0.4271747655","0.4695072217","0.06793865388","","","","","","","","","","","","76","L","3","","","43","main_expt"
"","bandit","123","546850","0.0-84.0-0.0","82123600","wem/bandit_either_2","A2V27A9GZA1NR2","either","5","1","","","","","","","1","0","0","0.4480494518","","0.2","0.4","0.8","0.6","","","","","0.06260074275","0.4480494518","0.4807409838","0.05295344446","","","","","","","","74","J","1","","","44","main_expt"
"","bandit","124","549351","0.0-85.0-0.0","82123600","wem/bandit_either_2","A2V27A9GZA1NR2","either","5","995","","","","","","","1","0","0","0.4269729589","","0.2","0.4","0.8","0.6","","","","","0.08062123592","0.4269729589","0.4507048108","0.02744239742","","","","","","","","74","J","1","","","45","main_expt"
"","bandit","125","551127","0.0-86.0-0.0","82123600","wem/bandit_either_2","A2V27A9GZA1NR2","either","5","270","","","","","","","0","0","1","0.1110847749","","0.2","0.4","0.8","0.6","","","","","0.1110847749","0.4475746277","0.4382321206","0.02347437243","","","","","","","","72","H","0","img/none_selected.jpg","","46","main_expt"
"","bandit","126","553375","0.0-87.0-0.0","82123600","wem/bandit_either_2","A2V27A9GZA1NR2","either","5","743","","","","","","","0","0","1","","0.4295618238","0.2","0.4","0.8","0.6","0.05346849493","0.4295618238","0.4393937913","0.02418160198","","","","","","","","","","","","74","J","1","","","47","main_expt"
"","bandit","127","555239","0.0-88.0-0.0","82123600","wem/bandit_either_2","A2V27A9GZA1NR2","either","5","357","","","","","","","0","0","1","","0.01182676654","0.2","0.4","0.8","0.6","0.04499733497","0.4431907244","0.440318131","0.01182676654","","","","","","","","","","","","76","L","3","","","48","main_expt"
"","bandit","128","557184","0.0-89.0-0.0","82123600","wem/bandit_either_2","A2V27A9GZA1NR2","either","5","437","","","","","","","0","0","1","0.4187732916","","0.2","0.4","0.8","0.6","","","","","0.07378534534","0.4187732916","0.4362102412","0.0186287842","","","","","","","","74","J","1","","","49","main_expt"
"","bandit","129","559039","0.0-90.0-0.0","82123600","wem/bandit_either_2","A2V27A9GZA1NR2","either","5","349","","","","","","","0","0","1","0.44488671","","0.2","0.4","0.8","0.6","","","","","0.06168845619","0.356579213","0.44488671","0.02550629551","","","","","","","","75","K","2","","","50","main_expt"
"","bandit","130","560720","0.0-91.0-0.0","82123600","wem/bandit_either_2","A2V27A9GZA1NR2","either","5","173","","","","","","","0","0","1","0.2629404955","","0.2","0.4","0.8","0.6","","","","","0.1062028567","0.2629404955","0.4633405548","0.04366809707","","","","","","","","74","J","1","","","51","main_expt"
"","bandit","131","562839","0.0-92.0-0.0","82123600","wem/bandit_either_2","A2V27A9GZA1NR2","either","5","613","","","","","","","0","0","1","","0.04357168116","0.2","0.4","0.8","0.6","0.1379608546","0.2919747068","0.4528043762","0.04357168116","","","","","","","","","","","","76","L","3","","","52","main_expt"
"","bandit","132","564673","0.0-93.0-0.0","82123600","wem/bandit_either_2","A2V27A9GZA1NR2","either","5","326","","","","","","","0","0","1","","0.3809901122","0.2","0.4","0.8","0.6","0.1356826849","0.3809901122","0.4390431751","0.03899227154","","","","","","","","","","","","74","J","1","","","53","main_expt"
"","bandit","133","566583","0.0-94.0-0.0","82123600","wem/bandit_either_2","A2V27A9GZA1NR2","either","5","404","","","","","","","0","0","1","","0.4549270822","0.2","0.4","0.8","0.6","0.1038772241","0.3452518694","0.4549270822","0.04009146386","","","","","","","","","","","","75","K","2","","","54","main_expt"
"","bandit","134","568174","0.0-95.0-0.0","82123600","wem/bandit_either_2","A2V27A9GZA1NR2","either","5","86","","","","","","","0","0","1","0.3263112327","","0.2","0.4","0.8","0.6","","","","","0.1689791829","0.3263112327","0.4710341864","0.0155768565","","","","","","","","74","J","1","","","55","main_expt"
"","bandit","135","569767","0.0-96.0-0.0","82123600","wem/bandit_either_2","A2V27A9GZA1NR2","either","5","85","","","","","","","0","0","1","0.02112461672","","0.2","0.4","0.8","0.6","","","","","0.1108888145","0.3308963945","0.4745834276","0.02112461672","","","","","","","","76","L","3","","","56","main_expt"
"","bandit","136","571487","0.0-97.0-0.0","82123600","wem/bandit_either_2","A2V27A9GZA1NR2","either","5","213","","","","","","","0","0","1","","0.3150326571","0.2","0.4","0.8","0.6","0.1206542402","0.3150326571","0.489318572","0.0126553198","","","","","","","","","","","","74","J","1","","","57","main_expt"
"","bandit","137","573111","0.0-98.0-0.0","82123600","wem/bandit_either_2","A2V27A9GZA1NR2","either","5","117","","","","","","","0","0","1","","0.09707343937","0.2","0.4","0.8","0.6","0.09707343937","0.3049116772","0.480037986","0.01131359515","","","","","","","","","","","","72","H","0","img/none_selected.jpg","","58","main_expt"
"","bandit","138","574872","0.0-99.0-0.0","82123600","wem/bandit_either_2","A2V27A9GZA1NR2","either","5","255","","","","","","","0","0","1","0.3050987947","","0.2","0.4","0.8","0.6","","","","","0.1044384952","0.3050987947","0.4593461039","0.01030075821","","","","","","","","74","J","1","","","59","main_expt"
"","bandit","139","576898","0.0-100.0-0.0","82123600","wem/bandit_either_2","A2V27A9GZA1NR2","either","5","516","","","","","","","0","0","1","0.3274009355","","0.2","0.4","0.8","0.6","","","","","0.08890369623","0.3274009355","0.446051488","0.005868957973","","","","","","","","74","J","1","","","60","main_expt"
"","bandit","140","578738","0.0-101.0-0.0","82123600","wem/bandit_either_2","A2V27A9GZA1NR2","either","5","333","","","","","","","0","0","1","0.3428943983","","0.2","0.4","0.8","0.6","","","","","0.08921221942","0.3428943983","0.4391285327","0.004361943215","","","","","","","","74","J","1","","","61","main_expt"
"","bandit","141","580426","0.0-102.0-0.0","82123600","wem/bandit_either_2","A2V27A9GZA1NR2","either","5","181","","","","","","","0","0","1","","0.3549763931","0.2","0.4","0.8","0.6","0.09812025034","0.3549763931","0.4063883723","0.005208412743","","","","","","","","","","","","74","J","1","","","62","main_expt"
"","bandit","142","582176","0.0-103.0-0.0","82123600","wem/bandit_either_2","A2V27A9GZA1NR2","either","5","245","","","","","","","0","0","1","0.006461011255","","0.2","0.4","0.8","0.6","","","","","0.09006279409","0.3496678451","0.4330387396","0.006461011255","","","","","","","","76","L","3","","","63","main_expt"
"","bandit","143","584025","0.0-104.0-0.0","82123600","wem/bandit_either_2","A2V27A9GZA1NR2","either","5","341","","","","","","","1","0","0","0.3188537263","","0.2","0.4","0.8","0.6","","","","","0.1118976224","0.3188537263","0.4207902426","0.01267926231","","","","","","","","74","J","1","","","64","main_expt"
"","bandit","144","586242","0.0-105.0-0.0","82123600","wem/bandit_either_2","A2V27A9GZA1NR2","either","5","711","","","","","","","0","0","1","0.3191795336","","0.2","0.4","0.8","0.6","","","","","0.1053817613","0.3191795336","0.3719582347","0.009732787917","","","","","","","","74","J","1","","","65","main_expt"
"","bandit","145","587849","0.0-106.0-0.0","82123600","wem/bandit_either_2","A2V27A9GZA1NR2","either","5","99","","","","","","","0","0","1","","0.268616347","0.2","0.4","0.8","0.6","0.1307356695","0.268616347","0.3748569955","0.01092542651","","","","","","","","","","","","74","J","1","","","66","main_expt"
"","bandit","146","589729","0.0-107.0-0.0","82123600","wem/bandit_either_2","A2V27A9GZA1NR2","either","5","373","","","","","","","0","0","1","0.259194563","","0.2","0.4","0.8","0.6","","","","","0.1418436428","0.259194563","0.335252031","0.02125534741","","","","","","","","74","J","1","","","67","main_expt"
"","bandit","147","591671","0.0-108.0-0.0","82123600","wem/bandit_either_2","A2V27A9GZA1NR2","either","5","436","","","","","","","1","0","0","0.3199157278","","0.2","0.4","0.8","0.6","","","","","0.1459089566","0.2281204868","0.3199157278","0.02360283027","","","","","","","","75","K","2","","","68","main_expt"
"","bandit","148","593386","0.0-109.0-0.0","82123600","wem/bandit_either_2","A2V27A9GZA1NR2","either","5","207","","","","","","","0","0","1","","0.2195844169","0.2","0.4","0.8","0.6","0.1809721424","0.2195844169","0.3068525281","0.02539305756","","","","","","","","","","","","74","J","1","","","69","main_expt"
"","bandit","149","595130","0.0-110.0-0.0","82123600","wem/bandit_either_2","A2V27A9GZA1NR2","either","5","237","","","","","","","0","1","0","","0.3181076016","0.2","0.4","0.8","0.6","0.1784068974","0.1883338509","0.3181076016","0.05014388586","","","","","","","","","","","","75","K","2","","","70","main_expt"
"","bandit","150","596786","0.0-111.0-0.0","82123600","wem/bandit_either_2","A2V27A9GZA1NR2","either","5","150","","","","","","","0","0","1","0.04209054697","","0.2","0.4","0.8","0.6","","","","","0.1973023396","0.1639708178","0.2926426422","0.04209054697","","","","","","","","76","L","3","","","71","main_expt"
"","bandit","151","598449","0.0-112.0-0.0","82123600","wem/bandit_either_2","A2V27A9GZA1NR2","either","5","155","","","","","","","0","1","0","","0.1312842785","0.2","0.4","0.8","0.6","0.2436342847","0.1312842785","0.2380263643","0.05611199342","","","","","","","","","","","","74","J","1","","","72","main_expt"
"","bandit","152","600185","0.0-113.0-0.0","82123600","wem/bandit_either_2","A2V27A9GZA1NR2","either","5","230","","","","","","","0","0","1","","0.1992173182","0.2","0.4","0.8","0.6","0.1992173182","0.1805041857","0.2407197948","0.05293238473","","","","","","","","","","","","72","H","0","img/none_selected.jpg","","73","main_expt"
"","bandit","153","601831","0.0-114.0-0.0","82123600","wem/bandit_either_2","A2V27A9GZA1NR2","either","5","141","","","","","","","0","0","1","0.1739557812","","0.2","0.4","0.8","0.6","","","","","0.2347098304","0.1739557812","0.2317468449","0.0318456884","","","","","","","","74","J","1","","","74","main_expt"
"","bandit","154","603785","0.0-115.0-0.0","82123600","wem/bandit_either_2","A2V27A9GZA1NR2","either","5","446","","","","","","","1","0","0","0.2545997551","","0.2","0.4","0.8","0.6","","","","","0.2641442137","0.2434916027","0.2545997551","0.03873230677","","","","","","","","75","K","2","","","75","main_expt"
"","bandit","155","605465","0.0-116.0-0.0","82123600","wem/bandit_either_2","A2V27A9GZA1NR2","either","5","172","","","","","","","0","0","1","0.2438468568","","0.2","0.4","0.8","0.6","","","","","0.3192644053","0.2438468568","0.2890845388","0.03304947682","","","","","","","","74","J","1","","","76","main_expt"
"","bandit","156","606993","0.0-117.0-0.0","82123600","wem/bandit_either_2","A2V27A9GZA1NR2","either","5","23","","","","","","","0","0","1","","0.02607887458","0.2","0.4","0.8","0.6","0.3351132613","0.2425324642","0.2386362654","0.02607887458","","","","","","","","","","","","76","L","3","","","77","main_expt"
"","bandit","157","619307","0.0-118.0-0.0","82123600","wem/bandit_either_2","A2V27A9GZA1NR2","either","5","10806","","","","","","","0","0","1","0.205588479","","0.2","0.4","0.8","0.6","","","","","0.3086784207","0.205588479","0.2673679704","0.02492981692","","","","","","","","74","J","1","","","78","main_expt"
"","bandit","158","621151","0.0-119.0-0.0","82123600","wem/bandit_either_2","A2V27A9GZA1NR2","either","5","339","","","","","","","1","0","0","0.2813811921","","0.2","0.4","0.8","0.6","","","","","0.3076482073","0.213062191","0.2813811921","0.01824110002","","","","","","","","75","K","2","","","79","main_expt"
"","bandit","159","622921","0.0-120.0-0.0","82123600","wem/bandit_either_2","A2V27A9GZA1NR2","either","5","263","","","","","","","0","0","1","","0.1852926048","0.2","0.4","0.8","0.6","0.3605025214","0.1852926048","0.2419447949","0.0202176162","","","","","","","","","","","","74","J","1","","","80","main_expt"
"","bandit","160","624783","0.0-121.0-0.0","82123600","wem/bandit_either_2","A2V27A9GZA1NR2","either","5","357","","","","","","","0","0","1","0.0252752587","","0.2","0.4","0.8","0.6","","","","","0.3286166321","0.2332942271","0.323481111","0.0252752587","","","","","","","","76","L","3","","","81","main_expt"
"","bandit","161","626577","0.0-122.0-0.0","82123600","wem/bandit_either_2","A2V27A9GZA1NR2","either","5","285","","","","","","","0","1","0","","0.3459677762","0.2","0.4","0.8","0.6","0.3459677762","0.2087797338","0.3097244961","0.05668457717","","","","","","","","","","","","72","H","0","img/none_selected.jpg","","82","main_expt"
"","bandit","162","628098","0.0-123.0-0.0","82123600","wem/bandit_either_2","A2V27A9GZA1NR2","either","5","13","","","","","","","0","0","1","0.2049979043","","0.2","0.4","0.8","0.6","","","","","0.3092751195","0.2049979043","0.2787498647","0.07760530004","","","","","","","","74","J","1","","","83","main_expt"
"","bandit","163","629619","0.0-124.0-0.0","82123600","wem/bandit_either_2","A2V27A9GZA1NR2","either","5","14","","","","","","","0","0","1","0.2589524449","","0.2","0.4","0.8","0.6","","","","","0.3044630387","0.2151780091","0.2589524449","0.03696005566","","","","","","","","75","K","2","","","84","main_expt"
"","bandit","164","631226","0.0-125.0-0.0","82123600","wem/bandit_either_2","A2V27A9GZA1NR2","either","5","99","","","","","","","0","0","1","","0.1497615914","0.2","0.4","0.8","0.6","0.2812480587","0.1497615914","0.2769318636","0.04177257934","","","","","","","","","","","","74","J","1","","","85","main_expt"
"","bandit","165","632786","0.0-126.0-0.0","82123600","wem/bandit_either_2","A2V27A9GZA1NR2","either","5","52","","","","","","","0","0","1","0.1223687677","","0.2","0.4","0.8","0.6","","","","","0.2506532223","0.1223687677","0.2849222391","0.0385770192","","","","","","","","74","J","1","","","86","main_expt"
"","bandit","166","634665","0.0-127.0-0.0","82123600","wem/bandit_either_2","A2V27A9GZA1NR2","either","5","373","","","","","","","0","0","1","0.1472857413","","0.2","0.4","0.8","0.6","","","","","0.2269900387","0.1472857413","0.3131087309","0.03720252147","","","","","","","","74","J","1","","","87","main_expt"
"","bandit","167","636474","0.0-128.0-0.0","82123600","wem/bandit_either_2","A2V27A9GZA1NR2","either","5","302","","","","","","","0","0","1","","0.1252586248","0.2","0.4","0.8","0.6","0.1504729919","0.1252586248","0.3038587512","0.06746059371","","","","","","","","","","","","74","J","1","","","88","main_expt"
"","bandit","168","638476","0.0-129.0-0.0","82123600","wem/bandit_either_2","A2V27A9GZA1NR2","either","5","494","","","","","","","0","0","1","0.1194927994","","0.2","0.4","0.8","0.6","","","","","0.1382070302","0.1194927994","0.3308022157","0.04069757945","","","","","","","","74","J","1","","","89","main_expt"
"","bandit","169","640253","0.0-130.0-0.0","82123600","wem/bandit_either_2","A2V27A9GZA1NR2","either","5","268","","","","","","","0","0","1","0.1589750007","","0.2","0.4","0.8","0.6","","","","","0.1364765349","0.1589750007","0.3574922351","0.07325379503","","","","","","","","74","J","1","","","90","main_expt"
"","bandit","170","641972","0.0-131.0-0.0","82123600","wem/bandit_either_2","A2V27A9GZA1NR2","either","5","211","","","","","","","0","0","1","","0.1859960426","0.2","0.4","0.8","0.6","0.09318196272","0.1859960426","0.3729517688","0.06877471811","","","","","","","","","","","","74","J","1","","","91","main_expt"
"","bandit","171","643565","0.0-132.0-0.0","82123600","wem/bandit_either_2","A2V27A9GZA1NR2","either","5","84","","","","","","","0","0","1","","0.04115987362","0.2","0.4","0.8","0.6","0.06946097624","0.192419488","0.398352994","0.04115987362","","","","","","","","","","","","76","L","3","","","92","main_expt"
"","bandit","172","645189","0.0-133.0-0.0","82123600","wem/bandit_either_2","A2V27A9GZA1NR2","either","5","116","","","","","","","0","0","1","","0.1716033463","0.2","0.4","0.8","0.6","0.08102832817","0.1716033463","0.4135860398","0.07078892783","","","","","","","","","","","","74","J","1","","","93","main_expt"
"","bandit","173","646861","0.0-134.0-0.0","82123600","wem/bandit_either_2","A2V27A9GZA1NR2","either","5","164","","","","","","","0","0","1","0.3786880174","","0.2","0.4","0.8","0.6","","","","","0.1271360848","0.1935897604","0.3786880174","0.05572868433","","","","","","","","75","K","2","","","94","main_expt"
"","bandit","174","648517","0.0-135.0-0.0","82123600","wem/bandit_either_2","A2V27A9GZA1NR2","either","5","147","","","","","","","0","0","1","","0.2193228015","0.2","0.4","0.8","0.6","0.1097592989","0.2193228015","0.3823424718","0.05056929995","","","","","","","","","","","","74","J","1","","","95","main_expt"
"","bandit","175","650244","0.0-136.0-0.0","82123600","wem/bandit_either_2","A2V27A9GZA1NR2","either","5","220","","","","","","","0","0","1","0.3262643469","","0.2","0.4","0.8","0.6","","","","","0.1085490834","0.3262643469","0.3642725552","0.04159874267","","","","","","","","74","J","1","","","96","main_expt"
"","bandit","176","651758","0.0-137.0-0.0","82123600","wem/bandit_either_2","A2V27A9GZA1NR2","either","5","6","","","","","","","0","0","1","0.3207405496","","0.2","0.4","0.8","0.6","","","","","0.1049812554","0.3207405496","0.3197717944","0.03654451862","","","","","","","","74","J","1","","","97","main_expt"
"","bandit","177","653636","0.0-138.0-0.0","82123600","wem/bandit_either_2","A2V27A9GZA1NR2","either","5","371","","","","","","","0","0","1","0.3712856991","","0.2","0.4","0.8","0.6","","","","","0.08177978443","0.3712856991","0.2514424369","0.04190300095","","","","","","","","74","J","1","","","98","main_expt"
"","bandit","178","655188","0.0-139.0-0.0","82123600","wem/bandit_either_2","A2V27A9GZA1NR2","either","5","45","","","","","","","0","0","1","","0.2926772137","0.2","0.4","0.8","0.6","0.07574087804","0.3740145378","0.2926772137","0.08742990617","","","","","","","","","","","","75","K","2","","","99","main_expt"
"","bandit","179","656844","0.0-140.0-0.0","82123600","wem/bandit_either_2","A2V27A9GZA1NR2","either","5","149","","","","","","","0","0","1","0.3776295542","","0.2","0.4","0.8","0.6","","","","","0.07829319678","0.3776295542","0.234485335","0.08966523481","","","","","","","","74","J","1","","","100","main_expt"
"","bandit","180","658634","0.0-141.0-0.0","82123600","wem/bandit_either_2","A2V27A9GZA1NR2","either","5","283","","","","","","","0","1","0","","0.3592666398","0.2","0.4","0.8","0.6","0.07919243683","0.3592666398","0.250352175","0.07849065771","","","","","","","","","","","","74","J","1","","","101","main_expt"
"","bandit","181","660412","0.0-142.0-0.0","82123600","wem/bandit_either_2","A2V27A9GZA1NR2","either","5","269","","","","","","","0","1","0","","0.2139972863","0.2","0.4","0.8","0.6","0.1052753188","0.3412191773","0.2139972863","0.1054267613","","","","","","","","","","","","75","K","2","","","102","main_expt"
"","bandit","182","662028","0.0-143.0-0.0","82123600","wem/bandit_either_2","A2V27A9GZA1NR2","either","5","109","","","","","","","0","0","1","","0.1248526142","0.2","0.4","0.8","0.6","0.1248526142","0.3133100433","0.20092706","0.1120981937","","","","","","","","","","","","72","H","0","img/none_selected.jpg","","103","main_expt"
"","bandit","183","663739","0.0-144.0-0.0","82123600","wem/bandit_either_2","A2V27A9GZA1NR2","either","5","203","","","","","","","0","1","0","","0.3219148419","0.2","0.4","0.8","0.6","0.142969925","0.3219148419","0.2305366804","0.1034740879","","","","","","","","","","","","74","J","1","","","104","main_expt"
"","bandit","184","665389","0.0-145.0-0.0","82123600","wem/bandit_either_2","A2V27A9GZA1NR2","either","5","141","","","","","","","0","0","1","0.07597240327","","0.2","0.4","0.8","0.6","","","","","0.13947254","0.3300892518","0.2102135581","0.07597240327","","","","","","","","76","L","3","","","105","main_expt"
"","bandit","185","667124","0.0-146.0-0.0","82123600","wem/bandit_either_2","A2V27A9GZA1NR2","either","5","228","","","","","","","0","0","1","0.1329526997","","0.2","0.4","0.8","0.6","","","","","0.1329526997","0.3401839058","0.2219457329","0.1124257427","","","","","","","","72","H","0","img/none_selected.jpg","","106","main_expt"
"","bandit","186","668765","0.0-147.0-0.0","82123600","wem/bandit_either_2","A2V27A9GZA1NR2","either","5","132","","","","","","","0","0","1","","0.1727290233","0.2","0.4","0.8","0.6","0.1727290233","0.3784706915","0.3048423019","0.1133168519","","","","","","","","","","","","72","H","0","img/none_selected.jpg","","107","main_expt"
"","bandit","187","670924","0.0-148.0-0.0","82123600","wem/bandit_either_2","A2V27A9GZA1NR2","either","5","652","","","","","","","0","0","1","","0.1864487031","0.2","0.4","0.8","0.6","0.1864487031","0.3945753887","0.258150515","0.1752395656","","","","","","","","","","","","72","H","0","img/none_selected.jpg","","108","main_expt"
"","bandit","188","672604","0.0-149.0-0.0","82123600","wem/bandit_either_2","A2V27A9GZA1NR2","either","5","174","","","","","","","0","0","1","","0.1862973424","0.2","0.4","0.8","0.6","0.2463216238","0.356827327","0.1859129148","0.1862973424","","","","","","","","","","","","76","L","3","","","109","main_expt"
"","bandit","189","674179","0.0-150.0-0.0","82123600","wem/bandit_either_2","A2V27A9GZA1NR2","either","5","67","","","","","","","0","0","1","","0.2431522628","0.2","0.4","0.8","0.6","0.2431522628","0.2344179837","0.1371624404","0.2015845776","","","","","","","","","","","","72","H","0","img/none_selected.jpg","","110","main_expt"
"","bandit","190","675836","0.0-151.0-0.0","82123600","wem/bandit_either_2","A2V27A9GZA1NR2","either","5","148","","","","","","","0","0","1","","0.1757476643","0.2","0.4","0.8","0.6","0.1757476643","0.2644823096","0.1258232978","0.2003651753","","","","","","","","","","","","72","H","0","img/none_selected.jpg","","111","main_expt"
"","bandit","191","677412","0.0-152.0-0.0","82123600","wem/bandit_either_2","A2V27A9GZA1NR2","either","5","68","","","","","","","0","0","1","","0.2451518953","0.2","0.4","0.8","0.6","0.2451518953","0.28311182","0.1529967373","0.21392293","","","","","","","","","","","","72","H","0","img/none_selected.jpg","","112","main_expt"
"","bandit","192","679107","0.0-153.0-0.0","82123600","wem/bandit_either_2","A2V27A9GZA1NR2","either","5","187","","","","","","","0","0","1","0.2407836715","","0.2","0.4","0.8","0.6","","","","","0.2407836715","0.2413269532","0.148248117","0.1606798039","","","","","","","","72","H","0","img/none_selected.jpg","","113","main_expt"
"","bandit","193","680637","0.0-154.0-0.0","82123600","wem/bandit_either_2","A2V27A9GZA1NR2","either","5","21","","","","","","","0","0","1","","0.3099317417","0.2","0.4","0.8","0.6","0.3099317417","0.3100969134","0.1562208239","0.2095980235","","","","","","","","","","","","72","H","0","img/none_selected.jpg","","114","main_expt"
"","bandit","194","682397","0.0-155.0-0.0","82123600","wem/bandit_either_2","A2V27A9GZA1NR2","either","5","252","","","","","","","0","1","0","","0.3180754701","0.2","0.4","0.8","0.6","0.3180754701","0.329842252","0.2138032898","0.2550279667","","","","","","","","","","","","72","H","0","img/none_selected.jpg","","115","main_expt"
"","bandit","195","684109","0.0-156.0-0.0","82123600","wem/bandit_either_2","A2V27A9GZA1NR2","either","5","204","","","","","","","0","0","1","0.3223706096","","0.2","0.4","0.8","0.6","","","","","0.2919742107","0.3223706096","0.2331260325","0.2471764387","","","","","","","","74","J","1","","","116","main_expt"
"","bandit","196","685699","0.0-157.0-0.0","82123600","wem/bandit_either_2","A2V27A9GZA1NR2","either","5","83","","","","","","","0","0","1","0.1826309729","","0.2","0.4","0.8","0.6","","","","","0.2799774295","0.3098408215","0.1826309729","0.2730878341","","","","","","","","75","K","2","","","117","main_expt"
"","bandit","197","687245","0.0-158.0-0.0","82123600","wem/bandit_either_2","A2V27A9GZA1NR2","either","5","37","","","","","","","0","0","1","","0.2646714695","0.2","0.4","0.8","0.6","0.2646714695","0.2974554567","0.1511269107","0.2071462199","","","","","","","","","","","","72","H","0","img/none_selected.jpg","","118","main_expt"
"","bandit","198","688923","0.0-159.0-0.0","82123600","wem/bandit_either_2","A2V27A9GZA1NR2","either","5","172","","","","","","","0","0","1","0.3179839519","","0.2","0.4","0.8","0.6","","","","","0.3179839519","0.3598468986","0.1559979654","0.2275232499","","","","","","","","72","H","0","img/none_selected.jpg","","119","main_expt"
"","bandit","199","690490","0.0-160.0-0.0","82123600","wem/bandit_either_2","A2V27A9GZA1NR2","either","5","61","","","","","","","0","1","0","","0.3302262658","0.2","0.4","0.8","0.6","0.3302262658","0.2984373086","0.1463004055","0.2767559596","","","","","","","","","","","","72","H","0","img/none_selected.jpg","","120","main_expt"
"","bandit","200","692092","0.0-161.0-0.0","82123600","wem/bandit_either_2","A2V27A9GZA1NR2","either","5","92","","","","","","","0","0","1","","0.2973090059","0.2","0.4","0.8","0.6","0.3500549905","0.2973090059","0.1418195479","0.3448590315","","","","","","","","","","","","74","J","1","","","121","main_expt"
"","bandit","201","693628","0.0-162.0-0.0","82123600","wem/bandit_either_2","A2V27A9GZA1NR2","either","5","28","","","","","","","0","0","1","0.1270782113","","0.2","0.4","0.8","0.6","","","","","0.2686616284","0.3382791822","0.1270782113","0.3593301016","","","","","","","","75","K","2","","","122","main_expt"
"","bandit","202","695142","0.0-163.0-0.0","82123600","wem/bandit_either_2","A2V27A9GZA1NR2","either","5","5","","","","","","","0","0","1","0.3680529171","","0.2","0.4","0.8","0.6","","","","","0.2277230314","0.3154347028","0.1207154071","0.3680529171","","","","","","","","76","L","3","","","123","main_expt"
"","bandit","203","696781","0.0-164.0-0.0","82123600","wem/bandit_either_2","A2V27A9GZA1NR2","either","5","129","","","","","","","0","0","1","0.2966737815","","0.2","0.4","0.8","0.6","","","","","0.3287090939","0.2966737815","0.1229329119","0.3476523483","","","","","","","","74","J","1","","","124","main_expt"
"","bandit","204","698302","0.0-165.0-0.0","82123600","wem/bandit_either_2","A2V27A9GZA1NR2","either","5","11","","","","","","","0","0","1","","0.3687339586","0.2","0.4","0.8","0.6","0.3687339586","0.3094831126","0.09241122996","0.3564603465","","","","","","","","","","","","72","H","0","img/none_selected.jpg","","125","main_expt"
"","bandit","205","700223","0.0-166.0-0.0","82123600","wem/bandit_either_2","A2V27A9GZA1NR2","either","5","412","","","","","","","0","1","0","","0.3836195774","0.2","0.4","0.8","0.6","0.3836195774","0.2488993205","0.08418962236","0.3550684458","","","","","","","","","","","","72","H","0","img/none_selected.jpg","","126","main_expt"
"","bandit","206","702263","0.0-167.0-0.0","82123600","wem/bandit_either_2","A2V27A9GZA1NR2","either","5","531","","","","","","","0","0","1","","0.3617365958","0.2","0.4","0.8","0.6","0.3617365958","0.1953487027","0.154715772","0.3235559827","","","","","","","","","","","","72","H","0","img/none_selected.jpg","","127","main_expt"
"","bandit","207","703950","0.0-168.0-0.0","82123600","wem/bandit_either_2","A2V27A9GZA1NR2","either","5","179","","","","","","","0","0","1","0.2171889907","","0.2","0.4","0.8","0.6","","","","","0.3235283493","0.2171889907","0.1556709078","0.312087491","","","","","","","","74","J","1","","","128","main_expt"
"","bandit","208","705744","0.0-169.0-0.0","82123600","wem/bandit_either_2","A2V27A9GZA1NR2","either","5","285","","","","","","","0","0","1","","0.3453830546","0.2","0.4","0.8","0.6","0.3453830546","0.2467699801","0.1214200615","0.2843272188","","","","","","","","","","","","72","H","0","img/none_selected.jpg","","129","main_expt"
"","bandit","209","707478","0.0-170.0-0.0","82123600","wem/bandit_either_2","A2V27A9GZA1NR2","either","5","227","","","","","","","0","0","1","","0.3242747857","0.2","0.4","0.8","0.6","0.3242747857","0.2814443482","0.1377283829","0.2128416856","","","","","","","","","","","","72","H","0","img/none_selected.jpg","","130","main_expt"
"","bandit","210","709902","0.0-171.0-0.0","82123600","wem/bandit_either_2","A2V27A9GZA1NR2","either","5","916","","","","","","","0","0","1","","0.3417201858","0.2","0.4","0.8","0.6","0.3417201858","0.2834176508","0.1397421628","0.2403879813","","","","","","","","","","","","72","H","0","img/none_selected.jpg","","131","main_expt"
"","bandit","211","711694","0.0-172.0-0.0","82123600","wem/bandit_either_2","A2V27A9GZA1NR2","either","5","282","","","","","","","1","0","0","0.1061875113","","0.2","0.4","0.8","0.6","","","","","0.3498614837","0.2429908031","0.1061875113","0.2811421594","","","","","","","","75","K","2","","","132","main_expt"
"","bandit","212","713462","0.0-173.0-0.0","82123600","wem/bandit_either_2","A2V27A9GZA1NR2","either","5","259","","","","","","","0","0","1","0.07774811701","","0.2","0.4","0.8","0.6","","","","","0.3134828643","0.3053559495","0.07774811701","0.3002858371","","","","","","","","75","K","2","","","133","main_expt"
"","bandit","213","715071","0.0-174.0-0.0","82123600","wem/bandit_either_2","A2V27A9GZA1NR2","either","5","98","","","","","","","0","1","0","","0.277406375","0.2","0.4","0.8","0.6","0.3554593188","0.2693478067","0.08211281178","0.277406375","","","","","","","","","","","","76","L","3","","","134","main_expt"
"","bandit","214","716816","0.0-175.0-0.0","82123600","wem/bandit_either_2","A2V27A9GZA1NR2","either","5","236","","","","","","","0","0","1","0.2897147582","","0.2","0.4","0.8","0.6","","","","","0.3150900126","0.3369166079","0.1123817552","0.2897147582","","","","","","","","76","L","3","","","135","main_expt"
"","bandit","215","718438","0.0-176.0-0.0","82123600","wem/bandit_either_2","A2V27A9GZA1NR2","either","5","114","","","","","","","1","0","0","0.1478339482","","0.2","0.4","0.8","0.6","","","","","0.3199395785","0.268603144","0.1478339482","0.3590576628","","","","","","","","75","K","2","","","136","main_expt"
"","bandit","216","720198","0.0-177.0-0.0","82123600","wem/bandit_either_2","A2V27A9GZA1NR2","either","5","251","","","","","","","1","0","0","0.1374936615","","0.2","0.4","0.8","0.6","","","","","0.33362357","0.2373427956","0.1374936615","0.3822427384","","","","","","","","75","K","2","","","137","main_expt"
"","bandit","217","721910","0.0-178.0-0.0","82123600","wem/bandit_either_2","A2V27A9GZA1NR2","either","5","204","","","","","","","0","0","1","","0.159761955","0.2","0.4","0.8","0.6","0.3611324022","0.2206869265","0.159761955","0.3410071165","","","","","","","","","","","","75","K","2","","","138","main_expt"
"","bandit","218","723647","0.0-179.0-0.0","82123600","wem/bandit_either_2","A2V27A9GZA1NR2","either","5","227","","","","","","","0","0","1","","0.3504145086","0.2","0.4","0.8","0.6","0.3504145086","0.2177966349","0.1363721132","0.3738014659","","","","","","","","","","","","72","H","0","img/none_selected.jpg","","139","main_expt"
"","bandit","219","725334","0.0-180.0-0.0","82123600","wem/bandit_either_2","A2V27A9GZA1NR2","either","5","179","","","","","","","0","0","1","0.1031445192","","0.2","0.4","0.8","0.6","","","","","0.309774603","0.2387685432","0.1031445192","0.422575493","","","","","","","","75","K","2","","","140","main_expt"
"","bandit","220","727104","0.0-181.0-0.0","82123600","wem/bandit_either_2","A2V27A9GZA1NR2","either","5","261","","","","","","","0","0","1","","0.09805286369","0.2","0.4","0.8","0.6","0.3506531288","0.2575087366","0.09805286369","0.4439129864","","","","","","","","","","","","75","K","2","","","141","main_expt"
"","bandit","221","728838","0.0-182.0-0.0","82123600","wem/bandit_either_2","A2V27A9GZA1NR2","either","5","225","","","","","","","0","0","1","","0.2965027242","0.2","0.4","0.8","0.6","0.2965027242","0.2392038972","0.1149002948","0.4323802182","","","","","","","","","","","","72","H","0","img/none_selected.jpg","","142","main_expt"
"","bandit","222","730414","0.0-183.0-0.0","82123600","wem/bandit_either_2","A2V27A9GZA1NR2","either","5","67","","","","","","","0","0","1","0.1209542099","","0.2","0.4","0.8","0.6","","","","","0.2087517366","0.2216470548","0.1209542099","0.4358412593","","","","","","","","75","K","2","","","143","main_expt"
"","bandit","223","732655","0.0-184.0-0.0","82123600","wem/bandit_either_2","A2V27A9GZA1NR2","either","5","732","","","","","","","0","0","1","0.1202521083","","0.2","0.4","0.8","0.6","","","","","0.2313605626","0.2224896139","0.1202521083","0.4407373256","","","","","","","","75","K","2","","","144","main_expt"
"","bandit","224","734263","0.0-185.0-0.0","82123600","wem/bandit_either_2","A2V27A9GZA1NR2","either","5","99","","","","","","","0","1","0","","0.4661091035","0.2","0.4","0.8","0.6","0.1785565547","0.1925605464","0.1619743669","0.4661091035","","","","","","","","","","","","76","L","3","","","145","main_expt"
"","bandit","225","736005","0.0-186.0-0.0","82123600","wem/bandit_either_2","A2V27A9GZA1NR2","either","5","234","","","","","","","0","0","1","0.1664631043","","0.2","0.4","0.8","0.6","","","","","0.1770660648","0.2069800611","0.1664631043","0.4637097668","","","","","","","","75","K","2","","","146","main_expt"
"","bandit","226","737696","0.0-187.0-0.0","82123600","wem/bandit_either_2","A2V27A9GZA1NR2","either","5","180","","","","","","","0","0","1","","0.2489662189","0.2","0.4","0.8","0.6","0.1063371611","0.2489662189","0.1669241763","0.4700491642","","","","","","","","","","","","74","J","1","","","147","main_expt"
"","bandit","227","739366","0.0-188.0-0.0","82123600","wem/bandit_either_2","A2V27A9GZA1NR2","either","5","162","","","","","","","0","0","1","","0.1216370817","0.2","0.4","0.8","0.6","0.1216370817","0.1946464158","0.1581456949","0.4648109734","","","","","","","","","","","","72","H","0","img/none_selected.jpg","","148","main_expt"
"","bandit","228","741062","0.0-189.0-0.0","82123600","wem/bandit_either_2","A2V27A9GZA1NR2","either","5","188","","","","","","","0","0","1","0.1698392466","","0.2","0.4","0.8","0.6","","","","","0.1024256959","0.1826562491","0.1698392466","0.4635511513","","","","","","","","75","K","2","","","149","main_expt"
"","bandit","229","742789","0.0-190.0-0.0","82123600","wem/bandit_either_2","A2V27A9GZA1NR2","either","5","220","","","","","","","0","0","1","","0.2140114634","0.2","0.4","0.8","0.6","0.1371094633","0.1750473563","0.2140114634","0.4445017148","","","","","","","","","","","","75","K","2","","","150","main_expt"
"","bandit","230","744342","0.0-191.0-0.0","82123600","wem/bandit_either_2","A2V27A9GZA1NR2","either","5","42","","","","","","","0","0","1","0.2392960001","","0.2","0.4","0.8","0.6","","","","","0.1702433702","0.1109536645","0.2392960001","0.4434799742","","","","","","","","75","K","2","","","151","main_expt"
"","bandit","231","745934","0.0-192.0-0.0","82123600","wem/bandit_either_2","A2V27A9GZA1NR2","either","5","83","","","","","","","0","0","1","","0.1860489046","0.2","0.4","0.8","0.6","0.1860489046","0.1143086707","0.2095863317","0.4451665291","","","","","","","","","","","","72","H","0","img/none_selected.jpg","","152","main_expt"
"","bandit","232","747606","0.0-193.0-0.0","82123600","wem/bandit_either_2","A2V27A9GZA1NR2","either","5","162","","","","","","","1","0","0","0.2543258611","","0.2","0.4","0.8","0.6","","","","","0.2117094388","0.1236290712","0.2543258611","0.4401532833","","","","","","","","75","K","2","","","153","main_expt"
"","bandit","233","749360","0.0-194.0-0.0","82123600","wem/bandit_either_2","A2V27A9GZA1NR2","either","5","243","","","","","","","0","0","1","0.2602259906","","0.2","0.4","0.8","0.6","","","","","0.2072389033","0.1600695342","0.2602259906","0.4516855879","","","","","","","","75","K","2","","","154","main_expt"
"","bandit","234","750957","0.0-195.0-0.0","82123600","wem/bandit_either_2","A2V27A9GZA1NR2","either","5","89","","","","","","","0","0","1","","0.1986333914","0.2","0.4","0.8","0.6","0.1986333914","0.1770288166","0.2750581274","0.4480264808","","","","","","","","","","","","72","H","0","img/none_selected.jpg","","155","main_expt"
"","bandit","235","752551","0.0-196.0-0.0","82123600","wem/bandit_either_2","A2V27A9GZA1NR2","either","5","84","","","","","","","0","0","1","","0.2438045727","0.2","0.4","0.8","0.6","0.2054640346","0.1761817894","0.2438045727","0.4260414265","","","","","","","","","","","","75","K","2","","","156","main_expt"
"","bandit","236","754407","0.0-197.0-0.0","82123600","wem/bandit_either_2","A2V27A9GZA1NR2","either","5","346","","","","","","","0","0","1","","0.1810715383","0.2","0.4","0.8","0.6","0.1810715383","0.1998830888","0.2857025143","0.4365201507","","","","","","","","","","","","72","H","0","img/none_selected.jpg","","157","main_expt"
"","bandit","237","756150","0.0-198.0-0.0","82123600","wem/bandit_either_2","A2V27A9GZA1NR2","either","5","235","","","","","","","0","0","1","0.2887719476","","0.2","0.4","0.8","0.6","","","","","0.2118906364","0.2150354531","0.2887719476","0.4076244479","","","","","","","","75","K","2","","","158","main_expt"
"","bandit","238","757686","0.0-199.0-0.0","82123600","wem/bandit_either_2","A2V27A9GZA1NR2","either","5","27","","","","","","","0","0","1","0.2293976715","","0.2","0.4","0.8","0.6","","","","","0.2293976715","0.2221069796","0.2859462397","0.403953851","","","","","","","","72","H","0","img/none_selected.jpg","","159","main_expt"
"","bandit","239","759241","0.0-200.0-0.0","82123600","wem/bandit_either_2","A2V27A9GZA1NR2","either","5","44","","","","","","","0","1","0","","0.207432816","0.2","0.4","0.8","0.6","0.2186051381","0.2627335039","0.207432816","0.4282135537","","","","","","","","","","","","75","K","2","","","160","main_expt"
"","bandit","240","761218","0.0-201.0-0.0","82123600","wem/bandit_either_2","A2V27A9GZA1NR2","either","5","468","","","","","","","0","0","1","0.2922457848","","0.2","0.4","0.8","0.6","","","","","0.2175927206","0.2922457848","0.1611694724","0.4479073124","","","","","","","","74","J","1","","","161","main_expt"
"","bandit","241","762784","0.0-202.0-0.0","82123600","wem/bandit_either_2","A2V27A9GZA1NR2","either","5","57","","","","","","","0","0","1","0.2370404117","","0.2","0.4","0.8","0.6","","","","","0.2370404117","0.3040212123","0.14378348","0.4456201243","","","","","","","","72","H","0","img/none_selected.jpg","","162","main_expt"
"","bandit","242","764449","0.0-203.0-0.0","82123600","wem/bandit_either_2","A2V27A9GZA1NR2","either","5","154","","","","","","","0","0","1","0.1707099899","","0.2","0.4","0.8","0.6","","","","","0.2778780432","0.2933359027","0.1707099899","0.4384930657","","","","","","","","75","K","2","","","163","main_expt"
"","bandit","243","766049","0.0-204.0-0.0","82123600","wem/bandit_either_2","A2V27A9GZA1NR2","either","5","90","","","","","","","0","1","0","","0.4231568034","0.2","0.4","0.8","0.6","0.2643388611","0.2388203062","0.1933693166","0.4231568034","","","","","","","","","","","","76","L","3","","","164","main_expt"
"","bandit","244","767738","0.0-205.0-0.0","82123600","wem/bandit_either_2","A2V27A9GZA1NR2","either","5","179","","","","","","","0","0","1","0.2646204916","","0.2","0.4","0.8","0.6","","","","","0.1967204453","0.2646204916","0.2406324952","0.4412535734","","","","","","","","74","J","1","","","165","main_expt"
"","bandit","245","769298","0.0-206.0-0.0","82123600","wem/bandit_either_2","A2V27A9GZA1NR2","either","5","51","","","","","","","1","0","0","0.2650462377","","0.2","0.4","0.8","0.6","","","","","0.1567937345","0.2591758032","0.2650462377","0.438364003","","","","","","","","75","K","2","","","166","main_expt"
"","bandit","246","771040","0.0-207.0-0.0","82123600","wem/bandit_either_2","A2V27A9GZA1NR2","either","5","233","","","","","","","1","0","0","0.245875583","","0.2","0.4","0.8","0.6","","","","","0.1201482918","0.1955934818","0.245875583","0.4290991351","","","","","","","","75","K","2","","","167","main_expt"
"","bandit","247","772818","0.0-208.0-0.0","82123600","wem/bandit_either_2","A2V27A9GZA1NR2","either","5","269","","","","","","","0","0","1","","0.0936051119","0.2","0.4","0.8","0.6","0.0936051119","0.2090603634","0.257303599","0.4510860662","","","","","","","","","","","","72","H","0","img/none_selected.jpg","","168","main_expt"
"","bandit","248","774441","0.0-209.0-0.0","82123600","wem/bandit_either_2","A2V27A9GZA1NR2","either","5","113","","","","","","","0","0","1","0.2993732043","","0.2","0.4","0.8","0.6","","","","","0.08775096918","0.2678479696","0.2993732043","0.4491424364","","","","","","","","75","K","2","","","169","main_expt"
"","bandit","249","776041","0.0-210.0-0.0","82123600","wem/bandit_either_2","A2V27A9GZA1NR2","either","5","92","","","","","","","0","0","1","0.2532125956","","0.2","0.4","0.8","0.6","","","","","0.06743429675","0.2532125956","0.3388977639","0.4332244901","","","","","","","","74","J","1","","","170","main_expt"
"","bandit","250","777689","0.0-211.0-0.0","82123600","wem/bandit_either_2","A2V27A9GZA1NR2","either","5","139","","","","","","","0","0","1","0.2947926635","","0.2","0.4","0.8","0.6","","","","","0.05979118822","0.2568627054","0.2947926635","0.4405036994","","","","","","","","75","K","2","","","171","main_expt"
"","bandit","251","779345","0.0-212.0-0.0","82123600","wem/bandit_either_2","A2V27A9GZA1NR2","either","5","148","","","","","","","1","0","0","0.2892529657","","0.2","0.4","0.8","0.6","","","","","0.03200499914","0.2451563353","0.2892529657","0.4358521759","","","","","","","","75","K","2","","","172","main_expt"
"","bandit","252","781048","0.0-213.0-0.0","82123600","wem/bandit_either_2","A2V27A9GZA1NR2","either","5","194","","","","","","","0","0","1","","0.2571917514","0.2","0.4","0.8","0.6","0.04613358223","0.3003395367","0.2571917514","0.4471617722","","","","","","","","","","","","75","K","2","","","173","main_expt"
"","bandit","253","782938","0.0-214.0-0.0","82123600","wem/bandit_either_2","A2V27A9GZA1NR2","either","5","380","","","","","","","0","0","1","0.244173221","","0.2","0.4","0.8","0.6","","","","","0.05969677181","0.2545998681","0.244173221","0.4560251174","","","","","","","","75","K","2","","","174","main_expt"
"","bandit","254","784602","0.0-215.0-0.0","82123600","wem/bandit_either_2","A2V27A9GZA1NR2","either","5","154","","","","","","","0","0","1","0.2038098688","","0.2","0.4","0.8","0.6","","","","","0.05930066603","0.3383135611","0.2038098688","0.4379349024","","","","","","","","75","K","2","","","175","main_expt"
"","bandit","255","786337","0.0-216.0-0.0","82123600","wem/bandit_either_2","A2V27A9GZA1NR2","either","5","226","","","","","","","0","0","1","0.2053823003","","0.2","0.4","0.8","0.6","","","","","0.08110879181","0.3880627729","0.2053823003","0.4328841116","","","","","","","","75","K","2","","","176","main_expt"
"","bandit","256","788090","0.0-217.0-0.0","82123600","wem/bandit_either_2","A2V27A9GZA1NR2","either","5","242","","","","","","","0","0","1","0.2193083282","","0.2","0.4","0.8","0.6","","","","","0.07611568943","0.3920994557","0.2193083282","0.3965365967","","","","","","","","75","K","2","","","177","main_expt"
"","bandit","257","789834","0.0-218.0-0.0","82123600","wem/bandit_either_2","A2V27A9GZA1NR2","either","5","234","","","","","","","0","0","1","0.1904263594","","0.2","0.4","0.8","0.6","","","","","0.1220467165","0.3882277994","0.1904263594","0.3899234309","","","","","","","","75","K","2","","","178","main_expt"
"","bandit","258","791505","0.0-219.0-0.0","82123600","wem/bandit_either_2","A2V27A9GZA1NR2","either","5","162","","","","","","","0","0","1","0.2212788648","","0.2","0.4","0.8","0.6","","","","","0.1698853315","0.3939691408","0.2212788648","0.4238443777","","","","","","","","75","K","2","","","179","main_expt"
"","bandit","259","793569","0.0-220.0-0.0","82123600","wem/bandit_either_2","A2V27A9GZA1NR2","either","5","555","","","","","","","1","0","0","0.2640717145","","0.2","0.4","0.8","0.6","","","","","0.1374762061","0.4074656662","0.2640717145","0.4487400994","","","","","","","","75","K","2","","","180","main_expt"
"","bandit","260","795441","0.0-221.0-0.0","82123600","wem/bandit_either_2","A2V27A9GZA1NR2","either","5","363","","","","","","","0","0","1","0.2426483564","","0.2","0.4","0.8","0.6","","","","","0.09961924189","0.3724421945","0.2426483564","0.4314573438","","","","","","","","75","K","2","","","181","main_expt"
"","bandit","261","797193","0.0-222.0-0.0","82123600","wem/bandit_either_2","A2V27A9GZA1NR2","either","5","243","","","","","","","0","0","1","0.2001563476","","0.2","0.4","0.8","0.6","","","","","0.1391043194","0.2998177931","0.2001563476","0.4458059303","","","","","","","","75","K","2","","","182","main_expt"
"","bandit","262","798793","0.0-223.0-0.0","82123600","wem/bandit_either_2","A2V27A9GZA1NR2","either","5","89","","","","","","","0","0","1","0.2167094124","","0.2","0.4","0.8","0.6","","","","","0.1336424596","0.3629728763","0.2167094124","0.4485460149","","","","","","","","75","K","2","","","183","main_expt"
"","bandit","263","800489","0.0-224.0-0.0","82123600","wem/bandit_either_2","A2V27A9GZA1NR2","either","5","186","","","","","","","1","0","0","0.2402813617","","0.2","0.4","0.8","0.6","","","","","0.115911235","0.3763603645","0.2402813617","0.4078350507","","","","","","","","75","K","2","","","184","main_expt"
"","bandit","264","802274","0.0-225.0-0.0","82123600","wem/bandit_either_2","A2V27A9GZA1NR2","either","5","274","","","","","","","0","0","1","","0.2745112141","0.2","0.4","0.8","0.6","0.1394203739","0.3472982705","0.2745112141","0.3805788675","","","","","","","","","","","","75","K","2","","","185","main_expt"
"","bandit","265","803915","0.0-226.0-0.0","82123600","wem/bandit_either_2","A2V27A9GZA1NR2","either","5","131","","","","","","","1","0","0","0.2774566956","","0.2","0.4","0.8","0.6","","","","","0.1557479742","0.3095995051","0.2774566956","0.4236809331","","","","","","","","75","K","2","","","186","main_expt"
"","bandit","266","805698","0.0-227.0-0.0","82123600","wem/bandit_either_2","A2V27A9GZA1NR2","either","5","272","","","","","","","0","0","1","0.2876011691","","0.2","0.4","0.8","0.6","","","","","0.1823611596","0.2567332284","0.2876011691","0.4058627081","","","","","","","","75","K","2","","","187","main_expt"
"","bandit","267","807345","0.0-228.0-0.0","82123600","wem/bandit_either_2","A2V27A9GZA1NR2","either","5","138","","","","","","","0","0","1","0.2947112378","","0.2","0.4","0.8","0.6","","","","","0.1854179297","0.2555256861","0.2947112378","0.3913346521","","","","","","","","75","K","2","","","188","main_expt"
"","bandit","268","809072","0.0-229.0-0.0","82123600","wem/bandit_either_2","A2V27A9GZA1NR2","either","5","218","","","","","","","0","0","1","0.2581494","","0.2","0.4","0.8","0.6","","","","","0.1875645599","0.2009875262","0.2581494","0.3760164219","","","","","","","","75","K","2","","","189","main_expt"
"","bandit","269","810816","0.0-230.0-0.0","82123600","wem/bandit_either_2","A2V27A9GZA1NR2","either","5","235","","","","","","","0","0","1","0.1756323468","","0.2","0.4","0.8","0.6","","","","","0.2018323604","0.2055488595","0.1756323468","0.3327352817","","","","","","","","75","K","2","","","190","main_expt"
"","bandit","270","812409","0.0-231.0-0.0","82123600","wem/bandit_either_2","A2V27A9GZA1NR2","either","5","83","","","","","","","0","0","1","0.2521570866","","0.2","0.4","0.8","0.6","","","","","0.221094727","0.1506387864","0.2521570866","0.3015177445","","","","","","","","75","K","2","","","191","main_expt"
"","bandit","271","814082","0.0-232.0-0.0","82123600","wem/bandit_either_2","A2V27A9GZA1NR2","either","5","163","","","","","","","0","0","1","0.2964739449","","0.2","0.4","0.8","0.6","","","","","0.2320570195","0.2027442266","0.2964739449","0.2773298268","","","","","","","","75","K","2","","","192","main_expt"
"","bandit","272","815737","0.0-233.0-0.0","82123600","wem/bandit_either_2","A2V27A9GZA1NR2","either","5","144","","","","","","","0","0","1","0.2612966838","","0.2","0.4","0.8","0.6","","","","","0.2948950962","0.1969137872","0.2612966838","0.2836613797","","","","","","","","75","K","2","","","193","main_expt"
"","bandit","273","817473","0.0-234.0-0.0","82123600","wem/bandit_either_2","A2V27A9GZA1NR2","either","5","226","","","","","","","0","0","1","0.3292914436","","0.2","0.4","0.8","0.6","","","","","0.2602906927","0.2114994946","0.3292914436","0.2799350415","","","","","","","","75","K","2","","","194","main_expt"
"","bandit","274","819260","0.0-235.0-0.0","82123600","wem/bandit_either_2","A2V27A9GZA1NR2","either","5","273","","","","","","","1","0","0","0.4070308407","","0.2","0.4","0.8","0.6","","","","","0.1771499101","0.2467939011","0.4070308407","0.2068597772","","","","","","","","75","K","2","","","195","main_expt"
"","bandit","275","821059","0.0-236.0-0.0","82123600","wem/bandit_either_2","A2V27A9GZA1NR2","either","5","290","","","","","","","0","0","1","0.3494820729","","0.2","0.4","0.8","0.6","","","","","0.1746274925","0.2731811988","0.3494820729","0.2679469531","","","","","","","","75","K","2","","","196","main_expt"
"","bandit","276","822716","0.0-237.0-0.0","82123600","wem/bandit_either_2","A2V27A9GZA1NR2","either","5","145","","","","","","","0","0","1","0.3571939809","","0.2","0.4","0.8","0.6","","","","","0.193224684","0.2512114903","0.3571939809","0.2448078588","","","","","","","","75","K","2","","","197","main_expt"
"","bandit","277","824332","0.0-238.0-0.0","82123600","wem/bandit_either_2","A2V27A9GZA1NR2","either","5","107","","","","","","","1","0","0","0.382430028","","0.2","0.4","0.8","0.6","","","","","0.1771509929","0.190651112","0.382430028","0.2433987968","","","","","","","","75","K","2","","","198","main_expt"
"","bandit","278","826091","0.0-239.0-0.0","82123600","wem/bandit_either_2","A2V27A9GZA1NR2","either","5","249","","","","","","","0","1","0","","0.3353474301","0.2","0.4","0.8","0.6","0.2466668772","0.1701189695","0.3353474301","0.2653624242","","","","","","","","","","","","75","K","2","","","199","main_expt"
"","bandit","279","827851","0.0-240.0-0.0","82123600","wem/bandit_either_2","A2V27A9GZA1NR2","either","5","251","","","","","","","0","0","1","","0.2477816141","0.2","0.4","0.8","0.6","0.2477816141","0.1656975488","0.3321976498","0.2551376492","","","","","","","","","","","","72","H","0","img/none_selected.jpg","","200","main_expt"
"","bandit","280","829435","0.0-241.0-0.0","82123600","wem/bandit_either_2","A2V27A9GZA1NR2","either","5","74","","","","","","","0","0","1","","0.1647298582","0.2","0.4","0.8","0.6","0.2744817861","0.1647298582","0.3218117355","0.2660639347","","","","","","","","","","","","74","J","1","","","201","main_expt"
"","bandit","281","831026","0.0-242.0-0.0","82123600","wem/bandit_either_2","A2V27A9GZA1NR2","either","5","83","","","","","","","1","0","0","0.2949214693","","0.2","0.4","0.8","0.6","","","","","0.3043062986","0.1242041815","0.2949214693","0.2220900594","","","","","","","","75","K","2","","","202","main_expt"
"","bandit","282","832803","0.0-243.0-0.0","82123600","wem/bandit_either_2","A2V27A9GZA1NR2","either","5","266","","","","","","","0","0","1","0.300077299","","0.2","0.4","0.8","0.6","","","","","0.272185569","0.1684487429","0.300077299","0.1543353204","","","","","","","","75","K","2","","","203","main_expt"
"","bandit","283","834460","0.0-244.0-0.0","82123600","wem/bandit_either_2","A2V27A9GZA1NR2","either","5","148","","","","","","","1","0","0","0.2866085977","","0.2","0.4","0.8","0.6","","","","","0.2610767704","0.1666409686","0.2866085977","0.1605482003","","","","","","","","75","K","2","","","204","main_expt"
"","bandit","284","836163","0.0-245.0-0.0","82123600","wem/bandit_either_2","A2V27A9GZA1NR2","either","5","192","","","","","","","0","0","1","0.2695546272","","0.2","0.4","0.8","0.6","","","","","0.2832615928","0.2197286508","0.2695546272","0.1406914754","","","","","","","","75","K","2","","","205","main_expt"
"","bandit","285","838155","0.0-246.0-0.0","82123600","wem/bandit_either_2","A2V27A9GZA1NR2","either","5","483","","","","","","","0","0","1","0.2622178416","","0.2","0.4","0.8","0.6","","","","","0.300913322","0.2754509052","0.2622178416","0.1138947463","","","","","","","","75","K","2","","","206","main_expt"
"","bandit","286","839810","0.0-247.0-0.0","82123600","wem/bandit_either_2","A2V27A9GZA1NR2","either","5","145","","","","","","","1","0","0","0.2498186578","","0.2","0.4","0.8","0.6","","","","","0.3260258847","0.2664869377","0.2498186578","0.1096702189","","","","","","","","75","K","2","","","207","main_expt"
"","bandit","287","841978","0.0-248.0-0.0","82123600","wem/bandit_either_2","A2V27A9GZA1NR2","either","5","659","","","","","","","1","0","0","0.2335358635","","0.2","0.4","0.8","0.6","","","","","0.3173829003","0.2686565688","0.2335358635","0.09922356593","","","","","","","","75","K","2","","","208","main_expt"
"","bandit","288","843763","0.0-249.0-0.0","82123600","wem/bandit_either_2","A2V27A9GZA1NR2","either","5","274","","","","","","","0","0","1","0.2638942681","","0.2","0.4","0.8","0.6","","","","","0.3153846937","0.2380255957","0.2638942681","0.101567507","","","","","","","","75","K","2","","","209","main_expt"
"","bandit","289","845636","0.0-250.0-0.0","82123600","wem/bandit_either_2","A2V27A9GZA1NR2","either","5","364","","","","","","","0","0","1","","0.2507768727","0.2","0.4","0.8","0.6","0.3010876552","0.2507768727","0.2526926237","0.08675379402","","","","","","","","","","","","74","J","1","","","210","main_expt"
"","bandit","290","847161","0.0-251.0-0.0","82123600","wem/bandit_either_2","A2V27A9GZA1NR2","either","5","17","","","","","","","1","0","0","0.2740367769","","0.2","0.4","0.8","0.6","","","","","0.2864900033","0.2685142319","0.2740367769","0.07512021269","","","","","","","","75","K","2","","","211","main_expt"
"","bandit","291","848939","0.0-252.0-0.0","82123600","wem/bandit_either_2","A2V27A9GZA1NR2","either","5","267","","","","","","","0","0","1","0.2440836191","","0.2","0.4","0.8","0.6","","","","","0.3163372434","0.260511483","0.2440836191","0.08144254236","","","","","","","","75","K","2","","","212","main_expt"
"","bandit","292","850530","0.0-253.0-0.0","82123600","wem/bandit_either_2","A2V27A9GZA1NR2","either","5","81","","","","","","","0","0","1","","0.2701305136","0.2","0.4","0.8","0.6","0.2701305136","0.2579605047","0.2341903104","0.06585574052","","","","","","","","","","","","72","H","0","img/none_selected.jpg","","213","main_expt"
"","bandit","293","852131","0.0-254.0-0.0","82123600","wem/bandit_either_2","A2V27A9GZA1NR2","either","5","90","","","","","","","0","0","1","","0.2097526345","0.2","0.4","0.8","0.6","0.302599165","0.2470456849","0.2097526345","0.08686614453","","","","","","","","","","","","75","K","2","","","214","main_expt"
"","bandit","294","853835","0.0-255.0-0.0","82123600","wem/bandit_either_2","A2V27A9GZA1NR2","either","5","194","","","","","","","0","0","1","","0.1796882487","0.2","0.4","0.8","0.6","0.2968005471","0.3285383036","0.1796882487","0.1068548489","","","","","","","","","","","","75","K","2","","","215","main_expt"
"","bandit","295","855355","0.0-256.0-0.0","82123600","wem/bandit_either_2","A2V27A9GZA1NR2","either","5","10","","","","","","","0","0","1","0.2237900511","","0.2","0.4","0.8","0.6","","","","","0.2835536598","0.3780044773","0.2237900511","0.1211736082","","","","","","","","75","K","2","","","216","main_expt"
"","bandit","296","856901","0.0-257.0-0.0","82123600","wem/bandit_either_2","A2V27A9GZA1NR2","either","5","34","","","","","","","0","0","1","","0.2265358539","0.2","0.4","0.8","0.6","0.2520762718","0.3939228946","0.2265358539","0.09343701815","","","","","","","","","","","","75","K","2","","","217","main_expt"
"","bandit","297","858517","0.0-258.0-0.0","82123600","wem/bandit_either_2","A2V27A9GZA1NR2","either","5","104","","","","","","","0","0","1","0.2364013437","","0.2","0.4","0.8","0.6","","","","","0.2562699476","0.3198270803","0.2364013437","0.1001055386","","","","","","","","75","K","2","","","218","main_expt"
"","bandit","298","860035","0.0-259.0-0.0","82123600","wem/bandit_either_2","A2V27A9GZA1NR2","either","5","7","","","","","","","0","0","1","0.2810560361","","0.2","0.4","0.8","0.6","","","","","0.3002431464","0.3502502288","0.2810560361","0.09524874014","","","","","","","","75","K","2","","","219","main_expt"
"","bandit","299","861637","0.0-260.0-0.0","82123600","wem/bandit_either_2","A2V27A9GZA1NR2","either","5","89","","","","","","","0","0","1","0.3027429446","","0.2","0.4","0.8","0.6","","","","","0.3365413303","0.3402456168","0.3027429446","0.1304899995","","","","","","","","75","K","2","","","220","main_expt"
"","bandit","300","863194","0.0-261.0-0.0","82123600","wem/bandit_either_2","A2V27A9GZA1NR2","either","5","48","","","","","","","0","0","1","0.3132134988","","0.2","0.4","0.8","0.6","","","","","0.2946103072","0.3770059732","0.3132134988","0.1272814923","","","","","","","","75","K","2","","","221","main_expt"
"","bandit","301","865067","0.0-262.0-0.0","82123600","wem/bandit_either_2","A2V27A9GZA1NR2","either","5","360","","","","","","","0","0","1","0.2424821827","","0.2","0.4","0.8","0.6","","","","","0.3267284332","0.3864421123","0.2424821827","0.1654407056","","","","","","","","75","K","2","","","222","main_expt"
"","bandit","302","866835","0.0-263.0-0.0","82123600","wem/bandit_either_2","A2V27A9GZA1NR2","either","5","258","","","","","","","0","0","1","0.2595367495","","0.2","0.4","0.8","0.6","","","","","0.3175152631","0.4205211408","0.2595367495","0.1788325852","","","","","","","","75","K","2","","","223","main_expt"
"","bandit","303","868500","0.0-264.0-0.0","82123600","wem/bandit_either_2","A2V27A9GZA1NR2","either","5","153","","","","","","","0","0","1","0.328819141","","0.2","0.4","0.8","0.6","","","","","0.3192400935","0.4131889957","0.328819141","0.1736623033","","","","","","","","75","K","2","","","224","main_expt"
"","bandit","304","870243","0.0-265.0-0.0","82123600","wem/bandit_either_2","A2V27A9GZA1NR2","either","5","232","","","","","","","0","0","1","0.356121412","","0.2","0.4","0.8","0.6","","","","","0.3096750449","0.4001513574","0.356121412","0.1721911447","","","","","","","","75","K","2","","","225","main_expt"
"","bandit","305","871905","0.0-266.0-0.0","82123600","wem/bandit_either_2","A2V27A9GZA1NR2","either","5","152","","","","","","","1","0","0","0.3394019192","","0.2","0.4","0.8","0.6","","","","","0.3142833063","0.3963688582","0.3394019192","0.2133818582","","","","","","","","75","K","2","","","226","main_expt"
"","bandit","306","873667","0.0-267.0-0.0","82123600","wem/bandit_either_2","A2V27A9GZA1NR2","either","5","251","","","","","","","0","0","1","0.2860553004","","0.2","0.4","0.8","0.6","","","","","0.3096885674","0.3979714495","0.2860553004","0.2620007467","","","","","","","","75","K","2","","","227","main_expt"
"","bandit","307","875228","0.0-268.0-0.0","82123600","wem/bandit_either_2","A2V27A9GZA1NR2","either","5","49","","","","","","","0","0","1","","0.2967856672","0.2","0.4","0.8","0.6","0.3048295172","0.3811043637","0.2967856672","0.2961930455","","","","","","","","","","","","75","K","2","","","228","main_expt"
"","bandit","308","876998","0.0-269.0-0.0","82123600","wem/bandit_either_2","A2V27A9GZA1NR2","either","5","259","","","","","","","0","0","1","0.2857745529","","0.2","0.4","0.8","0.6","","","","","0.2553920021","0.3488149186","0.2857745529","0.3081123415","","","","","","","","75","K","2","","","229","main_expt"
"","bandit","309","878717","0.0-270.0-0.0","82123600","wem/bandit_either_2","A2V27A9GZA1NR2","either","5","207","","","","","","","0","0","1","0.2589404948","","0.2","0.4","0.8","0.6","","","","","0.2783794412","0.2883621188","0.2589404948","0.3027177586","","","","","","","","75","K","2","","","230","main_expt"
"","bandit","310","880606","0.0-271.0-0.0","82123600","wem/bandit_either_2","A2V27A9GZA1NR2","either","5","376","","","","","","","0","0","1","","0.2628441024","0.2","0.4","0.8","0.6","0.2735536708","0.2444465504","0.2628441024","0.2495346478","","","","","","","","","","","","75","K","2","","","231","main_expt"
"","bandit","311","882365","0.0-272.0-0.0","82123600","wem/bandit_either_2","A2V27A9GZA1NR2","either","5","249","","","","","","","0","0","1","0.276537748","","0.2","0.4","0.8","0.6","","","","","0.2262440502","0.2996930955","0.276537748","0.2185872191","","","","","","","","75","K","2","","","232","main_expt"
"","bandit","312","884278","0.0-273.0-0.0","82123600","wem/bandit_either_2","A2V27A9GZA1NR2","either","5","402","","","","","","","0","1","0","","0.2485723575","0.2","0.4","0.8","0.6","0.2171974885","0.3103031796","0.2485723575","0.1874863907","","","","","","","","","","","","75","K","2","","","233","main_expt"
"","bandit","313","886310","0.0-274.0-0.0","82123600","wem/bandit_either_2","A2V27A9GZA1NR2","either","5","521","","","","","","","0","1","0","","0.2951485073","0.2","0.4","0.8","0.6","0.2951485073","0.2971988612","0.2172766866","0.2165838284","","","","","","","","","","","","72","H","0","img/none_selected.jpg","","234","main_expt"
"","bandit","314","888119","0.0-275.0-0.0","82123600","wem/bandit_either_2","A2V27A9GZA1NR2","either","5","296","","","","","","","0","0","1","0.3266576642","","0.2","0.4","0.8","0.6","","","","","0.3135740045","0.3266576642","0.221542824","0.1791302586","","","","","","","","74","J","1","","","235","main_expt"
"","bandit","315","889816","0.0-276.0-0.0","82123600","wem/bandit_either_2","A2V27A9GZA1NR2","either","5","186","","","","","","","0","0","1","0.2200573756","","0.2","0.4","0.8","0.6","","","","","0.2945285262","0.3596878827","0.2200573756","0.2463713802","","","","","","","","75","K","2","","","236","main_expt"
"","bandit","316","891495","0.0-277.0-0.0","82123600","wem/bandit_either_2","A2V27A9GZA1NR2","either","5","167","","","","","","","1","0","0","0.2146478317","","0.2","0.4","0.8","0.6","","","","","0.2797454337","0.3951370387","0.2146478317","0.2204623923","","","","","","","","75","K","2","","","237","main_expt"
"","bandit","317","893238","0.0-278.0-0.0","82123600","wem/bandit_either_2","A2V27A9GZA1NR2","either","5","232","","","","","","","0","0","1","0.2237656472","","0.2","0.4","0.8","0.6","","","","","0.266453507","0.3863552979","0.2237656472","0.2316256556","","","","","","","","75","K","2","","","238","main_expt"
"","bandit","318","894973","0.0-279.0-0.0","82123600","wem/bandit_either_2","A2V27A9GZA1NR2","either","5","224","","","","","","","1","0","0","0.2302611888","","0.2","0.4","0.8","0.6","","","","","0.310831157","0.3962704677","0.2302611888","0.2406304147","","","","","","","","75","K","2","","","239","main_expt"
"","bandit","319","896727","0.0-280.0-0.0","82123600","wem/bandit_either_2","A2V27A9GZA1NR2","either","5","241","","","","","","","0","1","0","","0.2253069634","0.2","0.4","0.8","0.6","0.331950591","0.3926977495","0.2253069634","0.2624476398","","","","","","","","","","","","75","K","2","","","240","main_expt"
"","bandit","320","898486","0.0-281.0-0.0","82123600","wem/bandit_either_2","A2V27A9GZA1NR2","either","5","248","","","","","","","0","0","1","0.2523404353","","0.2","0.4","0.8","0.6","","","","","0.3223776605","0.3381110468","0.2523404353","0.2627099727","","","","","","","","75","K","2","","","241","main_expt"
"","bandit","321","900334","0.0-282.0-0.0","82123600","wem/bandit_either_2","A2V27A9GZA1NR2","either","5","338","","","","","","","0","0","1","0.238450381","","0.2","0.4","0.8","0.6","","","","","0.3389272588","0.3213381148","0.238450381","0.2262339403","","","","","","","","75","K","2","","","242","main_expt"
"","bandit","322","901926","0.0-283.0-0.0","82123600","wem/bandit_either_2","A2V27A9GZA1NR2","either","5","80","","","","","","","0","0","1","0.2476478509","","0.2","0.4","0.8","0.6","","","","","0.4023830898","0.3395415742","0.2476478509","0.2511573395","","","","","","","","75","K","2","","","243","main_expt"
"","bandit","323","903541","0.0-284.0-0.0","82123600","wem/bandit_either_2","A2V27A9GZA1NR2","either","5","105","","","","","","","0","0","1","0.2603762171","","0.2","0.4","0.8","0.6","","","","","0.4072225753","0.3077285799","0.2603762171","0.3112309098","","","","","","","","75","K","2","","","244","main_expt"
"","bandit","324","905158","0.0-285.0-0.0","82123600","wem/bandit_either_2","A2V27A9GZA1NR2","either","5","105","","","","","","","0","0","1","0.2778117757","","0.2","0.4","0.8","0.6","","","","","0.4047901721","0.269997398","0.2778117757","0.3169667097","","","","","","","","75","K","2","","","245","main_expt"
"","bandit","325","906798","0.0-286.0-0.0","82123600","wem/bandit_either_2","A2V27A9GZA1NR2","either","5","127","","","","","","","0","0","1","0.2571702875","","0.2","0.4","0.8","0.6","","","","","0.4245844383","0.2896792764","0.2571702875","0.3774934029","","","","","","","","75","K","2","","","246","main_expt"
"","bandit","326","908343","0.0-287.0-0.0","82123600","wem/bandit_either_2","A2V27A9GZA1NR2","either","5","33","","","","","","","1","0","0","0.2790325972","","0.2","0.4","0.8","0.6","","","","","0.4425022826","0.3079745892","0.2790325972","0.3592590195","","","","","","","","75","K","2","","","247","main_expt"
"","bandit","327","910111","0.0-288.0-0.0","82123600","wem/bandit_either_2","A2V27A9GZA1NR2","either","5","258","","","","","","","0","0","1","","0.2665328125","0.2","0.4","0.8","0.6","0.4454461089","0.2306801962","0.2665328125","0.3659800935","","","","","","","","","","","","75","K","2","","","248","main_expt"
"","bandit","328","912375","0.0-289.0-0.0","82123600","wem/bandit_either_2","A2V27A9GZA1NR2","either","5","751","","","","","","","0","0","1","0.4565985803","","0.2","0.4","0.8","0.6","","","","","0.4565985803","0.2363838343","0.2666328085","0.3940863056","","","","","","","","72","H","0","img/none_selected.jpg","","249","main_expt"
