"consent","trial_type","trial_index","time_elapsed","internal_node_id","subjID","study","MID","cond","drift","rt","responses","key_press","expt_phase","like","value","connected","gems","bombs","no_reward","GemPrChosen","BombPrChosen","GainOverPainPr_0","GainOverPainPr_1","GainOverPainPr_2","GainOverPainPr_3","LosePr_0","LosePr_1","LosePr_2","LosePr_3","WinPr_0","WinPr_1","WinPr_2","WinPr_3","Q0","Q1","Q2","gender","age","ethnicity","target","respCharCode","respKey","respChoiceNum","respChoice","practice","trial_counter","trial_label"
"INL_behavioral_consent_30min_online.html","consent","0","5453","0.0-0.0","83010476","wem/bandit_either_2","AV22FQTJNBUZT","either","1","","","","","","","","","","","","","","","","","","","","","","","","","","","","","","","","","","","","","",""
"","survey-text","1","8110","0.0-1.0","83010476","wem/bandit_either_2","AV22FQTJNBUZT","either","1","1647","{""Q0"":""AV22FQTJNBUZT""}","","","","","","","","","","","","","","","","","","","","","","","","","","","","","","","","","","","",""
"","text","2","14415","0.0-2.0","83010476","wem/bandit_either_2","AV22FQTJNBUZT","either","1","5302","","32","","","","","","","","","","","","","","","","","","","","","","","","","","","","","","","","","","",""
"","text","3","15694","0.0-3.0","83010476","wem/bandit_either_2","AV22FQTJNBUZT","either","1","1277","","32","","","","","","","","","","","","","","","","","","","","","","","","","","","","","","","","","","",""
"","text","4","27583","0.0-4.0","83010476","wem/bandit_either_2","AV22FQTJNBUZT","either","1","11885","","32","","","","","","","","","","","","","","","","","","","","","","","","","","","","","","","","","","",""
"","text","5","33886","0.0-5.0","83010476","wem/bandit_either_2","AV22FQTJNBUZT","either","1","6301","","32","","","","","","","","","","","","","","","","","","","","","","","","","","","","","","","","","","",""
"","text","6","44151","0.0-6.0","83010476","wem/bandit_either_2","AV22FQTJNBUZT","either","1","10263","","32","","","","","","","","","","","","","","","","","","","","","","","","","","","","","","","","","","",""
"","text","7","46757","0.0-7.0","83010476","wem/bandit_either_2","AV22FQTJNBUZT","either","1","2606","","32","","","","","","","","","","","","","","","","","","","","","","","","","","","","","","","","","","",""
"","text","8","50429","0.0-8.0","83010476","wem/bandit_either_2","AV22FQTJNBUZT","either","1","3671","","32","","","","","","","","","","","","","","","","","","","","","","","","","","","","","","","","","","",""
"","identification","9","55736","0.0-9.0-0.0","83010476","wem/bandit_either_2","AV22FQTJNBUZT","either","1","5284","","","","1","2","1","","","","","","","","","","","","","","","","","","","","","","","","the village of Zur","","","","","","",""
"","identification","10","60373","0.0-9.0-1.0","83010476","wem/bandit_either_2","AV22FQTJNBUZT","either","1","3622","","","","3","3","3","","","","","","","","","","","","","","","","","","","","","","","","the village of Nyx","","","","","","",""
"","text","11","63008","0.0-10.0","83010476","wem/bandit_either_2","AV22FQTJNBUZT","either","1","1630","","32","","","","","","","","","","","","","","","","","","","","","","","","","","","","","","","","","","",""
"","text","12","63998","0.0-11.0","83010476","wem/bandit_either_2","AV22FQTJNBUZT","either","1","988","","32","","","","","","","","","","","","","","","","","","","","","","","","","","","","","","","","","","",""
"","text","13","66183","0.0-12.0","83010476","wem/bandit_either_2","AV22FQTJNBUZT","either","1","2185","","32","","","","","","","","","","","","","","","","","","","","","","","","","","","","","","","","","","",""
"","text","14","67822","0.0-13.0","83010476","wem/bandit_either_2","AV22FQTJNBUZT","either","1","1637","","32","","","","","","","","","","","","","","","","","","","","","","","","","","","","","","","","","","",""
"","bandit","15","73585","0.0-14.0-0.0","83010476","wem/bandit_either_2","AV22FQTJNBUZT","either","1","4253","","","","","","","0","0","1","0","0","","","","","0","","","","0","","","","","","","","","","","74","J","0","img/none_selected_demo.jpg","true","0",""
"","bandit","16","76001","0.0-15.0-0.0","83010476","wem/bandit_either_2","AV22FQTJNBUZT","either","1","906","","","","","","","0","0","1","0","0","","","","","0","","","","0","","","","","","","","","","","75","K","0","img/none_selected_demo.jpg","true","0",""
"","text","17","78833","0.0-16.0","83010476","wem/bandit_either_2","AV22FQTJNBUZT","either","1","2831","","32","","","","","","","","","","","","","","","","","","","","","","","","","","","","","","","","","","",""
"","text","18","91249","0.0-17.0","83010476","wem/bandit_either_2","AV22FQTJNBUZT","either","1","12414","","32","","","","","","","","","","","","","","","","","","","","","","","","","","","","","","","","","","",""
"","text","19","93590","0.0-18.0","83010476","wem/bandit_either_2","AV22FQTJNBUZT","either","1","2340","","32","","","","","","","","","","","","","","","","","","","","","","","","","","","","","","","","","","",""
"","text","20","95790","0.0-19.0","83010476","wem/bandit_either_2","AV22FQTJNBUZT","either","1","2200","","32","","","","","","","","","","","","","","","","","","","","","","","","","","","","","","","","","","",""
"","bandit","21","98233","0.0-20.0-0.0","83010476","wem/bandit_either_2","AV22FQTJNBUZT","either","1","933","","","","","","","1","0","0","0.2","","0.5","0.5","","","","","","","0.8","0.2","","","","","","","","","","75","K","1","","true","0","80_20_practice"
"","bandit","22","100712","0.0-20.0-1.0","83010476","wem/bandit_either_2","AV22FQTJNBUZT","either","1","969","","","","","","","1","0","0","0.2","","0.5","0.5","","","","","","","0.8","0.2","","","","","","","","","","75","K","1","","true","0","80_20_practice"
"","bandit","23","103467","0.0-20.0-2.0","83010476","wem/bandit_either_2","AV22FQTJNBUZT","either","1","1244","","","","","","","0","1","0","","0.2","0.5","0.5","","","0.8","0.2","","","","","","","","","","","","","","75","K","1","","true","0","80_20_practice"
"","bandit","24","105271","0.0-20.0-3.0","83010476","wem/bandit_either_2","AV22FQTJNBUZT","either","1","295","","","","","","","0","1","0","","0.2","0.5","0.5","","","0.8","0.2","","","","","","","","","","","","","","75","K","1","","true","0","80_20_practice"
"","bandit","25","107282","0.0-20.0-4.0","83010476","wem/bandit_either_2","AV22FQTJNBUZT","either","1","500","","","","","","","1","0","0","0.8","","0.5","0.5","","","","","","","0.8","0.2","","","","","","","","","","74","J","0","img/none_selected_demo.jpg","true","0","80_20_practice"
"","bandit","26","109440","0.0-20.0-5.0","83010476","wem/bandit_either_2","AV22FQTJNBUZT","either","1","640","","","","","","","1","0","0","0.8","","0.5","0.5","","","","","","","0.8","0.2","","","","","","","","","","74","J","0","img/none_selected_demo.jpg","true","0","80_20_practice"
"","bandit","27","111349","0.0-20.0-6.0","83010476","wem/bandit_either_2","AV22FQTJNBUZT","either","1","402","","","","","","","0","0","1","0.2","","0.5","0.5","","","","","","","0.8","0.2","","","","","","","","","","75","K","1","","true","0","80_20_practice"
"","bandit","28","113237","0.0-20.0-7.0","83010476","wem/bandit_either_2","AV22FQTJNBUZT","either","1","374","","","","","","","0","0","1","0.2","","0.5","0.5","","","","","","","0.8","0.2","","","","","","","","","","75","K","1","","true","0","80_20_practice"
"","bandit","29","115808","0.0-20.0-8.0","83010476","wem/bandit_either_2","AV22FQTJNBUZT","either","1","1029","","","","","","","0","0","1","","0.2","0.5","0.5","","","0.8","0.2","","","","","","","","","","","","","","75","K","1","","true","0","80_20_practice"
"","bandit","30","117722","0.0-20.0-9.0","83010476","wem/bandit_either_2","AV22FQTJNBUZT","either","1","406","","","","","","","1","0","0","0.2","","0.5","0.5","","","","","","","0.8","0.2","","","","","","","","","","75","K","1","","true","0","80_20_practice"
"","bandit","31","120283","0.0-20.0-10.0","83010476","wem/bandit_either_2","AV22FQTJNBUZT","either","1","1056","","","","","","","0","0","1","0.2","","0.5","0.5","","","","","","","0.8","0.2","","","","","","","","","","75","K","1","","true","0","80_20_practice"
"","bandit","32","122715","0.0-20.0-11.0","83010476","wem/bandit_either_2","AV22FQTJNBUZT","either","1","927","","","","","","","1","0","0","0.8","","0.5","0.5","","","","","","","0.8","0.2","","","","","","","","","","74","J","0","img/none_selected_demo.jpg","true","0","80_20_practice"
"","bandit","33","124649","0.0-20.0-12.0","83010476","wem/bandit_either_2","AV22FQTJNBUZT","either","1","423","","","","","","","1","0","0","0.8","","0.5","0.5","","","","","","","0.8","0.2","","","","","","","","","","74","J","0","img/none_selected_demo.jpg","true","0","80_20_practice"
"","bandit","34","126484","0.0-20.0-13.0","83010476","wem/bandit_either_2","AV22FQTJNBUZT","either","1","326","","","","","","","0","0","1","0.2","","0.5","0.5","","","","","","","0.8","0.2","","","","","","","","","","75","K","1","","true","0","80_20_practice"
"","bandit","35","128300","0.0-20.0-14.0","83010476","wem/bandit_either_2","AV22FQTJNBUZT","either","1","309","","","","","","","0","0","1","0.2","","0.5","0.5","","","","","","","0.8","0.2","","","","","","","","","","75","K","1","","true","0","80_20_practice"
"","bandit","36","130699","0.0-20.0-15.0","83010476","wem/bandit_either_2","AV22FQTJNBUZT","either","1","893","","","","","","","1","0","0","0.8","","0.5","0.5","","","","","","","0.8","0.2","","","","","","","","","","74","J","0","img/none_selected_demo.jpg","true","0","80_20_practice"
"","bandit","37","133110","0.0-20.0-16.0","83010476","wem/bandit_either_2","AV22FQTJNBUZT","either","1","902","","","","","","","0","1","0","","0.8","0.5","0.5","","","0.8","0.2","","","","","","","","","","","","","","74","J","0","img/none_selected_demo.jpg","true","0","80_20_practice"
"","bandit","38","134739","0.0-20.0-17.0","83010476","wem/bandit_either_2","AV22FQTJNBUZT","either","1","121","","","","","","","0","0","1","0.2","","0.5","0.5","","","","","","","0.8","0.2","","","","","","","","","","75","K","1","","true","0","80_20_practice"
"","bandit","39","137071","0.0-20.0-18.0","83010476","wem/bandit_either_2","AV22FQTJNBUZT","either","1","824","","","","","","","1","0","0","0.2","","0.5","0.5","","","","","","","0.8","0.2","","","","","","","","","","75","K","1","","true","0","80_20_practice"
"","bandit","40","139323","0.0-20.0-19.0","83010476","wem/bandit_either_2","AV22FQTJNBUZT","either","1","746","","","","","","","1","0","0","0.2","","0.5","0.5","","","","","","","0.8","0.2","","","","","","","","","","75","K","1","","true","0","80_20_practice"
"","text","41","143045","0.0-21.0","83010476","wem/bandit_either_2","AV22FQTJNBUZT","either","1","3719","","32","","","","","","","","","","","","","","","","","","","","","","","","","","","","","","","","","","",""
"","bandit","42","146486","0.0-22.0-0.0","83010476","wem/bandit_either_2","AV22FQTJNBUZT","either","1","1932","","","","","","","0","1","0","0","1","","","","","0","1","","","1","0","","","","","","","","","","75","K","1","","true","0",""
"","text","43","150217","0.0-23.0","83010476","wem/bandit_either_2","AV22FQTJNBUZT","either","1","3729","","32","","","","","","","","","","","","","","","","","","","","","","","","","","","","","","","","","","",""
"","text","44","151917","0.0-24.0","83010476","wem/bandit_either_2","AV22FQTJNBUZT","either","1","1698","","32","","","","","","","","","","","","","","","","","","","","","","","","","","","","","","","","","","",""
"","text","45","152957","0.0-25.0","83010476","wem/bandit_either_2","AV22FQTJNBUZT","either","1","1039","","32","","","","","","","","","","","","","","","","","","","","","","","","","","","","","","","","","","",""
"","text","46","153940","0.0-26.0","83010476","wem/bandit_either_2","AV22FQTJNBUZT","either","1","982","","32","","","","","","","","","","","","","","","","","","","","","","","","","","","","","","","","","","",""
"","text","47","155517","0.0-27.0","83010476","wem/bandit_either_2","AV22FQTJNBUZT","either","1","1574","","32","","","","","","","","","","","","","","","","","","","","","","","","","","","","","","","","","","",""
"","text","48","157061","0.0-28.0","83010476","wem/bandit_either_2","AV22FQTJNBUZT","either","1","1541","","32","","","","","","","","","","","","","","","","","","","","","","","","","","","","","","","","","","",""
"","text","49","158574","0.0-29.0","83010476","wem/bandit_either_2","AV22FQTJNBUZT","either","1","1511","","32","","","","","","","","","","","","","","","","","","","","","","","","","","","","","","","","","","",""
"","text","50","160158","0.0-30.0","83010476","wem/bandit_either_2","AV22FQTJNBUZT","either","1","1582","","32","","","","","","","","","","","","","","","","","","","","","","","","","","","","","","","","","","",""
"","text","51","163392","0.0-31.0","83010476","wem/bandit_either_2","AV22FQTJNBUZT","either","1","3232","","32","","","","","","","","","","","","","","","","","","","","","","","","","","","","","","","","","","",""
"","text","52","164453","0.0-32.0","83010476","wem/bandit_either_2","AV22FQTJNBUZT","either","1","1058","","32","","","","","","","","","","","","","","","","","","","","","","","","","","","","","","","","","","",""
"","text","53","168429","0.0-33.0","83010476","wem/bandit_either_2","AV22FQTJNBUZT","either","1","3973","","32","","","","","","","","","","","","","","","","","","","","","","","","","","","","","","","","","","",""
"","bandit","54","170948","0.0-34.0-0.0","83010476","wem/bandit_either_2","AV22FQTJNBUZT","either","1","1011","","","","","","","1","0","0","0.6","","0.5","0.5","0.5","0.5","","","","","0.8","0.2","0.6","0.2","","","","","","","","75","K","2","","true","0","full_practice"
"","bandit","55","172913","0.0-34.0-1.0","83010476","wem/bandit_either_2","AV22FQTJNBUZT","either","1","453","","","","","","","0","0","1","","0.2","0.5","0.5","0.5","0.5","0.8","0.2","0.6","0.2","","","","","","","","","","","","76","L","3","","true","0","full_practice"
"","bandit","56","174453","0.0-34.0-2.0","83010476","wem/bandit_either_2","AV22FQTJNBUZT","either","1","31","","","","","","","1","0","0","0.8","","0.5","0.5","0.5","0.5","","","","","0.8","0.2","0.6","0.2","","","","","","","","72","H","0","img/none_selected.jpg","true","0","full_practice"
"","bandit","57","176349","0.0-34.0-3.0","83010476","wem/bandit_either_2","AV22FQTJNBUZT","either","1","385","","","","","","","0","0","1","","0.2","0.5","0.5","0.5","0.5","0.8","0.2","0.6","0.2","","","","","","","","","","","","74","J","1","","true","0","full_practice"
"","bandit","58","178204","0.0-34.0-4.0","83010476","wem/bandit_either_2","AV22FQTJNBUZT","either","1","347","","","","","","","0","1","0","","0.8","0.5","0.5","0.5","0.5","0.8","0.2","0.6","0.2","","","","","","","","","","","","72","H","0","img/none_selected.jpg","true","0","full_practice"
"","bandit","59","179894","0.0-34.0-5.0","83010476","wem/bandit_either_2","AV22FQTJNBUZT","either","1","174","","","","","","","1","0","0","0.6","","0.5","0.5","0.5","0.5","","","","","0.8","0.2","0.6","0.2","","","","","","","","75","K","2","","true","0","full_practice"
"","bandit","60","181680","0.0-34.0-6.0","83010476","wem/bandit_either_2","AV22FQTJNBUZT","either","1","275","","","","","","","1","0","0","0.6","","0.5","0.5","0.5","0.5","","","","","0.8","0.2","0.6","0.2","","","","","","","","75","K","2","","true","0","full_practice"
"","bandit","61","183501","0.0-34.0-7.0","83010476","wem/bandit_either_2","AV22FQTJNBUZT","either","1","313","","","","","","","1","0","0","0.6","","0.5","0.5","0.5","0.5","","","","","0.8","0.2","0.6","0.2","","","","","","","","75","K","2","","true","0","full_practice"
"","bandit","62","185704","0.0-34.0-8.0","83010476","wem/bandit_either_2","AV22FQTJNBUZT","either","1","695","","","","","","","0","0","1","","0.6","0.5","0.5","0.5","0.5","0.8","0.2","0.6","0.2","","","","","","","","","","","","75","K","2","","true","0","full_practice"
"","bandit","63","187879","0.0-34.0-9.0","83010476","wem/bandit_either_2","AV22FQTJNBUZT","either","1","663","","","","","","","0","0","1","0.2","","0.5","0.5","0.5","0.5","","","","","0.8","0.2","0.6","0.2","","","","","","","","76","L","3","","true","0","full_practice"
"","bandit","64","189693","0.0-34.0-10.0","83010476","wem/bandit_either_2","AV22FQTJNBUZT","either","1","306","","","","","","","0","0","1","0.2","","0.5","0.5","0.5","0.5","","","","","0.8","0.2","0.6","0.2","","","","","","","","74","J","1","","true","0","full_practice"
"","bandit","65","191453","0.0-34.0-11.0","83010476","wem/bandit_either_2","AV22FQTJNBUZT","either","1","251","","","","","","","0","0","1","0.8","","0.5","0.5","0.5","0.5","","","","","0.8","0.2","0.6","0.2","","","","","","","","72","H","0","img/none_selected.jpg","true","0","full_practice"
"","bandit","66","193079","0.0-34.0-12.0","83010476","wem/bandit_either_2","AV22FQTJNBUZT","either","1","115","","","","","","","1","0","0","0.6","","0.5","0.5","0.5","0.5","","","","","0.8","0.2","0.6","0.2","","","","","","","","75","K","2","","true","0","full_practice"
"","bandit","67","194596","0.0-34.0-13.0","83010476","wem/bandit_either_2","AV22FQTJNBUZT","either","1","2","","","","","","","0","0","1","0.6","","0.5","0.5","0.5","0.5","","","","","0.8","0.2","0.6","0.2","","","","","","","","75","K","2","","true","0","full_practice"
"","bandit","68","196450","0.0-34.0-14.0","83010476","wem/bandit_either_2","AV22FQTJNBUZT","either","1","345","","","","","","","0","0","1","0.2","","0.5","0.5","0.5","0.5","","","","","0.8","0.2","0.6","0.2","","","","","","","","74","J","1","","true","0","full_practice"
"","bandit","69","198163","0.0-34.0-15.0","83010476","wem/bandit_either_2","AV22FQTJNBUZT","either","1","198","","","","","","","1","0","0","0.8","","0.5","0.5","0.5","0.5","","","","","0.8","0.2","0.6","0.2","","","","","","","","72","H","0","img/none_selected.jpg","true","0","full_practice"
"","bandit","70","199998","0.0-34.0-16.0","83010476","wem/bandit_either_2","AV22FQTJNBUZT","either","1","325","","","","","","","1","0","0","0.6","","0.5","0.5","0.5","0.5","","","","","0.8","0.2","0.6","0.2","","","","","","","","75","K","2","","true","0","full_practice"
"","bandit","71","201996","0.0-34.0-17.0","83010476","wem/bandit_either_2","AV22FQTJNBUZT","either","1","491","","","","","","","0","1","0","","0.6","0.5","0.5","0.5","0.5","0.8","0.2","0.6","0.2","","","","","","","","","","","","75","K","2","","true","0","full_practice"
"","bandit","72","203597","0.0-34.0-18.0","83010476","wem/bandit_either_2","AV22FQTJNBUZT","either","1","83","","","","","","","1","0","0","0.8","","0.5","0.5","0.5","0.5","","","","","0.8","0.2","0.6","0.2","","","","","","","","72","H","0","img/none_selected.jpg","true","0","full_practice"
"","bandit","73","205373","0.0-34.0-19.0","83010476","wem/bandit_either_2","AV22FQTJNBUZT","either","1","267","","","","","","","1","0","0","0.8","","0.5","0.5","0.5","0.5","","","","","0.8","0.2","0.6","0.2","","","","","","","","72","H","0","img/none_selected.jpg","true","0","full_practice"
"","text","74","208428","0.0-35.0","83010476","wem/bandit_either_2","AV22FQTJNBUZT","either","1","3044","","32","","","","","","","","","","","","","","","","","","","","","","","","","","","","","","","","","","",""
"","text","75","219871","0.0-36.0","83010476","wem/bandit_either_2","AV22FQTJNBUZT","either","1","10439","","32","","","","","","","","","","","","","","","","","","","","","","","","","","","","","","","","","","",""
"","text","76","222732","0.0-37.0","83010476","wem/bandit_either_2","AV22FQTJNBUZT","either","1","2859","","32","","","","","","","","","","","","","","","","","","","","","","","","","","","","","","","","","","",""
"","text","77","226420","0.0-38.0","83010476","wem/bandit_either_2","AV22FQTJNBUZT","either","1","3684","","32","","","","","","","","","","","","","","","","","","","","","","","","","","","","","","","","","","",""
"","text","78","227748","0.0-39.0","83010476","wem/bandit_either_2","AV22FQTJNBUZT","either","1","1326","","32","","","","","","","","","","","","","","","","","","","","","","","","","","","","","","","","","","",""
"","text","79","229117","0.0-40.0","83010476","wem/bandit_either_2","AV22FQTJNBUZT","either","1","1367","","32","","","","","","","","","","","","","","","","","","","","","","","","","","","","","","","","","","",""
"","bandit","80","231849","0.0-41.0-0.0","83010476","wem/bandit_either_2","AV22FQTJNBUZT","either","1","1222","","","","","","","0","1","0","","0.3592836462","0.2","0.8","0.6","0.4","0.02943109976","0.0798457429","0.3592836462","0.4269289603","","","","","","","","","","","","75","K","2","","","1","main_expt"
"","bandit","81","233749","0.0-42.0-0.0","83010476","wem/bandit_either_2","AV22FQTJNBUZT","either","1","391","","","","","","","0","0","1","0.07621336767","","0.2","0.8","0.6","0.4","","","","","0.06336112212","0.07621336767","0.3454903542","0.4660243271","","","","","","","","74","J","1","","","2","main_expt"
"","bandit","82","235995","0.0-43.0-0.0","83010476","wem/bandit_either_2","AV22FQTJNBUZT","either","1","740","","","","","","","0","0","1","","0.07335687118","0.2","0.8","0.6","0.4","0.07335687118","0.07476295528","0.2941512374","0.4738503749","","","","","","","","","","","","72","H","0","img/none_selected.jpg","","3","main_expt"
"","bandit","83","237875","0.0-44.0-0.0","83010476","wem/bandit_either_2","AV22FQTJNBUZT","either","1","371","","","","","","","0","1","0","","0.4618500418","0.2","0.8","0.6","0.4","0.06156305515","0.06526985361","0.2851241965","0.4618500418","","","","","","","","","","","","76","L","3","","","4","main_expt"
"","bandit","84","239692","0.0-45.0-0.0","83010476","wem/bandit_either_2","AV22FQTJNBUZT","either","1","309","","","","","","","1","0","0","0.3172925843","","0.2","0.8","0.6","0.4","","","","","0.08141194251","0.05487735528","0.3172925843","0.4488935273","","","","","","","","75","K","2","","","5","main_expt"
"","bandit","85","241640","0.0-46.0-0.0","83010476","wem/bandit_either_2","AV22FQTJNBUZT","either","1","436","","","","","","","0","1","0","","0.3319153021","0.2","0.8","0.6","0.4","0.1104821702","0.04340015571","0.3319153021","0.4437832297","","","","","","","","","","","","75","K","2","","","6","main_expt"
"","bandit","86","243480","0.0-47.0-0.0","83010476","wem/bandit_either_2","AV22FQTJNBUZT","either","1","333","","","","","","","0","0","1","0.04575060371","","0.2","0.8","0.6","0.4","","","","","0.1191408541","0.04575060371","0.3553039772","0.4310077805","","","","","","","","74","J","1","","","7","main_expt"
"","bandit","87","245547","0.0-48.0-0.0","83010476","wem/bandit_either_2","AV22FQTJNBUZT","either","1","560","","","","","","","0","0","1","","0.1517570037","0.2","0.8","0.6","0.4","0.1517570037","0.06112087539","0.3868093767","0.4480386191","","","","","","","","","","","","72","H","0","img/none_selected.jpg","","8","main_expt"
"","bandit","88","247419","0.0-49.0-0.0","83010476","wem/bandit_either_2","AV22FQTJNBUZT","either","1","364","","","","","","","0","0","1","","0.07854191076","0.2","0.8","0.6","0.4","0.1738087075","0.07854191076","0.3754406694","0.4460224538","","","","","","","","","","","","74","J","1","","","9","main_expt"
"","bandit","89","249313","0.0-50.0-0.0","83010476","wem/bandit_either_2","AV22FQTJNBUZT","either","1","379","","","","","","","0","0","1","0.2033535465","","0.2","0.8","0.6","0.4","","","","","0.2033535465","0.06865483858","0.3537433427","0.3954493452","","","","","","","","72","H","0","img/none_selected.jpg","","10","main_expt"
"","bandit","90","250975","0.0-51.0-0.0","83010476","wem/bandit_either_2","AV22FQTJNBUZT","either","1","151","","","","","","","0","0","1","","0.4064238371","0.2","0.8","0.6","0.4","0.1751631116","0.05083805298","0.3793358735","0.4064238371","","","","","","","","","","","","76","L","3","","","11","main_expt"
"","bandit","91","252869","0.0-52.0-0.0","83010476","wem/bandit_either_2","AV22FQTJNBUZT","either","1","385","","","","","","","0","0","1","","0.3800428212","0.2","0.8","0.6","0.4","0.1787487179","0.1038792476","0.3800428212","0.3800839449","","","","","","","","","","","","75","K","2","","","12","main_expt"
"","bandit","92","254686","0.0-53.0-0.0","83010476","wem/bandit_either_2","AV22FQTJNBUZT","either","1","308","","","","","","","0","0","1","0.3647981021","","0.2","0.8","0.6","0.4","","","","","0.1794712961","0.1197284353","0.3647981021","0.3866628193","","","","","","","","75","K","2","","","13","main_expt"
"","bandit","93","256563","0.0-54.0-0.0","83010476","wem/bandit_either_2","AV22FQTJNBUZT","either","1","367","","","","","","","0","0","1","0.326509825","","0.2","0.8","0.6","0.4","","","","","0.2482140722","0.135681701","0.3646471907","0.326509825","","","","","","","","76","L","3","","","14","main_expt"
"","bandit","94","258189","0.0-55.0-0.0","83010476","wem/bandit_either_2","AV22FQTJNBUZT","either","1","116","","","","","","","0","0","1","0.125153919","","0.2","0.8","0.6","0.4","","","","","0.2859415589","0.125153919","0.3549291363","0.2428529647","","","","","","","","74","J","1","","","15","main_expt"
"","bandit","95","260038","0.0-56.0-0.0","83010476","wem/bandit_either_2","AV22FQTJNBUZT","either","1","337","","","","","","","0","0","1","","0.26587149","0.2","0.8","0.6","0.4","0.26587149","0.1096891688","0.3727350689","0.2332962783","","","","","","","","","","","","72","H","0","img/none_selected.jpg","","16","main_expt"
"","bandit","96","261684","0.0-57.0-0.0","83010476","wem/bandit_either_2","AV22FQTJNBUZT","either","1","138","","","","","","","0","1","0","","0.2776265896","0.2","0.8","0.6","0.4","0.2776265896","0.1051581447","0.3112083829","0.2271032234","","","","","","","","","","","","72","H","0","img/none_selected.jpg","","17","main_expt"
"","bandit","97","263551","0.0-58.0-0.0","83010476","wem/bandit_either_2","AV22FQTJNBUZT","either","1","302","","","","","","","0","0","1","","0.1437943492","0.2","0.8","0.6","0.4","0.3223387563","0.1437943492","0.2403081055","0.1701710303","","","","","","","","","","","","74","J","1","","","18","main_expt"
"","bandit","98","265615","0.0-59.0-0.0","83010476","wem/bandit_either_2","AV22FQTJNBUZT","either","1","552","","","","","","","0","0","1","","0.1405615485","0.2","0.8","0.6","0.4","0.3192918255","0.1405615485","0.2377482675","0.2070198111","","","","","","","","","","","","74","J","1","","","19","main_expt"
"","bandit","99","267429","0.0-60.0-0.0","83010476","wem/bandit_either_2","AV22FQTJNBUZT","either","1","305","","","","","","","0","0","1","0.2607530295","","0.2","0.8","0.6","0.4","","","","","0.2739159796","0.1063334751","0.2607530295","0.2412547966","","","","","","","","75","K","2","","","20","main_expt"
"","bandit","100","269362","0.0-61.0-0.0","83010476","wem/bandit_either_2","AV22FQTJNBUZT","either","1","418","","","","","","","1","0","0","0.2919400674","","0.2","0.8","0.6","0.4","","","","","0.2454385858","0.07848250716","0.2919400674","0.2184758186","","","","","","","","75","K","2","","","21","main_expt"
"","bandit","101","271012","0.0-62.0-0.0","83010476","wem/bandit_either_2","AV22FQTJNBUZT","either","1","142","","","","","","","0","1","0","","0.2995681058","0.2","0.8","0.6","0.4","0.2340842041","0.1005082742","0.2995681058","0.1849325376","","","","","","","","","","","","75","K","2","","","22","main_expt"
"","bandit","102","272908","0.0-63.0-0.0","83010476","wem/bandit_either_2","AV22FQTJNBUZT","either","1","386","","","","","","","0","0","1","","0.1521197653","0.2","0.8","0.6","0.4","0.1840173947","0.0792694407","0.292554742","0.1521197653","","","","","","","","","","","","76","L","3","","","23","main_expt"
"","bandit","103","274827","0.0-64.0-0.0","83010476","wem/bandit_either_2","AV22FQTJNBUZT","either","1","411","","","","","","","0","0","1","","0.1759403195","0.2","0.8","0.6","0.4","0.1745529383","0.07358699385","0.3616894364","0.1759403195","","","","","","","","","","","","76","L","3","","","24","main_expt"
"","bandit","104","276742","0.0-65.0-0.0","83010476","wem/bandit_either_2","AV22FQTJNBUZT","either","1","407","","","","","","","0","0","1","","0.09479311865","0.2","0.8","0.6","0.4","0.1756582033","0.142208116","0.3575757263","0.09479311865","","","","","","","","","","","","76","L","3","","","25","main_expt"
"","bandit","105","278877","0.0-66.0-0.0","83010476","wem/bandit_either_2","AV22FQTJNBUZT","either","1","625","","","","","","","0","0","1","","0.08156123497","0.2","0.8","0.6","0.4","0.2086365416","0.1245113583","0.3635346368","0.08156123497","","","","","","","","","","","","76","L","3","","","26","main_expt"
"","bandit","106","280989","0.0-67.0-0.0","83010476","wem/bandit_either_2","AV22FQTJNBUZT","either","1","603","","","","","","","0","0","1","0.118364605","","0.2","0.8","0.6","0.4","","","","","0.2139763749","0.118364605","0.4109801844","0.1102307873","","","","","","","","74","J","1","","","27","main_expt"
"","bandit","107","282824","0.0-68.0-0.0","83010476","wem/bandit_either_2","AV22FQTJNBUZT","either","1","323","","","","","","","0","0","1","0.3772962545","","0.2","0.8","0.6","0.4","","","","","0.1613483267","0.1105930361","0.3772962545","0.08274430796","","","","","","","","75","K","2","","","28","main_expt"
"","bandit","108","284637","0.0-69.0-0.0","83010476","wem/bandit_either_2","AV22FQTJNBUZT","either","1","305","","","","","","","0","1","0","","0.3875745016","0.2","0.8","0.6","0.4","0.1712488152","0.1118713044","0.3875745016","0.1086911099","","","","","","","","","","","","75","K","2","","","29","main_expt"
"","bandit","109","286723","0.0-70.0-0.0","83010476","wem/bandit_either_2","AV22FQTJNBUZT","either","1","576","","","","","","","0","0","1","","0.1675524316","0.2","0.8","0.6","0.4","0.1675524316","0.1914750456","0.3780019893","0.1116575632","","","","","","","","","","","","72","H","0","img/none_selected.jpg","","30","main_expt"
"","bandit","110","290277","0.0-71.0-0.0","83010476","wem/bandit_either_2","AV22FQTJNBUZT","either","1","2046","","","","","","","0","0","1","","0.07828091442","0.2","0.8","0.6","0.4","0.140325158","0.2367730164","0.416860241","0.07828091442","","","","","","","","","","","","76","L","3","","","31","main_expt"
"","bandit","111","294161","0.0-72.0-0.0","83010476","wem/bandit_either_2","AV22FQTJNBUZT","either","1","2369","","","","","","","0","0","1","0.07550395781","","0.2","0.8","0.6","0.4","","","","","0.1553940025","0.2109574779","0.4242573056","0.07550395781","","","","","","","","76","L","3","","","32","main_expt"
"","bandit","112","296971","0.0-73.0-0.0","83010476","wem/bandit_either_2","AV22FQTJNBUZT","either","1","1289","","","","","","","1","0","0","0.4185546122","","0.2","0.8","0.6","0.4","","","","","0.1925614924","0.2005542758","0.4185546122","0.1445529326","","","","","","","","75","K","2","","","33","main_expt"
"","bandit","113","299218","0.0-74.0-0.0","83010476","wem/bandit_either_2","AV22FQTJNBUZT","either","1","739","","","","","","","0","0","1","0.4268308419","","0.2","0.8","0.6","0.4","","","","","0.2150530123","0.180377021","0.4268308419","0.1091775744","","","","","","","","75","K","2","","","34","main_expt"
"","bandit","114","301229","0.0-75.0-0.0","83010476","wem/bandit_either_2","AV22FQTJNBUZT","either","1","500","","","","","","","0","0","1","","0.4265642185","0.2","0.8","0.6","0.4","0.2688968874","0.2111187229","0.4265642185","0.1297995116","","","","","","","","","","","","75","K","2","","","35","main_expt"
"","bandit","115","302966","0.0-76.0-0.0","83010476","wem/bandit_either_2","AV22FQTJNBUZT","either","1","227","","","","","","","1","0","0","0.4066287969","","0.2","0.8","0.6","0.4","","","","","0.2977459964","0.2119332756","0.4066287969","0.09468550628","","","","","","","","75","K","2","","","36","main_expt"
"","bandit","116","304883","0.0-77.0-0.0","83010476","wem/bandit_either_2","AV22FQTJNBUZT","either","1","409","","","","","","","0","0","1","0.4611471687","","0.2","0.8","0.6","0.4","","","","","0.2684429955","0.2256131965","0.4611471687","0.09396978408","","","","","","","","75","K","2","","","37","main_expt"
"","bandit","117","306756","0.0-78.0-0.0","83010476","wem/bandit_either_2","AV22FQTJNBUZT","either","1","361","","","","","","","1","0","0","0.4482708269","","0.2","0.8","0.6","0.4","","","","","0.2490186117","0.1975147253","0.4482708269","0.1062257399","","","","","","","","75","K","2","","","38","main_expt"
"","bandit","118","309131","0.0-79.0-0.0","83010476","wem/bandit_either_2","AV22FQTJNBUZT","either","1","868","","","","","","","0","0","1","0.4402774387","","0.2","0.8","0.6","0.4","","","","","0.2548033483","0.1595648847","0.4402774387","0.09676453159","","","","","","","","75","K","2","","","39","main_expt"
"","bandit","119","311077","0.0-80.0-0.0","83010476","wem/bandit_either_2","AV22FQTJNBUZT","either","1","435","","","","","","","0","0","1","0.4385128538","","0.2","0.8","0.6","0.4","","","","","0.2688720753","0.1626610004","0.4385128538","0.08197179495","","","","","","","","75","K","2","","","40","main_expt"
"","bandit","120","313415","0.0-81.0-0.0","83010476","wem/bandit_either_2","AV22FQTJNBUZT","either","1","829","","","","","","","0","1","0","","0.4380640779","0.2","0.8","0.6","0.4","0.297778532","0.1982402655","0.4380640779","0.14416382","","","","","","","","","","","","75","K","2","","","41","main_expt"
"","bandit","121","315404","0.0-82.0-0.0","83010476","wem/bandit_either_2","AV22FQTJNBUZT","either","1","479","","","","","","","0","0","1","0.1863610343","","0.2","0.8","0.6","0.4","","","","","0.2449207522","0.1863610343","0.4265224768","0.1070927036","","","","","","","","74","J","1","","","42","main_expt"
"","bandit","122","317523","0.0-83.0-0.0","83010476","wem/bandit_either_2","AV22FQTJNBUZT","either","1","611","","","","","","","0","0","1","0.2418389683","","0.2","0.8","0.6","0.4","","","","","0.2457567503","0.2418389683","0.435880106","0.1214526226","","","","","","","","74","J","1","","","43","main_expt"
"","bandit","123","319859","0.0-84.0-0.0","83010476","wem/bandit_either_2","AV22FQTJNBUZT","either","1","824","","","","","","","0","1","0","","0.1943491227","0.2","0.8","0.6","0.4","0.2432732657","0.1943491227","0.4450576882","0.1450738833","","","","","","","","","","","","74","J","1","","","44","main_expt"
"","bandit","124","322444","0.0-85.0-0.0","83010476","wem/bandit_either_2","AV22FQTJNBUZT","either","1","1076","","","","","","","0","0","1","","0.2656772236","0.2","0.8","0.6","0.4","0.2656772236","0.1543250971","0.4382030275","0.09632230927","","","","","","","","","","","","72","H","0","img/none_selected.jpg","","45","main_expt"
"","bandit","125","324446","0.0-86.0-0.0","83010476","wem/bandit_either_2","AV22FQTJNBUZT","either","1","492","","","","","","","0","0","1","","0.2432112423","0.2","0.8","0.6","0.4","0.2432112423","0.09719433791","0.4412369426","0.103211431","","","","","","","","","","","","72","H","0","img/none_selected.jpg","","46","main_expt"
"","bandit","126","327704","0.0-87.0-0.0","83010476","wem/bandit_either_2","AV22FQTJNBUZT","either","1","1746","","","","","","","0","0","1","0.2992745976","","0.2","0.8","0.6","0.4","","","","","0.2992745976","0.1228880329","0.4588863431","0.09916324924","","","","","","","","72","H","0","img/none_selected.jpg","","47","main_expt"
"","bandit","127","330806","0.0-88.0-0.0","83010476","wem/bandit_either_2","AV22FQTJNBUZT","either","1","1592","","","","","","","0","1","0","","0.2594611615","0.2","0.8","0.6","0.4","0.2594611615","0.1068532567","0.4408788818","0.1090242341","","","","","","","","","","","","72","H","0","img/none_selected.jpg","","48","main_expt"
"","bandit","128","332956","0.0-89.0-0.0","83010476","wem/bandit_either_2","AV22FQTJNBUZT","either","1","639","","","","","","","0","0","1","","0.1265186769","0.2","0.8","0.6","0.4","0.2767916858","0.1044048509","0.4232064109","0.1265186769","","","","","","","","","","","","76","L","3","","","49","main_expt"
"","bandit","129","336588","0.0-90.0-0.0","83010476","wem/bandit_either_2","AV22FQTJNBUZT","either","1","2124","","","","","","","1","0","0","0.4210883962","","0.2","0.8","0.6","0.4","","","","","0.2762534014","0.1072026782","0.4210883962","0.1397440907","","","","","","","","75","K","2","","","50","main_expt"
"","bandit","130","339663","0.0-91.0-0.0","83010476","wem/bandit_either_2","AV22FQTJNBUZT","either","1","1552","","","","","","","0","0","1","0.4225635581","","0.2","0.8","0.6","0.4","","","","","0.3379376541","0.1287882573","0.4225635581","0.153600331","","","","","","","","75","K","2","","","51","main_expt"
"","bandit","131","342788","0.0-92.0-0.0","83010476","wem/bandit_either_2","AV22FQTJNBUZT","either","1","1614","","","","","","","0","0","1","","0.1718407591","0.2","0.8","0.6","0.4","0.3395267946","0.1298059469","0.4146237098","0.1718407591","","","","","","","","","","","","76","L","3","","","52","main_expt"
"","bandit","132","345107","0.0-93.0-0.0","83010476","wem/bandit_either_2","AV22FQTJNBUZT","either","1","810","","","","","","","0","0","1","","0.1945727614","0.2","0.8","0.6","0.4","0.29674647","0.07423060895","0.3763623321","0.1945727614","","","","","","","","","","","","76","L","3","","","53","main_expt"
"","bandit","133","350139","0.0-94.0-0.0","83010476","wem/bandit_either_2","AV22FQTJNBUZT","either","1","3522","","","","","","","0","0","1","0.2450542523","","0.2","0.8","0.6","0.4","","","","","0.3372955831","0.08562383645","0.3289081181","0.2450542523","","","","","","","","76","L","3","","","54","main_expt"
"","bandit","134","352040","0.0-95.0-0.0","83010476","wem/bandit_either_2","AV22FQTJNBUZT","either","1","387","","","","","","","0","1","0","","0.3025984711","0.2","0.8","0.6","0.4","0.3506099842","0.0757818623","0.3025984711","0.2547241938","","","","","","","","","","","","75","K","2","","","55","main_expt"
"","bandit","135","354228","0.0-96.0-0.0","83010476","wem/bandit_either_2","AV22FQTJNBUZT","either","1","679","","","","","","","0","0","1","0.09897923035","","0.2","0.8","0.6","0.4","","","","","0.3418029788","0.09897923035","0.2921333137","0.2595112895","","","","","","","","74","J","1","","","56","main_expt"
"","bandit","136","356411","0.0-97.0-0.0","83010476","wem/bandit_either_2","AV22FQTJNBUZT","either","1","671","","","","","","","0","0","1","","0.1160875525","0.2","0.8","0.6","0.4","0.3162475816","0.1160875525","0.3317177772","0.2610276213","","","","","","","","","","","","74","J","1","","","57","main_expt"
"","bandit","137","358730","0.0-98.0-0.0","83010476","wem/bandit_either_2","AV22FQTJNBUZT","either","1","799","","","","","","","0","0","1","0.1134641846","","0.2","0.8","0.6","0.4","","","","","0.3269881105","0.1134641846","0.3240244649","0.2354201416","","","","","","","","74","J","1","","","58","main_expt"
"","bandit","138","360844","0.0-99.0-0.0","83010476","wem/bandit_either_2","AV22FQTJNBUZT","either","1","605","","","","","","","0","0","1","","0.2346370837","0.2","0.8","0.6","0.4","0.2901324944","0.1177083384","0.2988076671","0.2346370837","","","","","","","","","","","","76","L","3","","","59","main_expt"
"","bandit","139","362876","0.0-100.0-0.0","83010476","wem/bandit_either_2","AV22FQTJNBUZT","either","1","521","","","","","","","0","1","0","","0.2315637733","0.2","0.8","0.6","0.4","0.289588464","0.1125723432","0.3096792726","0.2315637733","","","","","","","","","","","","76","L","3","","","60","main_expt"
"","bandit","140","365066","0.0-101.0-0.0","83010476","wem/bandit_either_2","AV22FQTJNBUZT","either","1","682","","","","","","","0","1","0","","0.2821336973","0.2","0.8","0.6","0.4","0.2782845563","0.09911093426","0.2821336973","0.2599537756","","","","","","","","","","","","75","K","2","","","61","main_expt"
"","bandit","141","367209","0.0-102.0-0.0","83010476","wem/bandit_either_2","AV22FQTJNBUZT","either","1","634","","","","","","","0","1","0","","0.3165490401","0.2","0.8","0.6","0.4","0.3165490401","0.09440438105","0.2414244345","0.2594941563","","","","","","","","","","","","72","H","0","img/none_selected.jpg","","62","main_expt"
"","bandit","142","369205","0.0-103.0-0.0","83010476","wem/bandit_either_2","AV22FQTJNBUZT","either","1","481","","","","","","","0","0","1","","0.1015409351","0.2","0.8","0.6","0.4","0.3034564924","0.1015409351","0.213639373","0.2660839385","","","","","","","","","","","","74","J","1","","","63","main_expt"
"","bandit","143","371497","0.0-104.0-0.0","83010476","wem/bandit_either_2","AV22FQTJNBUZT","either","1","782","","","","","","","0","0","1","0.1876308072","","0.2","0.8","0.6","0.4","","","","","0.2506654962","0.07049798599","0.1876308072","0.2426585031","","","","","","","","75","K","2","","","64","main_expt"
"","bandit","144","373410","0.0-105.0-0.0","83010476","wem/bandit_either_2","AV22FQTJNBUZT","either","1","401","","","","","","","0","0","1","0.1841803182","","0.2","0.8","0.6","0.4","","","","","0.253414466","0.05735603507","0.1841803182","0.2581047566","","","","","","","","75","K","2","","","65","main_expt"
"","bandit","145","375271","0.0-106.0-0.0","83010476","wem/bandit_either_2","AV22FQTJNBUZT","either","1","347","","","","","","","0","0","1","","0.2872127433","0.2","0.8","0.6","0.4","0.2836500186","0.0621258055","0.187417598","0.2872127433","","","","","","","","","","","","76","L","3","","","66","main_expt"
"","bandit","146","377285","0.0-107.0-0.0","83010476","wem/bandit_either_2","AV22FQTJNBUZT","either","1","503","","","","","","","0","0","1","","0.1395950637","0.2","0.8","0.6","0.4","0.3217852231","0.06966106928","0.1395950637","0.3232337643","","","","","","","","","","","","75","K","2","","","67","main_expt"
"","bandit","147","379177","0.0-108.0-0.0","83010476","wem/bandit_either_2","AV22FQTJNBUZT","either","1","383","","","","","","","0","0","1","","0.1363519197","0.2","0.8","0.6","0.4","0.3574581916","0.09965709916","0.1363519197","0.3376006622","","","","","","","","","","","","75","K","2","","","68","main_expt"
"","bandit","148","381130","0.0-109.0-0.0","83010476","wem/bandit_either_2","AV22FQTJNBUZT","either","1","445","","","","","","","0","1","0","","0.3884563005","0.2","0.8","0.6","0.4","0.3884563005","0.1428217854","0.1117144852","0.2917609244","","","","","","","","","","","","72","H","0","img/none_selected.jpg","","69","main_expt"
"","bandit","149","382998","0.0-110.0-0.0","83010476","wem/bandit_either_2","AV22FQTJNBUZT","either","1","357","","","","","","","1","0","0","0.3920047773","","0.2","0.8","0.6","0.4","","","","","0.3920047773","0.1866845388","0.09667493602","0.2218665627","","","","","","","","72","H","0","img/none_selected.jpg","","70","main_expt"
"","bandit","150","384756","0.0-111.0-0.0","83010476","wem/bandit_either_2","AV22FQTJNBUZT","either","1","245","","","","","","","0","1","0","","0.4066376731","0.2","0.8","0.6","0.4","0.4066376731","0.1702545286","0.09186933139","0.2409383839","","","","","","","","","","","","72","H","0","img/none_selected.jpg","","71","main_expt"
"","bandit","151","387027","0.0-112.0-0.0","83010476","wem/bandit_either_2","AV22FQTJNBUZT","either","1","761","","","","","","","0","0","1","","0.3443789926","0.2","0.8","0.6","0.4","0.3443789926","0.1836279043","0.09472009463","0.1920783453","","","","","","","","","","","","72","H","0","img/none_selected.jpg","","72","main_expt"
"","bandit","152","388572","0.0-113.0-0.0","83010476","wem/bandit_either_2","AV22FQTJNBUZT","either","1","35","","","","","","","0","0","1","0.1644348242","","0.2","0.8","0.6","0.4","","","","","0.3227553012","0.1644348242","0.1167805336","0.1905254877","","","","","","","","74","J","1","","","73","main_expt"
"","bandit","153","390501","0.0-114.0-0.0","83010476","wem/bandit_either_2","AV22FQTJNBUZT","either","1","419","","","","","","","0","0","1","0.1833421201","","0.2","0.8","0.6","0.4","","","","","0.3336652139","0.1833421201","0.1465151254","0.184198213","","","","","","","","74","J","1","","","74","main_expt"
"","bandit","154","392386","0.0-115.0-0.0","83010476","wem/bandit_either_2","AV22FQTJNBUZT","either","1","377","","","","","","","0","0","1","0.1881920243","","0.2","0.8","0.6","0.4","","","","","0.2890150868","0.1519653276","0.123285719","0.1881920243","","","","","","","","76","L","3","","","75","main_expt"
"","bandit","155","394305","0.0-116.0-0.0","83010476","wem/bandit_either_2","AV22FQTJNBUZT","either","1","390","","","","","","","0","0","1","0.1506622639","","0.2","0.8","0.6","0.4","","","","","0.2673490463","0.1506622639","0.1392606081","0.1988930589","","","","","","","","74","J","1","","","76","main_expt"
"","bandit","156","396345","0.0-117.0-0.0","83010476","wem/bandit_either_2","AV22FQTJNBUZT","either","1","517","","","","","","","0","0","1","","0.1860897766","0.2","0.8","0.6","0.4","0.2858541315","0.1860897766","0.099337717","0.2255968657","","","","","","","","","","","","74","J","1","","","77","main_expt"
"","bandit","157","398485","0.0-118.0-0.0","83010476","wem/bandit_either_2","AV22FQTJNBUZT","either","1","622","","","","","","","0","0","1","0.09666605973","","0.2","0.8","0.6","0.4","","","","","0.2639968829","0.1618556875","0.09666605973","0.1917014014","","","","","","","","75","K","2","","","78","main_expt"
"","bandit","158","400657","0.0-119.0-0.0","83010476","wem/bandit_either_2","AV22FQTJNBUZT","either","1","665","","","","","","","0","0","1","","0.2304888896","0.2","0.8","0.6","0.4","0.2304888896","0.1976853889","0.09639353985","0.2092129429","","","","","","","","","","","","72","H","0","img/none_selected.jpg","","79","main_expt"
"","bandit","159","402687","0.0-120.0-0.0","83010476","wem/bandit_either_2","AV22FQTJNBUZT","either","1","517","","","","","","","1","0","0","0.2198838985","","0.2","0.8","0.6","0.4","","","","","0.1991809665","0.2198838985","0.09566996791","0.1974306726","","","","","","","","74","J","1","","","80","main_expt"
"","bandit","160","404819","0.0-121.0-0.0","83010476","wem/bandit_either_2","AV22FQTJNBUZT","either","1","623","","","","","","","0","0","1","0.2167005254","","0.2","0.8","0.6","0.4","","","","","0.1627434897","0.2167005254","0.07958501382","0.1414754506","","","","","","","","74","J","1","","","81","main_expt"
"","bandit","161","407068","0.0-122.0-0.0","83010476","wem/bandit_either_2","AV22FQTJNBUZT","either","1","739","","","","","","","0","0","1","","0.1624637972","0.2","0.8","0.6","0.4","0.1624637972","0.2527486409","0.08833774835","0.1422587364","","","","","","","","","","","","72","H","0","img/none_selected.jpg","","82","main_expt"
"","bandit","162","409291","0.0-123.0-0.0","83010476","wem/bandit_either_2","AV22FQTJNBUZT","either","1","711","","","","","","","0","0","1","","0.1900332","0.2","0.8","0.6","0.4","0.1900332","0.2569721607","0.09109006352","0.1079415531","","","","","","","","","","","","72","H","0","img/none_selected.jpg","","83","main_expt"
"","bandit","163","411356","0.0-124.0-0.0","83010476","wem/bandit_either_2","AV22FQTJNBUZT","either","1","551","","","","","","","0","0","1","0.07696487024","","0.2","0.8","0.6","0.4","","","","","0.1705646391","0.2535394321","0.05321730921","0.07696487024","","","","","","","","76","L","3","","","84","main_expt"
"","bandit","164","413603","0.0-125.0-0.0","83010476","wem/bandit_either_2","AV22FQTJNBUZT","either","1","706","","","","","","","0","0","1","","0.08313016423","0.2","0.8","0.6","0.4","0.2053302659","0.2255799186","0.03321009489","0.08313016423","","","","","","","","","","","","76","L","3","","","85","main_expt"
"","bandit","165","415622","0.0-126.0-0.0","83010476","wem/bandit_either_2","AV22FQTJNBUZT","either","1","510","","","","","","","0","0","1","0.04864990798","","0.2","0.8","0.6","0.4","","","","","0.2128685413","0.2197080914","0.04864990798","0.102083396","","","","","","","","75","K","2","","","86","main_expt"
"","bandit","166","417551","0.0-127.0-0.0","83010476","wem/bandit_either_2","AV22FQTJNBUZT","either","1","415","","","","","","","0","0","1","0.2230338057","","0.2","0.8","0.6","0.4","","","","","0.213778815","0.2230338057","0.07919268752","0.09067070718","","","","","","","","74","J","1","","","87","main_expt"
"","bandit","167","419490","0.0-128.0-0.0","83010476","wem/bandit_either_2","AV22FQTJNBUZT","either","1","430","","","","","","","0","0","1","0.05835116993","","0.2","0.8","0.6","0.4","","","","","0.2102340809","0.2484269739","0.05835116993","0.1421970704","","","","","","","","75","K","2","","","88","main_expt"
"","bandit","168","421521","0.0-129.0-0.0","83010476","wem/bandit_either_2","AV22FQTJNBUZT","either","1","520","","","","","","","1","0","0","0.2733562597","","0.2","0.8","0.6","0.4","","","","","0.1809358483","0.2733562597","0.05115519592","0.219142046","","","","","","","","74","J","1","","","89","main_expt"
"","bandit","169","423720","0.0-130.0-0.0","83010476","wem/bandit_either_2","AV22FQTJNBUZT","either","1","666","","","","","","","0","0","1","0.07819273649","","0.2","0.8","0.6","0.4","","","","","0.1293356972","0.2973868449","0.07819273649","0.2806923657","","","","","","","","75","K","2","","","90","main_expt"
"","bandit","170","425925","0.0-131.0-0.0","83010476","wem/bandit_either_2","AV22FQTJNBUZT","either","1","696","","","","","","","1","0","0","0.2819660137","","0.2","0.8","0.6","0.4","","","","","0.1136224352","0.3067689268","0.05564661524","0.2819660137","","","","","","","","76","L","3","","","91","main_expt"
"","bandit","171","427870","0.0-132.0-0.0","83010476","wem/bandit_either_2","AV22FQTJNBUZT","either","1","432","","","","","","","0","0","1","","0.07539152519","0.2","0.8","0.6","0.4","0.07539152519","0.2719776188","0.05914103421","0.3370305887","","","","","","","","","","","","72","H","0","img/none_selected.jpg","","92","main_expt"
"","bandit","172","429692","0.0-133.0-0.0","83010476","wem/bandit_either_2","AV22FQTJNBUZT","either","1","308","","","","","","","0","0","1","","0.3081791896","0.2","0.8","0.6","0.4","0.08243558305","0.3081791896","0.03944324463","0.3722719914","","","","","","","","","","","","74","J","1","","","93","main_expt"
"","bandit","173","431700","0.0-134.0-0.0","83010476","wem/bandit_either_2","AV22FQTJNBUZT","either","1","497","","","","","","","0","0","1","0.05023017475","","0.2","0.8","0.6","0.4","","","","","0.09807673793","0.356667856","0.05023017475","0.3840030774","","","","","","","","75","K","2","","","94","main_expt"
"","bandit","174","433690","0.0-135.0-0.0","83010476","wem/bandit_either_2","AV22FQTJNBUZT","either","1","482","","","","","","","0","0","1","0.4050844552","","0.2","0.8","0.6","0.4","","","","","0.09746204728","0.3300765204","0.07311956304","0.4050844552","","","","","","","","76","L","3","","","95","main_expt"
"","bandit","175","435763","0.0-136.0-0.0","83010476","wem/bandit_either_2","AV22FQTJNBUZT","either","1","559","","","","","","","0","0","1","","0.08559835745","0.2","0.8","0.6","0.4","0.08559835745","0.3642735905","0.09573717159","0.4081076376","","","","","","","","","","","","72","H","0","img/none_selected.jpg","","96","main_expt"
"","bandit","176","437373","0.0-137.0-0.0","83010476","wem/bandit_either_2","AV22FQTJNBUZT","either","1","101","","","","","","","0","0","1","","0.0732645996","0.2","0.8","0.6","0.4","0.0732645996","0.3885664579","0.1235519285","0.4142780263","","","","","","","","","","","","72","H","0","img/none_selected.jpg","","97","main_expt"
"","bandit","177","439311","0.0-138.0-0.0","83010476","wem/bandit_either_2","AV22FQTJNBUZT","either","1","425","","","","","","","0","0","1","0.4162912028","","0.2","0.8","0.6","0.4","","","","","0.05343209845","0.4162912028","0.1274282425","0.4131193208","","","","","","","","74","J","1","","","98","main_expt"
"","bandit","178","441633","0.0-139.0-0.0","83010476","wem/bandit_either_2","AV22FQTJNBUZT","either","1","810","","","","","","","0","0","1","0.4074153657","","0.2","0.8","0.6","0.4","","","","","0.05144299931","0.4074153657","0.1457321849","0.428944851","","","","","","","","74","J","1","","","99","main_expt"
"","bandit","179","443569","0.0-140.0-0.0","83010476","wem/bandit_either_2","AV22FQTJNBUZT","either","1","406","","","","","","","0","0","1","0.1492128348","","0.2","0.8","0.6","0.4","","","","","0.03934302155","0.3349137267","0.1492128348","0.4279797645","","","","","","","","75","K","2","","","100","main_expt"
"","bandit","180","445550","0.0-141.0-0.0","83010476","wem/bandit_either_2","AV22FQTJNBUZT","either","1","460","","","","","","","0","0","1","0.125019219","","0.2","0.8","0.6","0.4","","","","","0.05783306622","0.2732947861","0.125019219","0.4189249443","","","","","","","","75","K","2","","","101","main_expt"
"","bandit","181","447518","0.0-142.0-0.0","83010476","wem/bandit_either_2","AV22FQTJNBUZT","either","1","451","","","","","","","0","0","1","","0.1008510245","0.2","0.8","0.6","0.4","0.06484492547","0.2584454073","0.1008510245","0.4279241466","","","","","","","","","","","","75","K","2","","","102","main_expt"
"","bandit","182","449540","0.0-143.0-0.0","83010476","wem/bandit_either_2","AV22FQTJNBUZT","either","1","455","","","","","","","0","1","0","","0.419390052","0.2","0.8","0.6","0.4","0.0701259157","0.2143891894","0.1087281004","0.419390052","","","","","","","","","","","","76","L","3","","","103","main_expt"
"","bandit","183","451486","0.0-144.0-0.0","83010476","wem/bandit_either_2","AV22FQTJNBUZT","either","1","433","","","","","","","0","0","1","","0.3761202226","0.2","0.8","0.6","0.4","0.06922647753","0.1354346047","0.143855427","0.3761202226","","","","","","","","","","","","76","L","3","","","104","main_expt"
"","bandit","184","453666","0.0-145.0-0.0","83010476","wem/bandit_either_2","AV22FQTJNBUZT","either","1","669","","","","","","","1","0","0","0.4229881466","","0.2","0.8","0.6","0.4","","","","","0.07802312096","0.1615963473","0.1606853024","0.4229881466","","","","","","","","76","L","3","","","105","main_expt"
"","bandit","185","455716","0.0-146.0-0.0","83010476","wem/bandit_either_2","AV22FQTJNBUZT","either","1","540","","","","","","","0","0","1","0.4110558218","","0.2","0.8","0.6","0.4","","","","","0.08930313369","0.1738621023","0.1612939645","0.4110558218","","","","","","","","76","L","3","","","106","main_expt"
"","bandit","186","457669","0.0-147.0-0.0","83010476","wem/bandit_either_2","AV22FQTJNBUZT","either","1","444","","","","","","","0","0","1","0.1778053335","","0.2","0.8","0.6","0.4","","","","","0.1397733654","0.1799671425","0.1778053335","0.4176599015","","","","","","","","75","K","2","","","107","main_expt"
"","bandit","187","459792","0.0-148.0-0.0","83010476","wem/bandit_either_2","AV22FQTJNBUZT","either","1","615","","","","","","","1","0","0","0.1844274074","","0.2","0.8","0.6","0.4","","","","","0.1505899732","0.1844274074","0.1826465361","0.4210396584","","","","","","","","74","J","1","","","108","main_expt"
"","bandit","188","462055","0.0-149.0-0.0","83010476","wem/bandit_either_2","AV22FQTJNBUZT","either","1","744","","","","","","","0","0","1","0.1702708828","","0.2","0.8","0.6","0.4","","","","","0.1162436109","0.1702708828","0.1737022726","0.4328015469","","","","","","","","74","J","1","","","109","main_expt"
"","bandit","189","464146","0.0-150.0-0.0","83010476","wem/bandit_either_2","AV22FQTJNBUZT","either","1","583","","","","","","","0","0","1","","0.08267976014","0.2","0.8","0.6","0.4","0.08267976014","0.1964407335","0.1658344406","0.4495585744","","","","","","","","","","","","72","H","0","img/none_selected.jpg","","110","main_expt"
"","bandit","190","467029","0.0-151.0-0.0","83010476","wem/bandit_either_2","AV22FQTJNBUZT","either","1","1367","","","","","","","0","0","1","","0.09389793805","0.2","0.8","0.6","0.4","0.09389793805","0.1777579569","0.240619448","0.4237631325","","","","","","","","","","","","72","H","0","img/none_selected.jpg","","111","main_expt"
"","bandit","191","469675","0.0-152.0-0.0","83010476","wem/bandit_either_2","AV22FQTJNBUZT","either","1","1133","","","","","","","0","0","1","0.1395994444","","0.2","0.8","0.6","0.4","","","","","0.07903418564","0.1395994444","0.1927397719","0.4521571561","","","","","","","","74","J","1","","","112","main_expt"
"","bandit","192","471809","0.0-153.0-0.0","83010476","wem/bandit_either_2","AV22FQTJNBUZT","either","1","624","","","","","","","0","0","1","","0.234725565","0.2","0.8","0.6","0.4","0.05501139052","0.1205999431","0.234725565","0.4350762846","","","","","","","","","","","","75","K","2","","","113","main_expt"
"","bandit","193","473858","0.0-154.0-0.0","83010476","wem/bandit_either_2","AV22FQTJNBUZT","either","1","536","","","","","","","0","0","1","0.09123355482","","0.2","0.8","0.6","0.4","","","","","0.07627702456","0.09123355482","0.1950215869","0.4315824664","","","","","","","","74","J","1","","","114","main_expt"
"","bandit","194","476083","0.0-155.0-0.0","83010476","wem/bandit_either_2","AV22FQTJNBUZT","either","1","713","","","","","","","0","0","1","","0.2575833325","0.2","0.8","0.6","0.4","0.03985247356","0.09554471192","0.2575833325","0.4127349624","","","","","","","","","","","","75","K","2","","","115","main_expt"
"","bandit","195","478051","0.0-156.0-0.0","83010476","wem/bandit_either_2","AV22FQTJNBUZT","either","1","456","","","","","","","0","0","1","","0.4468356006","0.2","0.8","0.6","0.4","0.0683792979","0.1942182492","0.2296468005","0.4468356006","","","","","","","","","","","","76","L","3","","","116","main_expt"
"","bandit","196","480605","0.0-157.0-0.0","83010476","wem/bandit_either_2","AV22FQTJNBUZT","either","1","1041","","","","","","","0","0","1","0.4458703805","","0.2","0.8","0.6","0.4","","","","","0.03956212276","0.2208250117","0.2816483341","0.4458703805","","","","","","","","76","L","3","","","117","main_expt"
"","bandit","197","482892","0.0-158.0-0.0","83010476","wem/bandit_either_2","AV22FQTJNBUZT","either","1","775","","","","","","","0","0","1","","0.2626769985","0.2","0.8","0.6","0.4","0.04459229253","0.1687975443","0.2626769985","0.4500370674","","","","","","","","","","","","75","K","2","","","118","main_expt"
"","bandit","198","485025","0.0-159.0-0.0","83010476","wem/bandit_either_2","AV22FQTJNBUZT","either","1","622","","","","","","","0","0","1","","0.1546105485","0.2","0.8","0.6","0.4","0.03386957434","0.1546105485","0.2418090277","0.4704359259","","","","","","","","","","","","74","J","1","","","119","main_expt"
"","bandit","199","487194","0.0-160.0-0.0","83010476","wem/bandit_either_2","AV22FQTJNBUZT","either","1","654","","","","","","","0","1","0","","0.4578798539","0.2","0.8","0.6","0.4","0.03305427522","0.143668411","0.2603236095","0.4578798539","","","","","","","","","","","","76","L","3","","","120","main_expt"
"","bandit","200","489173","0.0-161.0-0.0","83010476","wem/bandit_either_2","AV22FQTJNBUZT","either","1","467","","","","","","","0","1","0","","0.4591190262","0.2","0.8","0.6","0.4","0.03146098963","0.1098317425","0.2381785671","0.4591190262","","","","","","","","","","","","76","L","3","","","121","main_expt"
"","bandit","201","491135","0.0-162.0-0.0","83010476","wem/bandit_either_2","AV22FQTJNBUZT","either","1","443","","","","","","","0","0","1","0.4643737298","","0.2","0.8","0.6","0.4","","","","","0.02311797033","0.1097832873","0.2388462554","0.4643737298","","","","","","","","76","L","3","","","122","main_expt"
"","bandit","202","493067","0.0-163.0-0.0","83010476","wem/bandit_either_2","AV22FQTJNBUZT","either","1","417","","","","","","","0","0","1","0.1145900252","","0.2","0.8","0.6","0.4","","","","","0.0171261738","0.1145900252","0.2079929623","0.451586091","","","","","","","","74","J","1","","","123","main_expt"
"","bandit","203","494952","0.0-164.0-0.0","83010476","wem/bandit_either_2","AV22FQTJNBUZT","either","1","368","","","","","","","0","0","1","0.1137783892","","0.2","0.8","0.6","0.4","","","","","0.03468299263","0.1137783892","0.2148400852","0.4456906556","","","","","","","","74","J","1","","","124","main_expt"
"","bandit","204","496465","0.0-165.0-0.0","83010476","wem/bandit_either_2","AV22FQTJNBUZT","either","1","2","","","","","","","0","0","1","","0.02544516396","0.2","0.8","0.6","0.4","0.02544516396","0.145605256","0.2185056602","0.4240876494","","","","","","","","","","","","72","H","0","img/none_selected.jpg","","125","main_expt"
"","bandit","205","498602","0.0-166.0-0.0","83010476","wem/bandit_either_2","AV22FQTJNBUZT","either","1","626","","","","","","","0","0","1","","0.03059506073","0.2","0.8","0.6","0.4","0.03059506073","0.1443839055","0.2152323899","0.4008501573","","","","","","","","","","","","72","H","0","img/none_selected.jpg","","126","main_expt"
"","bandit","206","500485","0.0-167.0-0.0","83010476","wem/bandit_either_2","AV22FQTJNBUZT","either","1","373","","","","","","","0","0","1","0.1699446714","","0.2","0.8","0.6","0.4","","","","","0.0339638967","0.1434222382","0.1699446714","0.4066073101","","","","","","","","75","K","2","","","127","main_expt"
"","bandit","207","502580","0.0-168.0-0.0","83010476","wem/bandit_either_2","AV22FQTJNBUZT","either","1","583","","","","","","","0","0","1","","0.1299446217","0.2","0.8","0.6","0.4","0.02632978063","0.1412168693","0.1299446217","0.4270302575","","","","","","","","","","","","75","K","2","","","128","main_expt"
"","bandit","208","504868","0.0-169.0-0.0","83010476","wem/bandit_either_2","AV22FQTJNBUZT","either","1","778","","","","","","","0","0","1","0.1299487573","","0.2","0.8","0.6","0.4","","","","","0.02640977482","0.1086871361","0.1299487573","0.4401824822","","","","","","","","75","K","2","","","129","main_expt"
"","bandit","209","507458","0.0-170.0-0.0","83010476","wem/bandit_either_2","AV22FQTJNBUZT","either","1","1080","","","","","","","0","0","1","0.4160959849","","0.2","0.8","0.6","0.4","","","","","0.03646961518","0.1672766288","0.1172580566","0.4160959849","","","","","","","","76","L","3","","","130","main_expt"
"","bandit","210","509666","0.0-171.0-0.0","83010476","wem/bandit_either_2","AV22FQTJNBUZT","either","1","693","","","","","","","1","0","0","0.4374535298","","0.2","0.8","0.6","0.4","","","","","0.02171712127","0.157110596","0.1289979545","0.4374535298","","","","","","","","76","L","3","","","131","main_expt"
"","bandit","211","512079","0.0-172.0-0.0","83010476","wem/bandit_either_2","AV22FQTJNBUZT","either","1","900","","","","","","","0","0","1","0.4382483821","","0.2","0.8","0.6","0.4","","","","","0.01004766493","0.1338697581","0.1243754988","0.4382483821","","","","","","","","76","L","3","","","132","main_expt"
"","bandit","212","514181","0.0-173.0-0.0","83010476","wem/bandit_either_2","AV22FQTJNBUZT","either","1","585","","","","","","","0","0","1","","0.1101669797","0.2","0.8","0.6","0.4","0.005153708139","0.1101669797","0.1189203389","0.3913946914","","","","","","","","","","","","74","J","1","","","133","main_expt"
"","bandit","213","517333","0.0-174.0-0.0","83010476","wem/bandit_either_2","AV22FQTJNBUZT","either","1","1631","","","","","","","0","0","1","0.060775537","","0.2","0.8","0.6","0.4","","","","","0.01308543257","0.060775537","0.07075860378","0.4280120537","","","","","","","","74","J","1","","","134","main_expt"
"","bandit","214","519603","0.0-175.0-0.0","83010476","wem/bandit_either_2","AV22FQTJNBUZT","either","1","749","","","","","","","0","0","1","0.0714416082","","0.2","0.8","0.6","0.4","","","","","0.02634180281","0.0714416082","0.1073185777","0.4385213509","","","","","","","","74","J","1","","","135","main_expt"
"","bandit","215","522951","0.0-176.0-0.0","83010476","wem/bandit_either_2","AV22FQTJNBUZT","either","1","1835","","","","","","","0","0","1","","0.1001442491","0.2","0.8","0.6","0.4","0.04122629063","0.1115096907","0.1001442491","0.4605212521","","","","","","","","","","","","75","K","2","","","136","main_expt"
"","bandit","216","526228","0.0-177.0-0.0","83010476","wem/bandit_either_2","AV22FQTJNBUZT","either","1","1765","","","","","","","0","0","1","0.1736681681","","0.2","0.8","0.6","0.4","","","","","0.05517648788","0.1307091067","0.1736681681","0.4729500637","","","","","","","","75","K","2","","","137","main_expt"
"","bandit","217","528909","0.0-178.0-0.0","83010476","wem/bandit_either_2","AV22FQTJNBUZT","either","1","1166","","","","","","","0","1","0","","0.4705425907","0.2","0.8","0.6","0.4","0.05929415862","0.1289533412","0.1839908368","0.4705425907","","","","","","","","","","","","76","L","3","","","138","main_expt"
"","bandit","218","531088","0.0-179.0-0.0","83010476","wem/bandit_either_2","AV22FQTJNBUZT","either","1","667","","","","","","","0","1","0","","0.465423541","0.2","0.8","0.6","0.4","0.05470710098","0.1215972271","0.1500833973","0.465423541","","","","","","","","","","","","76","L","3","","","139","main_expt"
"","bandit","219","535148","0.0-180.0-0.0","83010476","wem/bandit_either_2","AV22FQTJNBUZT","either","1","2547","","","","","","","0","1","0","","0.4486857012","0.2","0.8","0.6","0.4","0.06062538604","0.1158179575","0.1718879457","0.4486857012","","","","","","","","","","","","76","L","3","","","140","main_expt"
"","bandit","220","537114","0.0-181.0-0.0","83010476","wem/bandit_either_2","AV22FQTJNBUZT","either","1","452","","","","","","","0","0","1","","0.05819772386","0.2","0.8","0.6","0.4","0.05819772386","0.08691297649","0.2025036279","0.4053061298","","","","","","","","","","","","72","H","0","img/none_selected.jpg","","141","main_expt"
"","bandit","221","542197","0.0-182.0-0.0","83010476","wem/bandit_either_2","AV22FQTJNBUZT","either","1","3570","","","","","","","0","1","0","","0.3989731656","0.2","0.8","0.6","0.4","0.05329701838","0.1425267255","0.1872564568","0.3989731656","","","","","","","","","","","","76","L","3","","","142","main_expt"
"","bandit","222","544075","0.0-183.0-0.0","83010476","wem/bandit_either_2","AV22FQTJNBUZT","either","1","364","","","","","","","0","0","1","","0.06209903385","0.2","0.8","0.6","0.4","0.06209903385","0.1425141192","0.1676641842","0.3783570596","","","","","","","","","","","","72","H","0","img/none_selected.jpg","","143","main_expt"
"","bandit","223","548846","0.0-184.0-0.0","83010476","wem/bandit_either_2","AV22FQTJNBUZT","either","1","3256","","","","","","","0","0","1","0.06954729647","","0.2","0.8","0.6","0.4","","","","","0.06954729647","0.1362652721","0.1502987652","0.3485663762","","","","","","","","72","H","0","img/none_selected.jpg","","144","main_expt"
"","bandit","224","551195","0.0-185.0-0.0","83010476","wem/bandit_either_2","AV22FQTJNBUZT","either","1","839","","","","","","","0","0","1","0.1335650053","","0.2","0.8","0.6","0.4","","","","","0.062760129","0.1335650053","0.1050568962","0.3534190037","","","","","","","","74","J","1","","","145","main_expt"
"","bandit","225","553499","0.0-186.0-0.0","83010476","wem/bandit_either_2","AV22FQTJNBUZT","either","1","793","","","","","","","0","0","1","","0.1266784727","0.2","0.8","0.6","0.4","0.05014677947","0.1392461982","0.1266784727","0.342282706","","","","","","","","","","","","75","K","2","","","146","main_expt"
"","bandit","226","555970","0.0-187.0-0.0","83010476","wem/bandit_either_2","AV22FQTJNBUZT","either","1","960","","","","","","","0","0","1","","0.04801868921","0.2","0.8","0.6","0.4","0.04801868921","0.1060810453","0.1121887101","0.3497384939","","","","","","","","","","","","72","H","0","img/none_selected.jpg","","147","main_expt"
"","bandit","227","557998","0.0-188.0-0.0","83010476","wem/bandit_either_2","AV22FQTJNBUZT","either","1","509","","","","","","","0","0","1","","0.1050077765","0.2","0.8","0.6","0.4","0.05298179562","0.1076054289","0.1050077765","0.3507348305","","","","","","","","","","","","75","K","2","","","148","main_expt"
"","bandit","228","560067","0.0-189.0-0.0","83010476","wem/bandit_either_2","AV22FQTJNBUZT","either","1","561","","","","","","","0","0","1","","0.306786392","0.2","0.8","0.6","0.4","0.05271587927","0.09143227578","0.08725679698","0.306786392","","","","","","","","","","","","76","L","3","","","149","main_expt"
"","bandit","229","562688","0.0-190.0-0.0","83010476","wem/bandit_either_2","AV22FQTJNBUZT","either","1","1111","","","","","","","0","0","1","0.08361181256","","0.2","0.8","0.6","0.4","","","","","0.06153260368","0.08361181256","0.04813781364","0.3289077467","","","","","","","","74","J","1","","","150","main_expt"
"","bandit","230","564786","0.0-191.0-0.0","83010476","wem/bandit_either_2","AV22FQTJNBUZT","either","1","586","","","","","","","0","0","1","0.04690393958","","0.2","0.8","0.6","0.4","","","","","0.07716317934","0.1038450747","0.04690393958","0.2844912386","","","","","","","","75","K","2","","","151","main_expt"
"","bandit","231","566674","0.0-192.0-0.0","83010476","wem/bandit_either_2","AV22FQTJNBUZT","either","1","376","","","","","","","0","0","1","","0.3221551402","0.2","0.8","0.6","0.4","0.08370894892","0.1311897928","0.05051779207","0.3221551402","","","","","","","","","","","","76","L","3","","","152","main_expt"
"","bandit","232","569383","0.0-193.0-0.0","83010476","wem/bandit_either_2","AV22FQTJNBUZT","either","1","1189","","","","","","","0","0","1","0.1106636196","","0.2","0.8","0.6","0.4","","","","","0.06235129306","0.1106636196","0.0417019452","0.288581716","","","","","","","","74","J","1","","","153","main_expt"
"","bandit","233","571725","0.0-194.0-0.0","83010476","wem/bandit_either_2","AV22FQTJNBUZT","either","1","823","","","","","","","0","0","1","0.04565059468","","0.2","0.8","0.6","0.4","","","","","0.08808261531","0.08044616817","0.04565059468","0.3674714493","","","","","","","","75","K","2","","","154","main_expt"
"","bandit","234","573905","0.0-195.0-0.0","83010476","wem/bandit_either_2","AV22FQTJNBUZT","either","1","670","","","","","","","0","0","1","0.0249337719","","0.2","0.8","0.6","0.4","","","","","0.08415746701","0.09849608375","0.0249337719","0.3836765626","","","","","","","","75","K","2","","","155","main_expt"
"","bandit","235","576327","0.0-196.0-0.0","83010476","wem/bandit_either_2","AV22FQTJNBUZT","either","1","905","","","","","","","0","0","1","","0.1363215429","0.2","0.8","0.6","0.4","0.1363215429","0.0679626842","0.0207568711","0.3499766022","","","","","","","","","","","","72","H","0","img/none_selected.jpg","","156","main_expt"
"","bandit","236","578445","0.0-197.0-0.0","83010476","wem/bandit_either_2","AV22FQTJNBUZT","either","1","600","","","","","","","0","0","1","","0.176329139","0.2","0.8","0.6","0.4","0.176329139","0.06316877849","0.01044871803","0.3083455354","","","","","","","","","","","","72","H","0","img/none_selected.jpg","","157","main_expt"
"","bandit","237","580349","0.0-198.0-0.0","83010476","wem/bandit_either_2","AV22FQTJNBUZT","either","1","389","","","","","","","0","0","1","","0.2780985587","0.2","0.8","0.6","0.4","0.2239815039","0.06381796224","0.008486032171","0.2780985587","","","","","","","","","","","","76","L","3","","","158","main_expt"
"","bandit","238","582268","0.0-199.0-0.0","83010476","wem/bandit_either_2","AV22FQTJNBUZT","either","1","400","","","","","","","0","0","1","0.09986374221","","0.2","0.8","0.6","0.4","","","","","0.1754735631","0.09986374221","0.006770001311","0.2721424699","","","","","","","","74","J","1","","","159","main_expt"
"","bandit","239","584155","0.0-200.0-0.0","83010476","wem/bandit_either_2","AV22FQTJNBUZT","either","1","372","","","","","","","0","0","1","","0.08334790929","0.2","0.8","0.6","0.4","0.1820859676","0.08334790929","0.005009972043","0.3005636977","","","","","","","","","","","","74","J","1","","","160","main_expt"
"","bandit","240","585698","0.0-201.0-0.0","83010476","wem/bandit_either_2","AV22FQTJNBUZT","either","1","32","","","","","","","0","0","1","0.003825417776","","0.2","0.8","0.6","0.4","","","","","0.1771527669","0.1094566723","0.003825417776","0.2481613967","","","","","","","","75","K","2","","","161","main_expt"
"","bandit","241","587644","0.0-202.0-0.0","83010476","wem/bandit_either_2","AV22FQTJNBUZT","either","1","428","","","","","","","0","0","1","0.2040880477","","0.2","0.8","0.6","0.4","","","","","0.209245514","0.1287108975","0.006458278423","0.2040880477","","","","","","","","76","L","3","","","162","main_expt"
"","bandit","242","589372","0.0-203.0-0.0","83010476","wem/bandit_either_2","AV22FQTJNBUZT","either","1","212","","","","","","","0","1","0","","0.1864252411","0.2","0.8","0.6","0.4","0.1864252411","0.1811808859","0.01344146107","0.256608811","","","","","","","","","","","","72","H","0","img/none_selected.jpg","","163","main_expt"
"","bandit","243","591180","0.0-204.0-0.0","83010476","wem/bandit_either_2","AV22FQTJNBUZT","either","1","294","","","","","","","0","1","0","","0.1662237337","0.2","0.8","0.6","0.4","0.1662237337","0.1374611454","0.004940614731","0.2798468236","","","","","","","","","","","","72","H","0","img/none_selected.jpg","","164","main_expt"
"","bandit","244","593097","0.0-205.0-0.0","83010476","wem/bandit_either_2","AV22FQTJNBUZT","either","1","400","","","","","","","0","0","1","","0.1375661656","0.2","0.8","0.6","0.4","0.1375661656","0.1640313333","0.007349038951","0.2689568899","","","","","","","","","","","","72","H","0","img/none_selected.jpg","","165","main_expt"
"","bandit","245","595130","0.0-206.0-0.0","83010476","wem/bandit_either_2","AV22FQTJNBUZT","either","1","501","","","","","","","0","0","1","0.20052236","","0.2","0.8","0.6","0.4","","","","","0.1416727521","0.20052236","0.005679103294","0.2786045926","","","","","","","","74","J","1","","","166","main_expt"
"","bandit","246","597371","0.0-207.0-0.0","83010476","wem/bandit_either_2","AV22FQTJNBUZT","either","1","726","","","","","","","0","0","1","0.1945206589","","0.2","0.8","0.6","0.4","","","","","0.1497541138","0.1945206589","0.004037182679","0.2507583434","","","","","","","","74","J","1","","","167","main_expt"
"","bandit","247","600553","0.0-208.0-0.0","83010476","wem/bandit_either_2","AV22FQTJNBUZT","either","1","1667","","","","","","","0","0","1","","0.1827624484","0.2","0.8","0.6","0.4","0.1761460581","0.1902154162","0.007111326723","0.1827624484","","","","","","","","","","","","76","L","3","","","168","main_expt"
"","bandit","248","602482","0.0-209.0-0.0","83010476","wem/bandit_either_2","AV22FQTJNBUZT","either","1","418","","","","","","","0","0","1","","0.01708305062","0.2","0.8","0.6","0.4","0.2248215173","0.1931964682","0.01708305062","0.1558723634","","","","","","","","","","","","75","K","2","","","169","main_expt"
"","bandit","249","605131","0.0-210.0-0.0","83010476","wem/bandit_either_2","AV22FQTJNBUZT","either","1","1132","","","","","","","0","0","1","0.02105388628","","0.2","0.8","0.6","0.4","","","","","0.2503105048","0.236179436","0.02105388628","0.1757164868","","","","","","","","75","K","2","","","170","main_expt"
"","bandit","250","607178","0.0-211.0-0.0","83010476","wem/bandit_either_2","AV22FQTJNBUZT","either","1","536","","","","","","","0","0","1","0.2229285478","","0.2","0.8","0.6","0.4","","","","","0.2515708499","0.2229285478","0.01477187034","0.1985597056","","","","","","","","74","J","1","","","171","main_expt"
"","bandit","251","609336","0.0-212.0-0.0","83010476","wem/bandit_either_2","AV22FQTJNBUZT","either","1","646","","","","","","","0","0","1","","0.00639283578","0.2","0.8","0.6","0.4","0.2601117771","0.1805811295","0.00639283578","0.1725269859","","","","","","","","","","","","75","K","2","","","172","main_expt"
"","bandit","252","611633","0.0-213.0-0.0","83010476","wem/bandit_either_2","AV22FQTJNBUZT","either","1","781","","","","","","","1","0","0","0.1955807132","","0.2","0.8","0.6","0.4","","","","","0.2277859889","0.2203049146","0.008503536177","0.1955807132","","","","","","","","76","L","3","","","173","main_expt"
"","bandit","253","614422","0.0-214.0-0.0","83010476","wem/bandit_either_2","AV22FQTJNBUZT","either","1","1269","","","","","","","0","0","1","0.1712969398","","0.2","0.8","0.6","0.4","","","","","0.204090619","0.2079245196","0.01512836446","0.1712969398","","","","","","","","76","L","3","","","174","main_expt"
"","bandit","254","616788","0.0-215.0-0.0","83010476","wem/bandit_either_2","AV22FQTJNBUZT","either","1","843","","","","","","","0","0","1","0.034550241","","0.2","0.8","0.6","0.4","","","","","0.2264282848","0.1904909119","0.034550241","0.2145566876","","","","","","","","75","K","2","","","175","main_expt"
"","bandit","255","619091","0.0-216.0-0.0","83010476","wem/bandit_either_2","AV22FQTJNBUZT","either","1","786","","","","","","","0","0","1","","0.1987050603","0.2","0.8","0.6","0.4","0.2263436383","0.1611975006","0.01969997198","0.1987050603","","","","","","","","","","","","76","L","3","","","176","main_expt"
"","bandit","256","620943","0.0-217.0-0.0","83010476","wem/bandit_either_2","AV22FQTJNBUZT","either","1","336","","","","","","","0","0","1","","0.1747210449","0.2","0.8","0.6","0.4","0.2449632337","0.1747210449","0.02558747067","0.2161967517","","","","","","","","","","","","74","J","1","","","177","main_expt"
"","bandit","257","622463","0.0-218.0-0.0","83010476","wem/bandit_either_2","AV22FQTJNBUZT","either","1","3","","","","","","","0","0","1","","0.02865462312","0.2","0.8","0.6","0.4","0.1923885174","0.1667690144","0.02865462312","0.1790488899","","","","","","","","","","","","75","K","2","","","178","main_expt"
"","bandit","258","624883","0.0-219.0-0.0","83010476","wem/bandit_either_2","AV22FQTJNBUZT","either","1","906","","","","","","","0","0","1","0.1254539317","","0.2","0.8","0.6","0.4","","","","","0.1791230597","0.248539666","0.05873937836","0.1254539317","","","","","","","","76","L","3","","","179","main_expt"
"","bandit","259","626906","0.0-220.0-0.0","83010476","wem/bandit_either_2","AV22FQTJNBUZT","either","1","511","","","","","","","1","0","0","0.1641305094","","0.2","0.8","0.6","0.4","","","","","0.1641305094","0.2393284063","0.04996702027","0.1761702366","","","","","","","","72","H","0","img/none_selected.jpg","","180","main_expt"
"","bandit","260","629276","0.0-221.0-0.0","83010476","wem/bandit_either_2","AV22FQTJNBUZT","either","1","855","","","","","","","0","0","1","0.1567194189","","0.2","0.8","0.6","0.4","","","","","0.1567194189","0.2450765022","0.06192223509","0.2307221343","","","","","","","","72","H","0","img/none_selected.jpg","","181","main_expt"
"","bandit","261","631394","0.0-222.0-0.0","83010476","wem/bandit_either_2","AV22FQTJNBUZT","either","1","602","","","","","","","1","0","0","0.2898963007","","0.2","0.8","0.6","0.4","","","","","0.1805899487","0.2898963007","0.07865608963","0.1656926355","","","","","","","","74","J","1","","","182","main_expt"
"","bandit","262","633448","0.0-223.0-0.0","83010476","wem/bandit_either_2","AV22FQTJNBUZT","either","1","542","","","","","","","0","0","1","","0.337419987","0.2","0.8","0.6","0.4","0.1381226487","0.337419987","0.0695036973","0.1997223474","","","","","","","","","","","","74","J","1","","","183","main_expt"
"","bandit","263","635469","0.0-224.0-0.0","83010476","wem/bandit_either_2","AV22FQTJNBUZT","either","1","501","","","","","","","0","0","1","","0.1936006223","0.2","0.8","0.6","0.4","0.1157029232","0.3334404967","0.09883674892","0.1936006223","","","","","","","","","","","","76","L","3","","","184","main_expt"
"","bandit","264","637546","0.0-225.0-0.0","83010476","wem/bandit_either_2","AV22FQTJNBUZT","either","1","561","","","","","","","0","0","1","","0.1344132801","0.2","0.8","0.6","0.4","0.09007466759","0.3049781316","0.1344132801","0.1794548994","","","","","","","","","","","","75","K","2","","","185","main_expt"
"","bandit","265","639218","0.0-226.0-0.0","83010476","wem/bandit_either_2","AV22FQTJNBUZT","either","1","160","","","","","","","0","0","1","","0.07784091677","0.2","0.8","0.6","0.4","0.07784091677","0.322039184","0.1194183803","0.1679588243","","","","","","","","","","","","72","H","0","img/none_selected.jpg","","186","main_expt"
"","bandit","266","641126","0.0-227.0-0.0","83010476","wem/bandit_either_2","AV22FQTJNBUZT","either","1","392","","","","","","","0","1","0","","0.1332261693","0.2","0.8","0.6","0.4","0.1332261693","0.2898485093","0.1456002269","0.1692259204","","","","","","","","","","","","72","H","0","img/none_selected.jpg","","187","main_expt"
"","bandit","267","642876","0.0-228.0-0.0","83010476","wem/bandit_either_2","AV22FQTJNBUZT","either","1","233","","","","","","","0","0","1","","0.1302169342","0.2","0.8","0.6","0.4","0.1302169342","0.3046836684","0.1008589119","0.1796926114","","","","","","","","","","","","72","H","0","img/none_selected.jpg","","188","main_expt"
"","bandit","268","644880","0.0-229.0-0.0","83010476","wem/bandit_either_2","AV22FQTJNBUZT","either","1","492","","","","","","","0","0","1","0.3437642557","","0.2","0.8","0.6","0.4","","","","","0.1459867673","0.3437642557","0.09109327247","0.1463090895","","","","","","","","74","J","1","","","189","main_expt"
"","bandit","269","646963","0.0-230.0-0.0","83010476","wem/bandit_either_2","AV22FQTJNBUZT","either","1","570","","","","","","","0","0","1","0.1670442817","","0.2","0.8","0.6","0.4","","","","","0.1930387326","0.3685715368","0.133333279","0.1670442817","","","","","","","","76","L","3","","","190","main_expt"
"","bandit","270","649201","0.0-231.0-0.0","83010476","wem/bandit_either_2","AV22FQTJNBUZT","either","1","722","","","","","","","0","0","1","","0.1253338948","0.2","0.8","0.6","0.4","0.1447045196","0.4063368095","0.1253338948","0.2148667481","","","","","","","","","","","","75","K","2","","","191","main_expt"
"","bandit","271","651003","0.0-232.0-0.0","83010476","wem/bandit_either_2","AV22FQTJNBUZT","either","1","286","","","","","","","1","0","0","0.1891029698","","0.2","0.8","0.6","0.4","","","","","0.1521301445","0.4194789623","0.1371372983","0.1891029698","","","","","","","","76","L","3","","","192","main_expt"
"","bandit","272","652844","0.0-233.0-0.0","83010476","wem/bandit_either_2","AV22FQTJNBUZT","either","1","324","","","","","","","0","1","0","","0.1818436489","0.2","0.8","0.6","0.4","0.1216552598","0.3914453041","0.1269519223","0.1818436489","","","","","","","","","","","","76","L","3","","","193","main_expt"
"","bandit","273","654816","0.0-234.0-0.0","83010476","wem/bandit_either_2","AV22FQTJNBUZT","either","1","459","","","","","","","0","0","1","0.1253972088","","0.2","0.8","0.6","0.4","","","","","0.07681554104","0.3988429791","0.1253972088","0.2036833838","","","","","","","","75","K","2","","","194","main_expt"
"","bandit","274","656747","0.0-235.0-0.0","83010476","wem/bandit_either_2","AV22FQTJNBUZT","either","1","417","","","","","","","0","0","1","0.4212514022","","0.2","0.8","0.6","0.4","","","","","0.07468822185","0.4212514022","0.1231557279","0.2189502041","","","","","","","","74","J","1","","","195","main_expt"
"","bandit","275","658574","0.0-236.0-0.0","83010476","wem/bandit_either_2","AV22FQTJNBUZT","either","1","311","","","","","","","0","0","1","0.2304226507","","0.2","0.8","0.6","0.4","","","","","0.07634526252","0.4128950903","0.2304226507","0.2011136523","","","","","","","","75","K","2","","","196","main_expt"
"","bandit","276","660296","0.0-237.0-0.0","83010476","wem/bandit_either_2","AV22FQTJNBUZT","either","1","212","","","","","","","0","0","1","0.3102822931","","0.2","0.8","0.6","0.4","","","","","0.06680697181","0.3979973083","0.3102822931","0.2295646827","","","","","","","","75","K","2","","","197","main_expt"
"","bandit","277","662081","0.0-238.0-0.0","83010476","wem/bandit_either_2","AV22FQTJNBUZT","either","1","274","","","","","","","0","0","1","","0.2570874699","0.2","0.8","0.6","0.4","0.05107679344","0.3153467244","0.3222054514","0.2570874699","","","","","","","","","","","","76","L","3","","","198","main_expt"
"","bandit","278","663949","0.0-239.0-0.0","83010476","wem/bandit_either_2","AV22FQTJNBUZT","either","1","355","","","","","","","0","0","1","","0.06140804873","0.2","0.8","0.6","0.4","0.06140804873","0.3121882746","0.3416159467","0.2215013189","","","","","","","","","","","","72","H","0","img/none_selected.jpg","","199","main_expt"
"","bandit","279","666034","0.0-240.0-0.0","83010476","wem/bandit_either_2","AV22FQTJNBUZT","either","1","573","","","","","","","0","0","1","0.3826655938","","0.2","0.8","0.6","0.4","","","","","0.05697288244","0.3789620948","0.3826655938","0.1681318695","","","","","","","","75","K","2","","","200","main_expt"
"","bandit","280","668027","0.0-241.0-0.0","83010476","wem/bandit_either_2","AV22FQTJNBUZT","either","1","476","","","","","","","1","0","0","0.1787039029","","0.2","0.8","0.6","0.4","","","","","0.04802221103","0.3575696279","0.4117435103","0.1787039029","","","","","","","","76","L","3","","","201","main_expt"
"","bandit","281","669893","0.0-242.0-0.0","83010476","wem/bandit_either_2","AV22FQTJNBUZT","either","1","355","","","","","","","0","1","0","","0.2180442152","0.2","0.8","0.6","0.4","0.04583536071","0.3937046418","0.4023622846","0.2180442152","","","","","","","","","","","","76","L","3","","","202","main_expt"
"","bandit","282","671548","0.0-243.0-0.0","83010476","wem/bandit_either_2","AV22FQTJNBUZT","either","1","141","","","","","","","0","0","1","","0.262784421","0.2","0.8","0.6","0.4","0.03655969434","0.3901943722","0.4225273878","0.262784421","","","","","","","","","","","","76","L","3","","","203","main_expt"
"","bandit","283","674387","0.0-244.0-0.0","83010476","wem/bandit_either_2","AV22FQTJNBUZT","either","1","1321","","","","","","","0","0","1","0.4151046429","","0.2","0.8","0.6","0.4","","","","","0.05773518339","0.4099131859","0.4151046429","0.2843732649","","","","","","","","75","K","2","","","204","main_expt"
"","bandit","284","675918","0.0-245.0-0.0","83010476","wem/bandit_either_2","AV22FQTJNBUZT","either","1","13","","","","","","","1","0","0","0.4238238901","","0.2","0.8","0.6","0.4","","","","","0.06616346658","0.4238238901","0.4288165897","0.2549063301","","","","","","","","74","J","1","","","205","main_expt"
"","bandit","285","677961","0.0-246.0-0.0","83010476","wem/bandit_either_2","AV22FQTJNBUZT","either","1","527","","","","","","","0","0","1","0.4139837541","","0.2","0.8","0.6","0.4","","","","","0.09055598832","0.4139837541","0.436745712","0.2982701688","","","","","","","","74","J","1","","","206","main_expt"
"","bandit","286","680428","0.0-247.0-0.0","83010476","wem/bandit_either_2","AV22FQTJNBUZT","either","1","947","","","","","","","1","0","0","0.4484652972","","0.2","0.8","0.6","0.4","","","","","0.07583085731","0.3544894801","0.4484652972","0.3423773839","","","","","","","","75","K","2","","","207","main_expt"
"","bandit","287","682980","0.0-248.0-0.0","83010476","wem/bandit_either_2","AV22FQTJNBUZT","either","1","1037","","","","","","","0","0","1","","0.09768014643","0.2","0.8","0.6","0.4","0.09768014643","0.3703609936","0.4516947584","0.3321535101","","","","","","","","","","","","72","H","0","img/none_selected.jpg","","208","main_expt"
"","bandit","288","684552","0.0-249.0-0.0","83010476","wem/bandit_either_2","AV22FQTJNBUZT","either","1","62","","","","","","","0","0","1","0.3467721984","","0.2","0.8","0.6","0.4","","","","","0.08389795445","0.3590511704","0.4590139285","0.3467721984","","","","","","","","76","L","3","","","209","main_expt"
"","bandit","289","686697","0.0-250.0-0.0","83010476","wem/bandit_either_2","AV22FQTJNBUZT","either","1","610","","","","","","","0","1","0","","0.3513447539","0.2","0.8","0.6","0.4","0.07846525543","0.3781523972","0.4378910613","0.3513447539","","","","","","","","","","","","76","L","3","","","210","main_expt"
"","bandit","290","689579","0.0-251.0-0.0","83010476","wem/bandit_either_2","AV22FQTJNBUZT","either","1","1361","","","","","","","0","0","1","0.4003692624","","0.2","0.8","0.6","0.4","","","","","0.05906932722","0.3895188655","0.4139384991","0.4003692624","","","","","","","","76","L","3","","","211","main_expt"
"","bandit","291","692117","0.0-252.0-0.0","83010476","wem/bandit_either_2","AV22FQTJNBUZT","either","1","1022","","","","","","","0","0","1","0.3949660502","","0.2","0.8","0.6","0.4","","","","","0.04754192311","0.4075098947","0.3659234609","0.3949660502","","","","","","","","76","L","3","","","212","main_expt"
"","bandit","292","694651","0.0-253.0-0.0","83010476","wem/bandit_either_2","AV22FQTJNBUZT","either","1","1021","","","","","","","0","1","0","","0.4233479157","0.2","0.8","0.6","0.4","0.05481920189","0.4191075236","0.3180572988","0.4233479157","","","","","","","","","","","","76","L","3","","","213","main_expt"
"","bandit","293","696689","0.0-254.0-0.0","83010476","wem/bandit_either_2","AV22FQTJNBUZT","either","1","516","","","","","","","0","1","0","","0.2611162072","0.2","0.8","0.6","0.4","0.07954578011","0.3799529118","0.2611162072","0.4182751871","","","","","","","","","","","","75","K","2","","","214","main_expt"
"","bandit","294","698330","0.0-255.0-0.0","83010476","wem/bandit_either_2","AV22FQTJNBUZT","either","1","126","","","","","","","0","0","1","0.3924699069","","0.2","0.8","0.6","0.4","","","","","0.1078137614","0.3924699069","0.2331309726","0.3745823719","","","","","","","","74","J","1","","","215","main_expt"
"","bandit","295","700250","0.0-256.0-0.0","83010476","wem/bandit_either_2","AV22FQTJNBUZT","either","1","403","","","","","","","0","0","1","","0.2428402293","0.2","0.8","0.6","0.4","0.1269525553","0.3556657658","0.2428402293","0.3809837923","","","","","","","","","","","","75","K","2","","","216","main_expt"
"","bandit","296","701915","0.0-257.0-0.0","83010476","wem/bandit_either_2","AV22FQTJNBUZT","either","1","148","","","","","","","0","0","1","","0.4144294186","0.2","0.8","0.6","0.4","0.1849794572","0.3870416945","0.2317762644","0.4144294186","","","","","","","","","","","","76","L","3","","","217","main_expt"
"","bandit","297","703996","0.0-258.0-0.0","83010476","wem/bandit_either_2","AV22FQTJNBUZT","either","1","564","","","","","","","1","0","0","0.1903787706","","0.2","0.8","0.6","0.4","","","","","0.1903787706","0.3944581396","0.204309912","0.4090742927","","","","","","","","72","H","0","img/none_selected.jpg","","218","main_expt"
"","bandit","298","706227","0.0-259.0-0.0","83010476","wem/bandit_either_2","AV22FQTJNBUZT","either","1","717","","","","","","","0","0","1","","0.1768508397","0.2","0.8","0.6","0.4","0.1768508397","0.4256173987","0.1685596251","0.3869695378","","","","","","","","","","","","72","H","0","img/none_selected.jpg","","219","main_expt"
"","bandit","299","707929","0.0-260.0-0.0","83010476","wem/bandit_either_2","AV22FQTJNBUZT","either","1","187","","","","","","","1","0","0","0.4240862242","","0.2","0.8","0.6","0.4","","","","","0.2176561852","0.4240862242","0.2488487331","0.3814250035","","","","","","","","74","J","1","","","220","main_expt"
"","bandit","300","710817","0.0-261.0-0.0","83010476","wem/bandit_either_2","AV22FQTJNBUZT","either","1","1376","","","","","","","0","1","0","","0.2075488201","0.2","0.8","0.6","0.4","0.2075488201","0.4364702466","0.2789816034","0.3560431311","","","","","","","","","","","","72","H","0","img/none_selected.jpg","","221","main_expt"
"","bandit","301","713740","0.0-262.0-0.0","83010476","wem/bandit_either_2","AV22FQTJNBUZT","either","1","1368","","","","","","","0","0","1","","0.3424215647","0.2","0.8","0.6","0.4","0.2260831429","0.4512924842","0.242729834","0.3424215647","","","","","","","","","","","","76","L","3","","","222","main_expt"
"","bandit","302","716708","0.0-263.0-0.0","83010476","wem/bandit_either_2","AV22FQTJNBUZT","either","1","1453","","","","","","","0","1","0","","0.3118962833","0.2","0.8","0.6","0.4","0.2512075751","0.4649948574","0.196538567","0.3118962833","","","","","","","","","","","","76","L","3","","","223","main_expt"
"","bandit","303","719361","0.0-264.0-0.0","83010476","wem/bandit_either_2","AV22FQTJNBUZT","either","1","1139","","","","","","","0","0","1","0.4692106987","","0.2","0.8","0.6","0.4","","","","","0.3072691987","0.4692106987","0.2189223785","0.261290028","","","","","","","","74","J","1","","","224","main_expt"
"","bandit","304","723361","0.0-265.0-0.0","83010476","wem/bandit_either_2","AV22FQTJNBUZT","either","1","2484","","","","","","","0","1","0","","0.2131207899","0.2","0.8","0.6","0.4","0.3358063032","0.4772226815","0.2131207899","0.2748104332","","","","","","","","","","","","75","K","2","","","225","main_expt"
"","bandit","305","725108","0.0-266.0-0.0","83010476","wem/bandit_either_2","AV22FQTJNBUZT","either","1","233","","","","","","","0","1","0","","0.2994610032","0.2","0.8","0.6","0.4","0.2994610032","0.4828013869","0.187439681","0.2112523614","","","","","","","","","","","","72","H","0","img/none_selected.jpg","","226","main_expt"
"","bandit","306","726698","0.0-267.0-0.0","83010476","wem/bandit_either_2","AV22FQTJNBUZT","either","1","74","","","","","","","1","0","0","0.1879164098","","0.2","0.8","0.6","0.4","","","","","0.2719992041","0.4805292857","0.1522087394","0.1879164098","","","","","","","","76","L","3","","","227","main_expt"
"","bandit","307","729393","0.0-268.0-0.0","83010476","wem/bandit_either_2","AV22FQTJNBUZT","either","1","1179","","","","","","","0","0","1","0.1975586059","","0.2","0.8","0.6","0.4","","","","","0.2601066631","0.4770879938","0.1975586059","0.1857646906","","","","","","","","75","K","2","","","228","main_expt"
"","bandit","308","731113","0.0-269.0-0.0","83010476","wem/bandit_either_2","AV22FQTJNBUZT","either","1","209","","","","","","","0","0","1","0.4830225504","","0.2","0.8","0.6","0.4","","","","","0.2333982712","0.4830225504","0.2280604414","0.1608888173","","","","","","","","74","J","1","","","229","main_expt"
"","bandit","309","733509","0.0-270.0-0.0","83010476","wem/bandit_either_2","AV22FQTJNBUZT","either","1","880","","","","","","","0","0","1","0.2179366985","","0.2","0.8","0.6","0.4","","","","","0.2179366985","0.4827210916","0.2120359748","0.1139945837","","","","","","","","72","H","0","img/none_selected.jpg","","230","main_expt"
"","bandit","310","735891","0.0-271.0-0.0","83010476","wem/bandit_either_2","AV22FQTJNBUZT","either","1","852","","","","","","","0","0","1","0.1071229599","","0.2","0.8","0.6","0.4","","","","","0.210335649","0.4764813513","0.2260377558","0.1071229599","","","","","","","","76","L","3","","","231","main_expt"
"","bandit","311","738696","0.0-272.0-0.0","83010476","wem/bandit_either_2","AV22FQTJNBUZT","either","1","1293","","","","","","","0","0","1","0.4794978353","","0.2","0.8","0.6","0.4","","","","","0.2154905401","0.4794978353","0.2810037348","0.1250262501","","","","","","","","74","J","1","","","232","main_expt"
"","bandit","312","740946","0.0-273.0-0.0","83010476","wem/bandit_either_2","AV22FQTJNBUZT","either","1","736","","","","","","","0","0","1","","0.1262657767","0.2","0.8","0.6","0.4","0.2199054097","0.4717583679","0.3371590923","0.1262657767","","","","","","","","","","","","76","L","3","","","233","main_expt"
"","bandit","313","742985","0.0-274.0-0.0","83010476","wem/bandit_either_2","AV22FQTJNBUZT","either","1","521","","","","","","","0","0","1","","0.2614597929","0.2","0.8","0.6","0.4","0.2116885818","0.4801470087","0.2614597929","0.1436583916","","","","","","","","","","","","75","K","2","","","234","main_expt"
"","bandit","314","747449","0.0-275.0-0.0","83010476","wem/bandit_either_2","AV22FQTJNBUZT","either","1","2951","","","","","","","0","0","1","","0.1776605917","0.2","0.8","0.6","0.4","0.2037112673","0.4698449305","0.2855471023","0.1776605917","","","","","","","","","","","","76","L","3","","","235","main_expt"
"","bandit","315","749663","0.0-276.0-0.0","83010476","wem/bandit_either_2","AV22FQTJNBUZT","either","1","692","","","","","","","0","0","1","","0.2295670059","0.2","0.8","0.6","0.4","0.2295670059","0.4750890902","0.2806831757","0.2039581082","","","","","","","","","","","","72","H","0","img/none_selected.jpg","","236","main_expt"
"","bandit","316","751810","0.0-277.0-0.0","83010476","wem/bandit_either_2","AV22FQTJNBUZT","either","1","632","","","","","","","0","0","1","","0.2602584061","0.2","0.8","0.6","0.4","0.2602584061","0.490873849","0.3314479917","0.1898025468","","","","","","","","","","","","72","H","0","img/none_selected.jpg","","237","main_expt"
"","bandit","317","755234","0.0-278.0-0.0","83010476","wem/bandit_either_2","AV22FQTJNBUZT","either","1","1908","","","","","","","0","0","1","0.20274426","","0.2","0.8","0.6","0.4","","","","","0.2505035884","0.4658125052","0.3495093658","0.20274426","","","","","","","","76","L","3","","","238","main_expt"
"","bandit","318","758047","0.0-279.0-0.0","83010476","wem/bandit_either_2","AV22FQTJNBUZT","either","1","1299","","","","","","","0","0","1","","0.3413466471","0.2","0.8","0.6","0.4","0.209031891","0.4717810478","0.3413466471","0.2051086292","","","","","","","","","","","","75","K","2","","","239","main_expt"
"","bandit","319","761961","0.0-280.0-0.0","83010476","wem/bandit_either_2","AV22FQTJNBUZT","either","1","2395","","","","","","","0","0","1","0.3848911707","","0.2","0.8","0.6","0.4","","","","","0.2203826704","0.4751676635","0.3848911707","0.1823871945","","","","","","","","75","K","2","","","240","main_expt"
"","bandit","320","766360","0.0-281.0-0.0","83010476","wem/bandit_either_2","AV22FQTJNBUZT","either","1","2883","","","","","","","0","0","1","","0.2206124516","0.2","0.8","0.6","0.4","0.2502218434","0.4782176083","0.3352713547","0.2206124516","","","","","","","","","","","","76","L","3","","","241","main_expt"
"","bandit","321","768607","0.0-282.0-0.0","83010476","wem/bandit_either_2","AV22FQTJNBUZT","either","1","698","","","","","","","0","0","1","0.4842593171","","0.2","0.8","0.6","0.4","","","","","0.2465850657","0.4842593171","0.3898112853","0.1822231347","","","","","","","","74","J","1","","","242","main_expt"
"","bandit","322","771307","0.0-283.0-0.0","83010476","wem/bandit_either_2","AV22FQTJNBUZT","either","1","1178","","","","","","","0","0","1","0.3746092993","","0.2","0.8","0.6","0.4","","","","","0.2768687636","0.4877308522","0.3746092993","0.1782216913","","","","","","","","75","K","2","","","243","main_expt"
"","bandit","323","773394","0.0-284.0-0.0","83010476","wem/bandit_either_2","AV22FQTJNBUZT","either","1","564","","","","","","","0","0","1","","0.1683297066","0.2","0.8","0.6","0.4","0.3318130554","0.4867000748","0.3551642001","0.1683297066","","","","","","","","","","","","76","L","3","","","244","main_expt"
"","bandit","324","775696","0.0-285.0-0.0","83010476","wem/bandit_either_2","AV22FQTJNBUZT","either","1","776","","","","","","","0","0","1","","0.3549389872","0.2","0.8","0.6","0.4","0.3549389872","0.4779689664","0.3556023966","0.2394915997","","","","","","","","","","","","72","H","0","img/none_selected.jpg","","245","main_expt"
"","bandit","325","778125","0.0-286.0-0.0","83010476","wem/bandit_either_2","AV22FQTJNBUZT","either","1","913","","","","","","","0","0","1","0.3265039954","","0.2","0.8","0.6","0.4","","","","","0.333301522","0.4691428495","0.3265039954","0.2279590519","","","","","","","","75","K","2","","","246","main_expt"
"","bandit","326","780804","0.0-287.0-0.0","83010476","wem/bandit_either_2","AV22FQTJNBUZT","either","1","1164","","","","","","","0","0","1","0.4726686318","","0.2","0.8","0.6","0.4","","","","","0.3514606933","0.4726686318","0.2868106963","0.2464238951","","","","","","","","74","J","1","","","247","main_expt"
"","bandit","327","783033","0.0-288.0-0.0","83010476","wem/bandit_either_2","AV22FQTJNBUZT","either","1","717","","","","","","","0","0","1","","0.2743013104","0.2","0.8","0.6","0.4","0.3714826816","0.4803067915","0.3185934195","0.2743013104","","","","","","","","","","","","76","L","3","","","248","main_expt"
"","bandit","328","785227","0.0-289.0-0.0","83010476","wem/bandit_either_2","AV22FQTJNBUZT","either","1","682","","","","","","","0","0","1","0.358181829","","0.2","0.8","0.6","0.4","","","","","0.386783615","0.4711679289","0.358181829","0.265015958","","","","","","","","75","K","2","","","249","main_expt"
