"consent","trial_type","trial_index","time_elapsed","internal_node_id","subjID","study","MID","cond","drift","rt","responses","key_press","expt_phase","like","value","connected","gems","bombs","no_reward","GemPrChosen","BombPrChosen","GainOverPainPr_0","GainOverPainPr_1","GainOverPainPr_2","GainOverPainPr_3","LosePr_0","LosePr_1","LosePr_2","LosePr_3","WinPr_0","WinPr_1","WinPr_2","WinPr_3","Q0","Q1","Q2","gender","age","ethnicity","target","respCharCode","respKey","respChoiceNum","respChoice","practice","trial_counter","trial_label"
"INL_behavioral_consent_30min_online.html","consent","0","9733","0.0-0.0","86056383","wem/bandit_either_2","A4W9APAHFWVLO","either","2","","","","","","","","","","","","","","","","","","","","","","","","","","","","","","","","","","","","","",""
"","survey-text","1","12927","0.0-1.0","86056383","wem/bandit_either_2","A4W9APAHFWVLO","either","2","2175","{""Q0"":""A4W9APAHFWVLO""}","","","","","","","","","","","","","","","","","","","","","","","","","","","","","","","","","","","",""
"","text","2","21662","0.0-2.0","86056383","wem/bandit_either_2","A4W9APAHFWVLO","either","2","7731","","32","","","","","","","","","","","","","","","","","","","","","","","","","","","","","","","","","","",""
"","text","3","27689","0.0-3.0","86056383","wem/bandit_either_2","A4W9APAHFWVLO","either","2","6024","","32","","","","","","","","","","","","","","","","","","","","","","","","","","","","","","","","","","",""
"","text","4","46747","0.0-4.0","86056383","wem/bandit_either_2","A4W9APAHFWVLO","either","2","19054","","32","","","","","","","","","","","","","","","","","","","","","","","","","","","","","","","","","","",""
"","text","5","57828","0.0-5.0","86056383","wem/bandit_either_2","A4W9APAHFWVLO","either","2","11078","","32","","","","","","","","","","","","","","","","","","","","","","","","","","","","","","","","","","",""
"","text","6","69827","0.0-6.0","86056383","wem/bandit_either_2","A4W9APAHFWVLO","either","2","11997","","32","","","","","","","","","","","","","","","","","","","","","","","","","","","","","","","","","","",""
"","text","7","75917","0.0-7.0","86056383","wem/bandit_either_2","A4W9APAHFWVLO","either","2","6087","","32","","","","","","","","","","","","","","","","","","","","","","","","","","","","","","","","","","",""
"","text","8","80733","0.0-8.0","86056383","wem/bandit_either_2","A4W9APAHFWVLO","either","2","4813","","32","","","","","","","","","","","","","","","","","","","","","","","","","","","","","","","","","","",""
"","identification","9","86215","0.0-9.0-0.0","86056383","wem/bandit_either_2","A4W9APAHFWVLO","either","2","5452","","","","6","6","6","","","","","","","","","","","","","","","","","","","","","","","","the village of Zur","","","","","","",""
"","identification","10","90940","0.0-9.0-1.0","86056383","wem/bandit_either_2","A4W9APAHFWVLO","either","2","3712","","","","0","0","0","","","","","","","","","","","","","","","","","","","","","","","","the village of Nyx","","","","","","",""
"","text","11","97363","0.0-10.0","86056383","wem/bandit_either_2","A4W9APAHFWVLO","either","2","5420","","32","","","","","","","","","","","","","","","","","","","","","","","","","","","","","","","","","","",""
"","text","12","99281","0.0-11.0","86056383","wem/bandit_either_2","A4W9APAHFWVLO","either","2","1916","","32","","","","","","","","","","","","","","","","","","","","","","","","","","","","","","","","","","",""
"","text","13","102437","0.0-12.0","86056383","wem/bandit_either_2","A4W9APAHFWVLO","either","2","3154","","32","","","","","","","","","","","","","","","","","","","","","","","","","","","","","","","","","","",""
"","text","14","106179","0.0-13.0","86056383","wem/bandit_either_2","A4W9APAHFWVLO","either","2","3740","","32","","","","","","","","","","","","","","","","","","","","","","","","","","","","","","","","","","",""
"","bandit","15","109527","0.0-14.0-0.0","86056383","wem/bandit_either_2","A4W9APAHFWVLO","either","2","1831","","","","","","","0","0","1","0","0","","","","","0","","","","0","","","","","","","","","","","74","J","0","img/none_selected_demo.jpg","true","0",""
"","bandit","16","112205","0.0-15.0-0.0","86056383","wem/bandit_either_2","A4W9APAHFWVLO","either","2","1166","","","","","","","0","0","1","0","0","","","","","0","","","","0","","","","","","","","","","","75","K","0","img/none_selected_demo.jpg","true","0",""
"","text","17","118766","0.0-16.0","86056383","wem/bandit_either_2","A4W9APAHFWVLO","either","2","6558","","32","","","","","","","","","","","","","","","","","","","","","","","","","","","","","","","","","","",""
"","text","18","128317","0.0-17.0","86056383","wem/bandit_either_2","A4W9APAHFWVLO","either","2","9546","","32","","","","","","","","","","","","","","","","","","","","","","","","","","","","","","","","","","",""
"","text","19","136448","0.0-18.0","86056383","wem/bandit_either_2","A4W9APAHFWVLO","either","2","8128","","32","","","","","","","","","","","","","","","","","","","","","","","","","","","","","","","","","","",""
"","text","20","140270","0.0-19.0","86056383","wem/bandit_either_2","A4W9APAHFWVLO","either","2","3818","","32","","","","","","","","","","","","","","","","","","","","","","","","","","","","","","","","","","",""
"","bandit","21","143041","0.0-20.0-0.0","86056383","wem/bandit_either_2","A4W9APAHFWVLO","either","2","1256","","","","","","","1","0","0","0.8","","0.5","0.5","","","","","","","0.8","0.2","","","","","","","","","","74","J","0","img/none_selected_demo.jpg","true","0","80_20_practice"
"","bandit","22","145022","0.0-20.0-1.0","86056383","wem/bandit_either_2","A4W9APAHFWVLO","either","2","471","","","","","","","0","1","0","","0.8","0.5","0.5","","","0.8","0.2","","","","","","","","","","","","","","74","J","0","img/none_selected_demo.jpg","true","0","80_20_practice"
"","bandit","23","147030","0.0-20.0-2.0","86056383","wem/bandit_either_2","A4W9APAHFWVLO","either","2","499","","","","","","","0","1","0","","0.8","0.5","0.5","","","0.8","0.2","","","","","","","","","","","","","","74","J","0","img/none_selected_demo.jpg","true","0","80_20_practice"
"","bandit","24","148849","0.0-20.0-3.0","86056383","wem/bandit_either_2","A4W9APAHFWVLO","either","2","310","","","","","","","0","0","1","","0.2","0.5","0.5","","","0.8","0.2","","","","","","","","","","","","","","75","K","1","","true","0","80_20_practice"
"","bandit","25","150646","0.0-20.0-4.0","86056383","wem/bandit_either_2","A4W9APAHFWVLO","either","2","288","","","","","","","0","1","0","","0.8","0.5","0.5","","","0.8","0.2","","","","","","","","","","","","","","74","J","0","img/none_selected_demo.jpg","true","0","80_20_practice"
"","bandit","26","152404","0.0-20.0-5.0","86056383","wem/bandit_either_2","A4W9APAHFWVLO","either","2","250","","","","","","","0","1","0","","0.8","0.5","0.5","","","0.8","0.2","","","","","","","","","","","","","","74","J","0","img/none_selected_demo.jpg","true","0","80_20_practice"
"","bandit","27","154478","0.0-20.0-6.0","86056383","wem/bandit_either_2","A4W9APAHFWVLO","either","2","560","","","","","","","0","0","1","0.2","","0.5","0.5","","","","","","","0.8","0.2","","","","","","","","","","75","K","1","","true","0","80_20_practice"
"","bandit","28","156191","0.0-20.0-7.0","86056383","wem/bandit_either_2","A4W9APAHFWVLO","either","2","202","","","","","","","1","0","0","0.8","","0.5","0.5","","","","","","","0.8","0.2","","","","","","","","","","74","J","0","img/none_selected_demo.jpg","true","0","80_20_practice"
"","bandit","29","157933","0.0-20.0-8.0","86056383","wem/bandit_either_2","A4W9APAHFWVLO","either","2","230","","","","","","","1","0","0","0.8","","0.5","0.5","","","","","","","0.8","0.2","","","","","","","","","","74","J","0","img/none_selected_demo.jpg","true","0","80_20_practice"
"","bandit","30","159874","0.0-20.0-9.0","86056383","wem/bandit_either_2","A4W9APAHFWVLO","either","2","431","","","","","","","1","0","0","0.8","","0.5","0.5","","","","","","","0.8","0.2","","","","","","","","","","74","J","0","img/none_selected_demo.jpg","true","0","80_20_practice"
"","bandit","31","161494","0.0-20.0-10.0","86056383","wem/bandit_either_2","A4W9APAHFWVLO","either","2","110","","","","","","","0","0","1","","0.2","0.5","0.5","","","0.8","0.2","","","","","","","","","","","","","","75","K","1","","true","0","80_20_practice"
"","bandit","32","163238","0.0-20.0-11.0","86056383","wem/bandit_either_2","A4W9APAHFWVLO","either","2","235","","","","","","","1","0","0","0.2","","0.5","0.5","","","","","","","0.8","0.2","","","","","","","","","","75","K","1","","true","0","80_20_practice"
"","bandit","33","164799","0.0-20.0-12.0","86056383","wem/bandit_either_2","A4W9APAHFWVLO","either","2","51","","","","","","","1","0","0","0.8","","0.5","0.5","","","","","","","0.8","0.2","","","","","","","","","","74","J","0","img/none_selected_demo.jpg","true","0","80_20_practice"
"","bandit","34","166535","0.0-20.0-13.0","86056383","wem/bandit_either_2","A4W9APAHFWVLO","either","2","225","","","","","","","0","0","1","0.2","","0.5","0.5","","","","","","","0.8","0.2","","","","","","","","","","75","K","1","","true","0","80_20_practice"
"","bandit","35","168540","0.0-20.0-14.0","86056383","wem/bandit_either_2","A4W9APAHFWVLO","either","2","494","","","","","","","1","0","0","0.8","","0.5","0.5","","","","","","","0.8","0.2","","","","","","","","","","74","J","0","img/none_selected_demo.jpg","true","0","80_20_practice"
"","bandit","36","170784","0.0-20.0-15.0","86056383","wem/bandit_either_2","A4W9APAHFWVLO","either","2","734","","","","","","","0","0","1","0.2","","0.5","0.5","","","","","","","0.8","0.2","","","","","","","","","","75","K","1","","true","0","80_20_practice"
"","bandit","37","172589","0.0-20.0-16.0","86056383","wem/bandit_either_2","A4W9APAHFWVLO","either","2","296","","","","","","","1","0","0","0.8","","0.5","0.5","","","","","","","0.8","0.2","","","","","","","","","","74","J","0","img/none_selected_demo.jpg","true","0","80_20_practice"
"","bandit","38","174389","0.0-20.0-17.0","86056383","wem/bandit_either_2","A4W9APAHFWVLO","either","2","290","","","","","","","1","0","0","0.8","","0.5","0.5","","","","","","","0.8","0.2","","","","","","","","","","74","J","0","img/none_selected_demo.jpg","true","0","80_20_practice"
"","bandit","39","176127","0.0-20.0-18.0","86056383","wem/bandit_either_2","A4W9APAHFWVLO","either","2","226","","","","","","","0","1","0","","0.8","0.5","0.5","","","0.8","0.2","","","","","","","","","","","","","","74","J","0","img/none_selected_demo.jpg","true","0","80_20_practice"
"","bandit","40","177903","0.0-20.0-19.0","86056383","wem/bandit_either_2","A4W9APAHFWVLO","either","2","265","","","","","","","1","0","0","0.8","","0.5","0.5","","","","","","","0.8","0.2","","","","","","","","","","74","J","0","img/none_selected_demo.jpg","true","0","80_20_practice"
"","text","41","180321","0.0-21.0","86056383","wem/bandit_either_2","A4W9APAHFWVLO","either","2","2414","","32","","","","","","","","","","","","","","","","","","","","","","","","","","","","","","","","","","",""
"","bandit","42","182372","0.0-22.0-0.0","86056383","wem/bandit_either_2","A4W9APAHFWVLO","either","2","544","","","","","","","1","0","0","1","0","","","","","0","1","","","1","0","","","","","","","","","","74","J","0","img/none_selected_demo.jpg","true","0",""
"","text","43","186078","0.0-23.0","86056383","wem/bandit_either_2","A4W9APAHFWVLO","either","2","3701","","32","","","","","","","","","","","","","","","","","","","","","","","","","","","","","","","","","","",""
"","text","44","188566","0.0-24.0","86056383","wem/bandit_either_2","A4W9APAHFWVLO","either","2","2483","","32","","","","","","","","","","","","","","","","","","","","","","","","","","","","","","","","","","",""
"","text","45","190552","0.0-25.0","86056383","wem/bandit_either_2","A4W9APAHFWVLO","either","2","1983","","32","","","","","","","","","","","","","","","","","","","","","","","","","","","","","","","","","","",""
"","text","46","193413","0.0-26.0","86056383","wem/bandit_either_2","A4W9APAHFWVLO","either","2","2857","","32","","","","","","","","","","","","","","","","","","","","","","","","","","","","","","","","","","",""
"","text","47","202483","0.0-27.0","86056383","wem/bandit_either_2","A4W9APAHFWVLO","either","2","9067","","32","","","","","","","","","","","","","","","","","","","","","","","","","","","","","","","","","","",""
"","text","48","206472","0.0-28.0","86056383","wem/bandit_either_2","A4W9APAHFWVLO","either","2","3983","","32","","","","","","","","","","","","","","","","","","","","","","","","","","","","","","","","","","",""
"","text","49","211551","0.0-29.0","86056383","wem/bandit_either_2","A4W9APAHFWVLO","either","2","5076","","32","","","","","","","","","","","","","","","","","","","","","","","","","","","","","","","","","","",""
"","text","50","214659","0.0-30.0","86056383","wem/bandit_either_2","A4W9APAHFWVLO","either","2","3104","","32","","","","","","","","","","","","","","","","","","","","","","","","","","","","","","","","","","",""
"","text","51","218936","0.0-31.0","86056383","wem/bandit_either_2","A4W9APAHFWVLO","either","2","4273","","32","","","","","","","","","","","","","","","","","","","","","","","","","","","","","","","","","","",""
"","text","52","220560","0.0-32.0","86056383","wem/bandit_either_2","A4W9APAHFWVLO","either","2","1620","","32","","","","","","","","","","","","","","","","","","","","","","","","","","","","","","","","","","",""
"","text","53","222688","0.0-33.0","86056383","wem/bandit_either_2","A4W9APAHFWVLO","either","2","2123","","32","","","","","","","","","","","","","","","","","","","","","","","","","","","","","","","","","","",""
"","bandit","54","224824","0.0-34.0-0.0","86056383","wem/bandit_either_2","A4W9APAHFWVLO","either","2","623","","","","","","","0","0","1","","0.2","0.5","0.5","0.5","0.5","0.8","0.2","0.6","0.2","","","","","","","","","","","","74","J","1","","true","0","full_practice"
"","bandit","55","226609","0.0-34.0-1.0","86056383","wem/bandit_either_2","A4W9APAHFWVLO","either","2","276","","","","","","","1","0","0","0.6","","0.5","0.5","0.5","0.5","","","","","0.8","0.2","0.6","0.2","","","","","","","","75","K","2","","true","0","full_practice"
"","bandit","56","228400","0.0-34.0-2.0","86056383","wem/bandit_either_2","A4W9APAHFWVLO","either","2","280","","","","","","","1","0","0","0.6","","0.5","0.5","0.5","0.5","","","","","0.8","0.2","0.6","0.2","","","","","","","","75","K","2","","true","0","full_practice"
"","bandit","57","230192","0.0-34.0-3.0","86056383","wem/bandit_either_2","A4W9APAHFWVLO","either","2","282","","","","","","","1","0","0","0.6","","0.5","0.5","0.5","0.5","","","","","0.8","0.2","0.6","0.2","","","","","","","","75","K","2","","true","0","full_practice"
"","bandit","58","231976","0.0-34.0-4.0","86056383","wem/bandit_either_2","A4W9APAHFWVLO","either","2","273","","","","","","","1","0","0","0.6","","0.5","0.5","0.5","0.5","","","","","0.8","0.2","0.6","0.2","","","","","","","","75","K","2","","true","0","full_practice"
"","bandit","59","233760","0.0-34.0-5.0","86056383","wem/bandit_either_2","A4W9APAHFWVLO","either","2","274","","","","","","","0","1","0","","0.6","0.5","0.5","0.5","0.5","0.8","0.2","0.6","0.2","","","","","","","","","","","","75","K","2","","true","0","full_practice"
"","bandit","60","235656","0.0-34.0-6.0","86056383","wem/bandit_either_2","A4W9APAHFWVLO","either","2","384","","","","","","","0","1","0","","0.6","0.5","0.5","0.5","0.5","0.8","0.2","0.6","0.2","","","","","","","","","","","","75","K","2","","true","0","full_practice"
"","bandit","61","237473","0.0-34.0-7.0","86056383","wem/bandit_either_2","A4W9APAHFWVLO","either","2","307","","","","","","","1","0","0","0.6","","0.5","0.5","0.5","0.5","","","","","0.8","0.2","0.6","0.2","","","","","","","","75","K","2","","true","0","full_practice"
"","bandit","62","239255","0.0-34.0-8.0","86056383","wem/bandit_either_2","A4W9APAHFWVLO","either","2","270","","","","","","","1","0","0","0.6","","0.5","0.5","0.5","0.5","","","","","0.8","0.2","0.6","0.2","","","","","","","","75","K","2","","true","0","full_practice"
"","bandit","63","240910","0.0-34.0-9.0","86056383","wem/bandit_either_2","A4W9APAHFWVLO","either","2","145","","","","","","","0","0","1","0.6","","0.5","0.5","0.5","0.5","","","","","0.8","0.2","0.6","0.2","","","","","","","","75","K","2","","true","0","full_practice"
"","bandit","64","242639","0.0-34.0-10.0","86056383","wem/bandit_either_2","A4W9APAHFWVLO","either","2","221","","","","","","","0","0","1","0.6","","0.5","0.5","0.5","0.5","","","","","0.8","0.2","0.6","0.2","","","","","","","","75","K","2","","true","0","full_practice"
"","bandit","65","244303","0.0-34.0-11.0","86056383","wem/bandit_either_2","A4W9APAHFWVLO","either","2","153","","","","","","","0","0","1","","0.2","0.5","0.5","0.5","0.5","0.8","0.2","0.6","0.2","","","","","","","","","","","","76","L","3","","true","0","full_practice"
"","bandit","66","246040","0.0-34.0-12.0","86056383","wem/bandit_either_2","A4W9APAHFWVLO","either","2","229","","","","","","","0","1","0","","0.2","0.5","0.5","0.5","0.5","0.8","0.2","0.6","0.2","","","","","","","","","","","","74","J","1","","true","0","full_practice"
"","bandit","67","247956","0.0-34.0-13.0","86056383","wem/bandit_either_2","A4W9APAHFWVLO","either","2","402","","","","","","","0","0","1","","0.2","0.5","0.5","0.5","0.5","0.8","0.2","0.6","0.2","","","","","","","","","","","","74","J","1","","true","0","full_practice"
"","bandit","68","250064","0.0-34.0-14.0","86056383","wem/bandit_either_2","A4W9APAHFWVLO","either","2","594","","","","","","","1","0","0","0.8","","0.5","0.5","0.5","0.5","","","","","0.8","0.2","0.6","0.2","","","","","","","","72","H","0","img/none_selected.jpg","true","0","full_practice"
"","bandit","69","251784","0.0-34.0-15.0","86056383","wem/bandit_either_2","A4W9APAHFWVLO","either","2","209","","","","","","","0","1","0","","0.8","0.5","0.5","0.5","0.5","0.8","0.2","0.6","0.2","","","","","","","","","","","","72","H","0","img/none_selected.jpg","true","0","full_practice"
"","bandit","70","253513","0.0-34.0-16.0","86056383","wem/bandit_either_2","A4W9APAHFWVLO","either","2","217","","","","","","","0","1","0","","0.8","0.5","0.5","0.5","0.5","0.8","0.2","0.6","0.2","","","","","","","","","","","","72","H","0","img/none_selected.jpg","true","0","full_practice"
"","bandit","71","255100","0.0-34.0-17.0","86056383","wem/bandit_either_2","A4W9APAHFWVLO","either","2","71","","","","","","","1","0","0","0.8","","0.5","0.5","0.5","0.5","","","","","0.8","0.2","0.6","0.2","","","","","","","","72","H","0","img/none_selected.jpg","true","0","full_practice"
"","bandit","72","256939","0.0-34.0-18.0","86056383","wem/bandit_either_2","A4W9APAHFWVLO","either","2","324","","","","","","","0","0","1","0.8","","0.5","0.5","0.5","0.5","","","","","0.8","0.2","0.6","0.2","","","","","","","","72","H","0","img/none_selected.jpg","true","0","full_practice"
"","bandit","73","258789","0.0-34.0-19.0","86056383","wem/bandit_either_2","A4W9APAHFWVLO","either","2","339","","","","","","","0","1","0","","0.2","0.5","0.5","0.5","0.5","0.8","0.2","0.6","0.2","","","","","","","","","","","","74","J","1","","true","0","full_practice"
"","text","74","261219","0.0-35.0","86056383","wem/bandit_either_2","A4W9APAHFWVLO","either","2","2415","","32","","","","","","","","","","","","","","","","","","","","","","","","","","","","","","","","","","",""
"","text","75","271589","0.0-36.0","86056383","wem/bandit_either_2","A4W9APAHFWVLO","either","2","9364","","32","","","","","","","","","","","","","","","","","","","","","","","","","","","","","","","","","","",""
"","text","76","281443","0.0-37.0","86056383","wem/bandit_either_2","A4W9APAHFWVLO","either","2","9848","","32","","","","","","","","","","","","","","","","","","","","","","","","","","","","","","","","","","",""
"","text","77","285510","0.0-38.0","86056383","wem/bandit_either_2","A4W9APAHFWVLO","either","2","4062","","32","","","","","","","","","","","","","","","","","","","","","","","","","","","","","","","","","","",""
"","text","78","290051","0.0-39.0","86056383","wem/bandit_either_2","A4W9APAHFWVLO","either","2","4536","","32","","","","","","","","","","","","","","","","","","","","","","","","","","","","","","","","","","",""
"","text","79","295282","0.0-40.0","86056383","wem/bandit_either_2","A4W9APAHFWVLO","either","2","5226","","32","","","","","","","","","","","","","","","","","","","","","","","","","","","","","","","","","","",""
"","bandit","80","297493","0.0-41.0-0.0","86056383","wem/bandit_either_2","A4W9APAHFWVLO","either","2","700","","","","","","","0","0","1","0.4781977867","","0.6","0.2","0.4","0.8","","","","","0.4781977867","0.3653736811","0.326135308","0.362799796","","","","","","","","72","H","0","img/none_selected.jpg","","1","main_expt"
"","bandit","81","299043","0.0-42.0-0.0","86056383","wem/bandit_either_2","A4W9APAHFWVLO","either","2","37","","","","","","","0","1","0","","0.3999069229","0.6","0.2","0.4","0.8","0.4765481994","0.3999069229","0.3564958201","0.3891507205","","","","","","","","","","","","74","J","1","","","2","main_expt"
"","bandit","82","300852","0.0-43.0-0.0","86056383","wem/bandit_either_2","A4W9APAHFWVLO","either","2","263","","","","","","","0","0","1","","0.4363582421","0.6","0.2","0.4","0.8","0.4722158263","0.4363582421","0.3309056029","0.3151339382","","","","","","","","","","","","74","J","1","","","3","main_expt"
"","bandit","83","302651","0.0-44.0-0.0","86056383","wem/bandit_either_2","A4W9APAHFWVLO","either","2","291","","","","","","","0","0","1","","0.308467875","0.6","0.2","0.4","0.8","0.4609570051","0.4300921111","0.308467875","0.250648122","","","","","","","","","","","","75","K","2","","","4","main_expt"
"","bandit","84","304291","0.0-45.0-0.0","86056383","wem/bandit_either_2","A4W9APAHFWVLO","either","2","129","","","","","","","0","0","1","0.2382585344","","0.6","0.2","0.4","0.8","","","","","0.4707799186","0.3863220662","0.3349995635","0.2382585344","","","","","","","","76","L","3","","","5","main_expt"
"","bandit","85","305971","0.0-46.0-0.0","86056383","wem/bandit_either_2","A4W9APAHFWVLO","either","2","168","","","","","","","0","0","1","","0.4676743975","0.6","0.2","0.4","0.8","0.4676743975","0.4192648028","0.3743101545","0.2088101903","","","","","","","","","","","","72","H","0","img/none_selected.jpg","","6","main_expt"
"","bandit","86","307901","0.0-47.0-0.0","86056383","wem/bandit_either_2","A4W9APAHFWVLO","either","2","415","","","","","","","0","1","0","","0.4218548145","0.6","0.2","0.4","0.8","0.4767364015","0.4218548145","0.377506125","0.1884279889","","","","","","","","","","","","74","J","1","","","7","main_expt"
"","bandit","87","309674","0.0-48.0-0.0","86056383","wem/bandit_either_2","A4W9APAHFWVLO","either","2","263","","","","","","","0","0","1","","0.4298914749","0.6","0.2","0.4","0.8","0.4837409877","0.4298914749","0.3452849142","0.2297930851","","","","","","","","","","","","74","J","1","","","8","main_expt"
"","bandit","88","311715","0.0-49.0-0.0","86056383","wem/bandit_either_2","A4W9APAHFWVLO","either","2","526","","","","","","","0","0","1","0.2713567333","","0.6","0.2","0.4","0.8","","","","","0.4825212187","0.4215440671","0.2713567333","0.2219539873","","","","","","","","75","K","2","","","9","main_expt"
"","bandit","89","313507","0.0-50.0-0.0","86056383","wem/bandit_either_2","A4W9APAHFWVLO","either","2","278","","","","","","","0","1","0","","0.3991616263","0.6","0.2","0.4","0.8","0.4791264729","0.3991616263","0.2712708503","0.2398128751","","","","","","","","","","","","74","J","1","","","10","main_expt"
"","bandit","90","315274","0.0-51.0-0.0","86056383","wem/bandit_either_2","A4W9APAHFWVLO","either","2","254","","","","","","","0","0","1","","0.4002673883","0.6","0.2","0.4","0.8","0.4762013833","0.4002673883","0.2635531688","0.2551733424","","","","","","","","","","","","74","J","1","","","11","main_expt"
"","bandit","91","317037","0.0-52.0-0.0","86056383","wem/bandit_either_2","A4W9APAHFWVLO","either","2","249","","","","","","","0","1","0","","0.368629831","0.6","0.2","0.4","0.8","0.4729837645","0.368629831","0.2669056975","0.2593424883","","","","","","","","","","","","74","J","1","","","12","main_expt"
"","bandit","92","318929","0.0-53.0-0.0","86056383","wem/bandit_either_2","A4W9APAHFWVLO","either","2","378","","","","","","","0","1","0","","0.4189726289","0.6","0.2","0.4","0.8","0.4749786695","0.4189726289","0.3204456557","0.2493591627","","","","","","","","","","","","74","J","1","","","13","main_expt"
"","bandit","93","320701","0.0-54.0-0.0","86056383","wem/bandit_either_2","A4W9APAHFWVLO","either","2","258","","","","","","","0","1","0","","0.4352425359","0.6","0.2","0.4","0.8","0.4810115094","0.4352425359","0.3466526728","0.2686446846","","","","","","","","","","","","74","J","1","","","14","main_expt"
"","bandit","94","322500","0.0-55.0-0.0","86056383","wem/bandit_either_2","A4W9APAHFWVLO","either","2","287","","","","","","","0","1","0","","0.3819090161","0.6","0.2","0.4","0.8","0.4705329286","0.3819090161","0.3736671224","0.2690169042","","","","","","","","","","","","74","J","1","","","15","main_expt"
"","bandit","95","324279","0.0-56.0-0.0","86056383","wem/bandit_either_2","A4W9APAHFWVLO","either","2","265","","","","","","","0","0","1","","0.3737760256","0.6","0.2","0.4","0.8","0.4687419894","0.3737760256","0.3778143907","0.2518303543","","","","","","","","","","","","74","J","1","","","16","main_expt"
"","bandit","96","326085","0.0-57.0-0.0","86056383","wem/bandit_either_2","A4W9APAHFWVLO","either","2","294","","","","","","","0","0","1","0.4594180265","","0.6","0.2","0.4","0.8","","","","","0.4594180265","0.4151791473","0.3845750066","0.2406549936","","","","","","","","72","H","0","img/none_selected.jpg","","17","main_expt"
"","bandit","97","328077","0.0-58.0-0.0","86056383","wem/bandit_either_2","A4W9APAHFWVLO","either","2","479","","","","","","","0","0","1","0.2670149403","","0.6","0.2","0.4","0.8","","","","","0.425397146","0.4137363134","0.4041286345","0.2670149403","","","","","","","","76","L","3","","","18","main_expt"
"","bandit","98","329743","0.0-59.0-0.0","86056383","wem/bandit_either_2","A4W9APAHFWVLO","either","2","154","","","","","","","0","0","1","","0.4084056464","0.6","0.2","0.4","0.8","0.4201246927","0.4084056464","0.4127350431","0.2658482338","","","","","","","","","","","","74","J","1","","","19","main_expt"
"","bandit","99","331436","0.0-60.0-0.0","86056383","wem/bandit_either_2","A4W9APAHFWVLO","either","2","181","","","","","","","0","1","0","","0.4107359536","0.6","0.2","0.4","0.8","0.3954271328","0.4129175496","0.4107359536","0.2452433766","","","","","","","","","","","","75","K","2","","","20","main_expt"
"","bandit","100","333189","0.0-61.0-0.0","86056383","wem/bandit_either_2","A4W9APAHFWVLO","either","2","240","","","","","","","0","0","1","0.3954861765","","0.6","0.2","0.4","0.8","","","","","0.4196431029","0.3888488162","0.3954861765","0.2298761452","","","","","","","","75","K","2","","","21","main_expt"
"","bandit","101","334797","0.0-62.0-0.0","86056383","wem/bandit_either_2","A4W9APAHFWVLO","either","2","96","","","","","","","0","0","1","","0.3805979297","0.6","0.2","0.4","0.8","0.3843335182","0.3873149631","0.3805979297","0.266827693","","","","","","","","","","","","75","K","2","","","22","main_expt"
"","bandit","102","336332","0.0-63.0-0.0","86056383","wem/bandit_either_2","A4W9APAHFWVLO","either","2","24","","","","","","","0","0","1","","0.425451992","0.6","0.2","0.4","0.8","0.3839977458","0.3659772031","0.425451992","0.2519769849","","","","","","","","","","","","75","K","2","","","23","main_expt"
"","bandit","103","338102","0.0-64.0-0.0","86056383","wem/bandit_either_2","A4W9APAHFWVLO","either","2","258","","","","","","","0","1","0","","0.3594327093","0.6","0.2","0.4","0.8","0.3338939571","0.3594327093","0.4699447661","0.2447613107","","","","","","","","","","","","74","J","1","","","24","main_expt"
"","bandit","104","339833","0.0-65.0-0.0","86056383","wem/bandit_either_2","A4W9APAHFWVLO","either","2","217","","","","","","","0","1","0","","0.3719143394","0.6","0.2","0.4","0.8","0.324486952","0.3719143394","0.4484050393","0.2350413847","","","","","","","","","","","","74","J","1","","","25","main_expt"
"","bandit","105","341573","0.0-66.0-0.0","86056383","wem/bandit_either_2","A4W9APAHFWVLO","either","2","228","","","","","","","0","0","1","0.3690014044","","0.6","0.2","0.4","0.8","","","","","0.3095710384","0.3690014044","0.4190234423","0.207774486","","","","","","","","74","J","1","","","26","main_expt"
"","bandit","106","343349","0.0-67.0-0.0","86056383","wem/bandit_either_2","A4W9APAHFWVLO","either","2","264","","","","","","","1","0","0","0.2164182795","","0.6","0.2","0.4","0.8","","","","","0.3355629191","0.3940030818","0.4251478254","0.2164182795","","","","","","","","76","L","3","","","27","main_expt"
"","bandit","107","345133","0.0-68.0-0.0","86056383","wem/bandit_either_2","A4W9APAHFWVLO","either","2","270","","","","","","","0","0","1","","0.2164031865","0.6","0.2","0.4","0.8","0.3668681485","0.4111080327","0.4287328697","0.2164031865","","","","","","","","","","","","76","L","3","","","28","main_expt"
"","bandit","108","346878","0.0-69.0-0.0","86056383","wem/bandit_either_2","A4W9APAHFWVLO","either","2","182","","","","","","","0","1","0","","0.2770000278","0.6","0.2","0.4","0.8","0.343198694","0.41290056","0.4106025245","0.2770000278","","","","","","","","","","","","76","L","3","","","29","main_expt"
"","bandit","109","348629","0.0-70.0-0.0","86056383","wem/bandit_either_2","A4W9APAHFWVLO","either","2","237","","","","","","","0","0","1","0.2354797847","","0.6","0.2","0.4","0.8","","","","","0.326069126","0.3937480262","0.3942494676","0.2354797847","","","","","","","","76","L","3","","","30","main_expt"
"","bandit","110","350231","0.0-71.0-0.0","86056383","wem/bandit_either_2","A4W9APAHFWVLO","either","2","89","","","","","","","0","0","1","","0.2692030882","0.6","0.2","0.4","0.8","0.3390127419","0.3997016236","0.4285056211","0.2692030882","","","","","","","","","","","","76","L","3","","","31","main_expt"
"","bandit","111","352221","0.0-72.0-0.0","86056383","wem/bandit_either_2","A4W9APAHFWVLO","either","2","477","","","","","","","0","0","1","0.3360649894","","0.6","0.2","0.4","0.8","","","","","0.3360649894","0.3574295763","0.4249454459","0.2471118655","","","","","","","","72","H","0","img/none_selected.jpg","","32","main_expt"
"","bandit","112","353992","0.0-73.0-0.0","86056383","wem/bandit_either_2","A4W9APAHFWVLO","either","2","255","","","","","","","0","0","1","0.3052602024","","0.6","0.2","0.4","0.8","","","","","0.3052602024","0.3877818659","0.416417765","0.2879199001","","","","","","","","72","H","0","img/none_selected.jpg","","33","main_expt"
"","bandit","113","355925","0.0-74.0-0.0","86056383","wem/bandit_either_2","A4W9APAHFWVLO","either","2","419","","","","","","","0","1","0","","0.3799496232","0.6","0.2","0.4","0.8","0.3594788954","0.3799496232","0.4623714429","0.3180115212","","","","","","","","","","","","74","J","1","","","34","main_expt"
"","bandit","114","357757","0.0-75.0-0.0","86056383","wem/bandit_either_2","A4W9APAHFWVLO","either","2","318","","","","","","","0","0","1","","0.3577573403","0.6","0.2","0.4","0.8","0.380235832","0.3577573403","0.4591977302","0.2524306687","","","","","","","","","","","","74","J","1","","","35","main_expt"
"","bandit","115","359405","0.0-76.0-0.0","86056383","wem/bandit_either_2","A4W9APAHFWVLO","either","2","135","","","","","","","0","0","1","","0.4686235256","0.6","0.2","0.4","0.8","0.3459989602","0.3895375856","0.4686235256","0.2351869563","","","","","","","","","","","","75","K","2","","","36","main_expt"
"","bandit","116","361335","0.0-77.0-0.0","86056383","wem/bandit_either_2","A4W9APAHFWVLO","either","2","415","","","","","","","0","0","1","0.3783527007","","0.6","0.2","0.4","0.8","","","","","0.3320905149","0.3783527007","0.4571547709","0.2629170466","","","","","","","","74","J","1","","","37","main_expt"
"","bandit","117","363093","0.0-78.0-0.0","86056383","wem/bandit_either_2","A4W9APAHFWVLO","either","2","245","","","","","","","1","0","0","0.3090194305","","0.6","0.2","0.4","0.8","","","","","0.3471020919","0.284076782","0.4688430709","0.3090194305","","","","","","","","76","L","3","","","38","main_expt"
"","bandit","118","364767","0.0-79.0-0.0","86056383","wem/bandit_either_2","A4W9APAHFWVLO","either","2","158","","","","","","","0","0","1","0.2845371228","","0.6","0.2","0.4","0.8","","","","","0.3401763967","0.3388972186","0.4612923778","0.2845371228","","","","","","","","76","L","3","","","39","main_expt"
"","bandit","119","366420","0.0-80.0-0.0","86056383","wem/bandit_either_2","A4W9APAHFWVLO","either","2","136","","","","","","","1","0","0","0.3076259244","","0.6","0.2","0.4","0.8","","","","","0.3260487483","0.2663655232","0.4576194683","0.3076259244","","","","","","","","76","L","3","","","40","main_expt"
"","bandit","120","368070","0.0-81.0-0.0","86056383","wem/bandit_either_2","A4W9APAHFWVLO","either","2","133","","","","","","","0","0","1","","0.2888769276","0.6","0.2","0.4","0.8","0.3390218734","0.2608266697","0.4473921051","0.2888769276","","","","","","","","","","","","76","L","3","","","41","main_expt"
"","bandit","121","369603","0.0-82.0-0.0","86056383","wem/bandit_either_2","A4W9APAHFWVLO","either","2","21","","","","","","","0","0","1","0.2639198141","","0.6","0.2","0.4","0.8","","","","","0.2889680017","0.2287676803","0.425470286","0.2639198141","","","","","","","","76","L","3","","","42","main_expt"
"","bandit","122","371360","0.0-83.0-0.0","86056383","wem/bandit_either_2","A4W9APAHFWVLO","either","2","244","","","","","","","1","0","0","0.2255441472","","0.6","0.2","0.4","0.8","","","","","0.2784828801","0.2043112358","0.4030522017","0.2255441472","","","","","","","","76","L","3","","","43","main_expt"
"","bandit","123","373421","0.0-84.0-0.0","86056383","wem/bandit_either_2","A4W9APAHFWVLO","either","2","548","","","","","","","1","0","0","0.2050272072","","0.6","0.2","0.4","0.8","","","","","0.2805729819","0.1957049551","0.4106315797","0.2050272072","","","","","","","","76","L","3","","","44","main_expt"
"","bandit","124","375439","0.0-85.0-0.0","86056383","wem/bandit_either_2","A4W9APAHFWVLO","either","2","502","","","","","","","0","0","1","","0.239455925","0.6","0.2","0.4","0.8","0.2195119073","0.2207366272","0.4258527362","0.239455925","","","","","","","","","","","","76","L","3","","","45","main_expt"
"","bandit","125","377265","0.0-86.0-0.0","86056383","wem/bandit_either_2","A4W9APAHFWVLO","either","2","307","","","","","","","0","0","1","","0.2414778298","0.6","0.2","0.4","0.8","0.2657932304","0.1727988076","0.4425966235","0.2414778298","","","","","","","","","","","","76","L","3","","","46","main_expt"
"","bandit","126","379024","0.0-87.0-0.0","86056383","wem/bandit_either_2","A4W9APAHFWVLO","either","2","242","","","","","","","1","0","0","0.1884211613","","0.6","0.2","0.4","0.8","","","","","0.2678398397","0.1446735631","0.4428977597","0.1884211613","","","","","","","","76","L","3","","","47","main_expt"
"","bandit","127","381064","0.0-88.0-0.0","86056383","wem/bandit_either_2","A4W9APAHFWVLO","either","2","525","","","","","","","1","0","0","0.1755274282","","0.6","0.2","0.4","0.8","","","","","0.2866904938","0.1681765936","0.4479964269","0.1755274282","","","","","","","","76","L","3","","","48","main_expt"
"","bandit","128","382851","0.0-89.0-0.0","86056383","wem/bandit_either_2","A4W9APAHFWVLO","either","2","271","","","","","","","0","0","1","0.1646396384","","0.6","0.2","0.4","0.8","","","","","0.2803848884","0.1473883531","0.4660387519","0.1646396384","","","","","","","","76","L","3","","","49","main_expt"
"","bandit","129","384903","0.0-90.0-0.0","86056383","wem/bandit_either_2","A4W9APAHFWVLO","either","2","538","","","","","","","1","0","0","0.2587411269","","0.6","0.2","0.4","0.8","","","","","0.2587411269","0.1378170987","0.4345757832","0.2024226619","","","","","","","","72","H","0","img/none_selected.jpg","","50","main_expt"
"","bandit","130","386680","0.0-91.0-0.0","86056383","wem/bandit_either_2","A4W9APAHFWVLO","either","2","258","","","","","","","0","0","1","","0.2212901065","0.6","0.2","0.4","0.8","0.2212901065","0.1430360168","0.4450950844","0.1976760068","","","","","","","","","","","","72","H","0","img/none_selected.jpg","","51","main_expt"
"","bandit","131","388464","0.0-92.0-0.0","86056383","wem/bandit_either_2","A4W9APAHFWVLO","either","2","269","","","","","","","0","0","1","","0.236006857","0.6","0.2","0.4","0.8","0.236006857","0.1731798725","0.4475354499","0.1796352224","","","","","","","","","","","","72","H","0","img/none_selected.jpg","","52","main_expt"
"","bandit","132","390113","0.0-93.0-0.0","86056383","wem/bandit_either_2","A4W9APAHFWVLO","either","2","133","","","","","","","0","0","1","0.2660825342","","0.6","0.2","0.4","0.8","","","","","0.2660825342","0.1312409056","0.4627294295","0.2451732725","","","","","","","","72","H","0","img/none_selected.jpg","","53","main_expt"
"","bandit","133","391850","0.0-94.0-0.0","86056383","wem/bandit_either_2","A4W9APAHFWVLO","either","2","203","","","","","","","0","0","1","","0.2458345041","0.6","0.2","0.4","0.8","0.2458345041","0.1862053218","0.44829207","0.2621482643","","","","","","","","","","","","72","H","0","img/none_selected.jpg","","54","main_expt"
"","bandit","134","393635","0.0-95.0-0.0","86056383","wem/bandit_either_2","A4W9APAHFWVLO","either","2","271","","","","","","","0","0","1","","0.1733563037","0.6","0.2","0.4","0.8","0.2265690781","0.1733563037","0.4505537928","0.2441780383","","","","","","","","","","","","74","J","1","","","55","main_expt"
"","bandit","135","395424","0.0-96.0-0.0","86056383","wem/bandit_either_2","A4W9APAHFWVLO","either","2","274","","","","","","","0","0","1","","0.1728369204","0.6","0.2","0.4","0.8","0.2741820357","0.1728369204","0.4686400132","0.199729785","","","","","","","","","","","","74","J","1","","","56","main_expt"
"","bandit","136","397263","0.0-97.0-0.0","86056383","wem/bandit_either_2","A4W9APAHFWVLO","either","2","318","","","","","","","0","1","0","","0.4572679106","0.6","0.2","0.4","0.8","0.2937641054","0.09176359954","0.4572679106","0.1945085845","","","","","","","","","","","","75","K","2","","","57","main_expt"
"","bandit","137","398991","0.0-98.0-0.0","86056383","wem/bandit_either_2","A4W9APAHFWVLO","either","2","214","","","","","","","1","0","0","0.4300169527","","0.6","0.2","0.4","0.8","","","","","0.2949827607","0.04991422033","0.4300169527","0.2614759052","","","","","","","","75","K","2","","","58","main_expt"
"","bandit","138","400816","0.0-99.0-0.0","86056383","wem/bandit_either_2","A4W9APAHFWVLO","either","2","309","","","","","","","1","0","0","0.4050829606","","0.6","0.2","0.4","0.8","","","","","0.2710075273","0.053239915","0.4050829606","0.2426118991","","","","","","","","75","K","2","","","59","main_expt"
"","bandit","139","402375","0.0-100.0-0.0","86056383","wem/bandit_either_2","A4W9APAHFWVLO","either","2","38","","","","","","","0","0","1","0.4070720156","","0.6","0.2","0.4","0.8","","","","","0.2766623035","0.06994226662","0.4070720156","0.2623750897","","","","","","","","75","K","2","","","60","main_expt"
"","bandit","140","404099","0.0-101.0-0.0","86056383","wem/bandit_either_2","A4W9APAHFWVLO","either","2","209","","","","","","","0","0","1","","0.3895400789","0.6","0.2","0.4","0.8","0.2574592035","0.07064832373","0.3895400789","0.2139103784","","","","","","","","","","","","75","K","2","","","61","main_expt"
"","bandit","141","405884","0.0-102.0-0.0","86056383","wem/bandit_either_2","A4W9APAHFWVLO","either","2","234","","","","","","","0","0","1","0.4050708951","","0.6","0.2","0.4","0.8","","","","","0.2425209234","0.08925217872","0.4050708951","0.2566580444","","","","","","","","75","K","2","","","62","main_expt"
"","bandit","142","407995","0.0-103.0-0.0","86056383","wem/bandit_either_2","A4W9APAHFWVLO","either","2","601","","","","","","","1","0","0","0.2393402704","","0.6","0.2","0.4","0.8","","","","","0.2294211584","0.08505035955","0.3765761212","0.2393402704","","","","","","","","76","L","3","","","63","main_expt"
"","bandit","143","409704","0.0-104.0-0.0","86056383","wem/bandit_either_2","A4W9APAHFWVLO","either","2","195","","","","","","","1","0","0","0.300105392","","0.6","0.2","0.4","0.8","","","","","0.2350173232","0.09892528285","0.3859881554","0.300105392","","","","","","","","76","L","3","","","64","main_expt"
"","bandit","144","493919","0.0-105.0-0.0","86056383","wem/bandit_either_2","A4W9APAHFWVLO","either","2","82701","","","","","","","1","0","0","0.2775473173","","0.6","0.2","0.4","0.8","","","","","0.2775473173","0.1428545766","0.3817039273","0.2584268813","","","","","","","","72","H","0","img/none_selected.jpg","","65","main_expt"
"","bandit","145","495990","0.0-106.0-0.0","86056383","wem/bandit_either_2","A4W9APAHFWVLO","either","2","555","","","","","","","0","0","1","0.298861572","","0.6","0.2","0.4","0.8","","","","","0.298861572","0.120440259","0.3622232449","0.2536378703","","","","","","","","72","H","0","img/none_selected.jpg","","66","main_expt"
"","bandit","146","497774","0.0-107.0-0.0","86056383","wem/bandit_either_2","A4W9APAHFWVLO","either","2","267","","","","","","","0","0","1","0.3043747659","","0.6","0.2","0.4","0.8","","","","","0.3043747659","0.2019700983","0.3768721334","0.2548884231","","","","","","","","72","H","0","img/none_selected.jpg","","67","main_expt"
"","bandit","147","499518","0.0-108.0-0.0","86056383","wem/bandit_either_2","A4W9APAHFWVLO","either","2","230","","","","","","","0","0","1","","0.1467862533","0.6","0.2","0.4","0.8","0.2533072519","0.1467862533","0.3826604183","0.2105458193","","","","","","","","","","","","74","J","1","","","68","main_expt"
"","bandit","148","501333","0.0-109.0-0.0","86056383","wem/bandit_either_2","A4W9APAHFWVLO","either","2","299","","","","","","","0","0","1","","0.3981811202","0.6","0.2","0.4","0.8","0.2451677402","0.09022805221","0.3981811202","0.2901666962","","","","","","","","","","","","75","K","2","","","69","main_expt"
"","bandit","149","503006","0.0-110.0-0.0","86056383","wem/bandit_either_2","A4W9APAHFWVLO","either","2","158","","","","","","","0","0","1","0.2973761433","","0.6","0.2","0.4","0.8","","","","","0.2403061491","0.1128827508","0.3936557204","0.2973761433","","","","","","","","76","L","3","","","70","main_expt"
"","bandit","150","505308","0.0-111.0-0.0","86056383","wem/bandit_either_2","A4W9APAHFWVLO","either","2","790","","","","","","","0","0","1","0.2737706179","","0.6","0.2","0.4","0.8","","","","","0.1917576795","0.1184182172","0.3949471057","0.2737706179","","","","","","","","76","L","3","","","71","main_expt"
"","bandit","151","507093","0.0-112.0-0.0","86056383","wem/bandit_either_2","A4W9APAHFWVLO","either","2","270","","","","","","","1","0","0","0.3888869603","","0.6","0.2","0.4","0.8","","","","","0.1894079546","0.1038133506","0.3888869603","0.3005227265","","","","","","","","75","K","2","","","72","main_expt"
"","bandit","152","508919","0.0-113.0-0.0","86056383","wem/bandit_either_2","A4W9APAHFWVLO","either","2","308","","","","","","","1","0","0","0.4015056825","","0.6","0.2","0.4","0.8","","","","","0.235909594","0.07830871569","0.4015056825","0.3205676235","","","","","","","","75","K","2","","","73","main_expt"
"","bandit","153","510770","0.0-114.0-0.0","86056383","wem/bandit_either_2","A4W9APAHFWVLO","either","2","334","","","","","","","0","1","0","","0.4200542591","0.6","0.2","0.4","0.8","0.2772030277","0.09226686474","0.4200542591","0.3040473008","","","","","","","","","","","","75","K","2","","","74","main_expt"
"","bandit","154","512623","0.0-115.0-0.0","86056383","wem/bandit_either_2","A4W9APAHFWVLO","either","2","334","","","","","","","0","0","1","","0.4353174817","0.6","0.2","0.4","0.8","0.2237268092","0.07948082514","0.4353174817","0.2686744794","","","","","","","","","","","","75","K","2","","","75","main_expt"
"","bandit","155","514366","0.0-116.0-0.0","86056383","wem/bandit_either_2","A4W9APAHFWVLO","either","2","231","","","","","","","1","0","0","0.4196821318","","0.6","0.2","0.4","0.8","","","","","0.1739375455","0.1279570505","0.4196821318","0.258707356","","","","","","","","75","K","2","","","76","main_expt"
"","bandit","156","516193","0.0-117.0-0.0","86056383","wem/bandit_either_2","A4W9APAHFWVLO","either","2","310","","","","","","","0","1","0","","0.3787369199","0.6","0.2","0.4","0.8","0.1648796623","0.1202820049","0.3787369199","0.3010070056","","","","","","","","","","","","75","K","2","","","77","main_expt"
"","bandit","157","517966","0.0-118.0-0.0","86056383","wem/bandit_either_2","A4W9APAHFWVLO","either","2","258","","","","","","","0","0","1","0.4314930014","","0.6","0.2","0.4","0.8","","","","","0.1637798684","0.1054071572","0.4314930014","0.2648586626","","","","","","","","75","K","2","","","78","main_expt"
"","bandit","158","519694","0.0-119.0-0.0","86056383","wem/bandit_either_2","A4W9APAHFWVLO","either","2","212","","","","","","","0","1","0","","0.4155078174","0.6","0.2","0.4","0.8","0.1490076182","0.1403095361","0.4155078174","0.1984114041","","","","","","","","","","","","75","K","2","","","79","main_expt"
"","bandit","159","521453","0.0-120.0-0.0","86056383","wem/bandit_either_2","A4W9APAHFWVLO","either","2","243","","","","","","","0","0","1","0.4226243671","","0.6","0.2","0.4","0.8","","","","","0.1093198388","0.1891235553","0.4226243671","0.180325551","","","","","","","","75","K","2","","","80","main_expt"
"","bandit","160","523173","0.0-121.0-0.0","86056383","wem/bandit_either_2","A4W9APAHFWVLO","either","2","204","","","","","","","1","0","0","0.4474166549","","0.6","0.2","0.4","0.8","","","","","0.08868186825","0.1858030354","0.4474166549","0.224531153","","","","","","","","75","K","2","","","81","main_expt"
"","bandit","161","524925","0.0-122.0-0.0","86056383","wem/bandit_either_2","A4W9APAHFWVLO","either","2","238","","","","","","","0","1","0","","0.4636297045","0.6","0.2","0.4","0.8","0.1073880826","0.2476542501","0.4636297045","0.221125015","","","","","","","","","","","","75","K","2","","","82","main_expt"
"","bandit","162","526800","0.0-123.0-0.0","86056383","wem/bandit_either_2","A4W9APAHFWVLO","either","2","360","","","","","","","0","1","0","","0.467509749","0.6","0.2","0.4","0.8","0.1022587498","0.2188241074","0.467509749","0.2143237207","","","","","","","","","","","","75","K","2","","","83","main_expt"
"","bandit","163","528574","0.0-124.0-0.0","86056383","wem/bandit_either_2","A4W9APAHFWVLO","either","2","260","","","","","","","0","0","1","","0.4551111531","0.6","0.2","0.4","0.8","0.1085807699","0.2754771977","0.4551111531","0.2097367537","","","","","","","","","","","","75","K","2","","","84","main_expt"
"","bandit","164","530289","0.0-125.0-0.0","86056383","wem/bandit_either_2","A4W9APAHFWVLO","either","2","196","","","","","","","0","0","1","0.4621419017","","0.6","0.2","0.4","0.8","","","","","0.1263918358","0.2965575968","0.4621419017","0.1661536269","","","","","","","","75","K","2","","","85","main_expt"
"","bandit","165","531967","0.0-126.0-0.0","86056383","wem/bandit_either_2","A4W9APAHFWVLO","either","2","156","","","","","","","0","0","1","0.4612050897","","0.6","0.2","0.4","0.8","","","","","0.1481941301","0.257129161","0.4612050897","0.1364458955","","","","","","","","75","K","2","","","86","main_expt"
"","bandit","166","533734","0.0-127.0-0.0","86056383","wem/bandit_either_2","A4W9APAHFWVLO","either","2","251","","","","","","","0","0","1","","0.2338967043","0.6","0.2","0.4","0.8","0.1447872846","0.2338967043","0.4334675206","0.08235553135","","","","","","","","","","","","74","J","1","","","87","main_expt"
"","bandit","167","535334","0.0-128.0-0.0","86056383","wem/bandit_either_2","A4W9APAHFWVLO","either","2","83","","","","","","","0","0","1","","0.2161535794","0.6","0.2","0.4","0.8","0.1391637727","0.2161535794","0.4397617206","0.0754832669","","","","","","","","","","","","74","J","1","","","88","main_expt"
"","bandit","168","537071","0.0-129.0-0.0","86056383","wem/bandit_either_2","A4W9APAHFWVLO","either","2","220","","","","","","","0","1","0","","0.1476089376","0.6","0.2","0.4","0.8","0.1476089376","0.2043146745","0.4635478967","0.109361408","","","","","","","","","","","","72","H","0","img/none_selected.jpg","","89","main_expt"
"","bandit","169","538749","0.0-130.0-0.0","86056383","wem/bandit_either_2","A4W9APAHFWVLO","either","2","162","","","","","","","0","0","1","0.2081489191","","0.6","0.2","0.4","0.8","","","","","0.2081489191","0.2346009907","0.4234969579","0.07391079866","","","","","","","","72","H","0","img/none_selected.jpg","","90","main_expt"
"","bandit","170","540386","0.0-131.0-0.0","86056383","wem/bandit_either_2","A4W9APAHFWVLO","either","2","111","","","","","","","0","0","1","","0.1834039029","0.6","0.2","0.4","0.8","0.1834039029","0.2333967219","0.4267507071","0.1164594673","","","","","","","","","","","","72","H","0","img/none_selected.jpg","","91","main_expt"
"","bandit","171","542125","0.0-132.0-0.0","86056383","wem/bandit_either_2","A4W9APAHFWVLO","either","2","223","","","","","","","0","0","1","0.2027314649","","0.6","0.2","0.4","0.8","","","","","0.2027314649","0.2150480475","0.4089505196","0.113043345","","","","","","","","72","H","0","img/none_selected.jpg","","92","main_expt"
"","bandit","172","543894","0.0-133.0-0.0","86056383","wem/bandit_either_2","A4W9APAHFWVLO","either","2","251","","","","","","","0","0","1","0.1714352716","","0.6","0.2","0.4","0.8","","","","","0.1738894496","0.2588080464","0.4112501448","0.1714352716","","","","","","","","76","L","3","","","93","main_expt"
"","bandit","173","545488","0.0-134.0-0.0","86056383","wem/bandit_either_2","A4W9APAHFWVLO","either","2","76","","","","","","","0","0","1","0.1253024032","","0.6","0.2","0.4","0.8","","","","","0.2484708832","0.2748849181","0.452415855","0.1253024032","","","","","","","","76","L","3","","","94","main_expt"
"","bandit","174","547257","0.0-135.0-0.0","86056383","wem/bandit_either_2","A4W9APAHFWVLO","either","2","252","","","","","","","0","0","1","","0.4589197587","0.6","0.2","0.4","0.8","0.2914685715","0.2791739054","0.4589197587","0.1401284447","","","","","","","","","","","","75","K","2","","","95","main_expt"
"","bandit","175","548854","0.0-136.0-0.0","86056383","wem/bandit_either_2","A4W9APAHFWVLO","either","2","79","","","","","","","0","1","0","","0.4481870348","0.6","0.2","0.4","0.8","0.2417524935","0.3149564315","0.4481870348","0.1320491369","","","","","","","","","","","","75","K","2","","","96","main_expt"
"","bandit","176","550646","0.0-137.0-0.0","86056383","wem/bandit_either_2","A4W9APAHFWVLO","either","2","276","","","","","","","1","0","0","0.4597072186","","0.6","0.2","0.4","0.8","","","","","0.2492821404","0.372564007","0.4597072186","0.1518453759","","","","","","","","75","K","2","","","97","main_expt"
"","bandit","177","552366","0.0-138.0-0.0","86056383","wem/bandit_either_2","A4W9APAHFWVLO","either","2","203","","","","","","","1","0","0","0.4705619112","","0.6","0.2","0.4","0.8","","","","","0.3002958449","0.393328365","0.4705619112","0.2173959583","","","","","","","","75","K","2","","","98","main_expt"
"","bandit","178","554149","0.0-139.0-0.0","86056383","wem/bandit_either_2","A4W9APAHFWVLO","either","2","266","","","","","","","0","1","0","","0.4800968761","0.6","0.2","0.4","0.8","0.3544832656","0.421239771","0.4800968761","0.2618725657","","","","","","","","","","","","75","K","2","","","99","main_expt"
"","bandit","179","555911","0.0-140.0-0.0","86056383","wem/bandit_either_2","A4W9APAHFWVLO","either","2","244","","","","","","","0","0","1","0.4780143146","","0.6","0.2","0.4","0.8","","","","","0.3810954338","0.4130759476","0.4780143146","0.2487788848","","","","","","","","75","K","2","","","100","main_expt"
"","bandit","180","557687","0.0-141.0-0.0","86056383","wem/bandit_either_2","A4W9APAHFWVLO","either","2","267","","","","","","","0","1","0","","0.4849002763","0.6","0.2","0.4","0.8","0.4042362267","0.4089462913","0.4849002763","0.2890792313","","","","","","","","","","","","75","K","2","","","101","main_expt"
"","bandit","181","559576","0.0-142.0-0.0","86056383","wem/bandit_either_2","A4W9APAHFWVLO","either","2","371","","","","","","","1","0","0","0.4886078379","","0.6","0.2","0.4","0.8","","","","","0.4594696392","0.370330464","0.4886078379","0.3136369757","","","","","","","","75","K","2","","","102","main_expt"
"","bandit","182","561434","0.0-143.0-0.0","86056383","wem/bandit_either_2","A4W9APAHFWVLO","either","2","339","","","","","","","0","0","1","","0.47121906","0.6","0.2","0.4","0.8","0.4588766667","0.3306315663","0.47121906","0.2364671533","","","","","","","","","","","","75","K","2","","","103","main_expt"
"","bandit","183","563473","0.0-144.0-0.0","86056383","wem/bandit_either_2","A4W9APAHFWVLO","either","2","522","","","","","","","1","0","0","0.4760763377","","0.6","0.2","0.4","0.8","","","","","0.4372785745","0.354634178","0.4760763377","0.2202486688","","","","","","","","75","K","2","","","104","main_expt"
"","bandit","184","565024","0.0-145.0-0.0","86056383","wem/bandit_either_2","A4W9APAHFWVLO","either","2","33","","","","","","","0","0","1","0.4701389446","","0.6","0.2","0.4","0.8","","","","","0.4063887309","0.3896605338","0.4701389446","0.1854418088","","","","","","","","75","K","2","","","105","main_expt"
"","bandit","185","566618","0.0-146.0-0.0","86056383","wem/bandit_either_2","A4W9APAHFWVLO","either","2","75","","","","","","","0","0","1","","0.471324938","0.6","0.2","0.4","0.8","0.3778019321","0.414339711","0.471324938","0.1596754559","","","","","","","","","","","","75","K","2","","","106","main_expt"
"","bandit","186","568284","0.0-147.0-0.0","86056383","wem/bandit_either_2","A4W9APAHFWVLO","either","2","152","","","","","","","0","0","1","","0.4786694594","0.6","0.2","0.4","0.8","0.3614143111","0.4164239898","0.4786694594","0.137099288","","","","","","","","","","","","75","K","2","","","107","main_expt"
"","bandit","187","569961","0.0-148.0-0.0","86056383","wem/bandit_either_2","A4W9APAHFWVLO","either","2","159","","","","","","","0","0","1","","0.3836571442","0.6","0.2","0.4","0.8","0.3681250399","0.3836571442","0.4810065258","0.1443984823","","","","","","","","","","","","74","J","1","","","108","main_expt"
"","bandit","188","571560","0.0-149.0-0.0","86056383","wem/bandit_either_2","A4W9APAHFWVLO","either","2","80","","","","","","","0","1","0","","0.3881214568","0.6","0.2","0.4","0.8","0.3446081275","0.3881214568","0.4816764674","0.1409511773","","","","","","","","","","","","74","J","1","","","109","main_expt"
"","bandit","189","573283","0.0-150.0-0.0","86056383","wem/bandit_either_2","A4W9APAHFWVLO","either","2","204","","","","","","","1","0","0","0.4266873791","","0.6","0.2","0.4","0.8","","","","","0.3681270965","0.4266873791","0.4882082215","0.1787750665","","","","","","","","74","J","1","","","110","main_expt"
"","bandit","190","574929","0.0-151.0-0.0","86056383","wem/bandit_either_2","A4W9APAHFWVLO","either","2","128","","","","","","","0","1","0","","0.4475699482","0.6","0.2","0.4","0.8","0.391379093","0.4475699482","0.478642168","0.1862786225","","","","","","","","","","","","74","J","1","","","111","main_expt"
"","bandit","191","576664","0.0-152.0-0.0","86056383","wem/bandit_either_2","A4W9APAHFWVLO","either","2","215","","","","","","","0","0","1","","0.4190314983","0.6","0.2","0.4","0.8","0.4131544452","0.4190314983","0.4841415165","0.1654620982","","","","","","","","","","","","74","J","1","","","112","main_expt"
"","bandit","192","578323","0.0-153.0-0.0","86056383","wem/bandit_either_2","A4W9APAHFWVLO","either","2","143","","","","","","","0","0","1","","0.3666128881","0.6","0.2","0.4","0.8","0.3963985948","0.3666128881","0.4883212127","0.1582981878","","","","","","","","","","","","74","J","1","","","113","main_expt"
"","bandit","193","580370","0.0-154.0-0.0","86056383","wem/bandit_either_2","A4W9APAHFWVLO","either","2","527","","","","","","","0","0","1","","0.3866259854","0.6","0.2","0.4","0.8","0.4117985871","0.3866259854","0.4883790739","0.1922757069","","","","","","","","","","","","74","J","1","","","114","main_expt"
"","bandit","194","581894","0.0-155.0-0.0","86056383","wem/bandit_either_2","A4W9APAHFWVLO","either","2","1","","","","","","","0","0","1","","0.354161152","0.6","0.2","0.4","0.8","0.394381103","0.354161152","0.4902011966","0.185618385","","","","","","","","","","","","74","J","1","","","115","main_expt"
"","bandit","195","583592","0.0-156.0-0.0","86056383","wem/bandit_either_2","A4W9APAHFWVLO","either","2","182","","","","","","","0","0","1","0.3762408663","","0.6","0.2","0.4","0.8","","","","","0.3762408663","0.3170745426","0.4844723045","0.2057277395","","","","","","","","72","H","0","img/none_selected.jpg","","116","main_expt"
"","bandit","196","585177","0.0-157.0-0.0","86056383","wem/bandit_either_2","A4W9APAHFWVLO","either","2","68","","","","","","","0","0","1","0.3823674378","","0.6","0.2","0.4","0.8","","","","","0.3823674378","0.304536318","0.4895589844","0.2288411079","","","","","","","","72","H","0","img/none_selected.jpg","","117","main_expt"
"","bandit","197","586876","0.0-158.0-0.0","86056383","wem/bandit_either_2","A4W9APAHFWVLO","either","2","169","","","","","","","0","1","0","","0.4050195855","0.6","0.2","0.4","0.8","0.4050195855","0.3411026949","0.4899729034","0.2207517482","","","","","","","","","","","","72","H","0","img/none_selected.jpg","","118","main_expt"
"","bandit","198","588524","0.0-159.0-0.0","86056383","wem/bandit_either_2","A4W9APAHFWVLO","either","2","130","","","","","","","1","0","0","0.4227562767","","0.6","0.2","0.4","0.8","","","","","0.4227562767","0.3447942488","0.4947041593","0.1955286499","","","","","","","","72","H","0","img/none_selected.jpg","","119","main_expt"
"","bandit","199","590071","0.0-160.0-0.0","86056383","wem/bandit_either_2","A4W9APAHFWVLO","either","2","30","","","","","","","0","0","1","","0.4163810796","0.6","0.2","0.4","0.8","0.4163810796","0.3686185352","0.4916865355","0.2427950695","","","","","","","","","","","","72","H","0","img/none_selected.jpg","","120","main_expt"
"","bandit","200","591615","0.0-161.0-0.0","86056383","wem/bandit_either_2","A4W9APAHFWVLO","either","2","27","","","","","","","1","0","0","0.406821829","","0.6","0.2","0.4","0.8","","","","","0.406821829","0.3547669752","0.4860386064","0.2479682904","","","","","","","","72","H","0","img/none_selected.jpg","","121","main_expt"
"","bandit","201","593344","0.0-162.0-0.0","86056383","wem/bandit_either_2","A4W9APAHFWVLO","either","2","211","","","","","","","1","0","0","0.3999449125","","0.6","0.2","0.4","0.8","","","","","0.3999449125","0.365994073","0.483083859","0.3081985406","","","","","","","","72","H","0","img/none_selected.jpg","","122","main_expt"
"","bandit","202","595096","0.0-163.0-0.0","86056383","wem/bandit_either_2","A4W9APAHFWVLO","either","2","236","","","","","","","0","0","1","0.366626489","","0.6","0.2","0.4","0.8","","","","","0.366626489","0.3120596142","0.4791491275","0.3089359708","","","","","","","","72","H","0","img/none_selected.jpg","","123","main_expt"
"","bandit","203","596634","0.0-164.0-0.0","86056383","wem/bandit_either_2","A4W9APAHFWVLO","either","2","15","","","","","","","0","0","1","0.3706278578","","0.6","0.2","0.4","0.8","","","","","0.3706278578","0.302161917","0.4776777384","0.3298338218","","","","","","","","72","H","0","img/none_selected.jpg","","124","main_expt"
"","bandit","204","598338","0.0-165.0-0.0","86056383","wem/bandit_either_2","A4W9APAHFWVLO","either","2","186","","","","","","","0","0","1","0.2795250441","","0.6","0.2","0.4","0.8","","","","","0.3545504723","0.2794370347","0.478983255","0.2795250441","","","","","","","","76","L","3","","","125","main_expt"
"","bandit","205","600036","0.0-166.0-0.0","86056383","wem/bandit_either_2","A4W9APAHFWVLO","either","2","179","","","","","","","0","1","0","","0.2184127205","0.6","0.2","0.4","0.8","0.3106298006","0.2466154908","0.4724726719","0.2184127205","","","","","","","","","","","","76","L","3","","","126","main_expt"
"","bandit","206","601833","0.0-167.0-0.0","86056383","wem/bandit_either_2","A4W9APAHFWVLO","either","2","280","","","","","","","0","1","0","","0.2488858907","0.6","0.2","0.4","0.8","0.3351405197","0.2712823261","0.4796244369","0.2488858907","","","","","","","","","","","","76","L","3","","","127","main_expt"
"","bandit","207","603561","0.0-168.0-0.0","86056383","wem/bandit_either_2","A4W9APAHFWVLO","either","2","211","","","","","","","0","0","1","","0.2850827173","0.6","0.2","0.4","0.8","0.2984422464","0.2095517986","0.4825212971","0.2850827173","","","","","","","","","","","","76","L","3","","","128","main_expt"
"","bandit","208","605226","0.0-169.0-0.0","86056383","wem/bandit_either_2","A4W9APAHFWVLO","either","2","144","","","","","","","0","0","1","0.2867242009","","0.6","0.2","0.4","0.8","","","","","0.2027892291","0.1986866195","0.4877535013","0.2867242009","","","","","","","","76","L","3","","","129","main_expt"
"","bandit","209","606912","0.0-170.0-0.0","86056383","wem/bandit_either_2","A4W9APAHFWVLO","either","2","168","","","","","","","1","0","0","0.2509552002","","0.6","0.2","0.4","0.8","","","","","0.13768179","0.172959111","0.4833646461","0.2509552002","","","","","","","","76","L","3","","","130","main_expt"
"","bandit","210","608545","0.0-171.0-0.0","86056383","wem/bandit_either_2","A4W9APAHFWVLO","either","2","114","","","","","","","0","0","1","0.2172434631","","0.6","0.2","0.4","0.8","","","","","0.1352832961","0.163172462","0.4790990265","0.2172434631","","","","","","","","76","L","3","","","131","main_expt"
"","bandit","211","610267","0.0-172.0-0.0","86056383","wem/bandit_either_2","A4W9APAHFWVLO","either","2","193","","","","","","","0","0","1","0.158295755","","0.6","0.2","0.4","0.8","","","","","0.08660982753","0.161148659","0.4882311922","0.158295755","","","","","","","","76","L","3","","","132","main_expt"
"","bandit","212","611874","0.0-173.0-0.0","86056383","wem/bandit_either_2","A4W9APAHFWVLO","either","2","53","","","","","","","0","0","1","","0.185310911","0.6","0.2","0.4","0.8","0.1020907376","0.1735641072","0.4889625365","0.185310911","","","","","","","","","","","","76","L","3","","","133","main_expt"
"","bandit","213","613432","0.0-174.0-0.0","86056383","wem/bandit_either_2","A4W9APAHFWVLO","either","2","39","","","","","","","0","0","1","0.4916783795","","0.6","0.2","0.4","0.8","","","","","0.1231499397","0.1597390633","0.4916783795","0.1966535246","","","","","","","","75","K","2","","","134","main_expt"
"","bandit","214","615082","0.0-175.0-0.0","86056383","wem/bandit_either_2","A4W9APAHFWVLO","either","2","130","","","","","","","0","1","0","","0.4904315354","0.6","0.2","0.4","0.8","0.1524236556","0.1460070414","0.4904315354","0.2290191974","","","","","","","","","","","","75","K","2","","","135","main_expt"
"","bandit","215","616833","0.0-176.0-0.0","86056383","wem/bandit_either_2","A4W9APAHFWVLO","either","2","234","","","","","","","0","1","0","","0.491666595","0.6","0.2","0.4","0.8","0.1954247664","0.105474526","0.491666595","0.2929229053","","","","","","","","","","","","75","K","2","","","136","main_expt"
"","bandit","216","618644","0.0-177.0-0.0","86056383","wem/bandit_either_2","A4W9APAHFWVLO","either","2","291","","","","","","","0","0","1","","0.4917142499","0.6","0.2","0.4","0.8","0.1833989084","0.08835118593","0.4917142499","0.2780805385","","","","","","","","","","","","75","K","2","","","137","main_expt"
"","bandit","217","620341","0.0-178.0-0.0","86056383","wem/bandit_either_2","A4W9APAHFWVLO","either","2","177","","","","","","","0","0","1","","0.4870170403","0.6","0.2","0.4","0.8","0.1490533902","0.06418360449","0.4870170403","0.217224157","","","","","","","","","","","","75","K","2","","","138","main_expt"
"","bandit","218","622226","0.0-179.0-0.0","86056383","wem/bandit_either_2","A4W9APAHFWVLO","either","2","365","","","","","","","0","0","1","","0.03554325754","0.6","0.2","0.4","0.8","0.1318817547","0.03554325754","0.4834992155","0.2323391466","","","","","","","","","","","","74","J","1","","","139","main_expt"
"","bandit","219","623785","0.0-180.0-0.0","86056383","wem/bandit_either_2","A4W9APAHFWVLO","either","2","42","","","","","","","0","0","1","","0.04477370895","0.6","0.2","0.4","0.8","0.1877412345","0.04477370895","0.4927392517","0.244475209","","","","","","","","","","","","74","J","1","","","140","main_expt"
"","bandit","220","625411","0.0-181.0-0.0","86056383","wem/bandit_either_2","A4W9APAHFWVLO","either","2","107","","","","","","","0","0","1","0.2363671377","","0.6","0.2","0.4","0.8","","","","","0.2363671377","0.03780119019","0.4872377518","0.232604034","","","","","","","","72","H","0","img/none_selected.jpg","","141","main_expt"
"","bandit","221","627219","0.0-182.0-0.0","86056383","wem/bandit_either_2","A4W9APAHFWVLO","either","2","290","","","","","","","0","0","1","0.2546402356","","0.6","0.2","0.4","0.8","","","","","0.2546402356","0.03149913875","0.4846254936","0.2447345556","","","","","","","","72","H","0","img/none_selected.jpg","","142","main_expt"
"","bandit","222","628826","0.0-183.0-0.0","86056383","wem/bandit_either_2","A4W9APAHFWVLO","either","2","91","","","","","","","0","0","1","","0.26413271","0.6","0.2","0.4","0.8","0.2825544685","0.04191513266","0.4815328815","0.26413271","","","","","","","","","","","","76","L","3","","","143","main_expt"
"","bandit","223","630885","0.0-184.0-0.0","86056383","wem/bandit_either_2","A4W9APAHFWVLO","either","2","540","","","","","","","0","0","1","","0.1988203511","0.6","0.2","0.4","0.8","0.2731230023","0.05613120157","0.4854048375","0.1988203511","","","","","","","","","","","","76","L","3","","","144","main_expt"
"","bandit","224","632555","0.0-185.0-0.0","86056383","wem/bandit_either_2","A4W9APAHFWVLO","either","2","158","","","","","","","0","1","0","","0.4813029389","0.6","0.2","0.4","0.8","0.2943814715","0.03827589539","0.4813029389","0.217822638","","","","","","","","","","","","75","K","2","","","145","main_expt"
"","bandit","225","634339","0.0-186.0-0.0","86056383","wem/bandit_either_2","A4W9APAHFWVLO","either","2","264","","","","","","","0","0","1","","0.4884824202","0.6","0.2","0.4","0.8","0.328634005","0.02861175853","0.4884824202","0.2009042904","","","","","","","","","","","","75","K","2","","","146","main_expt"
"","bandit","226","636038","0.0-187.0-0.0","86056383","wem/bandit_either_2","A4W9APAHFWVLO","either","2","175","","","","","","","0","0","1","","0.4835291327","0.6","0.2","0.4","0.8","0.3511209141","0.02140640811","0.4835291327","0.2080446297","","","","","","","","","","","","75","K","2","","","147","main_expt"
"","bandit","227","637707","0.0-188.0-0.0","86056383","wem/bandit_either_2","A4W9APAHFWVLO","either","2","152","","","","","","","0","0","1","0.0202041473","","0.6","0.2","0.4","0.8","","","","","0.3874996206","0.0202041473","0.4716003481","0.1536700415","","","","","","","","74","J","1","","","148","main_expt"
"","bandit","228","639697","0.0-189.0-0.0","86056383","wem/bandit_either_2","A4W9APAHFWVLO","either","2","473","","","","","","","1","0","0","0.4341886607","","0.6","0.2","0.4","0.8","","","","","0.3476646045","0.01154190459","0.4341886607","0.1593661633","","","","","","","","75","K","2","","","149","main_expt"
"","bandit","229","641438","0.0-190.0-0.0","86056383","wem/bandit_either_2","A4W9APAHFWVLO","either","2","221","","","","","","","1","0","0","0.4014438172","","0.6","0.2","0.4","0.8","","","","","0.3323010919","0.01291237021","0.4014438172","0.144955896","","","","","","","","75","K","2","","","150","main_expt"
"","bandit","230","643243","0.0-191.0-0.0","86056383","wem/bandit_either_2","A4W9APAHFWVLO","either","2","284","","","","","","","0","1","0","","0.3980713407","0.6","0.2","0.4","0.8","0.3954477196","0.0137789916","0.3980713407","0.2123564028","","","","","","","","","","","","75","K","2","","","151","main_expt"
"","bandit","231","645011","0.0-192.0-0.0","86056383","wem/bandit_either_2","A4W9APAHFWVLO","either","2","247","","","","","","","0","0","1","","0.4002357887","0.6","0.2","0.4","0.8","0.4186327087","0.01985271471","0.4002357887","0.2301890466","","","","","","","","","","","","75","K","2","","","152","main_expt"
"","bandit","232","646674","0.0-193.0-0.0","86056383","wem/bandit_either_2","A4W9APAHFWVLO","either","2","142","","","","","","","0","0","1","","0.02951100453","0.6","0.2","0.4","0.8","0.4029566754","0.02951100453","0.388677987","0.2295153641","","","","","","","","","","","","74","J","1","","","153","main_expt"
"","bandit","233","648307","0.0-194.0-0.0","86056383","wem/bandit_either_2","A4W9APAHFWVLO","either","2","111","","","","","","","0","0","1","","0.02325572033","0.6","0.2","0.4","0.8","0.4037751878","0.02325572033","0.3817747688","0.2163321136","","","","","","","","","","","","74","J","1","","","154","main_expt"
"","bandit","234","650028","0.0-195.0-0.0","86056383","wem/bandit_either_2","A4W9APAHFWVLO","either","2","198","","","","","","","0","0","1","0.4078727314","","0.6","0.2","0.4","0.8","","","","","0.4078727314","0.03925092562","0.327727533","0.2257858177","","","","","","","","72","H","0","img/none_selected.jpg","","155","main_expt"
"","bandit","235","651750","0.0-196.0-0.0","86056383","wem/bandit_either_2","A4W9APAHFWVLO","either","2","203","","","","","","","0","0","1","","0.3941681487","0.6","0.2","0.4","0.8","0.3941681487","0.05532081832","0.2821504166","0.2077891775","","","","","","","","","","","","72","H","0","img/none_selected.jpg","","156","main_expt"
"","bandit","236","653427","0.0-197.0-0.0","86056383","wem/bandit_either_2","A4W9APAHFWVLO","either","2","159","","","","","","","0","0","1","","0.05983660039","0.6","0.2","0.4","0.8","0.3417147062","0.05983660039","0.2784527126","0.1742908387","","","","","","","","","","","","74","J","1","","","157","main_expt"
"","bandit","237","654978","0.0-198.0-0.0","86056383","wem/bandit_either_2","A4W9APAHFWVLO","either","2","29","","","","","","","0","0","1","0.162057643","","0.6","0.2","0.4","0.8","","","","","0.2963220618","0.09347744845","0.2857058734","0.162057643","","","","","","","","76","L","3","","","158","main_expt"
"","bandit","238","656611","0.0-199.0-0.0","86056383","wem/bandit_either_2","A4W9APAHFWVLO","either","2","114","","","","","","","0","0","1","0.1805514511","","0.6","0.2","0.4","0.8","","","","","0.2961528309","0.09649648717","0.2349295223","0.1805514511","","","","","","","","76","L","3","","","159","main_expt"
"","bandit","239","658554","0.0-200.0-0.0","86056383","wem/bandit_either_2","A4W9APAHFWVLO","either","2","425","","","","","","","0","0","1","","0.2275717407","0.6","0.2","0.4","0.8","0.2842772575","0.08382429791","0.2275717407","0.1724629995","","","","","","","","","","","","75","K","2","","","160","main_expt"
"","bandit","240","660187","0.0-201.0-0.0","86056383","wem/bandit_either_2","A4W9APAHFWVLO","either","2","109","","","","","","","0","0","1","","0.2559884592","0.6","0.2","0.4","0.8","0.2747674873","0.1466352983","0.2559884592","0.1660992999","","","","","","","","","","","","75","K","2","","","161","main_expt"
"","bandit","241","661903","0.0-202.0-0.0","86056383","wem/bandit_either_2","A4W9APAHFWVLO","either","2","183","","","","","","","0","0","1","0.1569467617","","0.6","0.2","0.4","0.8","","","","","0.2993190406","0.1569467617","0.2670526618","0.2281832109","","","","","","","","74","J","1","","","162","main_expt"
"","bandit","242","663985","0.0-203.0-0.0","86056383","wem/bandit_either_2","A4W9APAHFWVLO","either","2","571","","","","","","","0","0","1","0.1437935099","","0.6","0.2","0.4","0.8","","","","","0.3102408377","0.1437935099","0.2618894379","0.2144285545","","","","","","","","74","J","1","","","163","main_expt"
"","bandit","243","665772","0.0-204.0-0.0","86056383","wem/bandit_either_2","A4W9APAHFWVLO","either","2","264","","","","","","","0","0","1","","0.2607878409","0.6","0.2","0.4","0.8","0.2607878409","0.1503677763","0.2977476978","0.2131293933","","","","","","","","","","","","72","H","0","img/none_selected.jpg","","164","main_expt"
"","bandit","244","667493","0.0-205.0-0.0","86056383","wem/bandit_either_2","A4W9APAHFWVLO","either","2","199","","","","","","","0","0","1","0.2470054868","","0.6","0.2","0.4","0.8","","","","","0.2470054868","0.1574825995","0.3138636066","0.251698227","","","","","","","","72","H","0","img/none_selected.jpg","","165","main_expt"
"","bandit","245","669163","0.0-206.0-0.0","86056383","wem/bandit_either_2","A4W9APAHFWVLO","either","2","150","","","","","","","0","0","1","","0.1500633275","0.6","0.2","0.4","0.8","0.2629624785","0.1500633275","0.3204338644","0.2831539445","","","","","","","","","","","","74","J","1","","","166","main_expt"
"","bandit","246","670833","0.0-207.0-0.0","86056383","wem/bandit_either_2","A4W9APAHFWVLO","either","2","146","","","","","","","0","0","1","0.2496169508","","0.6","0.2","0.4","0.8","","","","","0.2745713682","0.1137242654","0.3600517585","0.2496169508","","","","","","","","76","L","3","","","167","main_expt"
"","bandit","247","672630","0.0-208.0-0.0","86056383","wem/bandit_either_2","A4W9APAHFWVLO","either","2","275","","","","","","","0","0","1","","0.2315540067","0.6","0.2","0.4","0.8","0.2557249153","0.145192941","0.3678373827","0.2315540067","","","","","","","","","","","","76","L","3","","","168","main_expt"
"","bandit","248","674412","0.0-209.0-0.0","86056383","wem/bandit_either_2","A4W9APAHFWVLO","either","2","262","","","","","","","0","0","1","","0.1863479632","0.6","0.2","0.4","0.8","0.2016321063","0.1863479632","0.3421512568","0.1825517174","","","","","","","","","","","","74","J","1","","","169","main_expt"
"","bandit","249","676163","0.0-210.0-0.0","86056383","wem/bandit_either_2","A4W9APAHFWVLO","either","2","229","","","","","","","0","0","1","0.3917895485","","0.6","0.2","0.4","0.8","","","","","0.2210696627","0.142304713","0.3917895485","0.2535959064","","","","","","","","75","K","2","","","170","main_expt"
"","bandit","250","677866","0.0-211.0-0.0","86056383","wem/bandit_either_2","A4W9APAHFWVLO","either","2","183","","","","","","","0","1","0","","0.3206692194","0.6","0.2","0.4","0.8","0.1627904758","0.1739768979","0.3206692194","0.3004284576","","","","","","","","","","","","75","K","2","","","171","main_expt"
"","bandit","251","679661","0.0-212.0-0.0","86056383","wem/bandit_either_2","A4W9APAHFWVLO","either","2","270","","","","","","","0","1","0","","0.3198600846","0.6","0.2","0.4","0.8","0.1421076649","0.2172659048","0.3198600846","0.2716191145","","","","","","","","","","","","75","K","2","","","172","main_expt"
"","bandit","252","681501","0.0-213.0-0.0","86056383","wem/bandit_either_2","A4W9APAHFWVLO","either","2","319","","","","","","","0","0","1","","0.2641483633","0.6","0.2","0.4","0.8","0.165050165","0.2419731025","0.2641483633","0.3253138029","","","","","","","","","","","","75","K","2","","","173","main_expt"
"","bandit","253","683249","0.0-214.0-0.0","86056383","wem/bandit_either_2","A4W9APAHFWVLO","either","2","226","","","","","","","0","0","1","","0.2248062597","0.6","0.2","0.4","0.8","0.1406738207","0.2239571331","0.2248062597","0.3419591401","","","","","","","","","","","","75","K","2","","","174","main_expt"
"","bandit","254","684990","0.0-215.0-0.0","86056383","wem/bandit_either_2","A4W9APAHFWVLO","either","2","219","","","","","","","0","0","1","","0.2370379408","0.6","0.2","0.4","0.8","0.138310495","0.2311410243","0.2370379408","0.3442692367","","","","","","","","","","","","75","K","2","","","175","main_expt"
"","bandit","255","686694","0.0-216.0-0.0","86056383","wem/bandit_either_2","A4W9APAHFWVLO","either","2","184","","","","","","","0","0","1","0.2610077479","","0.6","0.2","0.4","0.8","","","","","0.1675243642","0.2610077479","0.2157433706","0.3397266539","","","","","","","","74","J","1","","","176","main_expt"
"","bandit","256","688686","0.0-217.0-0.0","86056383","wem/bandit_either_2","A4W9APAHFWVLO","either","2","474","","","","","","","1","0","0","0.2780938204","","0.6","0.2","0.4","0.8","","","","","0.1919885971","0.2780938204","0.2014791824","0.2997078274","","","","","","","","74","J","1","","","177","main_expt"
"","bandit","257","690446","0.0-218.0-0.0","86056383","wem/bandit_either_2","A4W9APAHFWVLO","either","2","239","","","","","","","0","1","0","","0.3151752793","0.6","0.2","0.4","0.8","0.2365392944","0.3151752793","0.1913564418","0.3064007527","","","","","","","","","","","","74","J","1","","","178","main_expt"
"","bandit","258","692142","0.0-219.0-0.0","86056383","wem/bandit_either_2","A4W9APAHFWVLO","either","2","176","","","","","","","0","0","1","0.2799621139","","0.6","0.2","0.4","0.8","","","","","0.2509455726","0.2799621139","0.1980728016","0.3533432679","","","","","","","","74","J","1","","","179","main_expt"
"","bandit","259","693896","0.0-220.0-0.0","86056383","wem/bandit_either_2","A4W9APAHFWVLO","either","2","234","","","","","","","0","0","1","","0.3170936092","0.6","0.2","0.4","0.8","0.2767223981","0.3170936092","0.1833491223","0.3652522579","","","","","","","","","","","","74","J","1","","","180","main_expt"
"","bandit","260","695637","0.0-221.0-0.0","86056383","wem/bandit_either_2","A4W9APAHFWVLO","either","2","218","","","","","","","1","0","0","0.314600373","","0.6","0.2","0.4","0.8","","","","","0.314600373","0.28101752","0.1342686697","0.3383156657","","","","","","","","72","H","0","img/none_selected.jpg","","181","main_expt"
"","bandit","261","697380","0.0-222.0-0.0","86056383","wem/bandit_either_2","A4W9APAHFWVLO","either","2","223","","","","","","","0","1","0","","0.3943610609","0.6","0.2","0.4","0.8","0.3943610609","0.3043342224","0.1636660304","0.2902116232","","","","","","","","","","","","72","H","0","img/none_selected.jpg","","182","main_expt"
"","bandit","262","699141","0.0-223.0-0.0","86056383","wem/bandit_either_2","A4W9APAHFWVLO","either","2","240","","","","","","","0","0","1","0.3586422101","","0.6","0.2","0.4","0.8","","","","","0.3586422101","0.3192524042","0.136761637","0.3026157476","","","","","","","","72","H","0","img/none_selected.jpg","","183","main_expt"
"","bandit","263","700770","0.0-224.0-0.0","86056383","wem/bandit_either_2","A4W9APAHFWVLO","either","2","102","","","","","","","0","1","0","","0.3879999062","0.6","0.2","0.4","0.8","0.3879999062","0.3332516821","0.1685989701","0.3360229169","","","","","","","","","","","","72","H","0","img/none_selected.jpg","","184","main_expt"
"","bandit","264","702541","0.0-225.0-0.0","86056383","wem/bandit_either_2","A4W9APAHFWVLO","either","2","250","","","","","","","0","0","1","0.3831340227","","0.6","0.2","0.4","0.8","","","","","0.3831340227","0.3228184693","0.1663529744","0.3336456265","","","","","","","","72","H","0","img/none_selected.jpg","","185","main_expt"
"","bandit","265","704153","0.0-226.0-0.0","86056383","wem/bandit_either_2","A4W9APAHFWVLO","either","2","91","","","","","","","0","1","0","","0.3999004662","0.6","0.2","0.4","0.8","0.3999004662","0.3111703144","0.1916836285","0.3308881938","","","","","","","","","","","","72","H","0","img/none_selected.jpg","","186","main_expt"
"","bandit","266","705983","0.0-227.0-0.0","86056383","wem/bandit_either_2","A4W9APAHFWVLO","either","2","306","","","","","","","1","0","0","0.3875363153","","0.6","0.2","0.4","0.8","","","","","0.3875363153","0.3353611299","0.1686829448","0.325530054","","","","","","","","72","H","0","img/none_selected.jpg","","187","main_expt"
"","bandit","267","707734","0.0-228.0-0.0","86056383","wem/bandit_either_2","A4W9APAHFWVLO","either","2","230","","","","","","","0","1","0","","0.3875691392","0.6","0.2","0.4","0.8","0.3875691392","0.3646937268","0.1461675531","0.3055482451","","","","","","","","","","","","72","H","0","img/none_selected.jpg","","188","main_expt"
"","bandit","268","709494","0.0-229.0-0.0","86056383","wem/bandit_either_2","A4W9APAHFWVLO","either","2","238","","","","","","","0","0","1","","0.4166866882","0.6","0.2","0.4","0.8","0.4166866882","0.3891323825","0.1382971047","0.3002345065","","","","","","","","","","","","72","H","0","img/none_selected.jpg","","189","main_expt"
"","bandit","269","711197","0.0-230.0-0.0","86056383","wem/bandit_either_2","A4W9APAHFWVLO","either","2","182","","","","","","","0","0","1","0.3860741766","","0.6","0.2","0.4","0.8","","","","","0.4124474499","0.3860741766","0.1898135375","0.2693931213","","","","","","","","74","J","1","","","190","main_expt"
"","bandit","270","712722","0.0-231.0-0.0","86056383","wem/bandit_either_2","A4W9APAHFWVLO","either","2","3","","","","","","","0","1","0","","0.3638199534","0.6","0.2","0.4","0.8","0.3638199534","0.3864243721","0.1264917812","0.3009284261","","","","","","","","","","","","72","H","0","img/none_selected.jpg","","191","main_expt"
"","bandit","271","714499","0.0-232.0-0.0","86056383","wem/bandit_either_2","A4W9APAHFWVLO","either","2","249","","","","","","","0","1","0","","0.3711146034","0.6","0.2","0.4","0.8","0.3711146034","0.400448014","0.1185409567","0.3157917784","","","","","","","","","","","","72","H","0","img/none_selected.jpg","","192","main_expt"
"","bandit","272","716220","0.0-233.0-0.0","86056383","wem/bandit_either_2","A4W9APAHFWVLO","either","2","195","","","","","","","0","0","1","0.3654165885","","0.6","0.2","0.4","0.8","","","","","0.3654165885","0.3895367297","0.09837948322","0.2999212614","","","","","","","","72","H","0","img/none_selected.jpg","","193","main_expt"
"","bandit","273","717878","0.0-234.0-0.0","86056383","wem/bandit_either_2","A4W9APAHFWVLO","either","2","135","","","","","","","0","1","0","","0.4032313792","0.6","0.2","0.4","0.8","0.3537818584","0.4032313792","0.137690802","0.3287494418","","","","","","","","","","","","74","J","1","","","194","main_expt"
"","bandit","274","719590","0.0-235.0-0.0","86056383","wem/bandit_either_2","A4W9APAHFWVLO","either","2","190","","","","","","","0","0","1","0.337234763","","0.6","0.2","0.4","0.8","","","","","0.3597494918","0.337234763","0.1683354775","0.3031978913","","","","","","","","74","J","1","","","195","main_expt"
"","bandit","275","721278","0.0-236.0-0.0","86056383","wem/bandit_either_2","A4W9APAHFWVLO","either","2","167","","","","","","","0","0","1","0.3479121901","","0.6","0.2","0.4","0.8","","","","","0.3479121901","0.3950764453","0.1561951964","0.2901303692","","","","","","","","72","H","0","img/none_selected.jpg","","196","main_expt"
"","bandit","276","722812","0.0-237.0-0.0","86056383","wem/bandit_either_2","A4W9APAHFWVLO","either","2","12","","","","","","","0","0","1","","0.4193743727","0.6","0.2","0.4","0.8","0.3596292454","0.4193743727","0.1329868482","0.2444781728","","","","","","","","","","","","74","J","1","","","197","main_expt"
"","bandit","277","724430","0.0-238.0-0.0","86056383","wem/bandit_either_2","A4W9APAHFWVLO","either","2","94","","","","","","","0","0","1","","0.4375347816","0.6","0.2","0.4","0.8","0.3555371828","0.4375347816","0.1730826789","0.2140047665","","","","","","","","","","","","74","J","1","","","198","main_expt"
"","bandit","278","726075","0.0-239.0-0.0","86056383","wem/bandit_either_2","A4W9APAHFWVLO","either","2","122","","","","","","","1","0","0","0.4016486285","","0.6","0.2","0.4","0.8","","","","","0.4016486285","0.4315030007","0.1385649096","0.2077842613","","","","","","","","72","H","0","img/none_selected.jpg","","199","main_expt"
"","bandit","279","727782","0.0-240.0-0.0","86056383","wem/bandit_either_2","A4W9APAHFWVLO","either","2","185","","","","","","","0","0","1","0.3871107612","","0.6","0.2","0.4","0.8","","","","","0.3871107612","0.4340108373","0.1941139053","0.180488049","","","","","","","","72","H","0","img/none_selected.jpg","","200","main_expt"
"","bandit","280","729566","0.0-241.0-0.0","86056383","wem/bandit_either_2","A4W9APAHFWVLO","either","2","260","","","","","","","1","0","0","0.3856539452","","0.6","0.2","0.4","0.8","","","","","0.3856539452","0.441078118","0.1825013029","0.2084987087","","","","","","","","72","H","0","img/none_selected.jpg","","201","main_expt"
"","bandit","281","731342","0.0-242.0-0.0","86056383","wem/bandit_either_2","A4W9APAHFWVLO","either","2","253","","","","","","","0","0","1","0.358588673","","0.6","0.2","0.4","0.8","","","","","0.358588673","0.4143682719","0.162440572","0.1869669721","","","","","","","","72","H","0","img/none_selected.jpg","","202","main_expt"
"","bandit","282","733021","0.0-243.0-0.0","86056383","wem/bandit_either_2","A4W9APAHFWVLO","either","2","161","","","","","","","0","0","1","0.1383076553","","0.6","0.2","0.4","0.8","","","","","0.3460881607","0.4280720422","0.1914238456","0.1383076553","","","","","","","","76","L","3","","","203","main_expt"
"","bandit","283","734546","0.0-244.0-0.0","86056383","wem/bandit_either_2","A4W9APAHFWVLO","either","2","2","","","","","","","1","0","0","0.3091432968","","0.6","0.2","0.4","0.8","","","","","0.3091432968","0.4113524858","0.1849793247","0.1656187697","","","","","","","","72","H","0","img/none_selected.jpg","","204","main_expt"
"","bandit","284","736265","0.0-245.0-0.0","86056383","wem/bandit_either_2","A4W9APAHFWVLO","either","2","196","","","","","","","0","0","1","0.3016396897","","0.6","0.2","0.4","0.8","","","","","0.3016396897","0.4151465815","0.1722293799","0.1699285253","","","","","","","","72","H","0","img/none_selected.jpg","","205","main_expt"
"","bandit","285","737947","0.0-246.0-0.0","86056383","wem/bandit_either_2","A4W9APAHFWVLO","either","2","160","","","","","","","0","0","1","0.1625694713","","0.6","0.2","0.4","0.8","","","","","0.3300702997","0.4002359997","0.1625694713","0.161732949","","","","","","","","75","K","2","","","206","main_expt"
"","bandit","286","739511","0.0-247.0-0.0","86056383","wem/bandit_either_2","A4W9APAHFWVLO","either","2","42","","","","","","","0","0","1","0.2648848683","","0.6","0.2","0.4","0.8","","","","","0.2648848683","0.3692387261","0.1079769143","0.1699017951","","","","","","","","72","H","0","img/none_selected.jpg","","207","main_expt"
"","bandit","287","741145","0.0-248.0-0.0","86056383","wem/bandit_either_2","A4W9APAHFWVLO","either","2","111","","","","","","","1","0","0","0.3283471685","","0.6","0.2","0.4","0.8","","","","","0.2502792914","0.3283471685","0.1380178959","0.1592107695","","","","","","","","74","J","1","","","208","main_expt"
"","bandit","288","742816","0.0-249.0-0.0","86056383","wem/bandit_either_2","A4W9APAHFWVLO","either","2","147","","","","","","","0","0","1","","0.2924758898","0.6","0.2","0.4","0.8","0.2770073026","0.2924758898","0.1538506734","0.1659907122","","","","","","","","","","","","74","J","1","","","209","main_expt"
"","bandit","289","744472","0.0-250.0-0.0","86056383","wem/bandit_either_2","A4W9APAHFWVLO","either","2","137","","","","","","","0","0","1","","0.2279470939","0.6","0.2","0.4","0.8","0.3451435735","0.2279470939","0.1406222791","0.229525517","","","","","","","","","","","","74","J","1","","","210","main_expt"
"","bandit","290","746225","0.0-251.0-0.0","86056383","wem/bandit_either_2","A4W9APAHFWVLO","either","2","228","","","","","","","0","1","0","","0.3514478275","0.6","0.2","0.4","0.8","0.3514478275","0.2131844406","0.08987887408","0.2434605193","","","","","","","","","","","","72","H","0","img/none_selected.jpg","","211","main_expt"
"","bandit","291","747791","0.0-252.0-0.0","86056383","wem/bandit_either_2","A4W9APAHFWVLO","either","2","46","","","","","","","0","0","1","0.3579324364","","0.6","0.2","0.4","0.8","","","","","0.3579324364","0.1601793481","0.1277875359","0.1633214123","","","","","","","","72","H","0","img/none_selected.jpg","","212","main_expt"
"","bandit","292","749536","0.0-253.0-0.0","86056383","wem/bandit_either_2","A4W9APAHFWVLO","either","2","220","","","","","","","0","1","0","","0.1354109392","0.6","0.2","0.4","0.8","0.3231243524","0.1354109392","0.134271297","0.1014835246","","","","","","","","","","","","74","J","1","","","213","main_expt"
"","bandit","293","751118","0.0-254.0-0.0","86056383","wem/bandit_either_2","A4W9APAHFWVLO","either","2","60","","","","","","","0","0","1","","0.1142105534","0.6","0.2","0.4","0.8","0.2798540136","0.1142105534","0.1385204111","0.09587264096","","","","","","","","","","","","74","J","1","","","214","main_expt"
"","bandit","294","752832","0.0-255.0-0.0","86056383","wem/bandit_either_2","A4W9APAHFWVLO","either","2","192","","","","","","","0","0","1","0.08342689115","","0.6","0.2","0.4","0.8","","","","","0.2469391402","0.1031311673","0.1089132689","0.08342689115","","","","","","","","76","L","3","","","215","main_expt"
"","bandit","295","754464","0.0-256.0-0.0","86056383","wem/bandit_either_2","A4W9APAHFWVLO","either","2","107","","","","","","","0","0","1","0.1031732366","","0.6","0.2","0.4","0.8","","","","","0.3211823944","0.1031732366","0.1299508563","0.05361264496","","","","","","","","74","J","1","","","216","main_expt"
"","bandit","296","756064","0.0-257.0-0.0","86056383","wem/bandit_either_2","A4W9APAHFWVLO","either","2","77","","","","","","","0","0","1","0.131109262","","0.6","0.2","0.4","0.8","","","","","0.3545519007","0.1188097379","0.131109262","0.09912420903","","","","","","","","75","K","2","","","217","main_expt"
"","bandit","297","757720","0.0-258.0-0.0","86056383","wem/bandit_either_2","A4W9APAHFWVLO","either","2","134","","","","","","","0","0","1","","0.3781539282","0.6","0.2","0.4","0.8","0.3781539282","0.1096623481","0.1039495344","0.1021137889","","","","","","","","","","","","72","H","0","img/none_selected.jpg","","218","main_expt"
"","bandit","298","759279","0.0-259.0-0.0","86056383","wem/bandit_either_2","A4W9APAHFWVLO","either","2","37","","","","","","","0","0","1","","0.08679630722","0.6","0.2","0.4","0.8","0.3674409598","0.08679630722","0.09488552944","0.1025207236","","","","","","","","","","","","74","J","1","","","219","main_expt"
"","bandit","299","761224","0.0-260.0-0.0","86056383","wem/bandit_either_2","A4W9APAHFWVLO","either","2","428","","","","","","","0","0","1","0.315237632","","0.6","0.2","0.4","0.8","","","","","0.315237632","0.1482089448","0.1311925698","0.1049734862","","","","","","","","72","H","0","img/none_selected.jpg","","220","main_expt"
"","bandit","300","762872","0.0-261.0-0.0","86056383","wem/bandit_either_2","A4W9APAHFWVLO","either","2","125","","","","","","","1","0","0","0.08224132258","","0.6","0.2","0.4","0.8","","","","","0.3572442142","0.217172314","0.08224132258","0.08244295151","","","","","","","","75","K","2","","","221","main_expt"
"","bandit","301","764584","0.0-262.0-0.0","86056383","wem/bandit_either_2","A4W9APAHFWVLO","either","2","190","","","","","","","0","0","1","0.06870998364","","0.6","0.2","0.4","0.8","","","","","0.2796125419","0.2227738938","0.06870998364","0.09815111748","","","","","","","","75","K","2","","","222","main_expt"
"","bandit","302","766218","0.0-263.0-0.0","86056383","wem/bandit_either_2","A4W9APAHFWVLO","either","2","111","","","","","","","0","0","1","","0.111762886","0.6","0.2","0.4","0.8","0.2265565182","0.2768694491","0.111762886","0.09925351505","","","","","","","","","","","","75","K","2","","","223","main_expt"
"","bandit","303","768056","0.0-264.0-0.0","86056383","wem/bandit_either_2","A4W9APAHFWVLO","either","2","311","","","","","","","0","0","1","0.07842644678","","0.6","0.2","0.4","0.8","","","","","0.1727872262","0.2895694018","0.09652303785","0.07842644678","","","","","","","","76","L","3","","","224","main_expt"
"","bandit","304","769754","0.0-265.0-0.0","86056383","wem/bandit_either_2","A4W9APAHFWVLO","either","2","173","","","","","","","0","0","1","","0.3515154126","0.6","0.2","0.4","0.8","0.1580797834","0.3515154126","0.09424892582","0.05284632075","","","","","","","","","","","","74","J","1","","","225","main_expt"
"","bandit","305","771425","0.0-266.0-0.0","86056383","wem/bandit_either_2","A4W9APAHFWVLO","either","2","147","","","","","","","0","0","1","0.1094697254","","0.6","0.2","0.4","0.8","","","","","0.1206031336","0.3960872924","0.1094697254","0.06788221328","","","","","","","","75","K","2","","","226","main_expt"
"","bandit","306","773160","0.0-267.0-0.0","86056383","wem/bandit_either_2","A4W9APAHFWVLO","either","2","213","","","","","","","0","0","1","","0.1218099769","0.6","0.2","0.4","0.8","0.1218099769","0.3301105445","0.1055794081","0.04226868229","","","","","","","","","","","","72","H","0","img/none_selected.jpg","","227","main_expt"
"","bandit","307","774753","0.0-268.0-0.0","86056383","wem/bandit_either_2","A4W9APAHFWVLO","either","2","67","","","","","","","0","0","1","","0.1210232629","0.6","0.2","0.4","0.8","0.08458740206","0.3679650562","0.1210232629","0.06174471126","","","","","","","","","","","","75","K","2","","","228","main_expt"
"","bandit","308","776448","0.0-269.0-0.0","86056383","wem/bandit_either_2","A4W9APAHFWVLO","either","2","170","","","","","","","0","0","1","","0.3413725311","0.6","0.2","0.4","0.8","0.06311990622","0.3413725311","0.1249199002","0.06122033102","","","","","","","","","","","","74","J","1","","","229","main_expt"
"","bandit","309","778145","0.0-270.0-0.0","86056383","wem/bandit_either_2","A4W9APAHFWVLO","either","2","171","","","","","","","0","0","1","0.09369367087","","0.6","0.2","0.4","0.8","","","","","0.04674316758","0.3652503211","0.1423167866","0.09369367087","","","","","","","","76","L","3","","","230","main_expt"
"","bandit","310","779888","0.0-271.0-0.0","86056383","wem/bandit_either_2","A4W9APAHFWVLO","either","2","223","","","","","","","0","0","1","0.06697327866","","0.6","0.2","0.4","0.8","","","","","0.06697327866","0.3774172636","0.1441411413","0.1378364932","","","","","","","","72","H","0","img/none_selected.jpg","","231","main_expt"
"","bandit","311","781882","0.0-272.0-0.0","86056383","wem/bandit_either_2","A4W9APAHFWVLO","either","2","453","","","","","","","0","0","1","","0.1132866493","0.6","0.2","0.4","0.8","0.08617656909","0.3507397895","0.1132866493","0.1138343256","","","","","","","","","","","","75","K","2","","","232","main_expt"
"","bandit","312","783519","0.0-273.0-0.0","86056383","wem/bandit_either_2","A4W9APAHFWVLO","either","2","114","","","","","","","0","0","1","","0.3228668676","0.6","0.2","0.4","0.8","0.08388286328","0.3228668676","0.07587191469","0.1602674987","","","","","","","","","","","","74","J","1","","","233","main_expt"
"","bandit","313","785327","0.0-274.0-0.0","86056383","wem/bandit_either_2","A4W9APAHFWVLO","either","2","286","","","","","","","0","0","1","0.1399599793","","0.6","0.2","0.4","0.8","","","","","0.08303297831","0.3219168209","0.08330376307","0.1399599793","","","","","","","","76","L","3","","","234","main_expt"
"","bandit","314","787120","0.0-275.0-0.0","86056383","wem/bandit_either_2","A4W9APAHFWVLO","either","2","268","","","","","","","0","0","1","0.08228619446","","0.6","0.2","0.4","0.8","","","","","0.08228619446","0.2907257894","0.07960395758","0.1577883936","","","","","","","","72","H","0","img/none_selected.jpg","","235","main_expt"
"","bandit","315","788952","0.0-276.0-0.0","86056383","wem/bandit_either_2","A4W9APAHFWVLO","either","2","310","","","","","","","0","0","1","","0.06703487678","0.6","0.2","0.4","0.8","0.07856112713","0.2879125653","0.06703487678","0.1206463377","","","","","","","","","","","","75","K","2","","","236","main_expt"
"","bandit","316","790527","0.0-277.0-0.0","86056383","wem/bandit_either_2","A4W9APAHFWVLO","either","2","50","","","","","","","0","0","1","","0.3055933028","0.6","0.2","0.4","0.8","0.09394336493","0.3055933028","0.07970276757","0.1224948263","","","","","","","","","","","","74","J","1","","","237","main_expt"
"","bandit","317","792328","0.0-278.0-0.0","86056383","wem/bandit_either_2","A4W9APAHFWVLO","either","2","277","","","","","","","0","0","1","0.1163601633","","0.6","0.2","0.4","0.8","","","","","0.1044036833","0.3197806133","0.05589422377","0.1163601633","","","","","","","","76","L","3","","","238","main_expt"
"","bandit","318","794112","0.0-279.0-0.0","86056383","wem/bandit_either_2","A4W9APAHFWVLO","either","2","261","","","","","","","0","0","1","","0.1010835707","0.6","0.2","0.4","0.8","0.1010835707","0.2699970134","0.07304711058","0.09302868556","","","","","","","","","","","","72","H","0","img/none_selected.jpg","","239","main_expt"
"","bandit","319","795841","0.0-280.0-0.0","86056383","wem/bandit_either_2","A4W9APAHFWVLO","either","2","204","","","","","","","0","0","1","0.1196592177","","0.6","0.2","0.4","0.8","","","","","0.1196592177","0.2594796501","0.05193691484","0.1142909623","","","","","","","","72","H","0","img/none_selected.jpg","","240","main_expt"
"","bandit","320","797609","0.0-281.0-0.0","86056383","wem/bandit_either_2","A4W9APAHFWVLO","either","2","242","","","","","","","0","1","0","","0.252227353","0.6","0.2","0.4","0.8","0.127320561","0.252227353","0.06844812817","0.1694552561","","","","","","","","","","","","74","J","1","","","241","main_expt"
"","bandit","321","799235","0.0-282.0-0.0","86056383","wem/bandit_either_2","A4W9APAHFWVLO","either","2","101","","","","","","","0","0","1","","0.301231011","0.6","0.2","0.4","0.8","0.10641745","0.301231011","0.07869989264","0.1828807391","","","","","","","","","","","","74","J","1","","","242","main_expt"
"","bandit","322","800989","0.0-283.0-0.0","86056383","wem/bandit_either_2","A4W9APAHFWVLO","either","2","231","","","","","","","0","0","1","","0.2903867436","0.6","0.2","0.4","0.8","0.131785075","0.2903867436","0.06084245892","0.1236361748","","","","","","","","","","","","74","J","1","","","243","main_expt"
"","bandit","323","802691","0.0-284.0-0.0","86056383","wem/bandit_either_2","A4W9APAHFWVLO","either","2","179","","","","","","","0","0","1","0.2659167858","","0.6","0.2","0.4","0.8","","","","","0.1150513838","0.2659167858","0.04982625113","0.1131162958","","","","","","","","74","J","1","","","244","main_expt"
"","bandit","324","804284","0.0-285.0-0.0","86056383","wem/bandit_either_2","A4W9APAHFWVLO","either","2","68","","","","","","","0","0","1","","0.04708965441","0.6","0.2","0.4","0.8","0.1651966394","0.254087564","0.04708965441","0.08611006768","","","","","","","","","","","","75","K","2","","","245","main_expt"
"","bandit","325","805941","0.0-286.0-0.0","86056383","wem/bandit_either_2","A4W9APAHFWVLO","either","2","107","","","","","","","0","0","1","","0.0280961865","0.6","0.2","0.4","0.8","0.1555796254","0.2551799517","0.0280961865","0.1123216353","","","","","","","","","","","","75","K","2","","","246","main_expt"
"","bandit","326","807563","0.0-287.0-0.0","86056383","wem/bandit_either_2","A4W9APAHFWVLO","either","2","111","","","","","","","0","0","1","0.09475638668","","0.6","0.2","0.4","0.8","","","","","0.1703980626","0.2629335529","0.04499456282","0.09475638668","","","","","","","","76","L","3","","","247","main_expt"
"","bandit","327","809347","0.0-288.0-0.0","86056383","wem/bandit_either_2","A4W9APAHFWVLO","either","2","259","","","","","","","0","0","1","0.08309477664","","0.6","0.2","0.4","0.8","","","","","0.1502680902","0.2393496224","0.03910304398","0.08309477664","","","","","","","","76","L","3","","","248","main_expt"
"","bandit","328","811158","0.0-289.0-0.0","86056383","wem/bandit_either_2","A4W9APAHFWVLO","either","2","286","","","","","","","0","0","1","","0.1515252412","0.6","0.2","0.4","0.8","0.1515252412","0.2612635012","0.02658952892","0.09118761135","","","","","","","","","","","","72","H","0","img/none_selected.jpg","","249","main_expt"
