"consent","trial_type","trial_index","time_elapsed","internal_node_id","subjID","study","MID","cond","drift","rt","responses","key_press","expt_phase","like","value","connected","gems","bombs","no_reward","GemPrChosen","BombPrChosen","GainOverPainPr_0","GainOverPainPr_1","GainOverPainPr_2","GainOverPainPr_3","LosePr_0","LosePr_1","LosePr_2","LosePr_3","WinPr_0","WinPr_1","WinPr_2","WinPr_3","Q0","Q1","Q2","gender","age","ethnicity","target","respCharCode","respKey","respChoiceNum","respChoice","practice","trial_counter","trial_label"
"INL_behavioral_consent_30min_online.html","consent","0","16922","0.0-0.0","87202182","wem/bandit_either_2","A209H73TTW9F87","either","1","","","","","","","","","","","","","","","","","","","","","","","","","","","","","","","","","","","","","",""
"","survey-text","1","20803","0.0-1.0","87202182","wem/bandit_either_2","A209H73TTW9F87","either","1","2875","{""Q0"":""A209H73TTW9F87""}","","","","","","","","","","","","","","","","","","","","","","","","","","","","","","","","","","","",""
"","text","2","27455","0.0-2.0","87202182","wem/bandit_either_2","A209H73TTW9F87","either","1","5650","","32","","","","","","","","","","","","","","","","","","","","","","","","","","","","","","","","","","",""
"","text","3","31695","0.0-3.0","87202182","wem/bandit_either_2","A209H73TTW9F87","either","1","4240","","32","","","","","","","","","","","","","","","","","","","","","","","","","","","","","","","","","","",""
"","text","4","42709","0.0-4.0","87202182","wem/bandit_either_2","A209H73TTW9F87","either","1","11013","","32","","","","","","","","","","","","","","","","","","","","","","","","","","","","","","","","","","",""
"","text","5","55096","0.0-5.0","87202182","wem/bandit_either_2","A209H73TTW9F87","either","1","12385","","32","","","","","","","","","","","","","","","","","","","","","","","","","","","","","","","","","","",""
"","text","6","63781","0.0-6.0","87202182","wem/bandit_either_2","A209H73TTW9F87","either","1","8684","","32","","","","","","","","","","","","","","","","","","","","","","","","","","","","","","","","","","",""
"","text","7","68878","0.0-7.0","87202182","wem/bandit_either_2","A209H73TTW9F87","either","1","5096","","32","","","","","","","","","","","","","","","","","","","","","","","","","","","","","","","","","","",""
"","text","8","71172","0.0-8.0","87202182","wem/bandit_either_2","A209H73TTW9F87","either","1","2294","","32","","","","","","","","","","","","","","","","","","","","","","","","","","","","","","","","","","",""
"","identification","9","79215","0.0-9.0-0.0","87202182","wem/bandit_either_2","A209H73TTW9F87","either","1","8004","","","","2","3","3","","","","","","","","","","","","","","","","","","","","","","","","the village of Zur","","","","","","",""
"","identification","10","87788","0.0-9.0-1.0","87202182","wem/bandit_either_2","A209H73TTW9F87","either","1","7535","","","","3","3","2","","","","","","","","","","","","","","","","","","","","","","","","the village of Nyx","","","","","","",""
"","text","11","92537","0.0-10.0","87202182","wem/bandit_either_2","A209H73TTW9F87","either","1","3747","","32","","","","","","","","","","","","","","","","","","","","","","","","","","","","","","","","","","",""
"","text","12","94450","0.0-11.0","87202182","wem/bandit_either_2","A209H73TTW9F87","either","1","1912","","32","","","","","","","","","","","","","","","","","","","","","","","","","","","","","","","","","","",""
"","text","13","95631","0.0-12.0","87202182","wem/bandit_either_2","A209H73TTW9F87","either","1","1180","","32","","","","","","","","","","","","","","","","","","","","","","","","","","","","","","","","","","",""
"","text","14","98072","0.0-13.0","87202182","wem/bandit_either_2","A209H73TTW9F87","either","1","2441","","32","","","","","","","","","","","","","","","","","","","","","","","","","","","","","","","","","","",""
"","bandit","15","101725","0.0-14.0-0.0","87202182","wem/bandit_either_2","A209H73TTW9F87","either","1","2145","","","","","","","0","0","1","0","0","","","","","0","","","","0","","","","","","","","","","","74","J","0","img/none_selected_demo.jpg","true","0",""
"","bandit","16","104593","0.0-15.0-0.0","87202182","wem/bandit_either_2","A209H73TTW9F87","either","1","1363","","","","","","","0","0","1","0","0","","","","","0","","","","0","","","","","","","","","","","75","K","0","img/none_selected_demo.jpg","true","0",""
"","text","17","108546","0.0-16.0","87202182","wem/bandit_either_2","A209H73TTW9F87","either","1","3952","","32","","","","","","","","","","","","","","","","","","","","","","","","","","","","","","","","","","",""
"","text","18","116265","0.0-17.0","87202182","wem/bandit_either_2","A209H73TTW9F87","either","1","7717","","32","","","","","","","","","","","","","","","","","","","","","","","","","","","","","","","","","","",""
"","text","19","119583","0.0-18.0","87202182","wem/bandit_either_2","A209H73TTW9F87","either","1","3316","","32","","","","","","","","","","","","","","","","","","","","","","","","","","","","","","","","","","",""
"","text","20","121383","0.0-19.0","87202182","wem/bandit_either_2","A209H73TTW9F87","either","1","1799","","32","","","","","","","","","","","","","","","","","","","","","","","","","","","","","","","","","","",""
"","bandit","21","124157","0.0-20.0-0.0","87202182","wem/bandit_either_2","A209H73TTW9F87","either","1","1269","","","","","","","0","1","0","","0.8","0.5","0.5","","","0.8","0.2","","","","","","","","","","","","","","74","J","0","img/none_selected_demo.jpg","true","0","80_20_practice"
"","bandit","22","125766","0.0-20.0-1.0","87202182","wem/bandit_either_2","A209H73TTW9F87","either","1","105","","","","","","","0","0","1","0.2","","0.5","0.5","","","","","","","0.8","0.2","","","","","","","","","","75","K","1","","true","0","80_20_practice"
"","bandit","23","127769","0.0-20.0-2.0","87202182","wem/bandit_either_2","A209H73TTW9F87","either","1","498","","","","","","","0","0","1","","0.2","0.5","0.5","","","0.8","0.2","","","","","","","","","","","","","","75","K","1","","true","0","80_20_practice"
"","bandit","24","129771","0.0-20.0-3.0","87202182","wem/bandit_either_2","A209H73TTW9F87","either","1","498","","","","","","","1","0","0","0.8","","0.5","0.5","","","","","","","0.8","0.2","","","","","","","","","","74","J","0","img/none_selected_demo.jpg","true","0","80_20_practice"
"","bandit","25","131593","0.0-20.0-4.0","87202182","wem/bandit_either_2","A209H73TTW9F87","either","1","318","","","","","","","1","0","0","0.8","","0.5","0.5","","","","","","","0.8","0.2","","","","","","","","","","74","J","0","img/none_selected_demo.jpg","true","0","80_20_practice"
"","bandit","26","133484","0.0-20.0-5.0","87202182","wem/bandit_either_2","A209H73TTW9F87","either","1","387","","","","","","","0","1","0","","0.8","0.5","0.5","","","0.8","0.2","","","","","","","","","","","","","","74","J","0","img/none_selected_demo.jpg","true","0","80_20_practice"
"","bandit","27","135598","0.0-20.0-6.0","87202182","wem/bandit_either_2","A209H73TTW9F87","either","1","610","","","","","","","0","0","1","0.8","","0.5","0.5","","","","","","","0.8","0.2","","","","","","","","","","74","J","0","img/none_selected_demo.jpg","true","0","80_20_practice"
"","bandit","28","137736","0.0-20.0-7.0","87202182","wem/bandit_either_2","A209H73TTW9F87","either","1","634","","","","","","","0","0","1","0.8","","0.5","0.5","","","","","","","0.8","0.2","","","","","","","","","","74","J","0","img/none_selected_demo.jpg","true","0","80_20_practice"
"","bandit","29","140201","0.0-20.0-8.0","87202182","wem/bandit_either_2","A209H73TTW9F87","either","1","960","","","","","","","1","0","0","0.8","","0.5","0.5","","","","","","","0.8","0.2","","","","","","","","","","74","J","0","img/none_selected_demo.jpg","true","0","80_20_practice"
"","bandit","30","151338","0.0-20.0-9.0","87202182","wem/bandit_either_2","A209H73TTW9F87","either","1","9633","","","","","","","0","0","1","","0.8","0.5","0.5","","","0.8","0.2","","","","","","","","","","","","","","74","J","0","img/none_selected_demo.jpg","true","0","80_20_practice"
"","bandit","31","153250","0.0-20.0-10.0","87202182","wem/bandit_either_2","A209H73TTW9F87","either","1","407","","","","","","","0","0","1","","0.2","0.5","0.5","","","0.8","0.2","","","","","","","","","","","","","","75","K","1","","true","0","80_20_practice"
"","bandit","32","155186","0.0-20.0-11.0","87202182","wem/bandit_either_2","A209H73TTW9F87","either","1","431","","","","","","","0","1","0","","0.8","0.5","0.5","","","0.8","0.2","","","","","","","","","","","","","","74","J","0","img/none_selected_demo.jpg","true","0","80_20_practice"
"","bandit","33","159551","0.0-20.0-12.0","87202182","wem/bandit_either_2","A209H73TTW9F87","either","1","2861","","","","","","","1","0","0","0.8","","0.5","0.5","","","","","","","0.8","0.2","","","","","","","","","","74","J","0","img/none_selected_demo.jpg","true","0","80_20_practice"
"","bandit","34","161655","0.0-20.0-13.0","87202182","wem/bandit_either_2","A209H73TTW9F87","either","1","599","","","","","","","0","0","1","","0.8","0.5","0.5","","","0.8","0.2","","","","","","","","","","","","","","74","J","0","img/none_selected_demo.jpg","true","0","80_20_practice"
"","bandit","35","163600","0.0-20.0-14.0","87202182","wem/bandit_either_2","A209H73TTW9F87","either","1","441","","","","","","","0","1","0","","0.8","0.5","0.5","","","0.8","0.2","","","","","","","","","","","","","","74","J","0","img/none_selected_demo.jpg","true","0","80_20_practice"
"","bandit","36","165784","0.0-20.0-15.0","87202182","wem/bandit_either_2","A209H73TTW9F87","either","1","679","","","","","","","0","1","0","","0.8","0.5","0.5","","","0.8","0.2","","","","","","","","","","","","","","74","J","0","img/none_selected_demo.jpg","true","0","80_20_practice"
"","bandit","37","171601","0.0-20.0-16.0","87202182","wem/bandit_either_2","A209H73TTW9F87","either","1","4313","","","","","","","0","1","0","","0.8","0.5","0.5","","","0.8","0.2","","","","","","","","","","","","","","74","J","0","img/none_selected_demo.jpg","true","0","80_20_practice"
"","bandit","38","175099","0.0-20.0-17.0","87202182","wem/bandit_either_2","A209H73TTW9F87","either","1","1993","","","","","","","1","0","0","0.8","","0.5","0.5","","","","","","","0.8","0.2","","","","","","","","","","74","J","0","img/none_selected_demo.jpg","true","0","80_20_practice"
"","bandit","39","177023","0.0-20.0-18.0","87202182","wem/bandit_either_2","A209H73TTW9F87","either","1","420","","","","","","","1","0","0","0.8","","0.5","0.5","","","","","","","0.8","0.2","","","","","","","","","","74","J","0","img/none_selected_demo.jpg","true","0","80_20_practice"
"","bandit","40","179430","0.0-20.0-19.0","87202182","wem/bandit_either_2","A209H73TTW9F87","either","1","904","","","","","","","1","0","0","0.8","","0.5","0.5","","","","","","","0.8","0.2","","","","","","","","","","74","J","0","img/none_selected_demo.jpg","true","0","80_20_practice"
"","text","41","183576","0.0-21.0","87202182","wem/bandit_either_2","A209H73TTW9F87","either","1","4144","","32","","","","","","","","","","","","","","","","","","","","","","","","","","","","","","","","","","",""
"","bandit","42","185798","0.0-22.0-0.0","87202182","wem/bandit_either_2","A209H73TTW9F87","either","1","718","","","","","","","1","0","0","1","0","","","","","0","1","","","1","0","","","","","","","","","","74","J","0","img/none_selected_demo.jpg","true","0",""
"","text","43","188875","0.0-23.0","87202182","wem/bandit_either_2","A209H73TTW9F87","either","1","3076","","32","","","","","","","","","","","","","","","","","","","","","","","","","","","","","","","","","","",""
"","text","44","529822","0.0-24.0","87202182","wem/bandit_either_2","A209H73TTW9F87","either","1","340945","","32","","","","","","","","","","","","","","","","","","","","","","","","","","","","","","","","","","",""
"","text","45","531092","0.0-25.0","87202182","wem/bandit_either_2","A209H73TTW9F87","either","1","1268","","32","","","","","","","","","","","","","","","","","","","","","","","","","","","","","","","","","","",""
"","text","46","533061","0.0-26.0","87202182","wem/bandit_either_2","A209H73TTW9F87","either","1","1967","","32","","","","","","","","","","","","","","","","","","","","","","","","","","","","","","","","","","",""
"","text","47","538337","0.0-27.0","87202182","wem/bandit_either_2","A209H73TTW9F87","either","1","5275","","32","","","","","","","","","","","","","","","","","","","","","","","","","","","","","","","","","","",""
"","text","48","540825","0.0-28.0","87202182","wem/bandit_either_2","A209H73TTW9F87","either","1","2486","","32","","","","","","","","","","","","","","","","","","","","","","","","","","","","","","","","","","",""
"","text","49","543479","0.0-29.0","87202182","wem/bandit_either_2","A209H73TTW9F87","either","1","2653","","32","","","","","","","","","","","","","","","","","","","","","","","","","","","","","","","","","","",""
"","text","50","545324","0.0-30.0","87202182","wem/bandit_either_2","A209H73TTW9F87","either","1","1844","","32","","","","","","","","","","","","","","","","","","","","","","","","","","","","","","","","","","",""
"","text","51","557419","0.0-31.0","87202182","wem/bandit_either_2","A209H73TTW9F87","either","1","12094","","32","","","","","","","","","","","","","","","","","","","","","","","","","","","","","","","","","","",""
"","text","52","558285","0.0-32.0","87202182","wem/bandit_either_2","A209H73TTW9F87","either","1","864","","32","","","","","","","","","","","","","","","","","","","","","","","","","","","","","","","","","","",""
"","text","53","561648","0.0-33.0","87202182","wem/bandit_either_2","A209H73TTW9F87","either","1","3362","","32","","","","","","","","","","","","","","","","","","","","","","","","","","","","","","","","","","",""
"","bandit","54","563934","0.0-34.0-0.0","87202182","wem/bandit_either_2","A209H73TTW9F87","either","1","780","","","","","","","1","0","0","0.8","","0.5","0.5","0.5","0.5","","","","","0.8","0.2","0.6","0.2","","","","","","","","72","H","0","img/none_selected.jpg","true","0","full_practice"
"","bandit","55","565951","0.0-34.0-1.0","87202182","wem/bandit_either_2","A209H73TTW9F87","either","1","514","","","","","","","0","0","1","0.2","","0.5","0.5","0.5","0.5","","","","","0.8","0.2","0.6","0.2","","","","","","","","74","J","1","","true","0","full_practice"
"","bandit","56","567864","0.0-34.0-2.0","87202182","wem/bandit_either_2","A209H73TTW9F87","either","1","409","","","","","","","0","1","0","","0.6","0.5","0.5","0.5","0.5","0.8","0.2","0.6","0.2","","","","","","","","","","","","75","K","2","","true","0","full_practice"
"","bandit","57","569857","0.0-34.0-3.0","87202182","wem/bandit_either_2","A209H73TTW9F87","either","1","488","","","","","","","0","0","1","","0.2","0.5","0.5","0.5","0.5","0.8","0.2","0.6","0.2","","","","","","","","","","","","76","L","3","","true","0","full_practice"
"","bandit","58","572736","0.0-34.0-4.0","87202182","wem/bandit_either_2","A209H73TTW9F87","either","1","1374","","","","","","","0","1","0","","0.6","0.5","0.5","0.5","0.5","0.8","0.2","0.6","0.2","","","","","","","","","","","","75","K","2","","true","0","full_practice"
"","bandit","59","574717","0.0-34.0-5.0","87202182","wem/bandit_either_2","A209H73TTW9F87","either","1","476","","","","","","","0","0","1","0.8","","0.5","0.5","0.5","0.5","","","","","0.8","0.2","0.6","0.2","","","","","","","","72","H","0","img/none_selected.jpg","true","0","full_practice"
"","bandit","60","576528","0.0-34.0-6.0","87202182","wem/bandit_either_2","A209H73TTW9F87","either","1","306","","","","","","","0","0","1","0.6","","0.5","0.5","0.5","0.5","","","","","0.8","0.2","0.6","0.2","","","","","","","","75","K","2","","true","0","full_practice"
"","bandit","61","578395","0.0-34.0-7.0","87202182","wem/bandit_either_2","A209H73TTW9F87","either","1","363","","","","","","","0","0","1","0.2","","0.5","0.5","0.5","0.5","","","","","0.8","0.2","0.6","0.2","","","","","","","","74","J","1","","true","0","full_practice"
"","bandit","62","580388","0.0-34.0-8.0","87202182","wem/bandit_either_2","A209H73TTW9F87","either","1","487","","","","","","","0","1","0","","0.2","0.5","0.5","0.5","0.5","0.8","0.2","0.6","0.2","","","","","","","","","","","","76","L","3","","true","0","full_practice"
"","bandit","63","582480","0.0-34.0-9.0","87202182","wem/bandit_either_2","A209H73TTW9F87","either","1","588","","","","","","","0","0","1","","0.8","0.5","0.5","0.5","0.5","0.8","0.2","0.6","0.2","","","","","","","","","","","","72","H","0","img/none_selected.jpg","true","0","full_practice"
"","bandit","64","584460","0.0-34.0-10.0","87202182","wem/bandit_either_2","A209H73TTW9F87","either","1","473","","","","","","","0","0","1","0.2","","0.5","0.5","0.5","0.5","","","","","0.8","0.2","0.6","0.2","","","","","","","","76","L","3","","true","0","full_practice"
"","bandit","65","586350","0.0-34.0-11.0","87202182","wem/bandit_either_2","A209H73TTW9F87","either","1","384","","","","","","","1","0","0","0.8","","0.5","0.5","0.5","0.5","","","","","0.8","0.2","0.6","0.2","","","","","","","","72","H","0","img/none_selected.jpg","true","0","full_practice"
"","bandit","66","588577","0.0-34.0-12.0","87202182","wem/bandit_either_2","A209H73TTW9F87","either","1","722","","","","","","","0","0","1","","0.2","0.5","0.5","0.5","0.5","0.8","0.2","0.6","0.2","","","","","","","","","","","","74","J","1","","true","0","full_practice"
"","bandit","67","590119","0.0-34.0-13.0","87202182","wem/bandit_either_2","A209H73TTW9F87","either","1","36","","","","","","","0","1","0","","0.6","0.5","0.5","0.5","0.5","0.8","0.2","0.6","0.2","","","","","","","","","","","","75","K","2","","true","0","full_practice"
"","bandit","68","595485","0.0-34.0-14.0","87202182","wem/bandit_either_2","A209H73TTW9F87","either","1","3863","","","","","","","0","0","1","","0.2","0.5","0.5","0.5","0.5","0.8","0.2","0.6","0.2","","","","","","","","","","","","74","J","1","","true","0","full_practice"
"","bandit","69","612575","0.0-34.0-15.0","87202182","wem/bandit_either_2","A209H73TTW9F87","either","1","15585","","","","","","","1","0","0","0.2","","0.5","0.5","0.5","0.5","","","","","0.8","0.2","0.6","0.2","","","","","","","","74","J","1","","true","0","full_practice"
"","bandit","70","614409","0.0-34.0-16.0","87202182","wem/bandit_either_2","A209H73TTW9F87","either","1","328","","","","","","","0","0","1","","0.6","0.5","0.5","0.5","0.5","0.8","0.2","0.6","0.2","","","","","","","","","","","","75","K","2","","true","0","full_practice"
"","bandit","71","659964","0.0-34.0-17.0","87202182","wem/bandit_either_2","A209H73TTW9F87","either","1","44049","","","","","","","0","0","1","0.6","","0.5","0.5","0.5","0.5","","","","","0.8","0.2","0.6","0.2","","","","","","","","75","K","2","","true","0","full_practice"
"","bandit","72","661761","0.0-34.0-18.0","87202182","wem/bandit_either_2","A209H73TTW9F87","either","1","294","","","","","","","0","1","0","","0.2","0.5","0.5","0.5","0.5","0.8","0.2","0.6","0.2","","","","","","","","","","","","76","L","3","","true","0","full_practice"
"","bandit","73","663641","0.0-34.0-19.0","87202182","wem/bandit_either_2","A209H73TTW9F87","either","1","374","","","","","","","1","0","0","0.8","","0.5","0.5","0.5","0.5","","","","","0.8","0.2","0.6","0.2","","","","","","","","72","H","0","img/none_selected.jpg","true","0","full_practice"
"","text","74","666492","0.0-35.0","87202182","wem/bandit_either_2","A209H73TTW9F87","either","1","2847","","32","","","","","","","","","","","","","","","","","","","","","","","","","","","","","","","","","","",""
"","text","75","697330","0.0-36.0","87202182","wem/bandit_either_2","A209H73TTW9F87","either","1","29837","","32","","","","","","","","","","","","","","","","","","","","","","","","","","","","","","","","","","",""
"","text","76","707355","0.0-37.0","87202182","wem/bandit_either_2","A209H73TTW9F87","either","1","10022","","32","","","","","","","","","","","","","","","","","","","","","","","","","","","","","","","","","","",""
"","text","77","709863","0.0-38.0","87202182","wem/bandit_either_2","A209H73TTW9F87","either","1","2506","","32","","","","","","","","","","","","","","","","","","","","","","","","","","","","","","","","","","",""
"","text","78","749544","0.0-39.0","87202182","wem/bandit_either_2","A209H73TTW9F87","either","1","39679","","32","","","","","","","","","","","","","","","","","","","","","","","","","","","","","","","","","","",""
"","text","79","781811","0.0-40.0","87202182","wem/bandit_either_2","A209H73TTW9F87","either","1","32264","","32","","","","","","","","","","","","","","","","","","","","","","","","","","","","","","","","","","",""
"","bandit","80","784426","0.0-41.0-0.0","87202182","wem/bandit_either_2","A209H73TTW9F87","either","1","1110","","","","","","","1","0","0","0.4269289603","","0.4","0.8","0.6","0.2","","","","","0.4269289603","0.02943109976","0.3592836462","0.0798457429","","","","","","","","72","H","0","img/none_selected.jpg","","1","main_expt"
"","bandit","81","786474","0.0-42.0-0.0","87202182","wem/bandit_either_2","A209H73TTW9F87","either","1","543","","","","","","","0","1","0","","0.4660243271","0.4","0.8","0.6","0.2","0.4660243271","0.06336112212","0.3454903542","0.07621336767","","","","","","","","","","","","72","H","0","img/none_selected.jpg","","2","main_expt"
"","bandit","82","788341","0.0-43.0-0.0","87202182","wem/bandit_either_2","A209H73TTW9F87","either","1","360","","","","","","","0","0","1","0.4738503749","","0.4","0.8","0.6","0.2","","","","","0.4738503749","0.07335687118","0.2941512374","0.07476295528","","","","","","","","72","H","0","img/none_selected.jpg","","3","main_expt"
"","bandit","83","790276","0.0-44.0-0.0","87202182","wem/bandit_either_2","A209H73TTW9F87","either","1","432","","","","","","","0","0","1","","0.4618500418","0.4","0.8","0.6","0.2","0.4618500418","0.06156305515","0.2851241965","0.06526985361","","","","","","","","","","","","72","H","0","img/none_selected.jpg","","4","main_expt"
"","bandit","84","792109","0.0-45.0-0.0","87202182","wem/bandit_either_2","A209H73TTW9F87","either","1","329","","","","","","","0","0","1","0.4488935273","","0.4","0.8","0.6","0.2","","","","","0.4488935273","0.08141194251","0.3172925843","0.05487735528","","","","","","","","72","H","0","img/none_selected.jpg","","5","main_expt"
"","bandit","85","794045","0.0-46.0-0.0","87202182","wem/bandit_either_2","A209H73TTW9F87","either","1","431","","","","","","","1","0","0","0.1104821702","","0.4","0.8","0.6","0.2","","","","","0.4437832297","0.1104821702","0.3319153021","0.04340015571","","","","","","","","74","J","1","","","6","main_expt"
"","bandit","86","795890","0.0-47.0-0.0","87202182","wem/bandit_either_2","A209H73TTW9F87","either","1","339","","","","","","","0","0","1","0.1191408541","","0.4","0.8","0.6","0.2","","","","","0.4310077805","0.1191408541","0.3553039772","0.04575060371","","","","","","","","74","J","1","","","7","main_expt"
"","bandit","87","797780","0.0-48.0-0.0","87202182","wem/bandit_either_2","A209H73TTW9F87","either","1","385","","","","","","","1","0","0","0.1517570037","","0.4","0.8","0.6","0.2","","","","","0.4480386191","0.1517570037","0.3868093767","0.06112087539","","","","","","","","74","J","1","","","8","main_expt"
"","bandit","88","799625","0.0-49.0-0.0","87202182","wem/bandit_either_2","A209H73TTW9F87","either","1","340","","","","","","","1","0","0","0.1738087075","","0.4","0.8","0.6","0.2","","","","","0.4460224538","0.1738087075","0.3754406694","0.07854191076","","","","","","","","74","J","1","","","9","main_expt"
"","bandit","89","801481","0.0-50.0-0.0","87202182","wem/bandit_either_2","A209H73TTW9F87","either","1","350","","","","","","","0","0","1","0.2033535465","","0.4","0.8","0.6","0.2","","","","","0.3954493452","0.2033535465","0.3537433427","0.06865483858","","","","","","","","74","J","1","","","10","main_expt"
"","bandit","90","803551","0.0-51.0-0.0","87202182","wem/bandit_either_2","A209H73TTW9F87","either","1","565","","","","","","","1","0","0","0.3793358735","","0.4","0.8","0.6","0.2","","","","","0.4064238371","0.1751631116","0.3793358735","0.05083805298","","","","","","","","75","K","2","","","11","main_expt"
"","bandit","91","805397","0.0-52.0-0.0","87202182","wem/bandit_either_2","A209H73TTW9F87","either","1","341","","","","","","","0","0","1","","0.3800428212","0.4","0.8","0.6","0.2","0.3800839449","0.1787487179","0.3800428212","0.1038792476","","","","","","","","","","","","75","K","2","","","12","main_expt"
"","bandit","92","807354","0.0-53.0-0.0","87202182","wem/bandit_either_2","A209H73TTW9F87","either","1","452","","","","","","","0","0","1","","0.3647981021","0.4","0.8","0.6","0.2","0.3866628193","0.1794712961","0.3647981021","0.1197284353","","","","","","","","","","","","75","K","2","","","13","main_expt"
"","bandit","93","809345","0.0-54.0-0.0","87202182","wem/bandit_either_2","A209H73TTW9F87","either","1","486","","","","","","","0","0","1","0.135681701","","0.4","0.8","0.6","0.2","","","","","0.326509825","0.2482140722","0.3646471907","0.135681701","","","","","","","","76","L","3","","","14","main_expt"
"","bandit","94","811786","0.0-55.0-0.0","87202182","wem/bandit_either_2","A209H73TTW9F87","either","1","936","","","","","","","0","0","1","0.2428529647","","0.4","0.8","0.6","0.2","","","","","0.2428529647","0.2859415589","0.3549291363","0.125153919","","","","","","","","72","H","0","img/none_selected.jpg","","15","main_expt"
"","bandit","95","813565","0.0-56.0-0.0","87202182","wem/bandit_either_2","A209H73TTW9F87","either","1","273","","","","","","","0","0","1","","0.26587149","0.4","0.8","0.6","0.2","0.2332962783","0.26587149","0.3727350689","0.1096891688","","","","","","","","","","","","74","J","1","","","16","main_expt"
"","bandit","96","815422","0.0-57.0-0.0","87202182","wem/bandit_either_2","A209H73TTW9F87","either","1","352","","","","","","","0","0","1","","0.2776265896","0.4","0.8","0.6","0.2","0.2271032234","0.2776265896","0.3112083829","0.1051581447","","","","","","","","","","","","74","J","1","","","17","main_expt"
"","bandit","97","817378","0.0-58.0-0.0","87202182","wem/bandit_either_2","A209H73TTW9F87","either","1","450","","","","","","","0","0","1","","0.1701710303","0.4","0.8","0.6","0.2","0.1701710303","0.3223387563","0.2403081055","0.1437943492","","","","","","","","","","","","72","H","0","img/none_selected.jpg","","18","main_expt"
"","bandit","98","819358","0.0-59.0-0.0","87202182","wem/bandit_either_2","A209H73TTW9F87","either","1","475","","","","","","","0","0","1","0.2377482675","","0.4","0.8","0.6","0.2","","","","","0.2070198111","0.3192918255","0.2377482675","0.1405615485","","","","","","","","75","K","2","","","19","main_expt"
"","bandit","99","821192","0.0-60.0-0.0","87202182","wem/bandit_either_2","A209H73TTW9F87","either","1","328","","","","","","","0","0","1","0.1063334751","","0.4","0.8","0.6","0.2","","","","","0.2412547966","0.2739159796","0.2607530295","0.1063334751","","","","","","","","76","L","3","","","20","main_expt"
"","bandit","100","822947","0.0-61.0-0.0","87202182","wem/bandit_either_2","A209H73TTW9F87","either","1","250","","","","","","","0","0","1","","0.07848250716","0.4","0.8","0.6","0.2","0.2184758186","0.2454385858","0.2919400674","0.07848250716","","","","","","","","","","","","76","L","3","","","21","main_expt"
"","bandit","101","824793","0.0-62.0-0.0","87202182","wem/bandit_either_2","A209H73TTW9F87","either","1","340","","","","","","","0","0","1","","0.1005082742","0.4","0.8","0.6","0.2","0.1849325376","0.2340842041","0.2995681058","0.1005082742","","","","","","","","","","","","76","L","3","","","22","main_expt"
"","bandit","102","827224","0.0-63.0-0.0","87202182","wem/bandit_either_2","A209H73TTW9F87","either","1","925","","","","","","","0","0","1","","0.0792694407","0.4","0.8","0.6","0.2","0.1521197653","0.1840173947","0.292554742","0.0792694407","","","","","","","","","","","","76","L","3","","","23","main_expt"
"","bandit","103","829360","0.0-64.0-0.0","87202182","wem/bandit_either_2","A209H73TTW9F87","either","1","630","","","","","","","0","0","1","0.1745529383","","0.4","0.8","0.6","0.2","","","","","0.1759403195","0.1745529383","0.3616894364","0.07358699385","","","","","","","","74","J","1","","","24","main_expt"
"","bandit","104","831127","0.0-65.0-0.0","87202182","wem/bandit_either_2","A209H73TTW9F87","either","1","261","","","","","","","0","0","1","0.3575757263","","0.4","0.8","0.6","0.2","","","","","0.09479311865","0.1756582033","0.3575757263","0.142208116","","","","","","","","75","K","2","","","25","main_expt"
"","bandit","105","833230","0.0-66.0-0.0","87202182","wem/bandit_either_2","A209H73TTW9F87","either","1","597","","","","","","","0","0","1","","0.3635346368","0.4","0.8","0.6","0.2","0.08156123497","0.2086365416","0.3635346368","0.1245113583","","","","","","","","","","","","75","K","2","","","26","main_expt"
"","bandit","106","834929","0.0-67.0-0.0","87202182","wem/bandit_either_2","A209H73TTW9F87","either","1","194","","","","","","","0","0","1","","0.1102307873","0.4","0.8","0.6","0.2","0.1102307873","0.2139763749","0.4109801844","0.118364605","","","","","","","","","","","","72","H","0","img/none_selected.jpg","","27","main_expt"
"","bandit","107","836493","0.0-68.0-0.0","87202182","wem/bandit_either_2","A209H73TTW9F87","either","1","59","","","","","","","0","0","1","0.08274430796","","0.4","0.8","0.6","0.2","","","","","0.08274430796","0.1613483267","0.3772962545","0.1105930361","","","","","","","","72","H","0","img/none_selected.jpg","","28","main_expt"
"","bandit","108","838518","0.0-69.0-0.0","87202182","wem/bandit_either_2","A209H73TTW9F87","either","1","521","","","","","","","0","0","1","0.1086911099","","0.4","0.8","0.6","0.2","","","","","0.1086911099","0.1712488152","0.3875745016","0.1118713044","","","","","","","","72","H","0","img/none_selected.jpg","","29","main_expt"
"","bandit","109","840476","0.0-70.0-0.0","87202182","wem/bandit_either_2","A209H73TTW9F87","either","1","452","","","","","","","0","0","1","","0.1116575632","0.4","0.8","0.6","0.2","0.1116575632","0.1675524316","0.3780019893","0.1914750456","","","","","","","","","","","","72","H","0","img/none_selected.jpg","","30","main_expt"
"","bandit","110","842411","0.0-71.0-0.0","87202182","wem/bandit_either_2","A209H73TTW9F87","either","1","430","","","","","","","0","1","0","","0.2367730164","0.4","0.8","0.6","0.2","0.07828091442","0.140325158","0.416860241","0.2367730164","","","","","","","","","","","","76","L","3","","","31","main_expt"
"","bandit","111","844560","0.0-72.0-0.0","87202182","wem/bandit_either_2","A209H73TTW9F87","either","1","643","","","","","","","0","0","1","","0.2109574779","0.4","0.8","0.6","0.2","0.07550395781","0.1553940025","0.4242573056","0.2109574779","","","","","","","","","","","","76","L","3","","","32","main_expt"
"","bandit","112","849555","0.0-73.0-0.0","87202182","wem/bandit_either_2","A209H73TTW9F87","either","1","3490","","","","","","","0","0","1","","0.2005542758","0.4","0.8","0.6","0.2","0.1445529326","0.1925614924","0.4185546122","0.2005542758","","","","","","","","","","","","76","L","3","","","33","main_expt"
"","bandit","113","852389","0.0-74.0-0.0","87202182","wem/bandit_either_2","A209H73TTW9F87","either","1","1328","","","","","","","0","1","0","","0.180377021","0.4","0.8","0.6","0.2","0.1091775744","0.2150530123","0.4268308419","0.180377021","","","","","","","","","","","","76","L","3","","","34","main_expt"
"","bandit","114","855000","0.0-75.0-0.0","87202182","wem/bandit_either_2","A209H73TTW9F87","either","1","1105","","","","","","","0","1","0","","0.2111187229","0.4","0.8","0.6","0.2","0.1297995116","0.2688968874","0.4265642185","0.2111187229","","","","","","","","","","","","76","L","3","","","35","main_expt"
"","bandit","115","858465","0.0-76.0-0.0","87202182","wem/bandit_either_2","A209H73TTW9F87","either","1","1960","","","","","","","0","0","1","","0.2119332756","0.4","0.8","0.6","0.2","0.09468550628","0.2977459964","0.4066287969","0.2119332756","","","","","","","","","","","","76","L","3","","","36","main_expt"
"","bandit","116","860086","0.0-77.0-0.0","87202182","wem/bandit_either_2","A209H73TTW9F87","either","1","116","","","","","","","0","0","1","0.2256131965","","0.4","0.8","0.6","0.2","","","","","0.09396978408","0.2684429955","0.4611471687","0.2256131965","","","","","","","","76","L","3","","","37","main_expt"
"","bandit","117","862043","0.0-78.0-0.0","87202182","wem/bandit_either_2","A209H73TTW9F87","either","1","451","","","","","","","0","0","1","0.2490186117","","0.4","0.8","0.6","0.2","","","","","0.1062257399","0.2490186117","0.4482708269","0.1975147253","","","","","","","","74","J","1","","","38","main_expt"
"","bandit","118","863876","0.0-79.0-0.0","87202182","wem/bandit_either_2","A209H73TTW9F87","either","1","329","","","","","","","0","0","1","","0.4402774387","0.4","0.8","0.6","0.2","0.09676453159","0.2548033483","0.4402774387","0.1595648847","","","","","","","","","","","","75","K","2","","","39","main_expt"
"","bandit","119","865475","0.0-80.0-0.0","87202182","wem/bandit_either_2","A209H73TTW9F87","either","1","92","","","","","","","0","0","1","0.4385128538","","0.4","0.8","0.6","0.2","","","","","0.08197179495","0.2688720753","0.4385128538","0.1626610004","","","","","","","","75","K","2","","","40","main_expt"
"","bandit","120","867545","0.0-81.0-0.0","87202182","wem/bandit_either_2","A209H73TTW9F87","either","1","564","","","","","","","0","1","0","","0.4380640779","0.4","0.8","0.6","0.2","0.14416382","0.297778532","0.4380640779","0.1982402655","","","","","","","","","","","","75","K","2","","","41","main_expt"
"","bandit","121","869941","0.0-82.0-0.0","87202182","wem/bandit_either_2","A209H73TTW9F87","either","1","890","","","","","","","0","0","1","0.4265224768","","0.4","0.8","0.6","0.2","","","","","0.1070927036","0.2449207522","0.4265224768","0.1863610343","","","","","","","","75","K","2","","","42","main_expt"
"","bandit","122","871831","0.0-83.0-0.0","87202182","wem/bandit_either_2","A209H73TTW9F87","either","1","385","","","","","","","1","0","0","0.2457567503","","0.4","0.8","0.6","0.2","","","","","0.1214526226","0.2457567503","0.435880106","0.2418389683","","","","","","","","74","J","1","","","43","main_expt"
"","bandit","123","874116","0.0-84.0-0.0","87202182","wem/bandit_either_2","A209H73TTW9F87","either","1","778","","","","","","","0","0","1","0.2432732657","","0.4","0.8","0.6","0.2","","","","","0.1450738833","0.2432732657","0.4450576882","0.1943491227","","","","","","","","74","J","1","","","44","main_expt"
"","bandit","124","876252","0.0-85.0-0.0","87202182","wem/bandit_either_2","A209H73TTW9F87","either","1","631","","","","","","","0","0","1","0.2656772236","","0.4","0.8","0.6","0.2","","","","","0.09632230927","0.2656772236","0.4382030275","0.1543250971","","","","","","","","74","J","1","","","45","main_expt"
"","bandit","125","878097","0.0-86.0-0.0","87202182","wem/bandit_either_2","A209H73TTW9F87","either","1","340","","","","","","","1","0","0","0.2432112423","","0.4","0.8","0.6","0.2","","","","","0.103211431","0.2432112423","0.4412369426","0.09719433791","","","","","","","","74","J","1","","","46","main_expt"
"","bandit","126","880032","0.0-87.0-0.0","87202182","wem/bandit_either_2","A209H73TTW9F87","either","1","429","","","","","","","0","0","1","0.2992745976","","0.4","0.8","0.6","0.2","","","","","0.09916324924","0.2992745976","0.4588863431","0.1228880329","","","","","","","","74","J","1","","","47","main_expt"
"","bandit","127","881596","0.0-88.0-0.0","87202182","wem/bandit_either_2","A209H73TTW9F87","either","1","58","","","","","","","0","0","1","0.1090242341","","0.4","0.8","0.6","0.2","","","","","0.1090242341","0.2594611615","0.4408788818","0.1068532567","","","","","","","","72","H","0","img/none_selected.jpg","","48","main_expt"
"","bandit","128","883520","0.0-89.0-0.0","87202182","wem/bandit_either_2","A209H73TTW9F87","either","1","418","","","","","","","0","0","1","","0.1265186769","0.4","0.8","0.6","0.2","0.1265186769","0.2767916858","0.4232064109","0.1044048509","","","","","","","","","","","","72","H","0","img/none_selected.jpg","","49","main_expt"
"","bandit","129","885152","0.0-90.0-0.0","87202182","wem/bandit_either_2","A209H73TTW9F87","either","1","126","","","","","","","0","0","1","","0.1397440907","0.4","0.8","0.6","0.2","0.1397440907","0.2762534014","0.4210883962","0.1072026782","","","","","","","","","","","","72","H","0","img/none_selected.jpg","","50","main_expt"
"","bandit","130","887627","0.0-91.0-0.0","87202182","wem/bandit_either_2","A209H73TTW9F87","either","1","969","","","","","","","1","0","0","0.153600331","","0.4","0.8","0.6","0.2","","","","","0.153600331","0.3379376541","0.4225635581","0.1287882573","","","","","","","","72","H","0","img/none_selected.jpg","","51","main_expt"
"","bandit","131","891306","0.0-92.0-0.0","87202182","wem/bandit_either_2","A209H73TTW9F87","either","1","2173","","","","","","","0","0","1","","0.1298059469","0.4","0.8","0.6","0.2","0.1718407591","0.3395267946","0.4146237098","0.1298059469","","","","","","","","","","","","76","L","3","","","52","main_expt"
"","bandit","132","893151","0.0-93.0-0.0","87202182","wem/bandit_either_2","A209H73TTW9F87","either","1","339","","","","","","","0","1","0","","0.07423060895","0.4","0.8","0.6","0.2","0.1945727614","0.29674647","0.3763623321","0.07423060895","","","","","","","","","","","","76","L","3","","","53","main_expt"
"","bandit","133","895839","0.0-94.0-0.0","87202182","wem/bandit_either_2","A209H73TTW9F87","either","1","1183","","","","","","","0","1","0","","0.08562383645","0.4","0.8","0.6","0.2","0.2450542523","0.3372955831","0.3289081181","0.08562383645","","","","","","","","","","","","76","L","3","","","54","main_expt"
"","bandit","134","897909","0.0-95.0-0.0","87202182","wem/bandit_either_2","A209H73TTW9F87","either","1","564","","","","","","","0","0","1","","0.0757818623","0.4","0.8","0.6","0.2","0.2547241938","0.3506099842","0.3025984711","0.0757818623","","","","","","","","","","","","76","L","3","","","55","main_expt"
"","bandit","135","900025","0.0-96.0-0.0","87202182","wem/bandit_either_2","A209H73TTW9F87","either","1","610","","","","","","","0","0","1","","0.09897923035","0.4","0.8","0.6","0.2","0.2595112895","0.3418029788","0.2921333137","0.09897923035","","","","","","","","","","","","76","L","3","","","56","main_expt"
"","bandit","136","901959","0.0-97.0-0.0","87202182","wem/bandit_either_2","A209H73TTW9F87","either","1","427","","","","","","","0","0","1","0.1160875525","","0.4","0.8","0.6","0.2","","","","","0.2610276213","0.3162475816","0.3317177772","0.1160875525","","","","","","","","76","L","3","","","57","main_expt"
"","bandit","137","903884","0.0-98.0-0.0","87202182","wem/bandit_either_2","A209H73TTW9F87","either","1","419","","","","","","","0","0","1","","0.1134641846","0.4","0.8","0.6","0.2","0.2354201416","0.3269881105","0.3240244649","0.1134641846","","","","","","","","","","","","76","L","3","","","58","main_expt"
"","bandit","138","905480","0.0-99.0-0.0","87202182","wem/bandit_either_2","A209H73TTW9F87","either","1","91","","","","","","","0","1","0","","0.2988076671","0.4","0.8","0.6","0.2","0.2346370837","0.2901324944","0.2988076671","0.1177083384","","","","","","","","","","","","75","K","2","","","59","main_expt"
"","bandit","139","907179","0.0-100.0-0.0","87202182","wem/bandit_either_2","A209H73TTW9F87","either","1","193","","","","","","","0","0","1","0.3096792726","","0.4","0.8","0.6","0.2","","","","","0.2315637733","0.289588464","0.3096792726","0.1125723432","","","","","","","","75","K","2","","","60","main_expt"
"","bandit","140","919163","0.0-101.0-0.0","87202182","wem/bandit_either_2","A209H73TTW9F87","either","1","10478","","","","","","","0","0","1","0.2821336973","","0.4","0.8","0.6","0.2","","","","","0.2599537756","0.2782845563","0.2821336973","0.09911093426","","","","","","","","75","K","2","","","61","main_expt"
"","bandit","141","921007","0.0-102.0-0.0","87202182","wem/bandit_either_2","A209H73TTW9F87","either","1","337","","","","","","","0","0","1","0.2414244345","","0.4","0.8","0.6","0.2","","","","","0.2594941563","0.3165490401","0.2414244345","0.09440438105","","","","","","","","75","K","2","","","62","main_expt"
"","bandit","142","922785","0.0-103.0-0.0","87202182","wem/bandit_either_2","A209H73TTW9F87","either","1","271","","","","","","","0","0","1","0.3034564924","","0.4","0.8","0.6","0.2","","","","","0.2660839385","0.3034564924","0.213639373","0.1015409351","","","","","","","","74","J","1","","","63","main_expt"
"","bandit","143","924494","0.0-104.0-0.0","87202182","wem/bandit_either_2","A209H73TTW9F87","either","1","204","","","","","","","0","0","1","","0.2506654962","0.4","0.8","0.6","0.2","0.2426585031","0.2506654962","0.1876308072","0.07049798599","","","","","","","","","","","","74","J","1","","","64","main_expt"
"","bandit","144","926350","0.0-105.0-0.0","87202182","wem/bandit_either_2","A209H73TTW9F87","either","1","350","","","","","","","0","0","1","0.253414466","","0.4","0.8","0.6","0.2","","","","","0.2581047566","0.253414466","0.1841803182","0.05735603507","","","","","","","","74","J","1","","","65","main_expt"
"","bandit","145","928038","0.0-106.0-0.0","87202182","wem/bandit_either_2","A209H73TTW9F87","either","1","182","","","","","","","1","0","0","0.2872127433","","0.4","0.8","0.6","0.2","","","","","0.2872127433","0.2836500186","0.187417598","0.0621258055","","","","","","","","72","H","0","img/none_selected.jpg","","66","main_expt"
"","bandit","146","929985","0.0-107.0-0.0","87202182","wem/bandit_either_2","A209H73TTW9F87","either","1","441","","","","","","","0","0","1","","0.3232337643","0.4","0.8","0.6","0.2","0.3232337643","0.3217852231","0.1395950637","0.06966106928","","","","","","","","","","","","72","H","0","img/none_selected.jpg","","67","main_expt"
"","bandit","147","931942","0.0-108.0-0.0","87202182","wem/bandit_either_2","A209H73TTW9F87","either","1","451","","","","","","","0","0","1","","0.3376006622","0.4","0.8","0.6","0.2","0.3376006622","0.3574581916","0.1363519197","0.09965709916","","","","","","","","","","","","72","H","0","img/none_selected.jpg","","68","main_expt"
"","bandit","148","933911","0.0-109.0-0.0","87202182","wem/bandit_either_2","A209H73TTW9F87","either","1","463","","","","","","","0","0","1","0.1117144852","","0.4","0.8","0.6","0.2","","","","","0.2917609244","0.3884563005","0.1117144852","0.1428217854","","","","","","","","75","K","2","","","69","main_expt"
"","bandit","149","935824","0.0-110.0-0.0","87202182","wem/bandit_either_2","A209H73TTW9F87","either","1","405","","","","","","","0","0","1","","0.1866845388","0.4","0.8","0.6","0.2","0.2218665627","0.3920047773","0.09667493602","0.1866845388","","","","","","","","","","","","76","L","3","","","70","main_expt"
"","bandit","150","937636","0.0-111.0-0.0","87202182","wem/bandit_either_2","A209H73TTW9F87","either","1","306","","","","","","","0","0","1","","0.1702545286","0.4","0.8","0.6","0.2","0.2409383839","0.4066376731","0.09186933139","0.1702545286","","","","","","","","","","","","76","L","3","","","71","main_expt"
"","bandit","151","940044","0.0-112.0-0.0","87202182","wem/bandit_either_2","A209H73TTW9F87","either","1","902","","","","","","","0","0","1","","0.1836279043","0.4","0.8","0.6","0.2","0.1920783453","0.3443789926","0.09472009463","0.1836279043","","","","","","","","","","","","76","L","3","","","72","main_expt"
"","bandit","152","941854","0.0-113.0-0.0","87202182","wem/bandit_either_2","A209H73TTW9F87","either","1","303","","","","","","","0","0","1","","0.1644348242","0.4","0.8","0.6","0.2","0.1905254877","0.3227553012","0.1167805336","0.1644348242","","","","","","","","","","","","76","L","3","","","73","main_expt"
"","bandit","153","943451","0.0-114.0-0.0","87202182","wem/bandit_either_2","A209H73TTW9F87","either","1","92","","","","","","","0","0","1","0.1465151254","","0.4","0.8","0.6","0.2","","","","","0.184198213","0.3336652139","0.1465151254","0.1833421201","","","","","","","","75","K","2","","","74","main_expt"
"","bandit","154","945228","0.0-115.0-0.0","87202182","wem/bandit_either_2","A209H73TTW9F87","either","1","272","","","","","","","0","0","1","0.123285719","","0.4","0.8","0.6","0.2","","","","","0.1881920243","0.2890150868","0.123285719","0.1519653276","","","","","","","","75","K","2","","","75","main_expt"
"","bandit","155","947018","0.0-116.0-0.0","87202182","wem/bandit_either_2","A209H73TTW9F87","either","1","283","","","","","","","0","0","1","","0.1392606081","0.4","0.8","0.6","0.2","0.1988930589","0.2673490463","0.1392606081","0.1506622639","","","","","","","","","","","","75","K","2","","","76","main_expt"
"","bandit","156","948648","0.0-117.0-0.0","87202182","wem/bandit_either_2","A209H73TTW9F87","either","1","125","","","","","","","0","0","1","0.099337717","","0.4","0.8","0.6","0.2","","","","","0.2255968657","0.2858541315","0.099337717","0.1860897766","","","","","","","","75","K","2","","","77","main_expt"
"","bandit","157","950427","0.0-118.0-0.0","87202182","wem/bandit_either_2","A209H73TTW9F87","either","1","273","","","","","","","0","0","1","","0.2639968829","0.4","0.8","0.6","0.2","0.1917014014","0.2639968829","0.09666605973","0.1618556875","","","","","","","","","","","","74","J","1","","","78","main_expt"
"","bandit","158","952350","0.0-119.0-0.0","87202182","wem/bandit_either_2","A209H73TTW9F87","either","1","417","","","","","","","0","0","1","0.2304888896","","0.4","0.8","0.6","0.2","","","","","0.2092129429","0.2304888896","0.09639353985","0.1976853889","","","","","","","","74","J","1","","","79","main_expt"
"","bandit","159","954240","0.0-120.0-0.0","87202182","wem/bandit_either_2","A209H73TTW9F87","either","1","385","","","","","","","0","0","1","0.1991809665","","0.4","0.8","0.6","0.2","","","","","0.1974306726","0.1991809665","0.09566996791","0.2198838985","","","","","","","","74","J","1","","","80","main_expt"
"","bandit","160","955760","0.0-121.0-0.0","87202182","wem/bandit_either_2","A209H73TTW9F87","either","1","15","","","","","","","0","0","1","0.1627434897","","0.4","0.8","0.6","0.2","","","","","0.1414754506","0.1627434897","0.07958501382","0.2167005254","","","","","","","","74","J","1","","","81","main_expt"
"","bandit","161","957672","0.0-122.0-0.0","87202182","wem/bandit_either_2","A209H73TTW9F87","either","1","405","","","","","","","0","0","1","","0.1422587364","0.4","0.8","0.6","0.2","0.1422587364","0.1624637972","0.08833774835","0.2527486409","","","","","","","","","","","","72","H","0","img/none_selected.jpg","","82","main_expt"
"","bandit","162","959597","0.0-123.0-0.0","87202182","wem/bandit_either_2","A209H73TTW9F87","either","1","418","","","","","","","0","0","1","0.1079415531","","0.4","0.8","0.6","0.2","","","","","0.1079415531","0.1900332","0.09109006352","0.2569721607","","","","","","","","72","H","0","img/none_selected.jpg","","83","main_expt"
"","bandit","163","961116","0.0-124.0-0.0","87202182","wem/bandit_either_2","A209H73TTW9F87","either","1","13","","","","","","","0","0","1","","0.07696487024","0.4","0.8","0.6","0.2","0.07696487024","0.1705646391","0.05321730921","0.2535394321","","","","","","","","","","","","72","H","0","img/none_selected.jpg","","84","main_expt"
"","bandit","164","963241","0.0-125.0-0.0","87202182","wem/bandit_either_2","A209H73TTW9F87","either","1","618","","","","","","","0","0","1","","0.2255799186","0.4","0.8","0.6","0.2","0.08313016423","0.2053302659","0.03321009489","0.2255799186","","","","","","","","","","","","76","L","3","","","85","main_expt"
"","bandit","165","964861","0.0-126.0-0.0","87202182","wem/bandit_either_2","A209H73TTW9F87","either","1","114","","","","","","","0","0","1","","0.2197080914","0.4","0.8","0.6","0.2","0.102083396","0.2128685413","0.04864990798","0.2197080914","","","","","","","","","","","","76","L","3","","","86","main_expt"
"","bandit","166","966538","0.0-127.0-0.0","87202182","wem/bandit_either_2","A209H73TTW9F87","either","1","170","","","","","","","0","0","1","","0.2230338057","0.4","0.8","0.6","0.2","0.09067070718","0.213778815","0.07919268752","0.2230338057","","","","","","","","","","","","76","L","3","","","87","main_expt"
"","bandit","167","968338","0.0-128.0-0.0","87202182","wem/bandit_either_2","A209H73TTW9F87","either","1","293","","","","","","","0","0","1","","0.2484269739","0.4","0.8","0.6","0.2","0.1421970704","0.2102340809","0.05835116993","0.2484269739","","","","","","","","","","","","76","L","3","","","88","main_expt"
"","bandit","168","969902","0.0-129.0-0.0","87202182","wem/bandit_either_2","A209H73TTW9F87","either","1","56","","","","","","","0","0","1","","0.05115519592","0.4","0.8","0.6","0.2","0.219142046","0.1809358483","0.05115519592","0.2733562597","","","","","","","","","","","","75","K","2","","","89","main_expt"
"","bandit","169","971779","0.0-130.0-0.0","87202182","wem/bandit_either_2","A209H73TTW9F87","either","1","372","","","","","","","0","0","1","","0.07819273649","0.4","0.8","0.6","0.2","0.2806923657","0.1293356972","0.07819273649","0.2973868449","","","","","","","","","","","","75","K","2","","","90","main_expt"
"","bandit","170","973580","0.0-131.0-0.0","87202182","wem/bandit_either_2","A209H73TTW9F87","either","1","294","","","","","","","0","0","1","","0.05564661524","0.4","0.8","0.6","0.2","0.2819660137","0.1136224352","0.05564661524","0.3067689268","","","","","","","","","","","","75","K","2","","","91","main_expt"
"","bandit","171","975818","0.0-132.0-0.0","87202182","wem/bandit_either_2","A209H73TTW9F87","either","1","733","","","","","","","0","0","1","0.07539152519","","0.4","0.8","0.6","0.2","","","","","0.3370305887","0.07539152519","0.05914103421","0.2719776188","","","","","","","","74","J","1","","","92","main_expt"
"","bandit","172","977338","0.0-133.0-0.0","87202182","wem/bandit_either_2","A209H73TTW9F87","either","1","13","","","","","","","0","0","1","","0.08243558305","0.4","0.8","0.6","0.2","0.3722719914","0.08243558305","0.03944324463","0.3081791896","","","","","","","","","","","","74","J","1","","","93","main_expt"
"","bandit","173","979138","0.0-134.0-0.0","87202182","wem/bandit_either_2","A209H73TTW9F87","either","1","294","","","","","","","0","0","1","0.09807673793","","0.4","0.8","0.6","0.2","","","","","0.3840030774","0.09807673793","0.05023017475","0.356667856","","","","","","","","74","J","1","","","94","main_expt"
"","bandit","174","980881","0.0-135.0-0.0","87202182","wem/bandit_either_2","A209H73TTW9F87","either","1","238","","","","","","","0","0","1","0.09746204728","","0.4","0.8","0.6","0.2","","","","","0.4050844552","0.09746204728","0.07311956304","0.3300765204","","","","","","","","74","J","1","","","95","main_expt"
"","bandit","175","982458","0.0-136.0-0.0","87202182","wem/bandit_either_2","A209H73TTW9F87","either","1","69","","","","","","","1","0","0","0.08559835745","","0.4","0.8","0.6","0.2","","","","","0.4081076376","0.08559835745","0.09573717159","0.3642735905","","","","","","","","74","J","1","","","96","main_expt"
"","bandit","176","984358","0.0-137.0-0.0","87202182","wem/bandit_either_2","A209H73TTW9F87","either","1","394","","","","","","","1","0","0","0.0732645996","","0.4","0.8","0.6","0.2","","","","","0.4142780263","0.0732645996","0.1235519285","0.3885664579","","","","","","","","74","J","1","","","97","main_expt"
"","bandit","177","986192","0.0-138.0-0.0","87202182","wem/bandit_either_2","A209H73TTW9F87","either","1","328","","","","","","","0","0","1","0.05343209845","","0.4","0.8","0.6","0.2","","","","","0.4131193208","0.05343209845","0.1274282425","0.4162912028","","","","","","","","74","J","1","","","98","main_expt"
"","bandit","178","988027","0.0-139.0-0.0","87202182","wem/bandit_either_2","A209H73TTW9F87","either","1","328","","","","","","","0","0","1","0.05144299931","","0.4","0.8","0.6","0.2","","","","","0.428944851","0.05144299931","0.1457321849","0.4074153657","","","","","","","","74","J","1","","","99","main_expt"
"","bandit","179","989917","0.0-140.0-0.0","87202182","wem/bandit_either_2","A209H73TTW9F87","either","1","383","","","","","","","0","0","1","0.03934302155","","0.4","0.8","0.6","0.2","","","","","0.4279797645","0.03934302155","0.1492128348","0.3349137267","","","","","","","","74","J","1","","","100","main_expt"
"","bandit","180","991785","0.0-141.0-0.0","87202182","wem/bandit_either_2","A209H73TTW9F87","either","1","361","","","","","","","0","0","1","0.05783306622","","0.4","0.8","0.6","0.2","","","","","0.4189249443","0.05783306622","0.125019219","0.2732947861","","","","","","","","74","J","1","","","101","main_expt"
"","bandit","181","993471","0.0-142.0-0.0","87202182","wem/bandit_either_2","A209H73TTW9F87","either","1","179","","","","","","","0","0","1","0.4279241466","","0.4","0.8","0.6","0.2","","","","","0.4279241466","0.06484492547","0.1008510245","0.2584454073","","","","","","","","72","H","0","img/none_selected.jpg","","102","main_expt"
"","bandit","182","995158","0.0-143.0-0.0","87202182","wem/bandit_either_2","A209H73TTW9F87","either","1","182","","","","","","","0","0","1","","0.419390052","0.4","0.8","0.6","0.2","0.419390052","0.0701259157","0.1087281004","0.2143891894","","","","","","","","","","","","72","H","0","img/none_selected.jpg","","103","main_expt"
"","bandit","183","996801","0.0-144.0-0.0","87202182","wem/bandit_either_2","A209H73TTW9F87","either","1","137","","","","","","","0","0","1","","0.3761202226","0.4","0.8","0.6","0.2","0.3761202226","0.06922647753","0.143855427","0.1354346047","","","","","","","","","","","","72","H","0","img/none_selected.jpg","","104","main_expt"
"","bandit","184","998444","0.0-145.0-0.0","87202182","wem/bandit_either_2","A209H73TTW9F87","either","1","137","","","","","","","0","0","1","","0.4229881466","0.4","0.8","0.6","0.2","0.4229881466","0.07802312096","0.1606853024","0.1615963473","","","","","","","","","","","","72","H","0","img/none_selected.jpg","","105","main_expt"
"","bandit","185","1000423","0.0-146.0-0.0","87202182","wem/bandit_either_2","A209H73TTW9F87","either","1","473","","","","","","","0","0","1","0.1612939645","","0.4","0.8","0.6","0.2","","","","","0.4110558218","0.08930313369","0.1612939645","0.1738621023","","","","","","","","75","K","2","","","106","main_expt"
"","bandit","186","1002225","0.0-147.0-0.0","87202182","wem/bandit_either_2","A209H73TTW9F87","either","1","295","","","","","","","1","0","0","0.1778053335","","0.4","0.8","0.6","0.2","","","","","0.4176599015","0.1397733654","0.1778053335","0.1799671425","","","","","","","","75","K","2","","","107","main_expt"
"","bandit","187","1003889","0.0-148.0-0.0","87202182","wem/bandit_either_2","A209H73TTW9F87","either","1","157","","","","","","","0","0","1","0.1826465361","","0.4","0.8","0.6","0.2","","","","","0.4210396584","0.1505899732","0.1826465361","0.1844274074","","","","","","","","75","K","2","","","108","main_expt"
"","bandit","188","1005778","0.0-149.0-0.0","87202182","wem/bandit_either_2","A209H73TTW9F87","either","1","383","","","","","","","0","0","1","0.1737022726","","0.4","0.8","0.6","0.2","","","","","0.4328015469","0.1162436109","0.1737022726","0.1702708828","","","","","","","","75","K","2","","","109","main_expt"
"","bandit","189","1007343","0.0-150.0-0.0","87202182","wem/bandit_either_2","A209H73TTW9F87","either","1","58","","","","","","","0","0","1","","0.1658344406","0.4","0.8","0.6","0.2","0.4495585744","0.08267976014","0.1658344406","0.1964407335","","","","","","","","","","","","75","K","2","","","110","main_expt"
"","bandit","190","1009210","0.0-151.0-0.0","87202182","wem/bandit_either_2","A209H73TTW9F87","either","1","360","","","","","","","0","1","0","","0.240619448","0.4","0.8","0.6","0.2","0.4237631325","0.09389793805","0.240619448","0.1777579569","","","","","","","","","","","","75","K","2","","","111","main_expt"
"","bandit","191","1011044","0.0-152.0-0.0","87202182","wem/bandit_either_2","A209H73TTW9F87","either","1","328","","","","","","","0","0","1","0.1927397719","","0.4","0.8","0.6","0.2","","","","","0.4521571561","0.07903418564","0.1927397719","0.1395994444","","","","","","","","75","K","2","","","112","main_expt"
"","bandit","192","1013138","0.0-153.0-0.0","87202182","wem/bandit_either_2","A209H73TTW9F87","either","1","587","","","","","","","0","1","0","","0.234725565","0.4","0.8","0.6","0.2","0.4350762846","0.05501139052","0.234725565","0.1205999431","","","","","","","","","","","","75","K","2","","","113","main_expt"
"","bandit","193","1014915","0.0-154.0-0.0","87202182","wem/bandit_either_2","A209H73TTW9F87","either","1","270","","","","","","","0","1","0","","0.1950215869","0.4","0.8","0.6","0.2","0.4315824664","0.07627702456","0.1950215869","0.09123355482","","","","","","","","","","","","75","K","2","","","114","main_expt"
"","bandit","194","1016782","0.0-155.0-0.0","87202182","wem/bandit_either_2","A209H73TTW9F87","either","1","361","","","","","","","0","0","1","0.2575833325","","0.4","0.8","0.6","0.2","","","","","0.4127349624","0.03985247356","0.2575833325","0.09554471192","","","","","","","","75","K","2","","","115","main_expt"
"","bandit","195","1018571","0.0-156.0-0.0","87202182","wem/bandit_either_2","A209H73TTW9F87","either","1","283","","","","","","","0","0","1","","0.2296468005","0.4","0.8","0.6","0.2","0.4468356006","0.0683792979","0.2296468005","0.1942182492","","","","","","","","","","","","75","K","2","","","116","main_expt"
"","bandit","196","1020315","0.0-157.0-0.0","87202182","wem/bandit_either_2","A209H73TTW9F87","either","1","238","","","","","","","1","0","0","0.2816483341","","0.4","0.8","0.6","0.2","","","","","0.4458703805","0.03956212276","0.2816483341","0.2208250117","","","","","","","","75","K","2","","","117","main_expt"
"","bandit","197","1022081","0.0-158.0-0.0","87202182","wem/bandit_either_2","A209H73TTW9F87","either","1","260","","","","","","","1","0","0","0.2626769985","","0.4","0.8","0.6","0.2","","","","","0.4500370674","0.04459229253","0.2626769985","0.1687975443","","","","","","","","75","K","2","","","118","main_expt"
"","bandit","198","1023815","0.0-159.0-0.0","87202182","wem/bandit_either_2","A209H73TTW9F87","either","1","226","","","","","","","0","0","1","0.2418090277","","0.4","0.8","0.6","0.2","","","","","0.4704359259","0.03386957434","0.2418090277","0.1546105485","","","","","","","","75","K","2","","","119","main_expt"
"","bandit","199","1025693","0.0-160.0-0.0","87202182","wem/bandit_either_2","A209H73TTW9F87","either","1","372","","","","","","","0","1","0","","0.2603236095","0.4","0.8","0.6","0.2","0.4578798539","0.03305427522","0.2603236095","0.143668411","","","","","","","","","","","","75","K","2","","","120","main_expt"
"","bandit","200","1027559","0.0-161.0-0.0","87202182","wem/bandit_either_2","A209H73TTW9F87","either","1","361","","","","","","","1","0","0","0.2381785671","","0.4","0.8","0.6","0.2","","","","","0.4591190262","0.03146098963","0.2381785671","0.1098317425","","","","","","","","75","K","2","","","121","main_expt"
"","bandit","201","1029281","0.0-162.0-0.0","87202182","wem/bandit_either_2","A209H73TTW9F87","either","1","216","","","","","","","0","0","1","","0.2388462554","0.4","0.8","0.6","0.2","0.4643737298","0.02311797033","0.2388462554","0.1097832873","","","","","","","","","","","","75","K","2","","","122","main_expt"
"","bandit","202","1031059","0.0-163.0-0.0","87202182","wem/bandit_either_2","A209H73TTW9F87","either","1","271","","","","","","","1","0","0","0.2079929623","","0.4","0.8","0.6","0.2","","","","","0.451586091","0.0171261738","0.2079929623","0.1145900252","","","","","","","","75","K","2","","","123","main_expt"
"","bandit","203","1032848","0.0-164.0-0.0","87202182","wem/bandit_either_2","A209H73TTW9F87","either","1","283","","","","","","","1","0","0","0.2148400852","","0.4","0.8","0.6","0.2","","","","","0.4456906556","0.03468299263","0.2148400852","0.1137783892","","","","","","","","75","K","2","","","124","main_expt"
"","bandit","204","1034908","0.0-165.0-0.0","87202182","wem/bandit_either_2","A209H73TTW9F87","either","1","552","","","","","","","0","0","1","0.2185056602","","0.4","0.8","0.6","0.2","","","","","0.4240876494","0.02544516396","0.2185056602","0.145605256","","","","","","","","75","K","2","","","125","main_expt"
"","bandit","205","1037370","0.0-166.0-0.0","87202182","wem/bandit_either_2","A209H73TTW9F87","either","1","957","","","","","","","0","0","1","","0.2152323899","0.4","0.8","0.6","0.2","0.4008501573","0.03059506073","0.2152323899","0.1443839055","","","","","","","","","","","","75","K","2","","","126","main_expt"
"","bandit","206","1039294","0.0-167.0-0.0","87202182","wem/bandit_either_2","A209H73TTW9F87","either","1","417","","","","","","","0","1","0","","0.1699446714","0.4","0.8","0.6","0.2","0.4066073101","0.0339638967","0.1699446714","0.1434222382","","","","","","","","","","","","75","K","2","","","127","main_expt"
"","bandit","207","1041320","0.0-168.0-0.0","87202182","wem/bandit_either_2","A209H73TTW9F87","either","1","518","","","","","","","1","0","0","0.1299446217","","0.4","0.8","0.6","0.2","","","","","0.4270302575","0.02632978063","0.1299446217","0.1412168693","","","","","","","","75","K","2","","","128","main_expt"
"","bandit","208","1043255","0.0-169.0-0.0","87202182","wem/bandit_either_2","A209H73TTW9F87","either","1","427","","","","","","","0","0","1","0.1299487573","","0.4","0.8","0.6","0.2","","","","","0.4401824822","0.02640977482","0.1299487573","0.1086871361","","","","","","","","75","K","2","","","129","main_expt"
"","bandit","209","1045359","0.0-170.0-0.0","87202182","wem/bandit_either_2","A209H73TTW9F87","either","1","598","","","","","","","0","0","1","0.1172580566","","0.4","0.8","0.6","0.2","","","","","0.4160959849","0.03646961518","0.1172580566","0.1672766288","","","","","","","","75","K","2","","","130","main_expt"
"","bandit","210","1046989","0.0-171.0-0.0","87202182","wem/bandit_either_2","A209H73TTW9F87","either","1","124","","","","","","","0","0","1","0.1289979545","","0.4","0.8","0.6","0.2","","","","","0.4374535298","0.02171712127","0.1289979545","0.157110596","","","","","","","","75","K","2","","","131","main_expt"
"","bandit","211","1049544","0.0-172.0-0.0","87202182","wem/bandit_either_2","A209H73TTW9F87","either","1","1048","","","","","","","0","0","1","0.1243754988","","0.4","0.8","0.6","0.2","","","","","0.4382483821","0.01004766493","0.1243754988","0.1338697581","","","","","","","","75","K","2","","","132","main_expt"
"","bandit","212","1051230","0.0-173.0-0.0","87202182","wem/bandit_either_2","A209H73TTW9F87","either","1","180","","","","","","","0","0","1","","0.1101669797","0.4","0.8","0.6","0.2","0.3913946914","0.005153708139","0.1189203389","0.1101669797","","","","","","","","","","","","76","L","3","","","133","main_expt"
"","bandit","213","1053132","0.0-174.0-0.0","87202182","wem/bandit_either_2","A209H73TTW9F87","either","1","395","","","","","","","0","0","1","","0.060775537","0.4","0.8","0.6","0.2","0.4280120537","0.01308543257","0.07075860378","0.060775537","","","","","","","","","","","","76","L","3","","","134","main_expt"
"","bandit","214","1054853","0.0-175.0-0.0","87202182","wem/bandit_either_2","A209H73TTW9F87","either","1","215","","","","","","","0","0","1","0.0714416082","","0.4","0.8","0.6","0.2","","","","","0.4385213509","0.02634180281","0.1073185777","0.0714416082","","","","","","","","76","L","3","","","135","main_expt"
"","bandit","215","1056440","0.0-176.0-0.0","87202182","wem/bandit_either_2","A209H73TTW9F87","either","1","81","","","","","","","0","0","1","0.04122629063","","0.4","0.8","0.6","0.2","","","","","0.4605212521","0.04122629063","0.1001442491","0.1115096907","","","","","","","","74","J","1","","","136","main_expt"
"","bandit","216","1058319","0.0-177.0-0.0","87202182","wem/bandit_either_2","A209H73TTW9F87","either","1","371","","","","","","","0","0","1","0.05517648788","","0.4","0.8","0.6","0.2","","","","","0.4729500637","0.05517648788","0.1736681681","0.1307091067","","","","","","","","74","J","1","","","137","main_expt"
"","bandit","217","1060659","0.0-178.0-0.0","87202182","wem/bandit_either_2","A209H73TTW9F87","either","1","834","","","","","","","0","0","1","0.05929415862","","0.4","0.8","0.6","0.2","","","","","0.4705425907","0.05929415862","0.1839908368","0.1289533412","","","","","","","","74","J","1","","","138","main_expt"
"","bandit","218","1062797","0.0-179.0-0.0","87202182","wem/bandit_either_2","A209H73TTW9F87","either","1","630","","","","","","","0","0","1","0.465423541","","0.4","0.8","0.6","0.2","","","","","0.465423541","0.05470710098","0.1500833973","0.1215972271","","","","","","","","72","H","0","img/none_selected.jpg","","139","main_expt"
"","bandit","219","1064676","0.0-180.0-0.0","87202182","wem/bandit_either_2","A209H73TTW9F87","either","1","372","","","","","","","0","1","0","","0.4486857012","0.4","0.8","0.6","0.2","0.4486857012","0.06062538604","0.1718879457","0.1158179575","","","","","","","","","","","","72","H","0","img/none_selected.jpg","","140","main_expt"
"","bandit","220","1066566","0.0-181.0-0.0","87202182","wem/bandit_either_2","A209H73TTW9F87","either","1","383","","","","","","","0","0","1","0.4053061298","","0.4","0.8","0.6","0.2","","","","","0.4053061298","0.05819772386","0.2025036279","0.08691297649","","","","","","","","72","H","0","img/none_selected.jpg","","141","main_expt"
"","bandit","221","1068467","0.0-182.0-0.0","87202182","wem/bandit_either_2","A209H73TTW9F87","either","1","394","","","","","","","0","0","1","","0.3989731656","0.4","0.8","0.6","0.2","0.3989731656","0.05329701838","0.1872564568","0.1425267255","","","","","","","","","","","","72","H","0","img/none_selected.jpg","","142","main_expt"
"","bandit","222","1070503","0.0-183.0-0.0","87202182","wem/bandit_either_2","A209H73TTW9F87","either","1","528","","","","","","","0","1","0","","0.3783570596","0.4","0.8","0.6","0.2","0.3783570596","0.06209903385","0.1676641842","0.1425141192","","","","","","","","","","","","72","H","0","img/none_selected.jpg","","143","main_expt"
"","bandit","223","1072708","0.0-184.0-0.0","87202182","wem/bandit_either_2","A209H73TTW9F87","either","1","699","","","","","","","0","0","1","0.3485663762","","0.4","0.8","0.6","0.2","","","","","0.3485663762","0.06954729647","0.1502987652","0.1362652721","","","","","","","","72","H","0","img/none_selected.jpg","","144","main_expt"
"","bandit","224","1075093","0.0-185.0-0.0","87202182","wem/bandit_either_2","A209H73TTW9F87","either","1","878","","","","","","","0","0","1","0.3534190037","","0.4","0.8","0.6","0.2","","","","","0.3534190037","0.062760129","0.1050568962","0.1335650053","","","","","","","","72","H","0","img/none_selected.jpg","","145","main_expt"
"","bandit","225","1076793","0.0-186.0-0.0","87202182","wem/bandit_either_2","A209H73TTW9F87","either","1","193","","","","","","","0","0","1","0.1266784727","","0.4","0.8","0.6","0.2","","","","","0.342282706","0.05014677947","0.1266784727","0.1392461982","","","","","","","","75","K","2","","","146","main_expt"
"","bandit","226","1078537","0.0-187.0-0.0","87202182","wem/bandit_either_2","A209H73TTW9F87","either","1","236","","","","","","","1","0","0","0.1121887101","","0.4","0.8","0.6","0.2","","","","","0.3497384939","0.04801868921","0.1121887101","0.1060810453","","","","","","","","75","K","2","","","147","main_expt"
"","bandit","227","1080247","0.0-188.0-0.0","87202182","wem/bandit_either_2","A209H73TTW9F87","either","1","203","","","","","","","0","0","1","","0.1050077765","0.4","0.8","0.6","0.2","0.3507348305","0.05298179562","0.1050077765","0.1076054289","","","","","","","","","","","","75","K","2","","","148","main_expt"
"","bandit","228","1082113","0.0-189.0-0.0","87202182","wem/bandit_either_2","A209H73TTW9F87","either","1","360","","","","","","","0","0","1","","0.08725679698","0.4","0.8","0.6","0.2","0.306786392","0.05271587927","0.08725679698","0.09143227578","","","","","","","","","","","","75","K","2","","","149","main_expt"
"","bandit","229","1084015","0.0-190.0-0.0","87202182","wem/bandit_either_2","A209H73TTW9F87","either","1","396","","","","","","","0","0","1","","0.06153260368","0.4","0.8","0.6","0.2","0.3289077467","0.06153260368","0.04813781364","0.08361181256","","","","","","","","","","","","74","J","1","","","150","main_expt"
"","bandit","230","1085860","0.0-191.0-0.0","87202182","wem/bandit_either_2","A209H73TTW9F87","either","1","337","","","","","","","0","0","1","0.07716317934","","0.4","0.8","0.6","0.2","","","","","0.2844912386","0.07716317934","0.04690393958","0.1038450747","","","","","","","","74","J","1","","","151","main_expt"
"","bandit","231","1087840","0.0-192.0-0.0","87202182","wem/bandit_either_2","A209H73TTW9F87","either","1","474","","","","","","","0","1","0","","0.1311897928","0.4","0.8","0.6","0.2","0.3221551402","0.08370894892","0.05051779207","0.1311897928","","","","","","","","","","","","76","L","3","","","152","main_expt"
"","bandit","232","1089663","0.0-193.0-0.0","87202182","wem/bandit_either_2","A209H73TTW9F87","either","1","316","","","","","","","0","0","1","","0.1106636196","0.4","0.8","0.6","0.2","0.288581716","0.06235129306","0.0417019452","0.1106636196","","","","","","","","","","","","76","L","3","","","153","main_expt"
"","bandit","233","1091361","0.0-194.0-0.0","87202182","wem/bandit_either_2","A209H73TTW9F87","either","1","192","","","","","","","0","0","1","","0.08044616817","0.4","0.8","0.6","0.2","0.3674714493","0.08808261531","0.04565059468","0.08044616817","","","","","","","","","","","","76","L","3","","","154","main_expt"
"","bandit","234","1093082","0.0-195.0-0.0","87202182","wem/bandit_either_2","A209H73TTW9F87","either","1","215","","","","","","","0","0","1","","0.09849608375","0.4","0.8","0.6","0.2","0.3836765626","0.08415746701","0.0249337719","0.09849608375","","","","","","","","","","","","76","L","3","","","155","main_expt"
"","bandit","235","1094827","0.0-196.0-0.0","87202182","wem/bandit_either_2","A209H73TTW9F87","either","1","236","","","","","","","0","0","1","","0.0679626842","0.4","0.8","0.6","0.2","0.3499766022","0.1363215429","0.0207568711","0.0679626842","","","","","","","","","","","","76","L","3","","","156","main_expt"
"","bandit","236","1096639","0.0-197.0-0.0","87202182","wem/bandit_either_2","A209H73TTW9F87","either","1","305","","","","","","","0","0","1","","0.06316877849","0.4","0.8","0.6","0.2","0.3083455354","0.176329139","0.01044871803","0.06316877849","","","","","","","","","","","","76","L","3","","","157","main_expt"
"","bandit","237","1098228","0.0-198.0-0.0","87202182","wem/bandit_either_2","A209H73TTW9F87","either","1","81","","","","","","","0","0","1","","0.06381796224","0.4","0.8","0.6","0.2","0.2780985587","0.2239815039","0.008486032171","0.06381796224","","","","","","","","","","","","76","L","3","","","158","main_expt"
"","bandit","238","1101825","0.0-199.0-0.0","87202182","wem/bandit_either_2","A209H73TTW9F87","either","1","2090","","","","","","","0","0","1","","0.09986374221","0.4","0.8","0.6","0.2","0.2721424699","0.1754735631","0.006770001311","0.09986374221","","","","","","","","","","","","76","L","3","","","159","main_expt"
"","bandit","239","1103985","0.0-200.0-0.0","87202182","wem/bandit_either_2","A209H73TTW9F87","either","1","653","","","","","","","0","0","1","","0.005009972043","0.4","0.8","0.6","0.2","0.3005636977","0.1820859676","0.005009972043","0.08334790929","","","","","","","","","","","","75","K","2","","","160","main_expt"
"","bandit","240","1108780","0.0-201.0-0.0","87202182","wem/bandit_either_2","A209H73TTW9F87","either","1","3286","","","","","","","0","0","1","0.003825417776","","0.4","0.8","0.6","0.2","","","","","0.2481613967","0.1771527669","0.003825417776","0.1094566723","","","","","","","","75","K","2","","","161","main_expt"
"","bandit","241","1110667","0.0-202.0-0.0","87202182","wem/bandit_either_2","A209H73TTW9F87","either","1","381","","","","","","","0","0","1","0.006458278423","","0.4","0.8","0.6","0.2","","","","","0.2040880477","0.209245514","0.006458278423","0.1287108975","","","","","","","","75","K","2","","","162","main_expt"
"","bandit","242","1113064","0.0-203.0-0.0","87202182","wem/bandit_either_2","A209H73TTW9F87","either","1","889","","","","","","","0","0","1","0.1864252411","","0.4","0.8","0.6","0.2","","","","","0.256608811","0.1864252411","0.01344146107","0.1811808859","","","","","","","","74","J","1","","","163","main_expt"
"","bandit","243","1115201","0.0-204.0-0.0","87202182","wem/bandit_either_2","A209H73TTW9F87","either","1","631","","","","","","","0","0","1","0.1662237337","","0.4","0.8","0.6","0.2","","","","","0.2798468236","0.1662237337","0.004940614731","0.1374611454","","","","","","","","74","J","1","","","164","main_expt"
"","bandit","244","1116799","0.0-205.0-0.0","87202182","wem/bandit_either_2","A209H73TTW9F87","either","1","91","","","","","","","1","0","0","0.1375661656","","0.4","0.8","0.6","0.2","","","","","0.2689568899","0.1375661656","0.007349038951","0.1640313333","","","","","","","","74","J","1","","","165","main_expt"
"","bandit","245","1118848","0.0-206.0-0.0","87202182","wem/bandit_either_2","A209H73TTW9F87","either","1","541","","","","","","","0","0","1","0.1416727521","","0.4","0.8","0.6","0.2","","","","","0.2786045926","0.1416727521","0.005679103294","0.20052236","","","","","","","","74","J","1","","","166","main_expt"
"","bandit","246","1122188","0.0-207.0-0.0","87202182","wem/bandit_either_2","A209H73TTW9F87","either","1","1833","","","","","","","0","0","1","0.1497541138","","0.4","0.8","0.6","0.2","","","","","0.2507583434","0.1497541138","0.004037182679","0.1945206589","","","","","","","","74","J","1","","","167","main_expt"
"","bandit","247","1124630","0.0-208.0-0.0","87202182","wem/bandit_either_2","A209H73TTW9F87","either","1","934","","","","","","","0","0","1","","0.1827624484","0.4","0.8","0.6","0.2","0.1827624484","0.1761460581","0.007111326723","0.1902154162","","","","","","","","","","","","72","H","0","img/none_selected.jpg","","168","main_expt"
"","bandit","248","1126936","0.0-209.0-0.0","87202182","wem/bandit_either_2","A209H73TTW9F87","either","1","799","","","","","","","0","0","1","0.1558723634","","0.4","0.8","0.6","0.2","","","","","0.1558723634","0.2248215173","0.01708305062","0.1931964682","","","","","","","","72","H","0","img/none_selected.jpg","","169","main_expt"
"","bandit","249","1128612","0.0-210.0-0.0","87202182","wem/bandit_either_2","A209H73TTW9F87","either","1","169","","","","","","","1","0","0","0.1757164868","","0.4","0.8","0.6","0.2","","","","","0.1757164868","0.2503105048","0.02105388628","0.236179436","","","","","","","","72","H","0","img/none_selected.jpg","","170","main_expt"
"","bandit","250","1130323","0.0-211.0-0.0","87202182","wem/bandit_either_2","A209H73TTW9F87","either","1","205","","","","","","","0","0","1","0.1985597056","","0.4","0.8","0.6","0.2","","","","","0.1985597056","0.2515708499","0.01477187034","0.2229285478","","","","","","","","72","H","0","img/none_selected.jpg","","171","main_expt"
"","bandit","251","1133169","0.0-212.0-0.0","87202182","wem/bandit_either_2","A209H73TTW9F87","either","1","1338","","","","","","","0","0","1","0.1805811295","","0.4","0.8","0.6","0.2","","","","","0.1725269859","0.2601117771","0.00639283578","0.1805811295","","","","","","","","76","L","3","","","172","main_expt"
"","bandit","252","1135363","0.0-213.0-0.0","87202182","wem/bandit_either_2","A209H73TTW9F87","either","1","686","","","","","","","0","1","0","","0.2203049146","0.4","0.8","0.6","0.2","0.1955807132","0.2277859889","0.008503536177","0.2203049146","","","","","","","","","","","","76","L","3","","","173","main_expt"
"","bandit","253","1137815","0.0-214.0-0.0","87202182","wem/bandit_either_2","A209H73TTW9F87","either","1","945","","","","","","","0","0","1","","0.2079245196","0.4","0.8","0.6","0.2","0.1712969398","0.204090619","0.01512836446","0.2079245196","","","","","","","","","","","","76","L","3","","","174","main_expt"
"","bandit","254","1141146","0.0-215.0-0.0","87202182","wem/bandit_either_2","A209H73TTW9F87","either","1","1824","","","","","","","0","0","1","","0.1904909119","0.4","0.8","0.6","0.2","0.2145566876","0.2264282848","0.034550241","0.1904909119","","","","","","","","","","","","76","L","3","","","175","main_expt"
"","bandit","255","1143158","0.0-216.0-0.0","87202182","wem/bandit_either_2","A209H73TTW9F87","either","1","506","","","","","","","0","0","1","","0.1611975006","0.4","0.8","0.6","0.2","0.1987050603","0.2263436383","0.01969997198","0.1611975006","","","","","","","","","","","","76","L","3","","","176","main_expt"
"","bandit","256","1149380","0.0-217.0-0.0","87202182","wem/bandit_either_2","A209H73TTW9F87","either","1","4714","","","","","","","0","0","1","","0.1747210449","0.4","0.8","0.6","0.2","0.2161967517","0.2449632337","0.02558747067","0.1747210449","","","","","","","","","","","","76","L","3","","","177","main_expt"
"","bandit","257","1151227","0.0-218.0-0.0","87202182","wem/bandit_either_2","A209H73TTW9F87","either","1","337","","","","","","","0","0","1","0.02865462312","","0.4","0.8","0.6","0.2","","","","","0.1790488899","0.1923885174","0.02865462312","0.1667690144","","","","","","","","75","K","2","","","178","main_expt"
"","bandit","258","1153330","0.0-219.0-0.0","87202182","wem/bandit_either_2","A209H73TTW9F87","either","1","594","","","","","","","0","0","1","0.05873937836","","0.4","0.8","0.6","0.2","","","","","0.1254539317","0.1791230597","0.05873937836","0.248539666","","","","","","","","75","K","2","","","179","main_expt"
"","bandit","259","1155996","0.0-220.0-0.0","87202182","wem/bandit_either_2","A209H73TTW9F87","either","1","1158","","","","","","","0","0","1","","0.1641305094","0.4","0.8","0.6","0.2","0.1761702366","0.1641305094","0.04996702027","0.2393284063","","","","","","","","","","","","74","J","1","","","180","main_expt"
"","bandit","260","1160969","0.0-221.0-0.0","87202182","wem/bandit_either_2","A209H73TTW9F87","either","1","3466","","","","","","","0","0","1","0.1567194189","","0.4","0.8","0.6","0.2","","","","","0.2307221343","0.1567194189","0.06192223509","0.2450765022","","","","","","","","74","J","1","","","181","main_expt"
"","bandit","261","1165154","0.0-222.0-0.0","87202182","wem/bandit_either_2","A209H73TTW9F87","either","1","2678","","","","","","","0","0","1","","0.1805899487","0.4","0.8","0.6","0.2","0.1656926355","0.1805899487","0.07865608963","0.2898963007","","","","","","","","","","","","74","J","1","","","182","main_expt"
"","bandit","262","1166741","0.0-223.0-0.0","87202182","wem/bandit_either_2","A209H73TTW9F87","either","1","79","","","","","","","0","0","1","0.1997223474","","0.4","0.8","0.6","0.2","","","","","0.1997223474","0.1381226487","0.0695036973","0.337419987","","","","","","","","72","H","0","img/none_selected.jpg","","183","main_expt"
"","bandit","263","1169923","0.0-224.0-0.0","87202182","wem/bandit_either_2","A209H73TTW9F87","either","1","1676","","","","","","","0","1","0","","0.1936006223","0.4","0.8","0.6","0.2","0.1936006223","0.1157029232","0.09883674892","0.3334404967","","","","","","","","","","","","72","H","0","img/none_selected.jpg","","184","main_expt"
"","bandit","264","1171881","0.0-225.0-0.0","87202182","wem/bandit_either_2","A209H73TTW9F87","either","1","451","","","","","","","0","0","1","0.1794548994","","0.4","0.8","0.6","0.2","","","","","0.1794548994","0.09007466759","0.1344132801","0.3049781316","","","","","","","","72","H","0","img/none_selected.jpg","","185","main_expt"
"","bandit","265","1174031","0.0-226.0-0.0","87202182","wem/bandit_either_2","A209H73TTW9F87","either","1","642","","","","","","","0","1","0","","0.1679588243","0.4","0.8","0.6","0.2","0.1679588243","0.07784091677","0.1194183803","0.322039184","","","","","","","","","","","","72","H","0","img/none_selected.jpg","","186","main_expt"
"","bandit","266","1176190","0.0-227.0-0.0","87202182","wem/bandit_either_2","A209H73TTW9F87","either","1","653","","","","","","","0","0","1","","0.1692259204","0.4","0.8","0.6","0.2","0.1692259204","0.1332261693","0.1456002269","0.2898485093","","","","","","","","","","","","72","H","0","img/none_selected.jpg","","187","main_expt"
"","bandit","267","1178227","0.0-228.0-0.0","87202182","wem/bandit_either_2","A209H73TTW9F87","either","1","528","","","","","","","0","0","1","","0.1796926114","0.4","0.8","0.6","0.2","0.1796926114","0.1302169342","0.1008589119","0.3046836684","","","","","","","","","","","","72","H","0","img/none_selected.jpg","","188","main_expt"
"","bandit","268","1179981","0.0-229.0-0.0","87202182","wem/bandit_either_2","A209H73TTW9F87","either","1","248","","","","","","","0","0","1","0.1463090895","","0.4","0.8","0.6","0.2","","","","","0.1463090895","0.1459867673","0.09109327247","0.3437642557","","","","","","","","72","H","0","img/none_selected.jpg","","189","main_expt"
"","bandit","269","1181984","0.0-230.0-0.0","87202182","wem/bandit_either_2","A209H73TTW9F87","either","1","495","","","","","","","0","0","1","","0.3685715368","0.4","0.8","0.6","0.2","0.1670442817","0.1930387326","0.133333279","0.3685715368","","","","","","","","","","","","76","L","3","","","190","main_expt"
"","bandit","270","1184437","0.0-231.0-0.0","87202182","wem/bandit_either_2","A209H73TTW9F87","either","1","946","","","","","","","0","0","1","","0.4063368095","0.4","0.8","0.6","0.2","0.2148667481","0.1447045196","0.1253338948","0.4063368095","","","","","","","","","","","","76","L","3","","","191","main_expt"
"","bandit","271","1186991","0.0-232.0-0.0","87202182","wem/bandit_either_2","A209H73TTW9F87","either","1","1048","","","","","","","0","0","1","","0.4194789623","0.4","0.8","0.6","0.2","0.1891029698","0.1521301445","0.1371372983","0.4194789623","","","","","","","","","","","","76","L","3","","","192","main_expt"
"","bandit","272","1189388","0.0-233.0-0.0","87202182","wem/bandit_either_2","A209H73TTW9F87","either","1","888","","","","","","","1","0","0","0.3914453041","","0.4","0.8","0.6","0.2","","","","","0.1818436489","0.1216552598","0.1269519223","0.3914453041","","","","","","","","76","L","3","","","193","main_expt"
"","bandit","273","1191693","0.0-234.0-0.0","87202182","wem/bandit_either_2","A209H73TTW9F87","either","1","799","","","","","","","0","1","0","","0.3988429791","0.4","0.8","0.6","0.2","0.2036833838","0.07681554104","0.1253972088","0.3988429791","","","","","","","","","","","","76","L","3","","","194","main_expt"
"","bandit","274","1193921","0.0-235.0-0.0","87202182","wem/bandit_either_2","A209H73TTW9F87","either","1","721","","","","","","","0","1","0","","0.4212514022","0.4","0.8","0.6","0.2","0.2189502041","0.07468822185","0.1231557279","0.4212514022","","","","","","","","","","","","76","L","3","","","195","main_expt"
"","bandit","275","1196103","0.0-236.0-0.0","87202182","wem/bandit_either_2","A209H73TTW9F87","either","1","675","","","","","","","0","0","1","","0.4128950903","0.4","0.8","0.6","0.2","0.2011136523","0.07634526252","0.2304226507","0.4128950903","","","","","","","","","","","","76","L","3","","","196","main_expt"
"","bandit","276","1198186","0.0-237.0-0.0","87202182","wem/bandit_either_2","A209H73TTW9F87","either","1","575","","","","","","","1","0","0","0.3979973083","","0.4","0.8","0.6","0.2","","","","","0.2295646827","0.06680697181","0.3102822931","0.3979973083","","","","","","","","76","L","3","","","197","main_expt"
"","bandit","277","1200458","0.0-238.0-0.0","87202182","wem/bandit_either_2","A209H73TTW9F87","either","1","764","","","","","","","0","1","0","","0.3153467244","0.4","0.8","0.6","0.2","0.2570874699","0.05107679344","0.3222054514","0.3153467244","","","","","","","","","","","","76","L","3","","","198","main_expt"
"","bandit","278","1202685","0.0-239.0-0.0","87202182","wem/bandit_either_2","A209H73TTW9F87","either","1","718","","","","","","","0","0","1","","0.3121882746","0.4","0.8","0.6","0.2","0.2215013189","0.06140804873","0.3416159467","0.3121882746","","","","","","","","","","","","76","L","3","","","199","main_expt"
"","bandit","279","1206196","0.0-240.0-0.0","87202182","wem/bandit_either_2","A209H73TTW9F87","either","1","2003","","","","","","","0","0","1","","0.3789620948","0.4","0.8","0.6","0.2","0.1681318695","0.05697288244","0.3826655938","0.3789620948","","","","","","","","","","","","76","L","3","","","200","main_expt"
"","bandit","280","1208243","0.0-241.0-0.0","87202182","wem/bandit_either_2","A209H73TTW9F87","either","1","540","","","","","","","0","0","1","","0.3575696279","0.4","0.8","0.6","0.2","0.1787039029","0.04802221103","0.4117435103","0.3575696279","","","","","","","","","","","","76","L","3","","","201","main_expt"
"","bandit","281","1210212","0.0-242.0-0.0","87202182","wem/bandit_either_2","A209H73TTW9F87","either","1","461","","","","","","","0","1","0","","0.4023622846","0.4","0.8","0.6","0.2","0.2180442152","0.04583536071","0.4023622846","0.3937046418","","","","","","","","","","","","75","K","2","","","202","main_expt"
"","bandit","282","1212451","0.0-243.0-0.0","87202182","wem/bandit_either_2","A209H73TTW9F87","either","1","732","","","","","","","1","0","0","0.4225273878","","0.4","0.8","0.6","0.2","","","","","0.262784421","0.03655969434","0.4225273878","0.3901943722","","","","","","","","75","K","2","","","203","main_expt"
"","bandit","283","1215421","0.0-244.0-0.0","87202182","wem/bandit_either_2","A209H73TTW9F87","either","1","1462","","","","","","","0","1","0","","0.4151046429","0.4","0.8","0.6","0.2","0.2843732649","0.05773518339","0.4151046429","0.4099131859","","","","","","","","","","","","75","K","2","","","204","main_expt"
"","bandit","284","1217063","0.0-245.0-0.0","87202182","wem/bandit_either_2","A209H73TTW9F87","either","1","133","","","","","","","0","0","1","0.4288165897","","0.4","0.8","0.6","0.2","","","","","0.2549063301","0.06616346658","0.4288165897","0.4238238901","","","","","","","","75","K","2","","","205","main_expt"
"","bandit","285","1218953","0.0-246.0-0.0","87202182","wem/bandit_either_2","A209H73TTW9F87","either","1","383","","","","","","","0","0","1","0.436745712","","0.4","0.8","0.6","0.2","","","","","0.2982701688","0.09055598832","0.436745712","0.4139837541","","","","","","","","75","K","2","","","206","main_expt"
"","bandit","286","1221699","0.0-247.0-0.0","87202182","wem/bandit_either_2","A209H73TTW9F87","either","1","1237","","","","","","","1","0","0","0.4484652972","","0.4","0.8","0.6","0.2","","","","","0.3423773839","0.07583085731","0.4484652972","0.3544894801","","","","","","","","75","K","2","","","207","main_expt"
"","bandit","287","1224421","0.0-248.0-0.0","87202182","wem/bandit_either_2","A209H73TTW9F87","either","1","1213","","","","","","","0","0","1","","0.4516947584","0.4","0.8","0.6","0.2","0.3321535101","0.09768014643","0.4516947584","0.3703609936","","","","","","","","","","","","75","K","2","","","208","main_expt"
"","bandit","288","1226177","0.0-249.0-0.0","87202182","wem/bandit_either_2","A209H73TTW9F87","either","1","246","","","","","","","1","0","0","0.4590139285","","0.4","0.8","0.6","0.2","","","","","0.3467721984","0.08389795445","0.4590139285","0.3590511704","","","","","","","","75","K","2","","","209","main_expt"
"","bandit","289","1228133","0.0-250.0-0.0","87202182","wem/bandit_either_2","A209H73TTW9F87","either","1","449","","","","","","","0","0","1","","0.4378910613","0.4","0.8","0.6","0.2","0.3513447539","0.07846525543","0.4378910613","0.3781523972","","","","","","","","","","","","75","K","2","","","210","main_expt"
"","bandit","290","1229979","0.0-251.0-0.0","87202182","wem/bandit_either_2","A209H73TTW9F87","either","1","339","","","","","","","1","0","0","0.4139384991","","0.4","0.8","0.6","0.2","","","","","0.4003692624","0.05906932722","0.4139384991","0.3895188655","","","","","","","","75","K","2","","","211","main_expt"
"","bandit","291","1232555","0.0-252.0-0.0","87202182","wem/bandit_either_2","A209H73TTW9F87","either","1","1068","","","","","","","1","0","0","0.3659234609","","0.4","0.8","0.6","0.2","","","","","0.3949660502","0.04754192311","0.3659234609","0.4075098947","","","","","","","","75","K","2","","","212","main_expt"
"","bandit","292","1237325","0.0-253.0-0.0","87202182","wem/bandit_either_2","A209H73TTW9F87","either","1","3262","","","","","","","0","0","1","0.3180572988","","0.4","0.8","0.6","0.2","","","","","0.4233479157","0.05481920189","0.3180572988","0.4191075236","","","","","","","","75","K","2","","","213","main_expt"
"","bandit","293","1239238","0.0-254.0-0.0","87202182","wem/bandit_either_2","A209H73TTW9F87","either","1","404","","","","","","","0","0","1","","0.2611162072","0.4","0.8","0.6","0.2","0.4182751871","0.07954578011","0.2611162072","0.3799529118","","","","","","","","","","","","75","K","2","","","214","main_expt"
"","bandit","294","1241557","0.0-255.0-0.0","87202182","wem/bandit_either_2","A209H73TTW9F87","either","1","809","","","","","","","0","0","1","","0.2331309726","0.4","0.8","0.6","0.2","0.3745823719","0.1078137614","0.2331309726","0.3924699069","","","","","","","","","","","","75","K","2","","","215","main_expt"
"","bandit","295","1259232","0.0-256.0-0.0","87202182","wem/bandit_either_2","A209H73TTW9F87","either","1","16166","","","","","","","0","0","1","","0.2428402293","0.4","0.8","0.6","0.2","0.3809837923","0.1269525553","0.2428402293","0.3556657658","","","","","","","","","","","","75","K","2","","","216","main_expt"
"","bandit","296","1261368","0.0-257.0-0.0","87202182","wem/bandit_either_2","A209H73TTW9F87","either","1","627","","","","","","","0","0","1","","0.3870416945","0.4","0.8","0.6","0.2","0.4144294186","0.1849794572","0.2317762644","0.3870416945","","","","","","","","","","","","76","L","3","","","217","main_expt"
"","bandit","297","1267477","0.0-258.0-0.0","87202182","wem/bandit_either_2","A209H73TTW9F87","either","1","4600","","","","","","","0","0","1","0.1903787706","","0.4","0.8","0.6","0.2","","","","","0.4090742927","0.1903787706","0.204309912","0.3944581396","","","","","","","","74","J","1","","","218","main_expt"
"","bandit","298","1269198","0.0-259.0-0.0","87202182","wem/bandit_either_2","A209H73TTW9F87","either","1","213","","","","","","","0","0","1","","0.3869695378","0.4","0.8","0.6","0.2","0.3869695378","0.1768508397","0.1685596251","0.4256173987","","","","","","","","","","","","72","H","0","img/none_selected.jpg","","219","main_expt"
"","bandit","299","1271087","0.0-260.0-0.0","87202182","wem/bandit_either_2","A209H73TTW9F87","either","1","381","","","","","","","1","0","0","0.3814250035","","0.4","0.8","0.6","0.2","","","","","0.3814250035","0.2176561852","0.2488487331","0.4240862242","","","","","","","","72","H","0","img/none_selected.jpg","","220","main_expt"
"","bandit","300","1273822","0.0-261.0-0.0","87202182","wem/bandit_either_2","A209H73TTW9F87","either","1","1226","","","","","","","1","0","0","0.3560431311","","0.4","0.8","0.6","0.2","","","","","0.3560431311","0.2075488201","0.2789816034","0.4364702466","","","","","","","","72","H","0","img/none_selected.jpg","","221","main_expt"
"","bandit","301","1282250","0.0-262.0-0.0","87202182","wem/bandit_either_2","A209H73TTW9F87","either","1","6918","","","","","","","0","1","0","","0.3424215647","0.4","0.8","0.6","0.2","0.3424215647","0.2260831429","0.242729834","0.4512924842","","","","","","","","","","","","72","H","0","img/none_selected.jpg","","222","main_expt"
"","bandit","302","1293173","0.0-263.0-0.0","87202182","wem/bandit_either_2","A209H73TTW9F87","either","1","9416","","","","","","","1","0","0","0.3118962833","","0.4","0.8","0.6","0.2","","","","","0.3118962833","0.2512075751","0.196538567","0.4649948574","","","","","","","","72","H","0","img/none_selected.jpg","","223","main_expt"
"","bandit","303","1297606","0.0-264.0-0.0","87202182","wem/bandit_either_2","A209H73TTW9F87","either","1","2924","","","","","","","0","0","1","0.261290028","","0.4","0.8","0.6","0.2","","","","","0.261290028","0.3072691987","0.2189223785","0.4692106987","","","","","","","","72","H","0","img/none_selected.jpg","","224","main_expt"
"","bandit","304","1302442","0.0-265.0-0.0","87202182","wem/bandit_either_2","A209H73TTW9F87","either","1","3329","","","","","","","0","0","1","0.2748104332","","0.4","0.8","0.6","0.2","","","","","0.2748104332","0.3358063032","0.2131207899","0.4772226815","","","","","","","","72","H","0","img/none_selected.jpg","","225","main_expt"
"","bandit","305","1304447","0.0-266.0-0.0","87202182","wem/bandit_either_2","A209H73TTW9F87","either","1","496","","","","","","","0","0","1","0.2112523614","","0.4","0.8","0.6","0.2","","","","","0.2112523614","0.2994610032","0.187439681","0.4828013869","","","","","","","","72","H","0","img/none_selected.jpg","","226","main_expt"
"","bandit","306","1305975","0.0-267.0-0.0","87202182","wem/bandit_either_2","A209H73TTW9F87","either","1","20","","","","","","","0","0","1","0.2719992041","","0.4","0.8","0.6","0.2","","","","","0.1879164098","0.2719992041","0.1522087394","0.4805292857","","","","","","","","74","J","1","","","227","main_expt"
"","bandit","307","1308113","0.0-268.0-0.0","87202182","wem/bandit_either_2","A209H73TTW9F87","either","1","629","","","","","","","0","0","1","0.2601066631","","0.4","0.8","0.6","0.2","","","","","0.1857646906","0.2601066631","0.1975586059","0.4770879938","","","","","","","","74","J","1","","","228","main_expt"
"","bandit","308","1309902","0.0-269.0-0.0","87202182","wem/bandit_either_2","A209H73TTW9F87","either","1","281","","","","","","","0","0","1","0.2280604414","","0.4","0.8","0.6","0.2","","","","","0.1608888173","0.2333982712","0.2280604414","0.4830225504","","","","","","","","75","K","2","","","229","main_expt"
"","bandit","309","1311421","0.0-270.0-0.0","87202182","wem/bandit_either_2","A209H73TTW9F87","either","1","10","","","","","","","0","0","1","0.2120359748","","0.4","0.8","0.6","0.2","","","","","0.1139945837","0.2179366985","0.2120359748","0.4827210916","","","","","","","","75","K","2","","","230","main_expt"
"","bandit","310","1313164","0.0-271.0-0.0","87202182","wem/bandit_either_2","A209H73TTW9F87","either","1","235","","","","","","","0","1","0","","0.4764813513","0.4","0.8","0.6","0.2","0.1071229599","0.210335649","0.2260377558","0.4764813513","","","","","","","","","","","","76","L","3","","","231","main_expt"
"","bandit","311","1314742","0.0-272.0-0.0","87202182","wem/bandit_either_2","A209H73TTW9F87","either","1","68","","","","","","","0","0","1","","0.4794978353","0.4","0.8","0.6","0.2","0.1250262501","0.2154905401","0.2810037348","0.4794978353","","","","","","","","","","","","76","L","3","","","232","main_expt"
"","bandit","312","1316382","0.0-273.0-0.0","87202182","wem/bandit_either_2","A209H73TTW9F87","either","1","131","","","","","","","0","0","1","","0.4717583679","0.4","0.8","0.6","0.2","0.1262657767","0.2199054097","0.3371590923","0.4717583679","","","","","","","","","","","","76","L","3","","","233","main_expt"
"","bandit","313","1318666","0.0-274.0-0.0","87202182","wem/bandit_either_2","A209H73TTW9F87","either","1","775","","","","","","","0","1","0","","0.4801470087","0.4","0.8","0.6","0.2","0.1436583916","0.2116885818","0.2614597929","0.4801470087","","","","","","","","","","","","76","L","3","","","234","main_expt"
"","bandit","314","1321018","0.0-275.0-0.0","87202182","wem/bandit_either_2","A209H73TTW9F87","either","1","843","","","","","","","1","0","0","0.4698449305","","0.4","0.8","0.6","0.2","","","","","0.1776605917","0.2037112673","0.2855471023","0.4698449305","","","","","","","","76","L","3","","","235","main_expt"
"","bandit","315","1323178","0.0-276.0-0.0","87202182","wem/bandit_either_2","A209H73TTW9F87","either","1","651","","","","","","","0","1","0","","0.4750890902","0.4","0.8","0.6","0.2","0.2039581082","0.2295670059","0.2806831757","0.4750890902","","","","","","","","","","","","76","L","3","","","236","main_expt"
"","bandit","316","1325080","0.0-277.0-0.0","87202182","wem/bandit_either_2","A209H73TTW9F87","either","1","393","","","","","","","0","0","1","0.490873849","","0.4","0.8","0.6","0.2","","","","","0.1898025468","0.2602584061","0.3314479917","0.490873849","","","","","","","","76","L","3","","","237","main_expt"
"","bandit","317","1326778","0.0-278.0-0.0","87202182","wem/bandit_either_2","A209H73TTW9F87","either","1","188","","","","","","","0","0","1","","0.4658125052","0.4","0.8","0.6","0.2","0.20274426","0.2505035884","0.3495093658","0.4658125052","","","","","","","","","","","","76","L","3","","","238","main_expt"
"","bandit","318","1328555","0.0-279.0-0.0","87202182","wem/bandit_either_2","A209H73TTW9F87","either","1","270","","","","","","","1","0","0","0.4717810478","","0.4","0.8","0.6","0.2","","","","","0.2051086292","0.209031891","0.3413466471","0.4717810478","","","","","","","","76","L","3","","","239","main_expt"
"","bandit","319","1330457","0.0-280.0-0.0","87202182","wem/bandit_either_2","A209H73TTW9F87","either","1","393","","","","","","","0","0","1","","0.4751676635","0.4","0.8","0.6","0.2","0.1823871945","0.2203826704","0.3848911707","0.4751676635","","","","","","","","","","","","76","L","3","","","240","main_expt"
"","bandit","320","1332268","0.0-281.0-0.0","87202182","wem/bandit_either_2","A209H73TTW9F87","either","1","302","","","","","","","0","1","0","","0.4782176083","0.4","0.8","0.6","0.2","0.2206124516","0.2502218434","0.3352713547","0.4782176083","","","","","","","","","","","","76","L","3","","","241","main_expt"
"","bandit","321","1333933","0.0-282.0-0.0","87202182","wem/bandit_either_2","A209H73TTW9F87","either","1","156","","","","","","","0","0","1","","0.4842593171","0.4","0.8","0.6","0.2","0.1822231347","0.2465850657","0.3898112853","0.4842593171","","","","","","","","","","","","76","L","3","","","242","main_expt"
"","bandit","322","1335666","0.0-283.0-0.0","87202182","wem/bandit_either_2","A209H73TTW9F87","either","1","225","","","","","","","0","0","1","","0.4877308522","0.4","0.8","0.6","0.2","0.1782216913","0.2768687636","0.3746092993","0.4877308522","","","","","","","","","","","","76","L","3","","","243","main_expt"
"","bandit","323","1337443","0.0-284.0-0.0","87202182","wem/bandit_either_2","A209H73TTW9F87","either","1","268","","","","","","","0","1","0","","0.4867000748","0.4","0.8","0.6","0.2","0.1683297066","0.3318130554","0.3551642001","0.4867000748","","","","","","","","","","","","76","L","3","","","244","main_expt"
"","bandit","324","1339312","0.0-285.0-0.0","87202182","wem/bandit_either_2","A209H73TTW9F87","either","1","358","","","","","","","0","1","0","","0.4779689664","0.4","0.8","0.6","0.2","0.2394915997","0.3549389872","0.3556023966","0.4779689664","","","","","","","","","","","","76","L","3","","","245","main_expt"
"","bandit","325","1341144","0.0-286.0-0.0","87202182","wem/bandit_either_2","A209H73TTW9F87","either","1","324","","","","","","","0","0","1","","0.4691428495","0.4","0.8","0.6","0.2","0.2279590519","0.333301522","0.3265039954","0.4691428495","","","","","","","","","","","","76","L","3","","","246","main_expt"
"","bandit","326","1343069","0.0-287.0-0.0","87202182","wem/bandit_either_2","A209H73TTW9F87","either","1","416","","","","","","","0","0","1","0.4726686318","","0.4","0.8","0.6","0.2","","","","","0.2464238951","0.3514606933","0.2868106963","0.4726686318","","","","","","","","76","L","3","","","247","main_expt"
