"consent","trial_type","trial_index","time_elapsed","internal_node_id","subjID","study","MID","cond","drift","rt","responses","key_press","expt_phase","like","value","connected","gems","bombs","no_reward","GemPrChosen","BombPrChosen","GainOverPainPr_0","GainOverPainPr_1","GainOverPainPr_2","GainOverPainPr_3","LosePr_0","LosePr_1","LosePr_2","LosePr_3","WinPr_0","WinPr_1","WinPr_2","WinPr_3","Q0","Q1","Q2","gender","age","ethnicity","target","respCharCode","respKey","respChoiceNum","respChoice","practice","trial_counter","trial_label"
"INL_behavioral_consent_30min_online.html","consent","0","7111","0.0-0.0","87535195","wem/bandit_either_2","A2551EKB87S2XY","either","6","","","","","","","","","","","","","","","","","","","","","","","","","","","","","","","","","","","","","",""
"","survey-text","1","10712","0.0-1.0","87535195","wem/bandit_either_2","A2551EKB87S2XY","either","6","2583","{""Q0"":""A2551EKB87S2XY""}","","","","","","","","","","","","","","","","","","","","","","","","","","","","","","","","","","","",""
"","text","2","18105","0.0-2.0","87535195","wem/bandit_either_2","A2551EKB87S2XY","either","6","6390","","32","","","","","","","","","","","","","","","","","","","","","","","","","","","","","","","","","","",""
"","text","3","24553","0.0-3.0","87535195","wem/bandit_either_2","A2551EKB87S2XY","either","6","6442","","32","","","","","","","","","","","","","","","","","","","","","","","","","","","","","","","","","","",""
"","text","4","38856","0.0-4.0","87535195","wem/bandit_either_2","A2551EKB87S2XY","either","6","14299","","32","","","","","","","","","","","","","","","","","","","","","","","","","","","","","","","","","","",""
"","text","5","47887","0.0-5.0","87535195","wem/bandit_either_2","A2551EKB87S2XY","either","6","9029","","32","","","","","","","","","","","","","","","","","","","","","","","","","","","","","","","","","","",""
"","text","6","57438","0.0-6.0","87535195","wem/bandit_either_2","A2551EKB87S2XY","either","6","9548","","32","","","","","","","","","","","","","","","","","","","","","","","","","","","","","","","","","","",""
"","text","7","62206","0.0-7.0","87535195","wem/bandit_either_2","A2551EKB87S2XY","either","6","4765","","32","","","","","","","","","","","","","","","","","","","","","","","","","","","","","","","","","","",""
"","text","8","66298","0.0-8.0","87535195","wem/bandit_either_2","A2551EKB87S2XY","either","6","4088","","32","","","","","","","","","","","","","","","","","","","","","","","","","","","","","","","","","","",""
"","identification","9","74921","0.0-9.0-0.0","87535195","wem/bandit_either_2","A2551EKB87S2XY","either","6","8575","","","","2","2","1","","","","","","","","","","","","","","","","","","","","","","","","the village of Zur","","","","","","",""
"","identification","10","80017","0.0-9.0-1.0","87535195","wem/bandit_either_2","A2551EKB87S2XY","either","6","4056","","","","2","2","1","","","","","","","","","","","","","","","","","","","","","","","","the village of Nyx","","","","","","",""
"","text","11","86308","0.0-10.0","87535195","wem/bandit_either_2","A2551EKB87S2XY","either","6","5288","","32","","","","","","","","","","","","","","","","","","","","","","","","","","","","","","","","","","",""
"","text","12","88299","0.0-11.0","87535195","wem/bandit_either_2","A2551EKB87S2XY","either","6","1989","","32","","","","","","","","","","","","","","","","","","","","","","","","","","","","","","","","","","",""
"","text","13","90416","0.0-12.0","87535195","wem/bandit_either_2","A2551EKB87S2XY","either","6","2113","","32","","","","","","","","","","","","","","","","","","","","","","","","","","","","","","","","","","",""
"","text","14","94116","0.0-13.0","87535195","wem/bandit_either_2","A2551EKB87S2XY","either","6","3697","","32","","","","","","","","","","","","","","","","","","","","","","","","","","","","","","","","","","",""
"","bandit","15","98640","0.0-14.0-0.0","87535195","wem/bandit_either_2","A2551EKB87S2XY","either","6","3007","","","","","","","0","0","1","0","0","","","","","0","","","","0","","","","","","","","","","","74","J","0","img/none_selected_demo.jpg","true","0",""
"","bandit","16","102220","0.0-15.0-0.0","87535195","wem/bandit_either_2","A2551EKB87S2XY","either","6","2070","","","","","","","0","0","1","0","0","","","","","0","","","","0","","","","","","","","","","","75","K","0","img/none_selected_demo.jpg","true","0",""
"","text","17","107421","0.0-16.0","87535195","wem/bandit_either_2","A2551EKB87S2XY","either","6","5197","","32","","","","","","","","","","","","","","","","","","","","","","","","","","","","","","","","","","",""
"","text","18","113896","0.0-17.0","87535195","wem/bandit_either_2","A2551EKB87S2XY","either","6","6472","","32","","","","","","","","","","","","","","","","","","","","","","","","","","","","","","","","","","",""
"","text","19","120280","0.0-18.0","87535195","wem/bandit_either_2","A2551EKB87S2XY","either","6","6381","","32","","","","","","","","","","","","","","","","","","","","","","","","","","","","","","","","","","",""
"","text","20","124174","0.0-19.0","87535195","wem/bandit_either_2","A2551EKB87S2XY","either","6","3891","","32","","","","","","","","","","","","","","","","","","","","","","","","","","","","","","","","","","",""
"","bandit","21","127907","0.0-20.0-0.0","87535195","wem/bandit_either_2","A2551EKB87S2XY","either","6","2223","","","","","","","1","0","0","0.8","","0.5","0.5","","","","","","","0.8","0.2","","","","","","","","","","74","J","0","img/none_selected_demo.jpg","true","0","80_20_practice"
"","bandit","22","129864","0.0-20.0-1.0","87535195","wem/bandit_either_2","A2551EKB87S2XY","either","6","444","","","","","","","1","0","0","0.8","","0.5","0.5","","","","","","","0.8","0.2","","","","","","","","","","74","J","0","img/none_selected_demo.jpg","true","0","80_20_practice"
"","bandit","23","131777","0.0-20.0-2.0","87535195","wem/bandit_either_2","A2551EKB87S2XY","either","6","402","","","","","","","0","1","0","","0.8","0.5","0.5","","","0.8","0.2","","","","","","","","","","","","","","74","J","0","img/none_selected_demo.jpg","true","0","80_20_practice"
"","bandit","24","133661","0.0-20.0-3.0","87535195","wem/bandit_either_2","A2551EKB87S2XY","either","6","375","","","","","","","0","1","0","","0.8","0.5","0.5","","","0.8","0.2","","","","","","","","","","","","","","74","J","0","img/none_selected_demo.jpg","true","0","80_20_practice"
"","bandit","25","135462","0.0-20.0-4.0","87535195","wem/bandit_either_2","A2551EKB87S2XY","either","6","291","","","","","","","0","1","0","","0.8","0.5","0.5","","","0.8","0.2","","","","","","","","","","","","","","74","J","0","img/none_selected_demo.jpg","true","0","80_20_practice"
"","bandit","26","137243","0.0-20.0-5.0","87535195","wem/bandit_either_2","A2551EKB87S2XY","either","6","271","","","","","","","0","1","0","","0.2","0.5","0.5","","","0.8","0.2","","","","","","","","","","","","","","75","K","1","","true","0","80_20_practice"
"","bandit","27","139070","0.0-20.0-6.0","87535195","wem/bandit_either_2","A2551EKB87S2XY","either","6","317","","","","","","","0","0","1","","0.2","0.5","0.5","","","0.8","0.2","","","","","","","","","","","","","","75","K","1","","true","0","80_20_practice"
"","bandit","28","140889","0.0-20.0-7.0","87535195","wem/bandit_either_2","A2551EKB87S2XY","either","6","302","","","","","","","0","1","0","","0.8","0.5","0.5","","","0.8","0.2","","","","","","","","","","","","","","74","J","0","img/none_selected_demo.jpg","true","0","80_20_practice"
"","bandit","29","142683","0.0-20.0-8.0","87535195","wem/bandit_either_2","A2551EKB87S2XY","either","6","284","","","","","","","0","0","1","0.8","","0.5","0.5","","","","","","","0.8","0.2","","","","","","","","","","74","J","0","img/none_selected_demo.jpg","true","0","80_20_practice"
"","bandit","30","144491","0.0-20.0-9.0","87535195","wem/bandit_either_2","A2551EKB87S2XY","either","6","298","","","","","","","0","1","0","","0.8","0.5","0.5","","","0.8","0.2","","","","","","","","","","","","","","74","J","0","img/none_selected_demo.jpg","true","0","80_20_practice"
"","bandit","31","146369","0.0-20.0-10.0","87535195","wem/bandit_either_2","A2551EKB87S2XY","either","6","367","","","","","","","0","0","1","","0.8","0.5","0.5","","","0.8","0.2","","","","","","","","","","","","","","74","J","0","img/none_selected_demo.jpg","true","0","80_20_practice"
"","bandit","32","148172","0.0-20.0-11.0","87535195","wem/bandit_either_2","A2551EKB87S2XY","either","6","294","","","","","","","0","0","1","","0.2","0.5","0.5","","","0.8","0.2","","","","","","","","","","","","","","75","K","1","","true","0","80_20_practice"
"","bandit","33","150558","0.0-20.0-12.0","87535195","wem/bandit_either_2","A2551EKB87S2XY","either","6","877","","","","","","","0","1","0","","0.8","0.5","0.5","","","0.8","0.2","","","","","","","","","","","","","","74","J","0","img/none_selected_demo.jpg","true","0","80_20_practice"
"","bandit","34","152447","0.0-20.0-13.0","87535195","wem/bandit_either_2","A2551EKB87S2XY","either","6","372","","","","","","","0","1","0","","0.8","0.5","0.5","","","0.8","0.2","","","","","","","","","","","","","","74","J","0","img/none_selected_demo.jpg","true","0","80_20_practice"
"","bandit","35","154265","0.0-20.0-14.0","87535195","wem/bandit_either_2","A2551EKB87S2XY","either","6","308","","","","","","","0","1","0","","0.8","0.5","0.5","","","0.8","0.2","","","","","","","","","","","","","","74","J","0","img/none_selected_demo.jpg","true","0","80_20_practice"
"","bandit","36","156186","0.0-20.0-15.0","87535195","wem/bandit_either_2","A2551EKB87S2XY","either","6","391","","","","","","","0","0","1","0.8","","0.5","0.5","","","","","","","0.8","0.2","","","","","","","","","","74","J","0","img/none_selected_demo.jpg","true","0","80_20_practice"
"","bandit","37","158006","0.0-20.0-16.0","87535195","wem/bandit_either_2","A2551EKB87S2XY","either","6","309","","","","","","","0","1","0","","0.2","0.5","0.5","","","0.8","0.2","","","","","","","","","","","","","","75","K","1","","true","0","80_20_practice"
"","bandit","38","159792","0.0-20.0-17.0","87535195","wem/bandit_either_2","A2551EKB87S2XY","either","6","275","","","","","","","1","0","0","0.8","","0.5","0.5","","","","","","","0.8","0.2","","","","","","","","","","74","J","0","img/none_selected_demo.jpg","true","0","80_20_practice"
"","bandit","39","161615","0.0-20.0-18.0","87535195","wem/bandit_either_2","A2551EKB87S2XY","either","6","312","","","","","","","1","0","0","0.8","","0.5","0.5","","","","","","","0.8","0.2","","","","","","","","","","74","J","0","img/none_selected_demo.jpg","true","0","80_20_practice"
"","bandit","40","163412","0.0-20.0-19.0","87535195","wem/bandit_either_2","A2551EKB87S2XY","either","6","286","","","","","","","0","1","0","","0.8","0.5","0.5","","","0.8","0.2","","","","","","","","","","","","","","74","J","0","img/none_selected_demo.jpg","true","0","80_20_practice"
"","text","41","167757","0.0-21.0","87535195","wem/bandit_either_2","A2551EKB87S2XY","either","6","4342","","32","","","","","","","","","","","","","","","","","","","","","","","","","","","","","","","","","","",""
"","bandit","42","170320","0.0-22.0-0.0","87535195","wem/bandit_either_2","A2551EKB87S2XY","either","6","1054","","","","","","","1","0","0","1","0","","","","","0","1","","","1","0","","","","","","","","","","74","J","0","img/none_selected_demo.jpg","true","0",""
"","text","43","173713","0.0-23.0","87535195","wem/bandit_either_2","A2551EKB87S2XY","either","6","3389","","32","","","","","","","","","","","","","","","","","","","","","","","","","","","","","","","","","","",""
"","text","44","176656","0.0-24.0","87535195","wem/bandit_either_2","A2551EKB87S2XY","either","6","2939","","32","","","","","","","","","","","","","","","","","","","","","","","","","","","","","","","","","","",""
"","text","45","178913","0.0-25.0","87535195","wem/bandit_either_2","A2551EKB87S2XY","either","6","2254","","32","","","","","","","","","","","","","","","","","","","","","","","","","","","","","","","","","","",""
"","text","46","181174","0.0-26.0","87535195","wem/bandit_either_2","A2551EKB87S2XY","either","6","2255","","32","","","","","","","","","","","","","","","","","","","","","","","","","","","","","","","","","","",""
"","text","47","186171","0.0-27.0","87535195","wem/bandit_either_2","A2551EKB87S2XY","either","6","4994","","32","","","","","","","","","","","","","","","","","","","","","","","","","","","","","","","","","","",""
"","text","48","188258","0.0-28.0","87535195","wem/bandit_either_2","A2551EKB87S2XY","either","6","2083","","32","","","","","","","","","","","","","","","","","","","","","","","","","","","","","","","","","","",""
"","text","49","191387","0.0-29.0","87535195","wem/bandit_either_2","A2551EKB87S2XY","either","6","3125","","32","","","","","","","","","","","","","","","","","","","","","","","","","","","","","","","","","","",""
"","text","50","193689","0.0-30.0","87535195","wem/bandit_either_2","A2551EKB87S2XY","either","6","2298","","32","","","","","","","","","","","","","","","","","","","","","","","","","","","","","","","","","","",""
"","text","51","198620","0.0-31.0","87535195","wem/bandit_either_2","A2551EKB87S2XY","either","6","4927","","32","","","","","","","","","","","","","","","","","","","","","","","","","","","","","","","","","","",""
"","text","52","200754","0.0-32.0","87535195","wem/bandit_either_2","A2551EKB87S2XY","either","6","2129","","32","","","","","","","","","","","","","","","","","","","","","","","","","","","","","","","","","","",""
"","text","53","204721","0.0-33.0","87535195","wem/bandit_either_2","A2551EKB87S2XY","either","6","3960","","32","","","","","","","","","","","","","","","","","","","","","","","","","","","","","","","","","","",""
"","bandit","54","207324","0.0-34.0-0.0","87535195","wem/bandit_either_2","A2551EKB87S2XY","either","6","1093","","","","","","","1","0","0","0.8","","0.5","0.5","0.5","0.5","","","","","0.8","0.2","0.6","0.2","","","","","","","","72","H","0","img/none_selected.jpg","true","0","full_practice"
"","bandit","55","209205","0.0-34.0-1.0","87535195","wem/bandit_either_2","A2551EKB87S2XY","either","6","369","","","","","","","1","0","0","0.8","","0.5","0.5","0.5","0.5","","","","","0.8","0.2","0.6","0.2","","","","","","","","72","H","0","img/none_selected.jpg","true","0","full_practice"
"","bandit","56","211028","0.0-34.0-2.0","87535195","wem/bandit_either_2","A2551EKB87S2XY","either","6","313","","","","","","","0","0","1","0.2","","0.5","0.5","0.5","0.5","","","","","0.8","0.2","0.6","0.2","","","","","","","","74","J","1","","true","0","full_practice"
"","bandit","57","212952","0.0-34.0-3.0","87535195","wem/bandit_either_2","A2551EKB87S2XY","either","6","402","","","","","","","0","0","1","0.2","","0.5","0.5","0.5","0.5","","","","","0.8","0.2","0.6","0.2","","","","","","","","76","L","3","","true","0","full_practice"
"","bandit","58","214738","0.0-34.0-4.0","87535195","wem/bandit_either_2","A2551EKB87S2XY","either","6","272","","","","","","","1","0","0","0.6","","0.5","0.5","0.5","0.5","","","","","0.8","0.2","0.6","0.2","","","","","","","","75","K","2","","true","0","full_practice"
"","bandit","59","216600","0.0-34.0-5.0","87535195","wem/bandit_either_2","A2551EKB87S2XY","either","6","348","","","","","","","1","0","0","0.8","","0.5","0.5","0.5","0.5","","","","","0.8","0.2","0.6","0.2","","","","","","","","72","H","0","img/none_selected.jpg","true","0","full_practice"
"","bandit","60","218414","0.0-34.0-6.0","87535195","wem/bandit_either_2","A2551EKB87S2XY","either","6","298","","","","","","","0","1","0","","0.6","0.5","0.5","0.5","0.5","0.8","0.2","0.6","0.2","","","","","","","","","","","","75","K","2","","true","0","full_practice"
"","bandit","61","220210","0.0-34.0-7.0","87535195","wem/bandit_either_2","A2551EKB87S2XY","either","6","262","","","","","","","1","0","0","0.8","","0.5","0.5","0.5","0.5","","","","","0.8","0.2","0.6","0.2","","","","","","","","72","H","0","img/none_selected.jpg","true","0","full_practice"
"","bandit","62","222009","0.0-34.0-8.0","87535195","wem/bandit_either_2","A2551EKB87S2XY","either","6","289","","","","","","","1","0","0","0.6","","0.5","0.5","0.5","0.5","","","","","0.8","0.2","0.6","0.2","","","","","","","","75","K","2","","true","0","full_practice"
"","bandit","63","223807","0.0-34.0-9.0","87535195","wem/bandit_either_2","A2551EKB87S2XY","either","6","284","","","","","","","0","1","0","","0.8","0.5","0.5","0.5","0.5","0.8","0.2","0.6","0.2","","","","","","","","","","","","72","H","0","img/none_selected.jpg","true","0","full_practice"
"","bandit","64","225588","0.0-34.0-10.0","87535195","wem/bandit_either_2","A2551EKB87S2XY","either","6","268","","","","","","","0","1","0","","0.6","0.5","0.5","0.5","0.5","0.8","0.2","0.6","0.2","","","","","","","","","","","","75","K","2","","true","0","full_practice"
"","bandit","65","227375","0.0-34.0-11.0","87535195","wem/bandit_either_2","A2551EKB87S2XY","either","6","276","","","","","","","1","0","0","0.8","","0.5","0.5","0.5","0.5","","","","","0.8","0.2","0.6","0.2","","","","","","","","72","H","0","img/none_selected.jpg","true","0","full_practice"
"","bandit","66","229280","0.0-34.0-12.0","87535195","wem/bandit_either_2","A2551EKB87S2XY","either","6","387","","","","","","","0","0","1","0.6","","0.5","0.5","0.5","0.5","","","","","0.8","0.2","0.6","0.2","","","","","","","","75","K","2","","true","0","full_practice"
"","bandit","67","232266","0.0-34.0-13.0","87535195","wem/bandit_either_2","A2551EKB87S2XY","either","6","1476","","","","","","","1","0","0","0.8","","0.5","0.5","0.5","0.5","","","","","0.8","0.2","0.6","0.2","","","","","","","","72","H","0","img/none_selected.jpg","true","0","full_practice"
"","bandit","68","233942","0.0-34.0-14.0","87535195","wem/bandit_either_2","A2551EKB87S2XY","either","6","165","","","","","","","0","1","0","","0.8","0.5","0.5","0.5","0.5","0.8","0.2","0.6","0.2","","","","","","","","","","","","72","H","0","img/none_selected.jpg","true","0","full_practice"
"","bandit","69","235791","0.0-34.0-15.0","87535195","wem/bandit_either_2","A2551EKB87S2XY","either","6","338","","","","","","","0","0","1","0.8","","0.5","0.5","0.5","0.5","","","","","0.8","0.2","0.6","0.2","","","","","","","","72","H","0","img/none_selected.jpg","true","0","full_practice"
"","bandit","70","237660","0.0-34.0-16.0","87535195","wem/bandit_either_2","A2551EKB87S2XY","either","6","356","","","","","","","0","0","1","0.6","","0.5","0.5","0.5","0.5","","","","","0.8","0.2","0.6","0.2","","","","","","","","75","K","2","","true","0","full_practice"
"","bandit","71","239521","0.0-34.0-17.0","87535195","wem/bandit_either_2","A2551EKB87S2XY","either","6","347","","","","","","","1","0","0","0.8","","0.5","0.5","0.5","0.5","","","","","0.8","0.2","0.6","0.2","","","","","","","","72","H","0","img/none_selected.jpg","true","0","full_practice"
"","bandit","72","241301","0.0-34.0-18.0","87535195","wem/bandit_either_2","A2551EKB87S2XY","either","6","270","","","","","","","0","1","0","","0.8","0.5","0.5","0.5","0.5","0.8","0.2","0.6","0.2","","","","","","","","","","","","72","H","0","img/none_selected.jpg","true","0","full_practice"
"","bandit","73","243070","0.0-34.0-19.0","87535195","wem/bandit_either_2","A2551EKB87S2XY","either","6","259","","","","","","","0","1","0","","0.8","0.5","0.5","0.5","0.5","0.8","0.2","0.6","0.2","","","","","","","","","","","","72","H","0","img/none_selected.jpg","true","0","full_practice"
"","text","74","247313","0.0-35.0","87535195","wem/bandit_either_2","A2551EKB87S2XY","either","6","4234","","32","","","","","","","","","","","","","","","","","","","","","","","","","","","","","","","","","","",""
"","text","75","254851","0.0-36.0","87535195","wem/bandit_either_2","A2551EKB87S2XY","either","6","6532","","32","","","","","","","","","","","","","","","","","","","","","","","","","","","","","","","","","","",""
"","text","76","259781","0.0-37.0","87535195","wem/bandit_either_2","A2551EKB87S2XY","either","6","4926","","32","","","","","","","","","","","","","","","","","","","","","","","","","","","","","","","","","","",""
"","text","77","262351","0.0-38.0","87535195","wem/bandit_either_2","A2551EKB87S2XY","either","6","2566","","32","","","","","","","","","","","","","","","","","","","","","","","","","","","","","","","","","","",""
"","text","78","265922","0.0-39.0","87535195","wem/bandit_either_2","A2551EKB87S2XY","either","6","3567","","32","","","","","","","","","","","","","","","","","","","","","","","","","","","","","","","","","","",""
"","text","79","269670","0.0-40.0","87535195","wem/bandit_either_2","A2551EKB87S2XY","either","6","3742","","32","","","","","","","","","","","","","","","","","","","","","","","","","","","","","","","","","","",""
"","bandit","80","272148","0.0-41.0-0.0","87535195","wem/bandit_either_2","A2551EKB87S2XY","either","6","967","","","","","","","0","1","0","","0.4656478179","0.2","0.6","0.8","0.4","0.4656478179","0.1720655487","0.06094066238","0.1734470434","","","","","","","","","","","","72","H","0","img/none_selected.jpg","","1","main_expt"
"","bandit","81","274066","0.0-42.0-0.0","87535195","wem/bandit_either_2","A2551EKB87S2XY","either","6","407","","","","","","","0","0","1","0.1582158198","","0.2","0.6","0.8","0.4","","","","","0.4661883906","0.1607886358","0.04941180107","0.1582158198","","","","","","","","76","L","3","","","2","main_expt"
"","bandit","82","275736","0.0-43.0-0.0","87535195","wem/bandit_either_2","A2551EKB87S2XY","either","6","157","","","","","","","0","0","1","0.09066711981","","0.2","0.6","0.8","0.4","","","","","0.4608397999","0.1825924006","0.09066711981","0.1264016625","","","","","","","","75","K","2","","","3","main_expt"
"","bandit","83","277505","0.0-44.0-0.0","87535195","wem/bandit_either_2","A2551EKB87S2XY","either","6","255","","","","","","","0","0","1","","0.1572982515","0.2","0.6","0.8","0.4","0.4568511376","0.1572982515","0.07815644495","0.1212924903","","","","","","","","","","","","74","J","1","","","4","main_expt"
"","bandit","84","279342","0.0-45.0-0.0","87535195","wem/bandit_either_2","A2551EKB87S2XY","either","6","323","","","","","","","0","1","0","","0.4576747282","0.2","0.6","0.8","0.4","0.4576747282","0.1873501432","0.06547040057","0.1603104869","","","","","","","","","","","","72","H","0","img/none_selected.jpg","","5","main_expt"
"","bandit","85","281336","0.0-46.0-0.0","87535195","wem/bandit_either_2","A2551EKB87S2XY","either","6","479","","","","","","","0","0","1","","0.4673201091","0.2","0.6","0.8","0.4","0.4673201091","0.1484719509","0.09500806419","0.1916070739","","","","","","","","","","","","72","H","0","img/none_selected.jpg","","6","main_expt"
"","bandit","86","283124","0.0-47.0-0.0","87535195","wem/bandit_either_2","A2551EKB87S2XY","either","6","273","","","","","","","0","0","1","","0.1624213819","0.2","0.6","0.8","0.4","0.4671816856","0.1368680622","0.1156714339","0.1624213819","","","","","","","","","","","","76","L","3","","","7","main_expt"
"","bandit","87","284947","0.0-48.0-0.0","87535195","wem/bandit_either_2","A2551EKB87S2XY","either","6","307","","","","","","","0","0","1","0.08939878806","","0.2","0.6","0.8","0.4","","","","","0.4577650209","0.1412197478","0.08939878806","0.1529627983","","","","","","","","75","K","2","","","8","main_expt"
"","bandit","88","286736","0.0-49.0-0.0","87535195","wem/bandit_either_2","A2551EKB87S2XY","either","6","276","","","","","","","0","0","1","","0.4538037209","0.2","0.6","0.8","0.4","0.4538037209","0.1285241668","0.1379609943","0.1638779","","","","","","","","","","","","72","H","0","img/none_selected.jpg","","9","main_expt"
"","bandit","89","288541","0.0-50.0-0.0","87535195","wem/bandit_either_2","A2551EKB87S2XY","either","6","291","","","","","","","0","0","1","0.1137500729","","0.2","0.6","0.8","0.4","","","","","0.4567906288","0.1137500729","0.08892925829","0.1682184418","","","","","","","","74","J","1","","","10","main_expt"
"","bandit","90","291019","0.0-51.0-0.0","87535195","wem/bandit_either_2","A2551EKB87S2XY","either","6","964","","","","","","","0","0","1","","0.4707556997","0.2","0.6","0.8","0.4","0.4707556997","0.1134058804","0.1053961985","0.1511948373","","","","","","","","","","","","72","H","0","img/none_selected.jpg","","11","main_expt"
"","bandit","91","293094","0.0-52.0-0.0","87535195","wem/bandit_either_2","A2551EKB87S2XY","either","6","557","","","","","","","0","0","1","","0.4534589675","0.2","0.6","0.8","0.4","0.4534589675","0.1358134986","0.1267534428","0.2144966391","","","","","","","","","","","","72","H","0","img/none_selected.jpg","","12","main_expt"
"","bandit","92","294981","0.0-53.0-0.0","87535195","wem/bandit_either_2","A2551EKB87S2XY","either","6","376","","","","","","","0","0","1","","0.1443049275","0.2","0.6","0.8","0.4","0.4474824422","0.1105925571","0.1179877152","0.1443049275","","","","","","","","","","","","76","L","3","","","13","main_expt"
"","bandit","93","298583","0.0-54.0-0.0","87535195","wem/bandit_either_2","A2551EKB87S2XY","either","6","2091","","","","","","","0","0","1","0.1300626215","","0.2","0.6","0.8","0.4","","","","","0.4125602811","0.09057326494","0.1300626215","0.149160688","","","","","","","","75","K","2","","","14","main_expt"
"","bandit","94","301568","0.0-55.0-0.0","87535195","wem/bandit_either_2","A2551EKB87S2XY","either","6","1472","","","","","","","0","0","1","","0.05963436345","0.2","0.6","0.8","0.4","0.3715785473","0.05963436345","0.1129073675","0.1525333278","","","","","","","","","","","","74","J","1","","","15","main_expt"
"","bandit","95","304551","0.0-56.0-0.0","87535195","wem/bandit_either_2","A2551EKB87S2XY","either","6","1470","","","","","","","0","0","1","","0.3670357029","0.2","0.6","0.8","0.4","0.3670357029","0.03970917029","0.1132840383","0.1437253933","","","","","","","","","","","","72","H","0","img/none_selected.jpg","","16","main_expt"
"","bandit","96","306763","0.0-57.0-0.0","87535195","wem/bandit_either_2","A2551EKB87S2XY","either","6","694","","","","","","","0","0","1","0.03301664506","","0.2","0.6","0.8","0.4","","","","","0.333794799","0.03301664506","0.1530786807","0.1191274054","","","","","","","","74","J","1","","","17","main_expt"
"","bandit","97","309454","0.0-58.0-0.0","87535195","wem/bandit_either_2","A2551EKB87S2XY","either","6","1178","","","","","","","0","0","1","0.1367655081","","0.2","0.6","0.8","0.4","","","","","0.3720862831","0.0325619","0.1367655081","0.1231388663","","","","","","","","75","K","2","","","18","main_expt"
"","bandit","98","310974","0.0-59.0-0.0","87535195","wem/bandit_either_2","A2551EKB87S2XY","either","6","3","","","","","","","0","0","1","0.1014962652","","0.2","0.6","0.8","0.4","","","","","0.3940248177","0.05136562407","0.1519969922","0.1014962652","","","","","","","","76","L","3","","","19","main_expt"
"","bandit","99","313040","0.0-60.0-0.0","87535195","wem/bandit_either_2","A2551EKB87S2XY","either","6","549","","","","","","","0","0","1","","0.3980303587","0.2","0.6","0.8","0.4","0.3980303587","0.05620034239","0.2344823222","0.1184271466","","","","","","","","","","","","72","H","0","img/none_selected.jpg","","20","main_expt"
"","bandit","100","315299","0.0-61.0-0.0","87535195","wem/bandit_either_2","A2551EKB87S2XY","either","6","744","","","","","","","1","0","0","0.405953395","","0.2","0.6","0.8","0.4","","","","","0.405953395","0.04865895453","0.2227593861","0.1434190777","","","","","","","","72","H","0","img/none_selected.jpg","","21","main_expt"
"","bandit","101","317874","0.0-62.0-0.0","87535195","wem/bandit_either_2","A2551EKB87S2XY","either","6","1062","","","","","","","0","0","1","0.37898799","","0.2","0.6","0.8","0.4","","","","","0.37898799","0.05276066643","0.1831098024","0.1323354157","","","","","","","","72","H","0","img/none_selected.jpg","","22","main_expt"
"","bandit","102","320487","0.0-63.0-0.0","87535195","wem/bandit_either_2","A2551EKB87S2XY","either","6","1096","","","","","","","0","1","0","","0.3661255489","0.2","0.6","0.8","0.4","0.3661255489","0.05284133488","0.1660310818","0.1384191998","","","","","","","","","","","","72","H","0","img/none_selected.jpg","","23","main_expt"
"","bandit","103","323036","0.0-64.0-0.0","87535195","wem/bandit_either_2","A2551EKB87S2XY","either","6","1033","","","","","","","0","0","1","0.3576379461","","0.2","0.6","0.8","0.4","","","","","0.3576379461","0.0333904923","0.1400827643","0.1395593146","","","","","","","","72","H","0","img/none_selected.jpg","","24","main_expt"
"","bandit","104","325242","0.0-65.0-0.0","87535195","wem/bandit_either_2","A2551EKB87S2XY","either","6","694","","","","","","","0","0","1","0.3346121782","","0.2","0.6","0.8","0.4","","","","","0.3346121782","0.04666446392","0.2022937807","0.1696236693","","","","","","","","72","H","0","img/none_selected.jpg","","25","main_expt"
"","bandit","105","327119","0.0-66.0-0.0","87535195","wem/bandit_either_2","A2551EKB87S2XY","either","6","354","","","","","","","0","0","1","","0.3790434843","0.2","0.6","0.8","0.4","0.3790434843","0.04067930801","0.1725383963","0.1754084838","","","","","","","","","","","","72","H","0","img/none_selected.jpg","","26","main_expt"
"","bandit","106","329024","0.0-67.0-0.0","87535195","wem/bandit_either_2","A2551EKB87S2XY","either","6","394","","","","","","","0","0","1","0.118483546","","0.2","0.6","0.8","0.4","","","","","0.3744762435","0.03070036018","0.1735642386","0.118483546","","","","","","","","76","L","3","","","27","main_expt"
"","bandit","107","330907","0.0-68.0-0.0","87535195","wem/bandit_either_2","A2551EKB87S2XY","either","6","372","","","","","","","0","0","1","0.1259847853","","0.2","0.6","0.8","0.4","","","","","0.3650769418","0.02292460278","0.149532802","0.1259847853","","","","","","","","76","L","3","","","28","main_expt"
"","bandit","108","332735","0.0-69.0-0.0","87535195","wem/bandit_either_2","A2551EKB87S2XY","either","6","308","","","","","","","1","0","0","0.1597785082","","0.2","0.6","0.8","0.4","","","","","0.3299345172","0.03476379039","0.1597785082","0.1072727049","","","","","","","","75","K","2","","","29","main_expt"
"","bandit","109","334753","0.0-70.0-0.0","87535195","wem/bandit_either_2","A2551EKB87S2XY","either","6","502","","","","","","","0","0","1","0.1978771271","","0.2","0.6","0.8","0.4","","","","","0.3010095271","0.04211589453","0.1978771271","0.07952930744","","","","","","","","75","K","2","","","30","main_expt"
"","bandit","110","336749","0.0-71.0-0.0","87535195","wem/bandit_either_2","A2551EKB87S2XY","either","6","479","","","","","","","0","0","1","0.1928768267","","0.2","0.6","0.8","0.4","","","","","0.331530841","0.04495483672","0.1928768267","0.09691030242","","","","","","","","75","K","2","","","31","main_expt"
"","bandit","111","338550","0.0-72.0-0.0","87535195","wem/bandit_either_2","A2551EKB87S2XY","either","6","289","","","","","","","0","0","1","0.1511047494","","0.2","0.6","0.8","0.4","","","","","0.3469043085","0.04126869591","0.1511047494","0.1338720944","","","","","","","","75","K","2","","","32","main_expt"
"","bandit","112","340415","0.0-73.0-0.0","87535195","wem/bandit_either_2","A2551EKB87S2XY","either","6","353","","","","","","","1","0","0","0.02396570111","","0.2","0.6","0.8","0.4","","","","","0.2778139242","0.02396570111","0.09247049486","0.1428203538","","","","","","","","74","J","1","","","33","main_expt"
"","bandit","113","342342","0.0-74.0-0.0","87535195","wem/bandit_either_2","A2551EKB87S2XY","either","6","408","","","","","","","0","0","1","","0.03561151332","0.2","0.6","0.8","0.4","0.236883459","0.03561151332","0.1127946788","0.1258169527","","","","","","","","","","","","74","J","1","","","34","main_expt"
"","bandit","114","344166","0.0-75.0-0.0","87535195","wem/bandit_either_2","A2551EKB87S2XY","either","6","310","","","","","","","0","0","1","0.1652362889","","0.2","0.6","0.8","0.4","","","","","0.2656196476","0.04565222073","0.1279928094","0.1652362889","","","","","","","","76","L","3","","","35","main_expt"
"","bandit","115","345923","0.0-76.0-0.0","87535195","wem/bandit_either_2","A2551EKB87S2XY","either","6","240","","","","","","","0","0","1","","0.1472348388","0.2","0.6","0.8","0.4","0.2309028503","0.05036449293","0.09285608896","0.1472348388","","","","","","","","","","","","76","L","3","","","36","main_expt"
"","bandit","116","347777","0.0-77.0-0.0","87535195","wem/bandit_either_2","A2551EKB87S2XY","either","6","338","","","","","","","0","0","1","0.04764774511","","0.2","0.6","0.8","0.4","","","","","0.1961267878","0.04764774511","0.1251507517","0.20581188","","","","","","","","74","J","1","","","37","main_expt"
"","bandit","117","349682","0.0-78.0-0.0","87535195","wem/bandit_either_2","A2551EKB87S2XY","either","6","393","","","","","","","0","0","1","0.2197692452","","0.2","0.6","0.8","0.4","","","","","0.2197692452","0.04692466818","0.1248439258","0.2096070571","","","","","","","","72","H","0","img/none_selected.jpg","","38","main_expt"
"","bandit","118","351555","0.0-79.0-0.0","87535195","wem/bandit_either_2","A2551EKB87S2XY","either","6","360","","","","","","","0","0","1","","0.1783178102","0.2","0.6","0.8","0.4","0.1783178102","0.06150360576","0.1192858938","0.1888903691","","","","","","","","","","","","72","H","0","img/none_selected.jpg","","39","main_expt"
"","bandit","119","353488","0.0-80.0-0.0","87535195","wem/bandit_either_2","A2551EKB87S2XY","either","6","417","","","","","","","0","0","1","","0.1025324214","0.2","0.6","0.8","0.4","0.1354267005","0.1025324214","0.1457630933","0.1769314034","","","","","","","","","","","","74","J","1","","","40","main_expt"
"","bandit","120","355503","0.0-81.0-0.0","87535195","wem/bandit_either_2","A2551EKB87S2XY","either","6","499","","","","","","","0","0","1","0.1788887836","","0.2","0.6","0.8","0.4","","","","","0.1307301687","0.1278282258","0.1788887836","0.1764673912","","","","","","","","75","K","2","","","41","main_expt"
"","bandit","121","357380","0.0-82.0-0.0","87535195","wem/bandit_either_2","A2551EKB87S2XY","either","6","364","","","","","","","0","0","1","","0.1002459791","0.2","0.6","0.8","0.4","0.1002459791","0.1144783829","0.1550439797","0.1164002711","","","","","","","","","","","","72","H","0","img/none_selected.jpg","","42","main_expt"
"","bandit","122","359169","0.0-83.0-0.0","87535195","wem/bandit_either_2","A2551EKB87S2XY","either","6","277","","","","","","","0","0","1","","0.1248357276","0.2","0.6","0.8","0.4","0.06131682752","0.148274456","0.1624336935","0.1248357276","","","","","","","","","","","","76","L","3","","","43","main_expt"
"","bandit","123","360944","0.0-84.0-0.0","87535195","wem/bandit_either_2","A2551EKB87S2XY","either","6","261","","","","","","","0","0","1","","0.1801883524","0.2","0.6","0.8","0.4","0.05757194937","0.1733993608","0.2610419313","0.1801883524","","","","","","","","","","","","76","L","3","","","44","main_expt"
"","bandit","124","362721","0.0-85.0-0.0","87535195","wem/bandit_either_2","A2551EKB87S2XY","either","6","266","","","","","","","0","0","1","","0.1536252234","0.2","0.6","0.8","0.4","0.06317169253","0.1731137141","0.2547096211","0.1536252234","","","","","","","","","","","","76","L","3","","","45","main_expt"
"","bandit","125","364503","0.0-86.0-0.0","87535195","wem/bandit_either_2","A2551EKB87S2XY","either","6","265","","","","","","","1","0","0","0.2690630982","","0.2","0.6","0.8","0.4","","","","","0.08604650327","0.2577534017","0.2690630982","0.1453657368","","","","","","","","75","K","2","","","46","main_expt"
"","bandit","126","366315","0.0-87.0-0.0","87535195","wem/bandit_either_2","A2551EKB87S2XY","either","6","293","","","","","","","0","0","1","","0.2613787364","0.2","0.6","0.8","0.4","0.07503215105","0.2436059896","0.2613787364","0.1163474927","","","","","","","","","","","","75","K","2","","","47","main_expt"
"","bandit","127","368071","0.0-88.0-0.0","87535195","wem/bandit_either_2","A2551EKB87S2XY","either","6","240","","","","","","","0","0","1","0.2764851171","","0.2","0.6","0.8","0.4","","","","","0.09661626413","0.261356988","0.2764851171","0.1187671899","","","","","","","","75","K","2","","","48","main_expt"
"","bandit","128","369905","0.0-89.0-0.0","87535195","wem/bandit_either_2","A2551EKB87S2XY","either","6","319","","","","","","","0","0","1","0.2628846066","","0.2","0.6","0.8","0.4","","","","","0.141419135","0.2707362224","0.2628846066","0.1321787199","","","","","","","","75","K","2","","","49","main_expt"
"","bandit","129","371916","0.0-90.0-0.0","87535195","wem/bandit_either_2","A2551EKB87S2XY","either","6","489","","","","","","","0","0","1","0.3634831931","","0.2","0.6","0.8","0.4","","","","","0.1341637883","0.2733601765","0.3634831931","0.1310663867","","","","","","","","75","K","2","","","50","main_expt"
"","bandit","130","373749","0.0-91.0-0.0","87535195","wem/bandit_either_2","A2551EKB87S2XY","either","6","317","","","","","","","0","0","1","","0.2590969561","0.2","0.6","0.8","0.4","0.1225974466","0.2590969561","0.3771608335","0.1450472339","","","","","","","","","","","","74","J","1","","","51","main_expt"
"","bandit","131","375614","0.0-92.0-0.0","87535195","wem/bandit_either_2","A2551EKB87S2XY","either","6","347","","","","","","","0","0","1","0.2515646212","","0.2","0.6","0.8","0.4","","","","","0.1145468474","0.2515646212","0.3093307572","0.1731775471","","","","","","","","74","J","1","","","52","main_expt"
"","bandit","132","377548","0.0-93.0-0.0","87535195","wem/bandit_either_2","A2551EKB87S2XY","either","6","413","","","","","","","0","0","1","0.2257746054","","0.2","0.6","0.8","0.4","","","","","0.1059564611","0.2257746054","0.2990929044","0.2258016315","","","","","","","","74","J","1","","","53","main_expt"
"","bandit","133","379628","0.0-94.0-0.0","87535195","wem/bandit_either_2","A2551EKB87S2XY","either","6","562","","","","","","","0","0","1","0.2750925763","","0.2","0.6","0.8","0.4","","","","","0.1090017536","0.2750925763","0.2221679908","0.2172527187","","","","","","","","74","J","1","","","54","main_expt"
"","bandit","134","381490","0.0-95.0-0.0","87535195","wem/bandit_either_2","A2551EKB87S2XY","either","6","349","","","","","","","0","0","1","","0.1652356872","0.2","0.6","0.8","0.4","0.1249444004","0.3608357377","0.1886471815","0.1652356872","","","","","","","","","","","","76","L","3","","","55","main_expt"
"","bandit","135","383521","0.0-96.0-0.0","87535195","wem/bandit_either_2","A2551EKB87S2XY","either","6","514","","","","","","","0","0","1","0.09043885587","","0.2","0.6","0.8","0.4","","","","","0.09043885587","0.4022545085","0.1973213641","0.1576418272","","","","","","","","72","H","0","img/none_selected.jpg","","56","main_expt"
"","bandit","136","385909","0.0-97.0-0.0","87535195","wem/bandit_either_2","A2551EKB87S2XY","either","6","869","","","","","","","0","0","1","0.3867568464","","0.2","0.6","0.8","0.4","","","","","0.07448640425","0.3867568464","0.2207101474","0.180776926","","","","","","","","74","J","1","","","57","main_expt"
"","bandit","137","387962","0.0-98.0-0.0","87535195","wem/bandit_either_2","A2551EKB87S2XY","either","6","540","","","","","","","0","0","1","","0.09808879237","0.2","0.6","0.8","0.4","0.09808879237","0.3840355114","0.2480089655","0.1489081552","","","","","","","","","","","","72","H","0","img/none_selected.jpg","","58","main_expt"
"","bandit","138","390056","0.0-99.0-0.0","87535195","wem/bandit_either_2","A2551EKB87S2XY","either","6","575","","","","","","","0","0","1","0.2667579505","","0.2","0.6","0.8","0.4","","","","","0.0721355853","0.3617876187","0.2667579505","0.125555473","","","","","","","","75","K","2","","","59","main_expt"
"","bandit","139","392086","0.0-100.0-0.0","87535195","wem/bandit_either_2","A2551EKB87S2XY","either","6","514","","","","","","","0","0","1","","0.1228814318","0.2","0.6","0.8","0.4","0.08871326978","0.3018070945","0.2637313595","0.1228814318","","","","","","","","","","","","76","L","3","","","60","main_expt"
"","bandit","140","395141","0.0-101.0-0.0","87535195","wem/bandit_either_2","A2551EKB87S2XY","either","6","1540","","","","","","","0","0","1","0.1472383223","","0.2","0.6","0.8","0.4","","","","","0.1472383223","0.2687465691","0.2400462537","0.195834737","","","","","","","","72","H","0","img/none_selected.jpg","","61","main_expt"
"","bandit","141","397110","0.0-102.0-0.0","87535195","wem/bandit_either_2","A2551EKB87S2XY","either","6","456","","","","","","","0","0","1","","0.1625866577","0.2","0.6","0.8","0.4","0.1625866577","0.287622952","0.2396546157","0.1952904108","","","","","","","","","","","","72","H","0","img/none_selected.jpg","","62","main_expt"
"","bandit","142","399062","0.0-103.0-0.0","87535195","wem/bandit_either_2","A2551EKB87S2XY","either","6","442","","","","","","","0","1","0","","0.2060093557","0.2","0.6","0.8","0.4","0.1196153378","0.2060093557","0.2558687718","0.187392073","","","","","","","","","","","","74","J","1","","","63","main_expt"
"","bandit","143","401061","0.0-104.0-0.0","87535195","wem/bandit_either_2","A2551EKB87S2XY","either","6","478","","","","","","","0","0","1","0.1865830226","","0.2","0.6","0.8","0.4","","","","","0.1025290435","0.1865830226","0.1789331692","0.1774517964","","","","","","","","74","J","1","","","64","main_expt"
"","bandit","144","402920","0.0-105.0-0.0","87535195","wem/bandit_either_2","A2551EKB87S2XY","either","6","340","","","","","","","1","0","0","0.2041721298","","0.2","0.6","0.8","0.4","","","","","0.06637487434","0.2242960511","0.2041721298","0.1956590225","","","","","","","","75","K","2","","","65","main_expt"
"","bandit","145","404855","0.0-106.0-0.0","87535195","wem/bandit_either_2","A2551EKB87S2XY","either","6","416","","","","","","","0","0","1","0.1083731131","","0.2","0.6","0.8","0.4","","","","","0.09888809835","0.213739571","0.1083731131","0.1559932489","","","","","","","","75","K","2","","","66","main_expt"
"","bandit","146","406625","0.0-107.0-0.0","87535195","wem/bandit_either_2","A2551EKB87S2XY","either","6","257","","","","","","","0","1","0","","0.1327283285","0.2","0.6","0.8","0.4","0.08542348091","0.2463093088","0.08148965902","0.1327283285","","","","","","","","","","","","76","L","3","","","67","main_expt"
"","bandit","147","409421","0.0-108.0-0.0","87535195","wem/bandit_either_2","A2551EKB87S2XY","either","6","1283","","","","","","","0","0","1","","0.05648132023","0.2","0.6","0.8","0.4","0.05648132023","0.1863602012","0.115871946","0.1646421129","","","","","","","","","","","","72","H","0","img/none_selected.jpg","","68","main_expt"
"","bandit","148","411350","0.0-109.0-0.0","87535195","wem/bandit_either_2","A2551EKB87S2XY","either","6","415","","","","","","","0","1","0","","0.1481768435","0.2","0.6","0.8","0.4","0.07427448495","0.1481768435","0.1049465522","0.1879918005","","","","","","","","","","","","74","J","1","","","69","main_expt"
"","bandit","149","413244","0.0-110.0-0.0","87535195","wem/bandit_either_2","A2551EKB87S2XY","either","6","380","","","","","","","0","0","1","0.1224614501","","0.2","0.6","0.8","0.4","","","","","0.1052870039","0.2062415021","0.1224614501","0.1708527721","","","","","","","","75","K","2","","","70","main_expt"
"","bandit","150","415091","0.0-111.0-0.0","87535195","wem/bandit_either_2","A2551EKB87S2XY","either","6","330","","","","","","","0","0","1","","0.1930923514","0.2","0.6","0.8","0.4","0.1114501371","0.2175562698","0.1687358413","0.1930923514","","","","","","","","","","","","76","L","3","","","71","main_expt"
"","bandit","151","416961","0.0-112.0-0.0","87535195","wem/bandit_either_2","A2551EKB87S2XY","either","6","358","","","","","","","0","0","1","","0.1282799478","0.2","0.6","0.8","0.4","0.1282799478","0.2182173038","0.1902964731","0.2289396243","","","","","","","","","","","","72","H","0","img/none_selected.jpg","","72","main_expt"
"","bandit","152","418855","0.0-113.0-0.0","87535195","wem/bandit_either_2","A2551EKB87S2XY","either","6","384","","","","","","","0","0","1","","0.1629952044","0.2","0.6","0.8","0.4","0.1113050996","0.1629952044","0.1764690901","0.2223781067","","","","","","","","","","","","74","J","1","","","73","main_expt"
"","bandit","153","420660","0.0-114.0-0.0","87535195","wem/bandit_either_2","A2551EKB87S2XY","either","6","288","","","","","","","0","0","1","0.2291178652","","0.2","0.6","0.8","0.4","","","","","0.1573287606","0.2291178652","0.1720288853","0.1664819569","","","","","","","","74","J","1","","","74","main_expt"
"","bandit","154","422453","0.0-115.0-0.0","87535195","wem/bandit_either_2","A2551EKB87S2XY","either","6","281","","","","","","","0","0","1","","0.168318459","0.2","0.6","0.8","0.4","0.168318459","0.2087405931","0.098780463","0.1157276324","","","","","","","","","","","","72","H","0","img/none_selected.jpg","","75","main_expt"
"","bandit","155","424321","0.0-116.0-0.0","87535195","wem/bandit_either_2","A2551EKB87S2XY","either","6","355","","","","","","","0","0","1","0.06912044911","","0.2","0.6","0.8","0.4","","","","","0.131742089","0.1981976751","0.08192786134","0.06912044911","","","","","","","","76","L","3","","","76","main_expt"
"","bandit","156","425865","0.0-117.0-0.0","87535195","wem/bandit_either_2","A2551EKB87S2XY","either","6","30","","","","","","","0","0","1","0.06151132513","","0.2","0.6","0.8","0.4","","","","","0.1382621175","0.2302368041","0.03620126105","0.06151132513","","","","","","","","76","L","3","","","77","main_expt"
"","bandit","157","428119","0.0-118.0-0.0","87535195","wem/bandit_either_2","A2551EKB87S2XY","either","6","740","","","","","","","0","0","1","0.03362754592","","0.2","0.6","0.8","0.4","","","","","0.1351161864","0.2538269909","0.03362754592","0.08824794056","","","","","","","","75","K","2","","","78","main_expt"
"","bandit","158","430177","0.0-119.0-0.0","87535195","wem/bandit_either_2","A2551EKB87S2XY","either","6","544","","","","","","","0","0","1","","0.1125986002","0.2","0.6","0.8","0.4","0.1125986002","0.221492582","0.03917851348","0.08425003046","","","","","","","","","","","","72","H","0","img/none_selected.jpg","","79","main_expt"
"","bandit","159","432718","0.0-120.0-0.0","87535195","wem/bandit_either_2","A2551EKB87S2XY","either","6","1025","","","","","","","0","0","1","0.1059393704","","0.2","0.6","0.8","0.4","","","","","0.1071358869","0.2126184008","0.06916691586","0.1059393704","","","","","","","","76","L","3","","","80","main_expt"
"","bandit","160","434810","0.0-121.0-0.0","87535195","wem/bandit_either_2","A2551EKB87S2XY","either","6","573","","","","","","","0","0","1","","0.1410751298","0.2","0.6","0.8","0.4","0.1410751298","0.1803612399","0.1110223174","0.114990546","","","","","","","","","","","","72","H","0","img/none_selected.jpg","","81","main_expt"
"","bandit","161","437925","0.0-122.0-0.0","87535195","wem/bandit_either_2","A2551EKB87S2XY","either","6","1599","","","","","","","0","0","1","","0.1883980103","0.2","0.6","0.8","0.4","0.1518454263","0.1883980103","0.08899533144","0.1246300745","","","","","","","","","","","","74","J","1","","","82","main_expt"
"","bandit","162","440137","0.0-123.0-0.0","87535195","wem/bandit_either_2","A2551EKB87S2XY","either","6","699","","","","","","","0","0","1","0.1383499545","","0.2","0.6","0.8","0.4","","","","","0.1285150734","0.2099895667","0.1383499545","0.1523433176","","","","","","","","75","K","2","","","83","main_expt"
"","bandit","163","442282","0.0-124.0-0.0","87535195","wem/bandit_either_2","A2551EKB87S2XY","either","6","630","","","","","","","0","0","1","","0.1083679187","0.2","0.6","0.8","0.4","0.1083679187","0.1760666055","0.1815119679","0.1230513595","","","","","","","","","","","","72","H","0","img/none_selected.jpg","","84","main_expt"
"","bandit","164","444464","0.0-125.0-0.0","87535195","wem/bandit_either_2","A2551EKB87S2XY","either","6","663","","","","","","","0","0","1","","0.08985983991","0.2","0.6","0.8","0.4","0.08985983991","0.2077415988","0.2121304898","0.1460595132","","","","","","","","","","","","72","H","0","img/none_selected.jpg","","85","main_expt"
"","bandit","165","446429","0.0-126.0-0.0","87535195","wem/bandit_either_2","A2551EKB87S2XY","either","6","453","","","","","","","0","0","1","","0.1940704576","0.2","0.6","0.8","0.4","0.08377758623","0.1940704576","0.1931166697","0.1578730034","","","","","","","","","","","","74","J","1","","","86","main_expt"
"","bandit","166","448435","0.0-127.0-0.0","87535195","wem/bandit_either_2","A2551EKB87S2XY","either","6","489","","","","","","","0","0","1","","0.1908876969","0.2","0.6","0.8","0.4","0.08340742779","0.1920524506","0.1908876969","0.1329566931","","","","","","","","","","","","75","K","2","","","87","main_expt"
"","bandit","167","450272","0.0-128.0-0.0","87535195","wem/bandit_either_2","A2551EKB87S2XY","either","6","323","","","","","","","0","0","1","","0.1156353122","0.2","0.6","0.8","0.4","0.06937011617","0.2525081946","0.1727332377","0.1156353122","","","","","","","","","","","","76","L","3","","","88","main_expt"
"","bandit","168","452196","0.0-129.0-0.0","87535195","wem/bandit_either_2","A2551EKB87S2XY","either","6","398","","","","","","","0","0","1","","0.08556693901","0.2","0.6","0.8","0.4","0.08556693901","0.2476280913","0.1747664758","0.1169245856","","","","","","","","","","","","72","H","0","img/none_selected.jpg","","89","main_expt"
"","bandit","169","454074","0.0-130.0-0.0","87535195","wem/bandit_either_2","A2551EKB87S2XY","either","6","361","","","","","","","0","0","1","0.1302891894","","0.2","0.6","0.8","0.4","","","","","0.1013294801","0.2476417222","0.1302891894","0.1276927611","","","","","","","","75","K","2","","","90","main_expt"
"","bandit","170","455981","0.0-131.0-0.0","87535195","wem/bandit_either_2","A2551EKB87S2XY","either","6","389","","","","","","","0","0","1","","0.1567130635","0.2","0.6","0.8","0.4","0.1567130635","0.1875867431","0.1143331172","0.1633868825","","","","","","","","","","","","72","H","0","img/none_selected.jpg","","91","main_expt"
"","bandit","171","458125","0.0-132.0-0.0","87535195","wem/bandit_either_2","A2551EKB87S2XY","either","6","627","","","","","","","0","0","1","0.1674068059","","0.2","0.6","0.8","0.4","","","","","0.1214255195","0.1804963823","0.1674068059","0.2172033847","","","","","","","","75","K","2","","","92","main_expt"
"","bandit","172","459943","0.0-133.0-0.0","87535195","wem/bandit_either_2","A2551EKB87S2XY","either","6","300","","","","","","","0","0","1","0.1317465968","","0.2","0.6","0.8","0.4","","","","","0.1317465968","0.1468121695","0.1405005834","0.2178255547","","","","","","","","72","H","0","img/none_selected.jpg","","93","main_expt"
"","bandit","173","462219","0.0-134.0-0.0","87535195","wem/bandit_either_2","A2551EKB87S2XY","either","6","757","","","","","","","1","0","0","0.2058786334","","0.2","0.6","0.8","0.4","","","","","0.1810196293","0.1270151289","0.1338278818","0.2058786334","","","","","","","","76","L","3","","","94","main_expt"
"","bandit","174","464194","0.0-135.0-0.0","87535195","wem/bandit_either_2","A2551EKB87S2XY","either","6","457","","","","","","","0","0","1","","0.2009860572","0.2","0.6","0.8","0.4","0.1537803575","0.1049494322","0.16416917","0.2009860572","","","","","","","","","","","","76","L","3","","","95","main_expt"
"","bandit","175","466343","0.0-136.0-0.0","87535195","wem/bandit_either_2","A2551EKB87S2XY","either","6","632","","","","","","","0","0","1","","0.2792576191","0.2","0.6","0.8","0.4","0.2255368078","0.1242023773","0.1075549125","0.2792576191","","","","","","","","","","","","76","L","3","","","96","main_expt"
"","bandit","176","468194","0.0-137.0-0.0","87535195","wem/bandit_either_2","A2551EKB87S2XY","either","6","337","","","","","","","0","0","1","","0.101802889","0.2","0.6","0.8","0.4","0.1881791955","0.101802889","0.07285617598","0.291042229","","","","","","","","","","","","74","J","1","","","97","main_expt"
"","bandit","177","470065","0.0-138.0-0.0","87535195","wem/bandit_either_2","A2551EKB87S2XY","either","6","354","","","","","","","0","0","1","0.08559904752","","0.2","0.6","0.8","0.4","","","","","0.1722186849","0.08559904752","0.1128802937","0.2919937097","","","","","","","","74","J","1","","","98","main_expt"
"","bandit","178","471960","0.0-139.0-0.0","87535195","wem/bandit_either_2","A2551EKB87S2XY","either","6","383","","","","","","","0","0","1","0.04480153982","","0.2","0.6","0.8","0.4","","","","","0.2581810796","0.04480153982","0.07338875894","0.338066437","","","","","","","","74","J","1","","","99","main_expt"
"","bandit","179","474388","0.0-140.0-0.0","87535195","wem/bandit_either_2","A2551EKB87S2XY","either","6","909","","","","","","","0","0","1","0.06256672301","","0.2","0.6","0.8","0.4","","","","","0.3094702251","0.03694367041","0.06256672301","0.3466775547","","","","","","","","75","K","2","","","100","main_expt"
"","bandit","180","476333","0.0-141.0-0.0","87535195","wem/bandit_either_2","A2551EKB87S2XY","either","6","429","","","","","","","0","1","0","","0.3217449289","0.2","0.6","0.8","0.4","0.3217449289","0.02534596886","0.06765033746","0.3776837944","","","","","","","","","","","","72","H","0","img/none_selected.jpg","","101","main_expt"
"","bandit","181","478373","0.0-142.0-0.0","87535195","wem/bandit_either_2","A2551EKB87S2XY","either","6","523","","","","","","","0","1","0","","0.3656493725","0.2","0.6","0.8","0.4","0.3656493725","0.03456503798","0.08460413752","0.3988278911","","","","","","","","","","","","72","H","0","img/none_selected.jpg","","102","main_expt"
"","bandit","182","480216","0.0-143.0-0.0","87535195","wem/bandit_either_2","A2551EKB87S2XY","either","6","323","","","","","","","0","0","1","0.4097417878","","0.2","0.6","0.8","0.4","","","","","0.4097417878","0.03116272615","0.1149622558","0.3642388176","","","","","","","","72","H","0","img/none_selected.jpg","","103","main_expt"
"","bandit","183","482812","0.0-144.0-0.0","87535195","wem/bandit_either_2","A2551EKB87S2XY","either","6","1079","","","","","","","0","0","1","","0.1223821921","0.2","0.6","0.8","0.4","0.4005896235","0.04034009898","0.1223821921","0.3059376685","","","","","","","","","","","","75","K","2","","","104","main_expt"
"","bandit","184","484990","0.0-145.0-0.0","87535195","wem/bandit_either_2","A2551EKB87S2XY","either","6","662","","","","","","","1","0","0","0.1302837569","","0.2","0.6","0.8","0.4","","","","","0.3967946647","0.06132200156","0.1302837569","0.2658022239","","","","","","","","75","K","2","","","105","main_expt"
"","bandit","185","487175","0.0-146.0-0.0","87535195","wem/bandit_either_2","A2551EKB87S2XY","either","6","669","","","","","","","0","0","1","0.1405927316","","0.2","0.6","0.8","0.4","","","","","0.3920329447","0.03171667797","0.1405927316","0.2583534607","","","","","","","","75","K","2","","","106","main_expt"
"","bandit","186","489085","0.0-147.0-0.0","87535195","wem/bandit_either_2","A2551EKB87S2XY","either","6","393","","","","","","","0","1","0","","0.2402432731","0.2","0.6","0.8","0.4","0.3973329777","0.06603394544","0.1835021143","0.2402432731","","","","","","","","","","","","76","L","3","","","107","main_expt"
"","bandit","187","490906","0.0-148.0-0.0","87535195","wem/bandit_either_2","A2551EKB87S2XY","either","6","306","","","","","","","0","0","1","0.2364509509","","0.2","0.6","0.8","0.4","","","","","0.3839010997","0.08137973005","0.2124513917","0.2364509509","","","","","","","","76","L","3","","","108","main_expt"
"","bandit","188","493072","0.0-149.0-0.0","87535195","wem/bandit_either_2","A2551EKB87S2XY","either","6","650","","","","","","","0","0","1","0.04765661509","","0.2","0.6","0.8","0.4","","","","","0.3879107289","0.04765661509","0.218007314","0.2164051194","","","","","","","","74","J","1","","","109","main_expt"
"","bandit","189","494932","0.0-150.0-0.0","87535195","wem/bandit_either_2","A2551EKB87S2XY","either","6","346","","","","","","","0","0","1","","0.06789381979","0.2","0.6","0.8","0.4","0.3989855113","0.06789381979","0.229469423","0.1611838666","","","","","","","","","","","","74","J","1","","","110","main_expt"
"","bandit","190","496833","0.0-151.0-0.0","87535195","wem/bandit_either_2","A2551EKB87S2XY","either","6","385","","","","","","","0","1","0","","0.2042622235","0.2","0.6","0.8","0.4","0.3959495959","0.08972795074","0.2923436213","0.2042622235","","","","","","","","","","","","76","L","3","","","111","main_expt"
"","bandit","191","498786","0.0-152.0-0.0","87535195","wem/bandit_either_2","A2551EKB87S2XY","either","6","435","","","","","","","0","0","1","","0.2113733305","0.2","0.6","0.8","0.4","0.335596647","0.1176683061","0.2778802509","0.2113733305","","","","","","","","","","","","76","L","3","","","112","main_expt"
"","bandit","192","500647","0.0-153.0-0.0","87535195","wem/bandit_either_2","A2551EKB87S2XY","either","6","349","","","","","","","0","0","1","0.2852166322","","0.2","0.6","0.8","0.4","","","","","0.2876347753","0.1973953549","0.2852166322","0.220236308","","","","","","","","75","K","2","","","113","main_expt"
"","bandit","193","502420","0.0-154.0-0.0","87535195","wem/bandit_either_2","A2551EKB87S2XY","either","6","250","","","","","","","0","1","0","","0.2811359795","0.2","0.6","0.8","0.4","0.2811359795","0.200840576","0.3222351196","0.2453392608","","","","","","","","","","","","72","H","0","img/none_selected.jpg","","114","main_expt"
"","bandit","194","504495","0.0-155.0-0.0","87535195","wem/bandit_either_2","A2551EKB87S2XY","either","6","559","","","","","","","0","0","1","","0.2056035349","0.2","0.6","0.8","0.4","0.2056035349","0.2544006126","0.2865303103","0.2311931225","","","","","","","","","","","","72","H","0","img/none_selected.jpg","","115","main_expt"
"","bandit","195","506330","0.0-156.0-0.0","87535195","wem/bandit_either_2","A2551EKB87S2XY","either","6","312","","","","","","","0","0","1","","0.2290532582","0.2","0.6","0.8","0.4","0.2435386161","0.2264812366","0.1901772154","0.2290532582","","","","","","","","","","","","76","L","3","","","116","main_expt"
"","bandit","196","508824","0.0-157.0-0.0","87535195","wem/bandit_either_2","A2551EKB87S2XY","either","6","973","","","","","","","0","0","1","","0.1854727963","0.2","0.6","0.8","0.4","0.2523066444","0.2535822563","0.1854727963","0.2610634121","","","","","","","","","","","","75","K","2","","","117","main_expt"
"","bandit","197","510813","0.0-158.0-0.0","87535195","wem/bandit_either_2","A2551EKB87S2XY","either","6","476","","","","","","","0","0","1","0.288462609","","0.2","0.6","0.8","0.4","","","","","0.258758296","0.288462609","0.223078523","0.2915584027","","","","","","","","74","J","1","","","118","main_expt"
"","bandit","198","512680","0.0-159.0-0.0","87535195","wem/bandit_either_2","A2551EKB87S2XY","either","6","353","","","","","","","0","0","1","0.2157898803","","0.2","0.6","0.8","0.4","","","","","0.2513882557","0.3077733757","0.2157898803","0.3240034744","","","","","","","","75","K","2","","","119","main_expt"
"","bandit","199","514569","0.0-160.0-0.0","87535195","wem/bandit_either_2","A2551EKB87S2XY","either","6","372","","","","","","","0","0","1","0.3584552205","","0.2","0.6","0.8","0.4","","","","","0.2178230887","0.3470363664","0.2055853597","0.3584552205","","","","","","","","76","L","3","","","120","main_expt"
"","bandit","200","516606","0.0-161.0-0.0","87535195","wem/bandit_either_2","A2551EKB87S2XY","either","6","514","","","","","","","0","0","1","","0.2249913612","0.2","0.6","0.8","0.4","0.2249913612","0.36369082","0.2308362602","0.3392259721","","","","","","","","","","","","72","H","0","img/none_selected.jpg","","121","main_expt"
"","bandit","201","519204","0.0-162.0-0.0","87535195","wem/bandit_either_2","A2551EKB87S2XY","either","6","1080","","","","","","","0","1","0","","0.3740977319","0.2","0.6","0.8","0.4","0.2135386538","0.3740977319","0.1858821776","0.3211990091","","","","","","","","","","","","74","J","1","","","122","main_expt"
"","bandit","202","521194","0.0-163.0-0.0","87535195","wem/bandit_either_2","A2551EKB87S2XY","either","6","477","","","","","","","0","0","1","0.3617230251","","0.2","0.6","0.8","0.4","","","","","0.2742148462","0.3617230251","0.1948645322","0.3082515077","","","","","","","","74","J","1","","","123","main_expt"
"","bandit","203","524403","0.0-164.0-0.0","87535195","wem/bandit_either_2","A2551EKB87S2XY","either","6","1692","","","","","","","0","1","0","","0.1875433284","0.2","0.6","0.8","0.4","0.3092488957","0.3189133642","0.1875433284","0.3337980485","","","","","","","","","","","","75","K","2","","","124","main_expt"
"","bandit","204","527284","0.0-165.0-0.0","87535195","wem/bandit_either_2","A2551EKB87S2XY","either","6","1360","","","","","","","0","0","1","0.3134342975","","0.2","0.6","0.8","0.4","","","","","0.2832498899","0.3134342975","0.1805360773","0.2815584253","","","","","","","","74","J","1","","","125","main_expt"
"","bandit","205","529346","0.0-166.0-0.0","87535195","wem/bandit_either_2","A2551EKB87S2XY","either","6","546","","","","","","","1","0","0","0.321902755","","0.2","0.6","0.8","0.4","","","","","0.321902755","0.2889117865","0.2199741614","0.2544389989","","","","","","","","72","H","0","img/none_selected.jpg","","126","main_expt"
"","bandit","206","530945","0.0-167.0-0.0","87535195","wem/bandit_either_2","A2551EKB87S2XY","either","6","80","","","","","","","0","0","1","","0.217883989","0.2","0.6","0.8","0.4","0.3163630435","0.3101500906","0.212963778","0.217883989","","","","","","","","","","","","76","L","3","","","127","main_expt"
"","bandit","207","534679","0.0-168.0-0.0","87535195","wem/bandit_either_2","A2551EKB87S2XY","either","6","2218","","","","","","","1","0","0","0.1853882534","","0.2","0.6","0.8","0.4","","","","","0.3242789072","0.3257933697","0.1853882534","0.1941215274","","","","","","","","75","K","2","","","128","main_expt"
"","bandit","208","538583","0.0-169.0-0.0","87535195","wem/bandit_either_2","A2551EKB87S2XY","either","6","2378","","","","","","","0","0","1","0.3430844202","","0.2","0.6","0.8","0.4","","","","","0.3430844202","0.2767822115","0.1486900389","0.2093197904","","","","","","","","72","H","0","img/none_selected.jpg","","129","main_expt"
"","bandit","209","540466","0.0-170.0-0.0","87535195","wem/bandit_either_2","A2551EKB87S2XY","either","6","370","","","","","","","0","0","1","0.1581202816","","0.2","0.6","0.8","0.4","","","","","0.3487272729","0.3389859305","0.1581202816","0.2325895014","","","","","","","","75","K","2","","","130","main_expt"
"","bandit","210","542440","0.0-171.0-0.0","87535195","wem/bandit_either_2","A2551EKB87S2XY","either","6","456","","","","","","","0","0","1","","0.3850752379","0.2","0.6","0.8","0.4","0.3850752379","0.2807576759","0.1189605486","0.2680880231","","","","","","","","","","","","72","H","0","img/none_selected.jpg","","131","main_expt"
"","bandit","211","544323","0.0-172.0-0.0","87535195","wem/bandit_either_2","A2551EKB87S2XY","either","6","369","","","","","","","0","0","1","","0.2053564998","0.2","0.6","0.8","0.4","0.3547422913","0.2044414959","0.08638656351","0.2053564998","","","","","","","","","","","","76","L","3","","","132","main_expt"
"","bandit","212","546296","0.0-173.0-0.0","87535195","wem/bandit_either_2","A2551EKB87S2XY","either","6","457","","","","","","","0","0","1","0.2352631215","","0.2","0.6","0.8","0.4","","","","","0.3256782816","0.2352631215","0.104542274","0.2102644512","","","","","","","","74","J","1","","","133","main_expt"
"","bandit","213","548426","0.0-174.0-0.0","87535195","wem/bandit_either_2","A2551EKB87S2XY","either","6","616","","","","","","","0","0","1","","0.2028105977","0.2","0.6","0.8","0.4","0.2479378245","0.2808822736","0.1401790922","0.2028105977","","","","","","","","","","","","76","L","3","","","134","main_expt"
"","bandit","214","550994","0.0-175.0-0.0","87535195","wem/bandit_either_2","A2551EKB87S2XY","either","6","1050","","","","","","","0","0","1","","0.1818128853","0.2","0.6","0.8","0.4","0.24301602","0.3053704558","0.1818128853","0.1556880781","","","","","","","","","","","","75","K","2","","","135","main_expt"
"","bandit","215","553010","0.0-176.0-0.0","87535195","wem/bandit_either_2","A2551EKB87S2XY","either","6","504","","","","","","","0","0","1","","0.2630427063","0.2","0.6","0.8","0.4","0.2630427063","0.3140058771","0.1583738081","0.1428421262","","","","","","","","","","","","72","H","0","img/none_selected.jpg","","136","main_expt"
"","bandit","216","555007","0.0-177.0-0.0","87535195","wem/bandit_either_2","A2551EKB87S2XY","either","6","479","","","","","","","0","0","1","","0.1039390038","0.2","0.6","0.8","0.4","0.3053425806","0.323699752","0.1497920091","0.1039390038","","","","","","","","","","","","76","L","3","","","137","main_expt"
"","bandit","217","556556","0.0-178.0-0.0","87535195","wem/bandit_either_2","A2551EKB87S2XY","either","6","28","","","","","","","0","0","1","0.1128601551","","0.2","0.6","0.8","0.4","","","","","0.3588623722","0.3435108126","0.1128601551","0.07132433681","","","","","","","","75","K","2","","","138","main_expt"
"","bandit","218","558599","0.0-179.0-0.0","87535195","wem/bandit_either_2","A2551EKB87S2XY","either","6","530","","","","","","","0","0","1","","0.1073604677","0.2","0.6","0.8","0.4","0.2762704672","0.3505637202","0.1073604677","0.1047165976","","","","","","","","","","","","75","K","2","","","139","main_expt"
"","bandit","219","560531","0.0-180.0-0.0","87535195","wem/bandit_either_2","A2551EKB87S2XY","either","6","409","","","","","","","0","0","1","","0.4185251601","0.2","0.6","0.8","0.4","0.2475753012","0.4185251601","0.1376710563","0.09043849554","","","","","","","","","","","","74","J","1","","","140","main_expt"
"","bandit","220","562513","0.0-181.0-0.0","87535195","wem/bandit_either_2","A2551EKB87S2XY","either","6","468","","","","","","","1","0","0","0.2436306075","","0.2","0.6","0.8","0.4","","","","","0.2436306075","0.4225289085","0.1412662962","0.05096505815","","","","","","","","72","H","0","img/none_selected.jpg","","141","main_expt"
"","bandit","221","564312","0.0-182.0-0.0","87535195","wem/bandit_either_2","A2551EKB87S2XY","either","6","287","","","","","","","1","0","0","0.1998899021","","0.2","0.6","0.8","0.4","","","","","0.1998899021","0.455259632","0.1543424817","0.02973759478","","","","","","","","72","H","0","img/none_selected.jpg","","142","main_expt"
"","bandit","222","566101","0.0-183.0-0.0","87535195","wem/bandit_either_2","A2551EKB87S2XY","either","6","275","","","","","","","0","0","1","","0.2568100034","0.2","0.6","0.8","0.4","0.2568100034","0.4287003803","0.1552636118","0.04457260366","","","","","","","","","","","","72","H","0","img/none_selected.jpg","","143","main_expt"
"","bandit","223","567908","0.0-184.0-0.0","87535195","wem/bandit_either_2","A2551EKB87S2XY","either","6","291","","","","","","","0","0","1","","0.2859833531","0.2","0.6","0.8","0.4","0.2859833531","0.4260506414","0.2241753426","0.04060115041","","","","","","","","","","","","72","H","0","img/none_selected.jpg","","144","main_expt"
"","bandit","224","569719","0.0-185.0-0.0","87535195","wem/bandit_either_2","A2551EKB87S2XY","either","6","295","","","","","","","0","0","1","","0.2080640158","0.2","0.6","0.8","0.4","0.2080640158","0.4202170594","0.2484131349","0.06712401514","","","","","","","","","","","","72","H","0","img/none_selected.jpg","","145","main_expt"
"","bandit","225","571546","0.0-186.0-0.0","87535195","wem/bandit_either_2","A2551EKB87S2XY","either","6","309","","","","","","","1","0","0","0.2905032103","","0.2","0.6","0.8","0.4","","","","","0.2469639643","0.4333226383","0.2905032103","0.08780921534","","","","","","","","75","K","2","","","146","main_expt"
"","bandit","226","573875","0.0-187.0-0.0","87535195","wem/bandit_either_2","A2551EKB87S2XY","either","6","817","","","","","","","1","0","0","0.2846703457","","0.2","0.6","0.8","0.4","","","","","0.2169279296","0.4340954059","0.2846703457","0.1333368233","","","","","","","","75","K","2","","","147","main_expt"
"","bandit","227","575890","0.0-188.0-0.0","87535195","wem/bandit_either_2","A2551EKB87S2XY","either","6","501","","","","","","","0","0","1","0.3010433131","","0.2","0.6","0.8","0.4","","","","","0.1248284812","0.3903754431","0.3010433131","0.09264147873","","","","","","","","75","K","2","","","148","main_expt"
"","bandit","228","577723","0.0-189.0-0.0","87535195","wem/bandit_either_2","A2551EKB87S2XY","either","6","312","","","","","","","0","1","0","","0.4161192262","0.2","0.6","0.8","0.4","0.1498862571","0.4161192262","0.3421268102","0.123708687","","","","","","","","","","","","74","J","1","","","149","main_expt"
"","bandit","229","580061","0.0-190.0-0.0","87535195","wem/bandit_either_2","A2551EKB87S2XY","either","6","821","","","","","","","0","1","0","","0.4545257836","0.2","0.6","0.8","0.4","0.2044632824","0.4545257836","0.3382865341","0.1087811601","","","","","","","","","","","","74","J","1","","","150","main_expt"
"","bandit","230","582012","0.0-191.0-0.0","87535195","wem/bandit_either_2","A2551EKB87S2XY","either","6","423","","","","","","","0","0","1","","0.4553704948","0.2","0.6","0.8","0.4","0.1630699797","0.4553704948","0.3031951358","0.1640336927","","","","","","","","","","","","74","J","1","","","151","main_expt"
"","bandit","231","583839","0.0-192.0-0.0","87535195","wem/bandit_either_2","A2551EKB87S2XY","either","6","299","","","","","","","0","0","1","","0.1474195158","0.2","0.6","0.8","0.4","0.1534962237","0.4692720684","0.3163498213","0.1474195158","","","","","","","","","","","","76","L","3","","","152","main_expt"
"","bandit","232","585707","0.0-193.0-0.0","87535195","wem/bandit_either_2","A2551EKB87S2XY","either","6","352","","","","","","","0","0","1","","0.1200421148","0.2","0.6","0.8","0.4","0.1506701345","0.4794448159","0.3205280093","0.1200421148","","","","","","","","","","","","76","L","3","","","153","main_expt"
"","bandit","233","587598","0.0-194.0-0.0","87535195","wem/bandit_either_2","A2551EKB87S2XY","either","6","374","","","","","","","0","0","1","0.2780981807","","0.2","0.6","0.8","0.4","","","","","0.1810992197","0.4762011242","0.2780981807","0.1295208369","","","","","","","","75","K","2","","","154","main_expt"
"","bandit","234","589370","0.0-195.0-0.0","87535195","wem/bandit_either_2","A2551EKB87S2XY","either","6","254","","","","","","","0","0","1","","0.2543788853","0.2","0.6","0.8","0.4","0.2574031695","0.4797315341","0.2543788853","0.1189574303","","","","","","","","","","","","75","K","2","","","155","main_expt"
"","bandit","235","591207","0.0-196.0-0.0","87535195","wem/bandit_either_2","A2551EKB87S2XY","either","6","322","","","","","","","0","0","1","","0.1838662476","0.2","0.6","0.8","0.4","0.1838662476","0.4815153028","0.2601772157","0.1511338071","","","","","","","","","","","","72","H","0","img/none_selected.jpg","","156","main_expt"
"","bandit","236","593028","0.0-197.0-0.0","87535195","wem/bandit_either_2","A2551EKB87S2XY","either","6","304","","","","","","","0","1","0","","0.1951262555","0.2","0.6","0.8","0.4","0.1951262555","0.4769669351","0.27050514","0.1494559257","","","","","","","","","","","","72","H","0","img/none_selected.jpg","","157","main_expt"
"","bandit","237","594821","0.0-198.0-0.0","87535195","wem/bandit_either_2","A2551EKB87S2XY","either","6","277","","","","","","","0","0","1","","0.1711173681","0.2","0.6","0.8","0.4","0.1711173681","0.4819637572","0.2912044809","0.1398300683","","","","","","","","","","","","72","H","0","img/none_selected.jpg","","158","main_expt"
"","bandit","238","596714","0.0-199.0-0.0","87535195","wem/bandit_either_2","A2551EKB87S2XY","either","6","372","","","","","","","0","0","1","0.2863852675","","0.2","0.6","0.8","0.4","","","","","0.1262927185","0.4802617926","0.2863852675","0.1482700517","","","","","","","","75","K","2","","","159","main_expt"
"","bandit","239","598558","0.0-200.0-0.0","87535195","wem/bandit_either_2","A2551EKB87S2XY","either","6","331","","","","","","","0","0","1","","0.4834703177","0.2","0.6","0.8","0.4","0.1289005464","0.4834703177","0.3188379944","0.1327856751","","","","","","","","","","","","74","J","1","","","160","main_expt"
"","bandit","240","600382","0.0-201.0-0.0","87535195","wem/bandit_either_2","A2551EKB87S2XY","either","6","304","","","","","","","0","1","0","","0.4783639554","0.2","0.6","0.8","0.4","0.07062595825","0.4783639554","0.3918259889","0.1936248495","","","","","","","","","","","","74","J","1","","","161","main_expt"
"","bandit","241","602367","0.0-202.0-0.0","87535195","wem/bandit_either_2","A2551EKB87S2XY","either","6","466","","","","","","","0","0","1","","0.08554885259","0.2","0.6","0.8","0.4","0.08554885259","0.4702379588","0.3825352776","0.1917288119","","","","","","","","","","","","72","H","0","img/none_selected.jpg","","162","main_expt"
"","bandit","242","603920","0.0-203.0-0.0","87535195","wem/bandit_either_2","A2551EKB87S2XY","either","6","34","","","","","","","0","0","1","0.3500114378","","0.2","0.6","0.8","0.4","","","","","0.05790820845","0.4761999765","0.3500114378","0.2410074379","","","","","","","","75","K","2","","","163","main_expt"
"","bandit","243","605712","0.0-204.0-0.0","87535195","wem/bandit_either_2","A2551EKB87S2XY","either","6","276","","","","","","","0","0","1","0.04744410613","","0.2","0.6","0.8","0.4","","","","","0.04744410613","0.4683988395","0.3138306729","0.2717164652","","","","","","","","72","H","0","img/none_selected.jpg","","164","main_expt"
"","bandit","244","607671","0.0-205.0-0.0","87535195","wem/bandit_either_2","A2551EKB87S2XY","either","6","440","","","","","","","1","0","0","0.3360488911","","0.2","0.6","0.8","0.4","","","","","0.07721988326","0.4594806004","0.3066591237","0.3360488911","","","","","","","","76","L","3","","","165","main_expt"
"","bandit","245","609545","0.0-206.0-0.0","87535195","wem/bandit_either_2","A2551EKB87S2XY","either","6","352","","","","","","","0","0","1","","0.3288768439","0.2","0.6","0.8","0.4","0.09276645858","0.4769271284","0.359337808","0.3288768439","","","","","","","","","","","","76","L","3","","","166","main_expt"
"","bandit","246","611428","0.0-207.0-0.0","87535195","wem/bandit_either_2","A2551EKB87S2XY","either","6","363","","","","","","","0","1","0","","0.4824675089","0.2","0.6","0.8","0.4","0.1092251717","0.4824675089","0.3888119778","0.341079324","","","","","","","","","","","","74","J","1","","","167","main_expt"
"","bandit","247","613628","0.0-208.0-0.0","87535195","wem/bandit_either_2","A2551EKB87S2XY","either","6","684","","","","","","","0","1","0","","0.4731218304","0.2","0.6","0.8","0.4","0.09704797424","0.4731218304","0.3188253523","0.2972081376","","","","","","","","","","","","74","J","1","","","168","main_expt"
"","bandit","248","615572","0.0-209.0-0.0","87535195","wem/bandit_either_2","A2551EKB87S2XY","either","6","426","","","","","","","0","0","1","","0.1131958007","0.2","0.6","0.8","0.4","0.1131958007","0.4558692975","0.3035082617","0.2716537329","","","","","","","","","","","","72","H","0","img/none_selected.jpg","","169","main_expt"
"","bandit","249","617380","0.0-210.0-0.0","87535195","wem/bandit_either_2","A2551EKB87S2XY","either","6","287","","","","","","","0","0","1","0.3540810543","","0.2","0.6","0.8","0.4","","","","","0.1636150477","0.424927817","0.3540810543","0.3705489528","","","","","","","","75","K","2","","","170","main_expt"
"","bandit","250","619245","0.0-211.0-0.0","87535195","wem/bandit_either_2","A2551EKB87S2XY","either","6","343","","","","","","","0","0","1","","0.4254050478","0.2","0.6","0.8","0.4","0.1889182236","0.4254050478","0.2912941695","0.3259531709","","","","","","","","","","","","74","J","1","","","171","main_expt"
"","bandit","251","621101","0.0-212.0-0.0","87535195","wem/bandit_either_2","A2551EKB87S2XY","either","6","344","","","","","","","0","1","0","","0.3253578443","0.2","0.6","0.8","0.4","0.1494540944","0.4319935488","0.2964718019","0.3253578443","","","","","","","","","","","","76","L","3","","","172","main_expt"
"","bandit","252","623058","0.0-213.0-0.0","87535195","wem/bandit_either_2","A2551EKB87S2XY","either","6","440","","","","","","","1","0","0","0.2411205861","","0.2","0.6","0.8","0.4","","","","","0.1700291406","0.4157756128","0.2411205861","0.3133285256","","","","","","","","75","K","2","","","173","main_expt"
"","bandit","253","624904","0.0-214.0-0.0","87535195","wem/bandit_either_2","A2551EKB87S2XY","either","6","327","","","","","","","0","0","1","0.2132737127","","0.2","0.6","0.8","0.4","","","","","0.2007600912","0.3650518631","0.2132737127","0.3470844982","","","","","","","","75","K","2","","","174","main_expt"
"","bandit","254","626712","0.0-215.0-0.0","87535195","wem/bandit_either_2","A2551EKB87S2XY","either","6","293","","","","","","","1","0","0","0.3615725976","","0.2","0.6","0.8","0.4","","","","","0.1613291475","0.3583375904","0.2722172758","0.3615725976","","","","","","","","76","L","3","","","175","main_expt"
"","bandit","255","628480","0.0-216.0-0.0","87535195","wem/bandit_either_2","A2551EKB87S2XY","either","6","253","","","","","","","0","0","1","","0.3592449917","0.2","0.6","0.8","0.4","0.1618540135","0.3849487833","0.3158297255","0.3592449917","","","","","","","","","","","","76","L","3","","","176","main_expt"
"","bandit","256","630276","0.0-217.0-0.0","87535195","wem/bandit_either_2","A2551EKB87S2XY","either","6","277","","","","","","","0","1","0","","0.1337509382","0.2","0.6","0.8","0.4","0.1337509382","0.3741193846","0.3033070912","0.3614776984","","","","","","","","","","","","72","H","0","img/none_selected.jpg","","177","main_expt"
"","bandit","257","632050","0.0-218.0-0.0","87535195","wem/bandit_either_2","A2551EKB87S2XY","either","6","252","","","","","","","0","0","1","","0.172909152","0.2","0.6","0.8","0.4","0.172909152","0.3704436283","0.3070990366","0.4042649322","","","","","","","","","","","","72","H","0","img/none_selected.jpg","","178","main_expt"
"","bandit","258","633931","0.0-219.0-0.0","87535195","wem/bandit_either_2","A2551EKB87S2XY","either","6","349","","","","","","","0","0","1","","0.3718647044","0.2","0.6","0.8","0.4","0.2306318455","0.3718647044","0.349206168","0.3626499081","","","","","","","","","","","","74","J","1","","","179","main_expt"
"","bandit","259","635761","0.0-220.0-0.0","87535195","wem/bandit_either_2","A2551EKB87S2XY","either","6","315","","","","","","","0","0","1","0.3144845341","","0.2","0.6","0.8","0.4","","","","","0.2531752843","0.3144845341","0.3533593609","0.365831292","","","","","","","","74","J","1","","","180","main_expt"
"","bandit","260","637573","0.0-221.0-0.0","87535195","wem/bandit_either_2","A2551EKB87S2XY","either","6","290","","","","","","","0","1","0","","0.2995137733","0.2","0.6","0.8","0.4","0.2995137733","0.3328992573","0.3792633926","0.3720079561","","","","","","","","","","","","72","H","0","img/none_selected.jpg","","181","main_expt"
"","bandit","261","639392","0.0-222.0-0.0","87535195","wem/bandit_either_2","A2551EKB87S2XY","either","6","298","","","","","","","0","0","1","","0.2818604164","0.2","0.6","0.8","0.4","0.2818604164","0.3443004049","0.4170401524","0.3747751333","","","","","","","","","","","","72","H","0","img/none_selected.jpg","","182","main_expt"
"","bandit","262","641170","0.0-223.0-0.0","87535195","wem/bandit_either_2","A2551EKB87S2XY","either","6","258","","","","","","","0","0","1","0.3772869326","","0.2","0.6","0.8","0.4","","","","","0.2706787236","0.3572445505","0.4349898381","0.3772869326","","","","","","","","76","L","3","","","183","main_expt"
"","bandit","263","642961","0.0-224.0-0.0","87535195","wem/bandit_either_2","A2551EKB87S2XY","either","6","270","","","","","","","0","1","0","","0.4355724899","0.2","0.6","0.8","0.4","0.2788381055","0.358140682","0.4355724899","0.3719200221","","","","","","","","","","","","75","K","2","","","184","main_expt"
"","bandit","264","644754","0.0-225.0-0.0","87535195","wem/bandit_either_2","A2551EKB87S2XY","either","6","271","","","","","","","0","0","1","","0.2591604306","0.2","0.6","0.8","0.4","0.2591604306","0.2938856532","0.443517249","0.3759280431","","","","","","","","","","","","72","H","0","img/none_selected.jpg","","185","main_expt"
"","bandit","265","646621","0.0-226.0-0.0","87535195","wem/bandit_either_2","A2551EKB87S2XY","either","6","347","","","","","","","1","0","0","0.4185550765","","0.2","0.6","0.8","0.4","","","","","0.1717283936","0.2570442146","0.4185550765","0.3686405037","","","","","","","","75","K","2","","","186","main_expt"
"","bandit","266","648421","0.0-227.0-0.0","87535195","wem/bandit_either_2","A2551EKB87S2XY","either","6","283","","","","","","","1","0","0","0.4582246802","","0.2","0.6","0.8","0.4","","","","","0.1399016055","0.2781151114","0.4582246802","0.3693778387","","","","","","","","75","K","2","","","187","main_expt"
"","bandit","267","650227","0.0-228.0-0.0","87535195","wem/bandit_either_2","A2551EKB87S2XY","either","6","286","","","","","","","0","0","1","0.3858781765","","0.2","0.6","0.8","0.4","","","","","0.116743447","0.2510368257","0.4499637214","0.3858781765","","","","","","","","76","L","3","","","188","main_expt"
"","bandit","268","652059","0.0-229.0-0.0","87535195","wem/bandit_either_2","A2551EKB87S2XY","either","6","312","","","","","","","0","0","1","","0.4681283031","0.2","0.6","0.8","0.4","0.09810356538","0.2299291889","0.4681283031","0.353665234","","","","","","","","","","","","75","K","2","","","189","main_expt"
"","bandit","269","653922","0.0-230.0-0.0","87535195","wem/bandit_either_2","A2551EKB87S2XY","either","6","346","","","","","","","0","0","1","0.2957770397","","0.2","0.6","0.8","0.4","","","","","0.1333212727","0.2957770397","0.4672384316","0.3702546744","","","","","","","","74","J","1","","","190","main_expt"
"","bandit","270","655771","0.0-231.0-0.0","87535195","wem/bandit_either_2","A2551EKB87S2XY","either","6","332","","","","","","","0","0","1","","0.07289491444","0.2","0.6","0.8","0.4","0.07289491444","0.2806998676","0.4633056668","0.3373283559","","","","","","","","","","","","72","H","0","img/none_selected.jpg","","191","main_expt"
"","bandit","271","657563","0.0-232.0-0.0","87535195","wem/bandit_either_2","A2551EKB87S2XY","either","6","276","","","","","","","0","0","1","0.09060717316","","0.2","0.6","0.8","0.4","","","","","0.09060717316","0.2578649702","0.4701423021","0.3717228864","","","","","","","","72","H","0","img/none_selected.jpg","","192","main_expt"
"","bandit","272","659405","0.0-233.0-0.0","87535195","wem/bandit_either_2","A2551EKB87S2XY","either","6","324","","","","","","","0","1","0","","0.3019093773","0.2","0.6","0.8","0.4","0.1038106097","0.3019093773","0.4625827917","0.3861484819","","","","","","","","","","","","74","J","1","","","193","main_expt"
"","bandit","273","661231","0.0-234.0-0.0","87535195","wem/bandit_either_2","A2551EKB87S2XY","either","6","310","","","","","","","0","0","1","0.3028603149","","0.2","0.6","0.8","0.4","","","","","0.1222204007","0.3028603149","0.4480064119","0.3884838939","","","","","","","","74","J","1","","","194","main_expt"
"","bandit","274","663699","0.0-235.0-0.0","87535195","wem/bandit_either_2","A2551EKB87S2XY","either","6","945","","","","","","","1","0","0","0.4263193963","","0.2","0.6","0.8","0.4","","","","","0.1230179676","0.2933095063","0.4263193963","0.4058549971","","","","","","","","75","K","2","","","195","main_expt"
"","bandit","275","665631","0.0-236.0-0.0","87535195","wem/bandit_either_2","A2551EKB87S2XY","either","6","418","","","","","","","1","0","0","0.4399191733","","0.2","0.6","0.8","0.4","","","","","0.1972068901","0.3333663608","0.4399191733","0.3894648227","","","","","","","","75","K","2","","","196","main_expt"
"","bandit","276","667559","0.0-237.0-0.0","87535195","wem/bandit_either_2","A2551EKB87S2XY","either","6","410","","","","","","","0","0","1","0.4303685687","","0.2","0.6","0.8","0.4","","","","","0.2091218652","0.3472763543","0.4303685687","0.3452919481","","","","","","","","75","K","2","","","197","main_expt"
"","bandit","277","669457","0.0-238.0-0.0","87535195","wem/bandit_either_2","A2551EKB87S2XY","either","6","378","","","","","","","0","1","0","","0.3571156804","0.2","0.6","0.8","0.4","0.2316117542","0.3420385624","0.4166638701","0.3571156804","","","","","","","","","","","","76","L","3","","","198","main_expt"
"","bandit","278","671204","0.0-239.0-0.0","87535195","wem/bandit_either_2","A2551EKB87S2XY","either","6","223","","","","","","","0","0","1","","0.3761278261","0.2","0.6","0.8","0.4","0.1983173389","0.3009927129","0.4166192342","0.3761278261","","","","","","","","","","","","76","L","3","","","199","main_expt"
"","bandit","279","672999","0.0-240.0-0.0","87535195","wem/bandit_either_2","A2551EKB87S2XY","either","6","280","","","","","","","0","0","1","0.4065109498","","0.2","0.6","0.8","0.4","","","","","0.2275108597","0.2834367318","0.4065109498","0.3623939384","","","","","","","","75","K","2","","","200","main_expt"
"","bandit","280","674841","0.0-241.0-0.0","87535195","wem/bandit_either_2","A2551EKB87S2XY","either","6","313","","","","","","","0","0","1","","0.2305195973","0.2","0.6","0.8","0.4","0.2753755663","0.2305195973","0.4210367682","0.3470966653","","","","","","","","","","","","74","J","1","","","201","main_expt"
"","bandit","281","676664","0.0-242.0-0.0","87535195","wem/bandit_either_2","A2551EKB87S2XY","either","6","305","","","","","","","0","1","0","","0.2867984519","0.2","0.6","0.8","0.4","0.2867984519","0.236439039","0.4059774394","0.3738670455","","","","","","","","","","","","72","H","0","img/none_selected.jpg","","202","main_expt"
"","bandit","282","678568","0.0-243.0-0.0","87535195","wem/bandit_either_2","A2551EKB87S2XY","either","6","384","","","","","","","0","0","1","0.207292508","","0.2","0.6","0.8","0.4","","","","","0.227681123","0.207292508","0.4217634448","0.4434414113","","","","","","","","74","J","1","","","203","main_expt"
"","bandit","283","680510","0.0-244.0-0.0","87535195","wem/bandit_either_2","A2551EKB87S2XY","either","6","421","","","","","","","0","0","1","","0.417590799","0.2","0.6","0.8","0.4","0.2421814767","0.2706274655","0.417590799","0.4363530878","","","","","","","","","","","","75","K","2","","","204","main_expt"
"","bandit","284","683064","0.0-245.0-0.0","87535195","wem/bandit_either_2","A2551EKB87S2XY","either","6","1036","","","","","","","0","0","1","","0.2250127273","0.2","0.6","0.8","0.4","0.2250127273","0.2688171721","0.3892328218","0.4390009565","","","","","","","","","","","","72","H","0","img/none_selected.jpg","","205","main_expt"
"","bandit","285","685085","0.0-246.0-0.0","87535195","wem/bandit_either_2","A2551EKB87S2XY","either","6","506","","","","","","","0","1","0","","0.2148063869","0.2","0.6","0.8","0.4","0.2148063869","0.2774640617","0.3877758809","0.4606838579","","","","","","","","","","","","72","H","0","img/none_selected.jpg","","206","main_expt"
"","bandit","286","687349","0.0-247.0-0.0","87535195","wem/bandit_either_2","A2551EKB87S2XY","either","6","742","","","","","","","0","0","1","0.3344078408","","0.2","0.6","0.8","0.4","","","","","0.2370073307","0.31303597","0.3344078408","0.4679198071","","","","","","","","75","K","2","","","207","main_expt"
"","bandit","287","689338","0.0-248.0-0.0","87535195","wem/bandit_either_2","A2551EKB87S2XY","either","6","470","","","","","","","0","0","1","","0.4731710197","0.2","0.6","0.8","0.4","0.1736764344","0.3187850143","0.3285414067","0.4731710197","","","","","","","","","","","","76","L","3","","","208","main_expt"
"","bandit","288","692115","0.0-249.0-0.0","87535195","wem/bandit_either_2","A2551EKB87S2XY","either","6","1253","","","","","","","0","0","1","","0.2033963155","0.2","0.6","0.8","0.4","0.2033963155","0.3031297305","0.337659841","0.472507437","","","","","","","","","","","","72","H","0","img/none_selected.jpg","","209","main_expt"
"","bandit","289","694049","0.0-250.0-0.0","87535195","wem/bandit_either_2","A2551EKB87S2XY","either","6","407","","","","","","","0","0","1","0.3593083662","","0.2","0.6","0.8","0.4","","","","","0.1849029676","0.3593083662","0.322880172","0.4759946166","","","","","","","","74","J","1","","","210","main_expt"
"","bandit","290","695915","0.0-251.0-0.0","87535195","wem/bandit_either_2","A2551EKB87S2XY","either","6","346","","","","","","","0","0","1","0.3440981268","","0.2","0.6","0.8","0.4","","","","","0.08033524441","0.3758292662","0.3440981268","0.4838002785","","","","","","","","75","K","2","","","211","main_expt"
"","bandit","291","697773","0.0-252.0-0.0","87535195","wem/bandit_either_2","A2551EKB87S2XY","either","6","342","","","","","","","1","0","0","0.4871609062","","0.2","0.6","0.8","0.4","","","","","0.1024936548","0.3771764803","0.3135232579","0.4871609062","","","","","","","","76","L","3","","","212","main_expt"
"","bandit","292","699552","0.0-253.0-0.0","87535195","wem/bandit_either_2","A2551EKB87S2XY","either","6","258","","","","","","","0","1","0","","0.4829725273","0.2","0.6","0.8","0.4","0.1380366818","0.3935517348","0.328558382","0.4829725273","","","","","","","","","","","","76","L","3","","","213","main_expt"
"","bandit","293","701487","0.0-254.0-0.0","87535195","wem/bandit_either_2","A2551EKB87S2XY","either","6","418","","","","","","","0","0","1","","0.4742933803","0.2","0.6","0.8","0.4","0.1206441992","0.3792377037","0.3024402918","0.4742933803","","","","","","","","","","","","76","L","3","","","214","main_expt"
"","bandit","294","703347","0.0-255.0-0.0","87535195","wem/bandit_either_2","A2551EKB87S2XY","either","6","336","","","","","","","0","0","1","0.1320715796","","0.2","0.6","0.8","0.4","","","","","0.1320715796","0.3364308411","0.3024001881","0.4754417465","","","","","","","","72","H","0","img/none_selected.jpg","","215","main_expt"
"","bandit","295","705300","0.0-256.0-0.0","87535195","wem/bandit_either_2","A2551EKB87S2XY","either","6","432","","","","","","","0","0","1","0.1152906885","","0.2","0.6","0.8","0.4","","","","","0.1152906885","0.3348871659","0.2975117226","0.4764866221","","","","","","","","72","H","0","img/none_selected.jpg","","216","main_expt"
"","bandit","296","707128","0.0-257.0-0.0","87535195","wem/bandit_either_2","A2551EKB87S2XY","either","6","312","","","","","","","1","0","0","0.321293363","","0.2","0.6","0.8","0.4","","","","","0.1191406027","0.321293363","0.3331298207","0.4727866334","","","","","","","","74","J","1","","","217","main_expt"
"","bandit","297","708977","0.0-258.0-0.0","87535195","wem/bandit_either_2","A2551EKB87S2XY","either","6","323","","","","","","","1","0","0","0.3530973922","","0.2","0.6","0.8","0.4","","","","","0.1177717736","0.3530973922","0.2905667849","0.4664653133","","","","","","","","74","J","1","","","218","main_expt"
"","bandit","298","710840","0.0-259.0-0.0","87535195","wem/bandit_either_2","A2551EKB87S2XY","either","6","338","","","","","","","0","0","1","0.3837093308","","0.2","0.6","0.8","0.4","","","","","0.1178729669","0.3837093308","0.2701708387","0.4636837267","","","","","","","","74","J","1","","","219","main_expt"
"","bandit","299","712971","0.0-260.0-0.0","87535195","wem/bandit_either_2","A2551EKB87S2XY","either","6","613","","","","","","","0","1","0","","0.2395453957","0.2","0.6","0.8","0.4","0.1284790336","0.3651541458","0.2395453957","0.4599900571","","","","","","","","","","","","75","K","2","","","220","main_expt"
"","bandit","300","714822","0.0-261.0-0.0","87535195","wem/bandit_either_2","A2551EKB87S2XY","either","6","333","","","","","","","0","0","1","","0.254085412","0.2","0.6","0.8","0.4","0.147465279","0.254085412","0.2770622605","0.4490722186","","","","","","","","","","","","74","J","1","","","221","main_expt"
"","bandit","301","718210","0.0-262.0-0.0","87535195","wem/bandit_either_2","A2551EKB87S2XY","either","6","1869","","","","","","","1","0","0","0.3390746663","","0.2","0.6","0.8","0.4","","","","","0.1441925756","0.2590796483","0.3390746663","0.4253353094","","","","","","","","75","K","2","","","222","main_expt"
"","bandit","302","720162","0.0-263.0-0.0","87535195","wem/bandit_either_2","A2551EKB87S2XY","either","6","435","","","","","","","0","0","1","0.384843876","","0.2","0.6","0.8","0.4","","","","","0.1731110736","0.2640852941","0.384843876","0.4559825987","","","","","","","","75","K","2","","","223","main_expt"
"","bandit","303","721988","0.0-264.0-0.0","87535195","wem/bandit_either_2","A2551EKB87S2XY","either","6","309","","","","","","","0","0","1","0.464560515","","0.2","0.6","0.8","0.4","","","","","0.1124600034","0.2636590797","0.4367619307","0.464560515","","","","","","","","76","L","3","","","224","main_expt"
"","bandit","304","723782","0.0-265.0-0.0","87535195","wem/bandit_either_2","A2551EKB87S2XY","either","6","275","","","","","","","1","0","0","0.4528378766","","0.2","0.6","0.8","0.4","","","","","0.1174510337","0.3110444069","0.42055701","0.4528378766","","","","","","","","76","L","3","","","225","main_expt"
"","bandit","305","725614","0.0-266.0-0.0","87535195","wem/bandit_either_2","A2551EKB87S2XY","either","6","314","","","","","","","0","1","0","","0.4585160156","0.2","0.6","0.8","0.4","0.1494320736","0.3268768972","0.4282593698","0.4585160156","","","","","","","","","","","","76","L","3","","","226","main_expt"
"","bandit","306","727443","0.0-267.0-0.0","87535195","wem/bandit_either_2","A2551EKB87S2XY","either","6","308","","","","","","","0","0","1","","0.4525914875","0.2","0.6","0.8","0.4","0.1655037845","0.3112991039","0.4213985596","0.4525914875","","","","","","","","","","","","76","L","3","","","227","main_expt"
"","bandit","307","729796","0.0-268.0-0.0","87535195","wem/bandit_either_2","A2551EKB87S2XY","either","6","830","","","","","","","1","0","0","0.4115599459","","0.2","0.6","0.8","0.4","","","","","0.1595877114","0.3481066565","0.4115599459","0.4618810074","","","","","","","","75","K","2","","","228","main_expt"
"","bandit","308","731712","0.0-269.0-0.0","87535195","wem/bandit_either_2","A2551EKB87S2XY","either","6","400","","","","","","","0","0","1","","0.1811982871","0.2","0.6","0.8","0.4","0.1811982871","0.3267856819","0.375967734","0.4661541784","","","","","","","","","","","","72","H","0","img/none_selected.jpg","","229","main_expt"
"","bandit","309","733617","0.0-270.0-0.0","87535195","wem/bandit_either_2","A2551EKB87S2XY","either","6","386","","","","","","","0","0","1","0.3043034776","","0.2","0.6","0.8","0.4","","","","","0.2088208598","0.3043034776","0.4172813036","0.4681373403","","","","","","","","74","J","1","","","230","main_expt"
"","bandit","310","736518","0.0-271.0-0.0","87535195","wem/bandit_either_2","A2551EKB87S2XY","either","6","1382","","","","","","","0","0","1","","0.2062946352","0.2","0.6","0.8","0.4","0.2062946352","0.3127123154","0.3871641603","0.4733838814","","","","","","","","","","","","72","H","0","img/none_selected.jpg","","231","main_expt"
"","bandit","311","739682","0.0-272.0-0.0","87535195","wem/bandit_either_2","A2551EKB87S2XY","either","6","1630","","","","","","","1","0","0","0.3381606844","","0.2","0.6","0.8","0.4","","","","","0.1448621505","0.3039198066","0.3381606844","0.455942125","","","","","","","","75","K","2","","","232","main_expt"
"","bandit","312","741552","0.0-273.0-0.0","87535195","wem/bandit_either_2","A2551EKB87S2XY","either","6","348","","","","","","","0","1","0","","0.2918198365","0.2","0.6","0.8","0.4","0.1096360744","0.2846072758","0.2918198365","0.4523014459","","","","","","","","","","","","75","K","2","","","233","main_expt"
"","bandit","313","743640","0.0-274.0-0.0","87535195","wem/bandit_either_2","A2551EKB87S2XY","either","6","566","","","","","","","0","0","1","0.3016980071","","0.2","0.6","0.8","0.4","","","","","0.1102272527","0.2430061478","0.3016980071","0.4715877437","","","","","","","","75","K","2","","","234","main_expt"
"","bandit","314","745790","0.0-275.0-0.0","87535195","wem/bandit_either_2","A2551EKB87S2XY","either","6","631","","","","","","","1","0","0","0.2940059945","","0.2","0.6","0.8","0.4","","","","","0.1428859574","0.263037213","0.2940059945","0.4667146267","","","","","","","","75","K","2","","","235","main_expt"
"","bandit","315","747651","0.0-276.0-0.0","87535195","wem/bandit_either_2","A2551EKB87S2XY","either","6","345","","","","","","","0","0","1","","0.2976510001","0.2","0.6","0.8","0.4","0.1659437887","0.2976510001","0.2926833733","0.4638430617","","","","","","","","","","","","74","J","1","","","236","main_expt"
"","bandit","316","749532","0.0-277.0-0.0","87535195","wem/bandit_either_2","A2551EKB87S2XY","either","6","356","","","","","","","1","0","0","0.278351659","","0.2","0.6","0.8","0.4","","","","","0.1948695303","0.2789990486","0.278351659","0.4584702359","","","","","","","","75","K","2","","","237","main_expt"
"","bandit","317","751305","0.0-278.0-0.0","87535195","wem/bandit_either_2","A2551EKB87S2XY","either","6","250","","","","","","","0","0","1","0.2475781625","","0.2","0.6","0.8","0.4","","","","","0.2231382717","0.2760904485","0.2475781625","0.4297714473","","","","","","","","75","K","2","","","238","main_expt"
"","bandit","318","753092","0.0-279.0-0.0","87535195","wem/bandit_either_2","A2551EKB87S2XY","either","6","264","","","","","","","0","1","0","","0.4225482751","0.2","0.6","0.8","0.4","0.2118273477","0.2679201555","0.2476463542","0.4225482751","","","","","","","","","","","","76","L","3","","","239","main_expt"
"","bandit","319","755056","0.0-280.0-0.0","87535195","wem/bandit_either_2","A2551EKB87S2XY","either","6","442","","","","","","","0","0","1","","0.3911766626","0.2","0.6","0.8","0.4","0.175879666","0.1815101208","0.2691810592","0.3911766626","","","","","","","","","","","","76","L","3","","","240","main_expt"
"","bandit","320","756845","0.0-281.0-0.0","87535195","wem/bandit_either_2","A2551EKB87S2XY","either","6","266","","","","","","","0","0","1","0.2107278188","","0.2","0.6","0.8","0.4","","","","","0.2619723004","0.2107278188","0.2600118225","0.3576719612","","","","","","","","74","J","1","","","241","main_expt"
"","bandit","321","758664","0.0-282.0-0.0","87535195","wem/bandit_either_2","A2551EKB87S2XY","either","6","299","","","","","","","0","0","1","0.253357122","","0.2","0.6","0.8","0.4","","","","","0.253357122","0.1890457695","0.2585740571","0.3649942216","","","","","","","","72","H","0","img/none_selected.jpg","","242","main_expt"
"","bandit","322","760478","0.0-283.0-0.0","87535195","wem/bandit_either_2","A2551EKB87S2XY","either","6","292","","","","","","","0","0","1","0.2937411872","","0.2","0.6","0.8","0.4","","","","","0.2937411872","0.1983598585","0.1943885749","0.3462843793","","","","","","","","72","H","0","img/none_selected.jpg","","243","main_expt"
"","bandit","323","762157","0.0-284.0-0.0","87535195","wem/bandit_either_2","A2551EKB87S2XY","either","6","159","","","","","","","0","0","1","0.2743784529","","0.2","0.6","0.8","0.4","","","","","0.2743784529","0.2165838592","0.1861062248","0.3520149162","","","","","","","","72","H","0","img/none_selected.jpg","","244","main_expt"
"","bandit","324","764400","0.0-285.0-0.0","87535195","wem/bandit_either_2","A2551EKB87S2XY","either","6","722","","","","","","","0","0","1","0.1398782291","","0.2","0.6","0.8","0.4","","","","","0.2734657034","0.1823109088","0.1398782291","0.3483485742","","","","","","","","75","K","2","","","245","main_expt"
"","bandit","325","766297","0.0-286.0-0.0","87535195","wem/bandit_either_2","A2551EKB87S2XY","either","6","371","","","","","","","0","0","1","0.1392076576","","0.2","0.6","0.8","0.4","","","","","0.2285423815","0.172760958","0.1392076576","0.3814570076","","","","","","","","75","K","2","","","246","main_expt"
