"consent","trial_type","trial_index","time_elapsed","internal_node_id","subjID","study","MID","cond","drift","rt","responses","key_press","expt_phase","like","value","connected","gems","bombs","no_reward","GemPrChosen","BombPrChosen","GainOverPainPr_0","GainOverPainPr_1","GainOverPainPr_2","GainOverPainPr_3","LosePr_0","LosePr_1","LosePr_2","LosePr_3","WinPr_0","WinPr_1","WinPr_2","WinPr_3","Q0","Q1","Q2","gender","age","ethnicity","target","respCharCode","respKey","respChoiceNum","respChoice","practice","trial_counter","trial_label"
"INL_behavioral_consent_30min_online.html","consent","0","8817","0.0-0.0","88268402","wem/bandit_either_2","A2YAYHZYI7M3HD","either","1","","","","","","","","","","","","","","","","","","","","","","","","","","","","","","","","","","","","","",""
"","survey-text","1","13060","0.0-1.0","88268402","wem/bandit_either_2","A2YAYHZYI7M3HD","either","1","3230","{""Q0"":""A2YAYHZYI7M3HD""}","","","","","","","","","","","","","","","","","","","","","","","","","","","","","","","","","","","",""
"","text","2","22074","0.0-2.0","88268402","wem/bandit_either_2","A2YAYHZYI7M3HD","either","1","8008","","32","","","","","","","","","","","","","","","","","","","","","","","","","","","","","","","","","","",""
"","text","3","24854","0.0-3.0","88268402","wem/bandit_either_2","A2YAYHZYI7M3HD","either","1","2778","","32","","","","","","","","","","","","","","","","","","","","","","","","","","","","","","","","","","",""
"","text","4","29398","0.0-4.0","88268402","wem/bandit_either_2","A2YAYHZYI7M3HD","either","1","4542","","32","","","","","","","","","","","","","","","","","","","","","","","","","","","","","","","","","","",""
"","text","5","31408","0.0-5.0","88268402","wem/bandit_either_2","A2YAYHZYI7M3HD","either","1","2008","","32","","","","","","","","","","","","","","","","","","","","","","","","","","","","","","","","","","",""
"","text","6","35025","0.0-6.0","88268402","wem/bandit_either_2","A2YAYHZYI7M3HD","either","1","3615","","32","","","","","","","","","","","","","","","","","","","","","","","","","","","","","","","","","","",""
"","text","7","36637","0.0-7.0","88268402","wem/bandit_either_2","A2YAYHZYI7M3HD","either","1","1611","","32","","","","","","","","","","","","","","","","","","","","","","","","","","","","","","","","","","",""
"","text","8","39664","0.0-8.0","88268402","wem/bandit_either_2","A2YAYHZYI7M3HD","either","1","3025","","32","","","","","","","","","","","","","","","","","","","","","","","","","","","","","","","","","","",""
"","identification","9","47142","0.0-9.0-0.0","88268402","wem/bandit_either_2","A2YAYHZYI7M3HD","either","1","7425","","","","3","3","2","","","","","","","","","","","","","","","","","","","","","","","","the village of Zur","","","","","","",""
"","identification","10","52881","0.0-9.0-1.0","88268402","wem/bandit_either_2","A2YAYHZYI7M3HD","either","1","4702","","","","3","2","2","","","","","","","","","","","","","","","","","","","","","","","","the village of Nyx","","","","","","",""
"","text","11","56494","0.0-10.0","88268402","wem/bandit_either_2","A2YAYHZYI7M3HD","either","1","2609","","32","","","","","","","","","","","","","","","","","","","","","","","","","","","","","","","","","","",""
"","text","12","57850","0.0-11.0","88268402","wem/bandit_either_2","A2YAYHZYI7M3HD","either","1","1353","","32","","","","","","","","","","","","","","","","","","","","","","","","","","","","","","","","","","",""
"","text","13","59014","0.0-12.0","88268402","wem/bandit_either_2","A2YAYHZYI7M3HD","either","1","1160","","32","","","","","","","","","","","","","","","","","","","","","","","","","","","","","","","","","","",""
"","text","14","60170","0.0-13.0","88268402","wem/bandit_either_2","A2YAYHZYI7M3HD","either","1","1153","","32","","","","","","","","","","","","","","","","","","","","","","","","","","","","","","","","","","",""
"","bandit","15","63725","0.0-14.0-0.0","88268402","wem/bandit_either_2","A2YAYHZYI7M3HD","either","1","2042","","","","","","","0","0","1","0","0","","","","","0","","","","0","","","","","","","","","","","74","J","0","img/none_selected_demo.jpg","true","0",""
"","bandit","16","66680","0.0-15.0-0.0","88268402","wem/bandit_either_2","A2YAYHZYI7M3HD","either","1","1444","","","","","","","0","0","1","0","0","","","","","0","","","","0","","","","","","","","","","","75","K","0","img/none_selected_demo.jpg","true","0",""
"","text","17","67798","0.0-16.0","88268402","wem/bandit_either_2","A2YAYHZYI7M3HD","either","1","1115","","32","","","","","","","","","","","","","","","","","","","","","","","","","","","","","","","","","","",""
"","text","18","68627","0.0-17.0","88268402","wem/bandit_either_2","A2YAYHZYI7M3HD","either","1","828","","32","","","","","","","","","","","","","","","","","","","","","","","","","","","","","","","","","","",""
"","text","19","69036","0.0-18.0","88268402","wem/bandit_either_2","A2YAYHZYI7M3HD","either","1","406","","32","","","","","","","","","","","","","","","","","","","","","","","","","","","","","","","","","","",""
"","text","20","69476","0.0-19.0","88268402","wem/bandit_either_2","A2YAYHZYI7M3HD","either","1","438","","32","","","","","","","","","","","","","","","","","","","","","","","","","","","","","","","","","","",""
"","bandit","21","72317","0.0-20.0-0.0","88268402","wem/bandit_either_2","A2YAYHZYI7M3HD","either","1","1332","","","","","","","0","0","1","","0.2","0.5","0.5","","","0.8","0.2","","","","","","","","","","","","","","75","K","1","","true","0","80_20_practice"
"","bandit","22","74777","0.0-20.0-1.0","88268402","wem/bandit_either_2","A2YAYHZYI7M3HD","either","1","950","","","","","","","0","0","1","0.2","","0.5","0.5","","","","","","","0.8","0.2","","","","","","","","","","75","K","1","","true","0","80_20_practice"
"","bandit","23","76587","0.0-20.0-2.0","88268402","wem/bandit_either_2","A2YAYHZYI7M3HD","either","1","298","","","","","","","0","1","0","","0.8","0.5","0.5","","","0.8","0.2","","","","","","","","","","","","","","74","J","0","img/none_selected_demo.jpg","true","0","80_20_practice"
"","bandit","24","78707","0.0-20.0-3.0","88268402","wem/bandit_either_2","A2YAYHZYI7M3HD","either","1","611","","","","","","","0","0","1","0.8","","0.5","0.5","","","","","","","0.8","0.2","","","","","","","","","","74","J","0","img/none_selected_demo.jpg","true","0","80_20_practice"
"","bandit","25","80764","0.0-20.0-4.0","88268402","wem/bandit_either_2","A2YAYHZYI7M3HD","either","1","548","","","","","","","0","0","1","","0.8","0.5","0.5","","","0.8","0.2","","","","","","","","","","","","","","74","J","0","img/none_selected_demo.jpg","true","0","80_20_practice"
"","bandit","26","82734","0.0-20.0-5.0","88268402","wem/bandit_either_2","A2YAYHZYI7M3HD","either","1","458","","","","","","","0","1","0","","0.8","0.5","0.5","","","0.8","0.2","","","","","","","","","","","","","","74","J","0","img/none_selected_demo.jpg","true","0","80_20_practice"
"","bandit","27","84551","0.0-20.0-6.0","88268402","wem/bandit_either_2","A2YAYHZYI7M3HD","either","1","306","","","","","","","0","0","1","","0.2","0.5","0.5","","","0.8","0.2","","","","","","","","","","","","","","75","K","1","","true","0","80_20_practice"
"","bandit","28","86442","0.0-20.0-7.0","88268402","wem/bandit_either_2","A2YAYHZYI7M3HD","either","1","381","","","","","","","0","0","1","0.2","","0.5","0.5","","","","","","","0.8","0.2","","","","","","","","","","75","K","1","","true","0","80_20_practice"
"","bandit","29","88206","0.0-20.0-8.0","88268402","wem/bandit_either_2","A2YAYHZYI7M3HD","either","1","255","","","","","","","0","0","1","","0.2","0.5","0.5","","","0.8","0.2","","","","","","","","","","","","","","75","K","1","","true","0","80_20_practice"
"","bandit","30","89915","0.0-20.0-9.0","88268402","wem/bandit_either_2","A2YAYHZYI7M3HD","either","1","200","","","","","","","0","1","0","","0.8","0.5","0.5","","","0.8","0.2","","","","","","","","","","","","","","74","J","0","img/none_selected_demo.jpg","true","0","80_20_practice"
"","bandit","31","91692","0.0-20.0-10.0","88268402","wem/bandit_either_2","A2YAYHZYI7M3HD","either","1","266","","","","","","","0","0","1","0.8","","0.5","0.5","","","","","","","0.8","0.2","","","","","","","","","","74","J","0","img/none_selected_demo.jpg","true","0","80_20_practice"
"","bandit","32","93675","0.0-20.0-11.0","88268402","wem/bandit_either_2","A2YAYHZYI7M3HD","either","1","471","","","","","","","0","0","1","0.8","","0.5","0.5","","","","","","","0.8","0.2","","","","","","","","","","74","J","0","img/none_selected_demo.jpg","true","0","80_20_practice"
"","bandit","33","95509","0.0-20.0-12.0","88268402","wem/bandit_either_2","A2YAYHZYI7M3HD","either","1","325","","","","","","","0","1","0","","0.8","0.5","0.5","","","0.8","0.2","","","","","","","","","","","","","","74","J","0","img/none_selected_demo.jpg","true","0","80_20_practice"
"","bandit","34","97303","0.0-20.0-13.0","88268402","wem/bandit_either_2","A2YAYHZYI7M3HD","either","1","284","","","","","","","0","1","0","","0.8","0.5","0.5","","","0.8","0.2","","","","","","","","","","","","","","74","J","0","img/none_selected_demo.jpg","true","0","80_20_practice"
"","bandit","35","99060","0.0-20.0-14.0","88268402","wem/bandit_either_2","A2YAYHZYI7M3HD","either","1","246","","","","","","","0","0","1","0.2","","0.5","0.5","","","","","","","0.8","0.2","","","","","","","","","","75","K","1","","true","0","80_20_practice"
"","bandit","36","100721","0.0-20.0-15.0","88268402","wem/bandit_either_2","A2YAYHZYI7M3HD","either","1","151","","","","","","","0","0","1","","0.2","0.5","0.5","","","0.8","0.2","","","","","","","","","","","","","","75","K","1","","true","0","80_20_practice"
"","bandit","37","102347","0.0-20.0-16.0","88268402","wem/bandit_either_2","A2YAYHZYI7M3HD","either","1","116","","","","","","","0","0","1","0.2","","0.5","0.5","","","","","","","0.8","0.2","","","","","","","","","","75","K","1","","true","0","80_20_practice"
"","bandit","38","103934","0.0-20.0-17.0","88268402","wem/bandit_either_2","A2YAYHZYI7M3HD","either","1","75","","","","","","","0","0","1","0.2","","0.5","0.5","","","","","","","0.8","0.2","","","","","","","","","","75","K","1","","true","0","80_20_practice"
"","bandit","39","106525","0.0-20.0-18.0","88268402","wem/bandit_either_2","A2YAYHZYI7M3HD","either","1","1081","","","","","","","1","0","0","0.2","","0.5","0.5","","","","","","","0.8","0.2","","","","","","","","","","75","K","1","","true","0","80_20_practice"
"","bandit","40","108288","0.0-20.0-19.0","88268402","wem/bandit_either_2","A2YAYHZYI7M3HD","either","1","251","","","","","","","1","0","0","0.2","","0.5","0.5","","","","","","","0.8","0.2","","","","","","","","","","75","K","1","","true","0","80_20_practice"
"","text","41","111528","0.0-21.0","88268402","wem/bandit_either_2","A2YAYHZYI7M3HD","either","1","3235","","32","","","","","","","","","","","","","","","","","","","","","","","","","","","","","","","","","","",""
"","bandit","42","114761","0.0-22.0-0.0","88268402","wem/bandit_either_2","A2YAYHZYI7M3HD","either","1","1721","","","","","","","0","1","0","0","1","","","","","0","1","","","1","0","","","","","","","","","","75","K","1","","true","0",""
"","text","43","120388","0.0-23.0","88268402","wem/bandit_either_2","A2YAYHZYI7M3HD","either","1","5621","","32","","","","","","","","","","","","","","","","","","","","","","","","","","","","","","","","","","",""
"","text","44","124850","0.0-24.0","88268402","wem/bandit_either_2","A2YAYHZYI7M3HD","either","1","4458","","32","","","","","","","","","","","","","","","","","","","","","","","","","","","","","","","","","","",""
"","text","45","125631","0.0-25.0","88268402","wem/bandit_either_2","A2YAYHZYI7M3HD","either","1","777","","32","","","","","","","","","","","","","","","","","","","","","","","","","","","","","","","","","","",""
"","text","46","126077","0.0-26.0","88268402","wem/bandit_either_2","A2YAYHZYI7M3HD","either","1","442","","32","","","","","","","","","","","","","","","","","","","","","","","","","","","","","","","","","","",""
"","text","47","126406","0.0-27.0","88268402","wem/bandit_either_2","A2YAYHZYI7M3HD","either","1","324","","32","","","","","","","","","","","","","","","","","","","","","","","","","","","","","","","","","","",""
"","text","48","126740","0.0-28.0","88268402","wem/bandit_either_2","A2YAYHZYI7M3HD","either","1","329","","32","","","","","","","","","","","","","","","","","","","","","","","","","","","","","","","","","","",""
"","text","49","127090","0.0-29.0","88268402","wem/bandit_either_2","A2YAYHZYI7M3HD","either","1","345","","32","","","","","","","","","","","","","","","","","","","","","","","","","","","","","","","","","","",""
"","text","50","127429","0.0-30.0","88268402","wem/bandit_either_2","A2YAYHZYI7M3HD","either","1","336","","32","","","","","","","","","","","","","","","","","","","","","","","","","","","","","","","","","","",""
"","text","51","127644","0.0-31.0","88268402","wem/bandit_either_2","A2YAYHZYI7M3HD","either","1","210","","32","","","","","","","","","","","","","","","","","","","","","","","","","","","","","","","","","","",""
"","text","52","127886","0.0-32.0","88268402","wem/bandit_either_2","A2YAYHZYI7M3HD","either","1","237","","32","","","","","","","","","","","","","","","","","","","","","","","","","","","","","","","","","","",""
"","text","53","128088","0.0-33.0","88268402","wem/bandit_either_2","A2YAYHZYI7M3HD","either","1","197","","32","","","","","","","","","","","","","","","","","","","","","","","","","","","","","","","","","","",""
"","bandit","54","130289","0.0-34.0-0.0","88268402","wem/bandit_either_2","A2YAYHZYI7M3HD","either","1","652","","","","","","","1","0","0","0.2","","0.5","0.5","0.5","0.5","","","","","0.8","0.2","0.6","0.2","","","","","","","","76","L","3","","true","0","full_practice"
"","bandit","55","132047","0.0-34.0-1.0","88268402","wem/bandit_either_2","A2YAYHZYI7M3HD","either","1","246","","","","","","","0","1","0","","0.2","0.5","0.5","0.5","0.5","0.8","0.2","0.6","0.2","","","","","","","","","","","","76","L","3","","true","0","full_practice"
"","bandit","56","133879","0.0-34.0-2.0","88268402","wem/bandit_either_2","A2YAYHZYI7M3HD","either","1","320","","","","","","","0","0","1","","0.6","0.5","0.5","0.5","0.5","0.8","0.2","0.6","0.2","","","","","","","","","","","","75","K","2","","true","0","full_practice"
"","bandit","57","135578","0.0-34.0-3.0","88268402","wem/bandit_either_2","A2YAYHZYI7M3HD","either","1","188","","","","","","","0","0","1","","0.2","0.5","0.5","0.5","0.5","0.8","0.2","0.6","0.2","","","","","","","","","","","","74","J","1","","true","0","full_practice"
"","bandit","58","137143","0.0-34.0-4.0","88268402","wem/bandit_either_2","A2YAYHZYI7M3HD","either","1","56","","","","","","","0","1","0","","0.8","0.5","0.5","0.5","0.5","0.8","0.2","0.6","0.2","","","","","","","","","","","","72","H","0","img/none_selected.jpg","true","0","full_practice"
"","bandit","59","138670","0.0-34.0-5.0","88268402","wem/bandit_either_2","A2YAYHZYI7M3HD","either","1","15","","","","","","","0","0","1","0.2","","0.5","0.5","0.5","0.5","","","","","0.8","0.2","0.6","0.2","","","","","","","","76","L","3","","true","0","full_practice"
"","bandit","60","140824","0.0-34.0-6.0","88268402","wem/bandit_either_2","A2YAYHZYI7M3HD","either","1","644","","","","","","","0","1","0","","0.2","0.5","0.5","0.5","0.5","0.8","0.2","0.6","0.2","","","","","","","","","","","","76","L","3","","true","0","full_practice"
"","bandit","61","142536","0.0-34.0-7.0","88268402","wem/bandit_either_2","A2YAYHZYI7M3HD","either","1","199","","","","","","","0","0","1","0.2","","0.5","0.5","0.5","0.5","","","","","0.8","0.2","0.6","0.2","","","","","","","","74","J","1","","true","0","full_practice"
"","bandit","62","144298","0.0-34.0-8.0","88268402","wem/bandit_either_2","A2YAYHZYI7M3HD","either","1","250","","","","","","","1","0","0","0.2","","0.5","0.5","0.5","0.5","","","","","0.8","0.2","0.6","0.2","","","","","","","","74","J","1","","true","0","full_practice"
"","bandit","63","145995","0.0-34.0-9.0","88268402","wem/bandit_either_2","A2YAYHZYI7M3HD","either","1","187","","","","","","","0","0","1","0.2","","0.5","0.5","0.5","0.5","","","","","0.8","0.2","0.6","0.2","","","","","","","","74","J","1","","true","0","full_practice"
"","bandit","64","147605","0.0-34.0-10.0","88268402","wem/bandit_either_2","A2YAYHZYI7M3HD","either","1","100","","","","","","","0","1","0","","0.2","0.5","0.5","0.5","0.5","0.8","0.2","0.6","0.2","","","","","","","","","","","","74","J","1","","true","0","full_practice"
"","bandit","65","149653","0.0-34.0-11.0","88268402","wem/bandit_either_2","A2YAYHZYI7M3HD","either","1","535","","","","","","","0","0","1","","0.6","0.5","0.5","0.5","0.5","0.8","0.2","0.6","0.2","","","","","","","","","","","","75","K","2","","true","0","full_practice"
"","bandit","66","151276","0.0-34.0-12.0","88268402","wem/bandit_either_2","A2YAYHZYI7M3HD","either","1","111","","","","","","","0","1","0","","0.6","0.5","0.5","0.5","0.5","0.8","0.2","0.6","0.2","","","","","","","","","","","","75","K","2","","true","0","full_practice"
"","bandit","67","153191","0.0-34.0-13.0","88268402","wem/bandit_either_2","A2YAYHZYI7M3HD","either","1","403","","","","","","","0","0","1","","0.8","0.5","0.5","0.5","0.5","0.8","0.2","0.6","0.2","","","","","","","","","","","","72","H","0","img/none_selected.jpg","true","0","full_practice"
"","bandit","68","154841","0.0-34.0-14.0","88268402","wem/bandit_either_2","A2YAYHZYI7M3HD","either","1","137","","","","","","","0","1","0","","0.8","0.5","0.5","0.5","0.5","0.8","0.2","0.6","0.2","","","","","","","","","","","","72","H","0","img/none_selected.jpg","true","0","full_practice"
"","bandit","69","156539","0.0-34.0-15.0","88268402","wem/bandit_either_2","A2YAYHZYI7M3HD","either","1","185","","","","","","","1","0","0","0.8","","0.5","0.5","0.5","0.5","","","","","0.8","0.2","0.6","0.2","","","","","","","","72","H","0","img/none_selected.jpg","true","0","full_practice"
"","bandit","70","158179","0.0-34.0-16.0","88268402","wem/bandit_either_2","A2YAYHZYI7M3HD","either","1","126","","","","","","","1","0","0","0.8","","0.5","0.5","0.5","0.5","","","","","0.8","0.2","0.6","0.2","","","","","","","","72","H","0","img/none_selected.jpg","true","0","full_practice"
"","bandit","71","159740","0.0-34.0-17.0","88268402","wem/bandit_either_2","A2YAYHZYI7M3HD","either","1","50","","","","","","","0","0","1","","0.8","0.5","0.5","0.5","0.5","0.8","0.2","0.6","0.2","","","","","","","","","","","","72","H","0","img/none_selected.jpg","true","0","full_practice"
"","bandit","72","161253","0.0-34.0-18.0","88268402","wem/bandit_either_2","A2YAYHZYI7M3HD","either","1","1","","","","","","","0","0","1","","0.8","0.5","0.5","0.5","0.5","0.8","0.2","0.6","0.2","","","","","","","","","","","","72","H","0","img/none_selected.jpg","true","0","full_practice"
"","bandit","73","163057","0.0-34.0-19.0","88268402","wem/bandit_either_2","A2YAYHZYI7M3HD","either","1","292","","","","","","","1","0","0","0.8","","0.5","0.5","0.5","0.5","","","","","0.8","0.2","0.6","0.2","","","","","","","","72","H","0","img/none_selected.jpg","true","0","full_practice"
"","text","74","165026","0.0-35.0","88268402","wem/bandit_either_2","A2YAYHZYI7M3HD","either","1","1953","","32","","","","","","","","","","","","","","","","","","","","","","","","","","","","","","","","","","",""
"","text","75","173660","0.0-36.0","88268402","wem/bandit_either_2","A2YAYHZYI7M3HD","either","1","7627","","32","","","","","","","","","","","","","","","","","","","","","","","","","","","","","","","","","","",""
"","text","76","174577","0.0-37.0","88268402","wem/bandit_either_2","A2YAYHZYI7M3HD","either","1","910","","32","","","","","","","","","","","","","","","","","","","","","","","","","","","","","","","","","","",""
"","text","77","175133","0.0-38.0","88268402","wem/bandit_either_2","A2YAYHZYI7M3HD","either","1","549","","32","","","","","","","","","","","","","","","","","","","","","","","","","","","","","","","","","","",""
"","text","78","175469","0.0-39.0","88268402","wem/bandit_either_2","A2YAYHZYI7M3HD","either","1","330","","32","","","","","","","","","","","","","","","","","","","","","","","","","","","","","","","","","","",""
"","text","79","175812","0.0-40.0","88268402","wem/bandit_either_2","A2YAYHZYI7M3HD","either","1","337","","32","","","","","","","","","","","","","","","","","","","","","","","","","","","","","","","","","","",""
"","bandit","80","178063","0.0-41.0-0.0","88268402","wem/bandit_either_2","A2YAYHZYI7M3HD","either","1","736","","","","","","","0","0","1","0.02943109976","","0.8","0.2","0.6","0.4","","","","","0.02943109976","0.4269289603","0.3592836462","0.0798457429","","","","","","","","72","H","0","img/none_selected.jpg","","1","main_expt"
"","bandit","81","180129","0.0-42.0-0.0","88268402","wem/bandit_either_2","A2YAYHZYI7M3HD","either","1","553","","","","","","","0","0","1","0.06336112212","","0.8","0.2","0.6","0.4","","","","","0.06336112212","0.4660243271","0.3454903542","0.07621336767","","","","","","","","72","H","0","img/none_selected.jpg","","2","main_expt"
"","bandit","82","181980","0.0-43.0-0.0","88268402","wem/bandit_either_2","A2YAYHZYI7M3HD","either","1","338","","","","","","","0","0","1","0.07335687118","","0.8","0.2","0.6","0.4","","","","","0.07335687118","0.4738503749","0.2941512374","0.07476295528","","","","","","","","72","H","0","img/none_selected.jpg","","3","main_expt"
"","bandit","83","183762","0.0-44.0-0.0","88268402","wem/bandit_either_2","A2YAYHZYI7M3HD","either","1","269","","","","","","","0","0","1","0.06156305515","","0.8","0.2","0.6","0.4","","","","","0.06156305515","0.4618500418","0.2851241965","0.06526985361","","","","","","","","72","H","0","img/none_selected.jpg","","4","main_expt"
"","bandit","84","185385","0.0-45.0-0.0","88268402","wem/bandit_either_2","A2YAYHZYI7M3HD","either","1","107","","","","","","","0","0","1","","0.05487735528","0.8","0.2","0.6","0.4","0.08141194251","0.4488935273","0.3172925843","0.05487735528","","","","","","","","","","","","76","L","3","","","5","main_expt"
"","bandit","85","187360","0.0-46.0-0.0","88268402","wem/bandit_either_2","A2YAYHZYI7M3HD","either","1","459","","","","","","","0","0","1","","0.4437832297","0.8","0.2","0.6","0.4","0.1104821702","0.4437832297","0.3319153021","0.04340015571","","","","","","","","","","","","74","J","1","","","6","main_expt"
"","bandit","86","189106","0.0-47.0-0.0","88268402","wem/bandit_either_2","A2YAYHZYI7M3HD","either","1","233","","","","","","","0","0","1","0.3553039772","","0.8","0.2","0.6","0.4","","","","","0.1191408541","0.4310077805","0.3553039772","0.04575060371","","","","","","","","75","K","2","","","7","main_expt"
"","bandit","87","190727","0.0-48.0-0.0","88268402","wem/bandit_either_2","A2YAYHZYI7M3HD","either","1","106","","","","","","","1","0","0","0.3868093767","","0.8","0.2","0.6","0.4","","","","","0.1517570037","0.4480386191","0.3868093767","0.06112087539","","","","","","","","75","K","2","","","8","main_expt"
"","bandit","88","192440","0.0-49.0-0.0","88268402","wem/bandit_either_2","A2YAYHZYI7M3HD","either","1","199","","","","","","","0","1","0","","0.3754406694","0.8","0.2","0.6","0.4","0.1738087075","0.4460224538","0.3754406694","0.07854191076","","","","","","","","","","","","75","K","2","","","9","main_expt"
"","bandit","89","194230","0.0-50.0-0.0","88268402","wem/bandit_either_2","A2YAYHZYI7M3HD","either","1","277","","","","","","","0","0","1","0.2033535465","","0.8","0.2","0.6","0.4","","","","","0.2033535465","0.3954493452","0.3537433427","0.06865483858","","","","","","","","72","H","0","img/none_selected.jpg","","10","main_expt"
"","bandit","90","195745","0.0-51.0-0.0","88268402","wem/bandit_either_2","A2YAYHZYI7M3HD","either","1","0","","","","","","","0","0","1","0.1751631116","","0.8","0.2","0.6","0.4","","","","","0.1751631116","0.4064238371","0.3793358735","0.05083805298","","","","","","","","72","H","0","img/none_selected.jpg","","11","main_expt"
"","bandit","91","197552","0.0-52.0-0.0","88268402","wem/bandit_either_2","A2YAYHZYI7M3HD","either","1","290","","","","","","","0","0","1","0.1787487179","","0.8","0.2","0.6","0.4","","","","","0.1787487179","0.3800839449","0.3800428212","0.1038792476","","","","","","","","72","H","0","img/none_selected.jpg","","12","main_expt"
"","bandit","92","199123","0.0-53.0-0.0","88268402","wem/bandit_either_2","A2YAYHZYI7M3HD","either","1","57","","","","","","","0","0","1","","0.1197284353","0.8","0.2","0.6","0.4","0.1794712961","0.3866628193","0.3647981021","0.1197284353","","","","","","","","","","","","76","L","3","","","13","main_expt"
"","bandit","93","200761","0.0-54.0-0.0","88268402","wem/bandit_either_2","A2YAYHZYI7M3HD","either","1","123","","","","","","","0","0","1","","0.135681701","0.8","0.2","0.6","0.4","0.2482140722","0.326509825","0.3646471907","0.135681701","","","","","","","","","","","","76","L","3","","","14","main_expt"
"","bandit","94","202501","0.0-55.0-0.0","88268402","wem/bandit_either_2","A2YAYHZYI7M3HD","either","1","226","","","","","","","0","0","1","","0.2428529647","0.8","0.2","0.6","0.4","0.2859415589","0.2428529647","0.3549291363","0.125153919","","","","","","","","","","","","74","J","1","","","15","main_expt"
"","bandit","95","204318","0.0-56.0-0.0","88268402","wem/bandit_either_2","A2YAYHZYI7M3HD","either","1","302","","","","","","","0","0","1","","0.2332962783","0.8","0.2","0.6","0.4","0.26587149","0.2332962783","0.3727350689","0.1096891688","","","","","","","","","","","","74","J","1","","","16","main_expt"
"","bandit","96","205914","0.0-57.0-0.0","88268402","wem/bandit_either_2","A2YAYHZYI7M3HD","either","1","80","","","","","","","0","0","1","","0.2271032234","0.8","0.2","0.6","0.4","0.2776265896","0.2271032234","0.3112083829","0.1051581447","","","","","","","","","","","","74","J","1","","","17","main_expt"
"","bandit","97","207507","0.0-58.0-0.0","88268402","wem/bandit_either_2","A2YAYHZYI7M3HD","either","1","76","","","","","","","0","1","0","","0.1701710303","0.8","0.2","0.6","0.4","0.3223387563","0.1701710303","0.2403081055","0.1437943492","","","","","","","","","","","","74","J","1","","","18","main_expt"
"","bandit","98","209146","0.0-59.0-0.0","88268402","wem/bandit_either_2","A2YAYHZYI7M3HD","either","1","119","","","","","","","0","0","1","0.3192918255","","0.8","0.2","0.6","0.4","","","","","0.3192918255","0.2070198111","0.2377482675","0.1405615485","","","","","","","","72","H","0","img/none_selected.jpg","","19","main_expt"
"","bandit","99","210779","0.0-60.0-0.0","88268402","wem/bandit_either_2","A2YAYHZYI7M3HD","either","1","118","","","","","","","1","0","0","0.2739159796","","0.8","0.2","0.6","0.4","","","","","0.2739159796","0.2412547966","0.2607530295","0.1063334751","","","","","","","","72","H","0","img/none_selected.jpg","","20","main_expt"
"","bandit","100","212593","0.0-61.0-0.0","88268402","wem/bandit_either_2","A2YAYHZYI7M3HD","either","1","300","","","","","","","0","0","1","0.2454385858","","0.8","0.2","0.6","0.4","","","","","0.2454385858","0.2184758186","0.2919400674","0.07848250716","","","","","","","","72","H","0","img/none_selected.jpg","","21","main_expt"
"","bandit","101","214189","0.0-62.0-0.0","88268402","wem/bandit_either_2","A2YAYHZYI7M3HD","either","1","81","","","","","","","0","0","1","0.2340842041","","0.8","0.2","0.6","0.4","","","","","0.2340842041","0.1849325376","0.2995681058","0.1005082742","","","","","","","","72","H","0","img/none_selected.jpg","","22","main_expt"
"","bandit","102","215812","0.0-63.0-0.0","88268402","wem/bandit_either_2","A2YAYHZYI7M3HD","either","1","108","","","","","","","0","0","1","0.0792694407","","0.8","0.2","0.6","0.4","","","","","0.1840173947","0.1521197653","0.292554742","0.0792694407","","","","","","","","76","L","3","","","23","main_expt"
"","bandit","103","217458","0.0-64.0-0.0","88268402","wem/bandit_either_2","A2YAYHZYI7M3HD","either","1","130","","","","","","","1","0","0","0.07358699385","","0.8","0.2","0.6","0.4","","","","","0.1745529383","0.1759403195","0.3616894364","0.07358699385","","","","","","","","76","L","3","","","24","main_expt"
"","bandit","104","218997","0.0-65.0-0.0","88268402","wem/bandit_either_2","A2YAYHZYI7M3HD","either","1","25","","","","","","","1","0","0","0.142208116","","0.8","0.2","0.6","0.4","","","","","0.1756582033","0.09479311865","0.3575757263","0.142208116","","","","","","","","76","L","3","","","25","main_expt"
"","bandit","105","221259","0.0-66.0-0.0","88268402","wem/bandit_either_2","A2YAYHZYI7M3HD","either","1","747","","","","","","","0","0","1","","0.1245113583","0.8","0.2","0.6","0.4","0.2086365416","0.08156123497","0.3635346368","0.1245113583","","","","","","","","","","","","76","L","3","","","26","main_expt"
"","bandit","106","222817","0.0-67.0-0.0","88268402","wem/bandit_either_2","A2YAYHZYI7M3HD","either","1","43","","","","","","","0","0","1","0.118364605","","0.8","0.2","0.6","0.4","","","","","0.2139763749","0.1102307873","0.4109801844","0.118364605","","","","","","","","76","L","3","","","27","main_expt"
"","bandit","107","224584","0.0-68.0-0.0","88268402","wem/bandit_either_2","A2YAYHZYI7M3HD","either","1","250","","","","","","","0","0","1","0.1105930361","","0.8","0.2","0.6","0.4","","","","","0.1613483267","0.08274430796","0.3772962545","0.1105930361","","","","","","","","76","L","3","","","28","main_expt"
"","bandit","108","226103","0.0-69.0-0.0","88268402","wem/bandit_either_2","A2YAYHZYI7M3HD","either","1","3","","","","","","","0","1","0","","0.1118713044","0.8","0.2","0.6","0.4","0.1712488152","0.1086911099","0.3875745016","0.1118713044","","","","","","","","","","","","76","L","3","","","29","main_expt"
"","bandit","109","227666","0.0-70.0-0.0","88268402","wem/bandit_either_2","A2YAYHZYI7M3HD","either","1","48","","","","","","","0","0","1","0.1675524316","","0.8","0.2","0.6","0.4","","","","","0.1675524316","0.1116575632","0.3780019893","0.1914750456","","","","","","","","72","H","0","img/none_selected.jpg","","30","main_expt"
"","bandit","110","229200","0.0-71.0-0.0","88268402","wem/bandit_either_2","A2YAYHZYI7M3HD","either","1","19","","","","","","","0","0","1","0.140325158","","0.8","0.2","0.6","0.4","","","","","0.140325158","0.07828091442","0.416860241","0.2367730164","","","","","","","","72","H","0","img/none_selected.jpg","","31","main_expt"
"","bandit","111","230748","0.0-72.0-0.0","88268402","wem/bandit_either_2","A2YAYHZYI7M3HD","either","1","33","","","","","","","0","0","1","","0.07550395781","0.8","0.2","0.6","0.4","0.1553940025","0.07550395781","0.4242573056","0.2109574779","","","","","","","","","","","","74","J","1","","","32","main_expt"
"","bandit","112","232287","0.0-73.0-0.0","88268402","wem/bandit_either_2","A2YAYHZYI7M3HD","either","1","23","","","","","","","0","0","1","0.1445529326","","0.8","0.2","0.6","0.4","","","","","0.1925614924","0.1445529326","0.4185546122","0.2005542758","","","","","","","","74","J","1","","","33","main_expt"
"","bandit","113","234640","0.0-74.0-0.0","88268402","wem/bandit_either_2","A2YAYHZYI7M3HD","either","1","838","","","","","","","0","0","1","","0.1091775744","0.8","0.2","0.6","0.4","0.2150530123","0.1091775744","0.4268308419","0.180377021","","","","","","","","","","","","74","J","1","","","34","main_expt"
"","bandit","114","236170","0.0-75.0-0.0","88268402","wem/bandit_either_2","A2YAYHZYI7M3HD","either","1","16","","","","","","","0","1","0","","0.4265642185","0.8","0.2","0.6","0.4","0.2688968874","0.1297995116","0.4265642185","0.2111187229","","","","","","","","","","","","75","K","2","","","35","main_expt"
"","bandit","115","237702","0.0-76.0-0.0","88268402","wem/bandit_either_2","A2YAYHZYI7M3HD","either","1","17","","","","","","","0","1","0","","0.4066287969","0.8","0.2","0.6","0.4","0.2977459964","0.09468550628","0.4066287969","0.2119332756","","","","","","","","","","","","75","K","2","","","36","main_expt"
"","bandit","116","239252","0.0-77.0-0.0","88268402","wem/bandit_either_2","A2YAYHZYI7M3HD","either","1","34","","","","","","","1","0","0","0.2684429955","","0.8","0.2","0.6","0.4","","","","","0.2684429955","0.09396978408","0.4611471687","0.2256131965","","","","","","","","72","H","0","img/none_selected.jpg","","37","main_expt"
"","bandit","117","240845","0.0-78.0-0.0","88268402","wem/bandit_either_2","A2YAYHZYI7M3HD","either","1","76","","","","","","","0","0","1","0.2490186117","","0.8","0.2","0.6","0.4","","","","","0.2490186117","0.1062257399","0.4482708269","0.1975147253","","","","","","","","72","H","0","img/none_selected.jpg","","38","main_expt"
"","bandit","118","242996","0.0-79.0-0.0","88268402","wem/bandit_either_2","A2YAYHZYI7M3HD","either","1","635","","","","","","","0","0","1","","0.2548033483","0.8","0.2","0.6","0.4","0.2548033483","0.09676453159","0.4402774387","0.1595648847","","","","","","","","","","","","72","H","0","img/none_selected.jpg","","39","main_expt"
"","bandit","119","244929","0.0-80.0-0.0","88268402","wem/bandit_either_2","A2YAYHZYI7M3HD","either","1","416","","","","","","","0","1","0","","0.1626610004","0.8","0.2","0.6","0.4","0.2688720753","0.08197179495","0.4385128538","0.1626610004","","","","","","","","","","","","76","L","3","","","40","main_expt"
"","bandit","120","246665","0.0-81.0-0.0","88268402","wem/bandit_either_2","A2YAYHZYI7M3HD","either","1","219","","","","","","","0","0","1","0.297778532","","0.8","0.2","0.6","0.4","","","","","0.297778532","0.14416382","0.4380640779","0.1982402655","","","","","","","","72","H","0","img/none_selected.jpg","","41","main_expt"
"","bandit","121","248353","0.0-82.0-0.0","88268402","wem/bandit_either_2","A2YAYHZYI7M3HD","either","1","173","","","","","","","0","0","1","0.2449207522","","0.8","0.2","0.6","0.4","","","","","0.2449207522","0.1070927036","0.4265224768","0.1863610343","","","","","","","","72","H","0","img/none_selected.jpg","","42","main_expt"
"","bandit","122","249873","0.0-83.0-0.0","88268402","wem/bandit_either_2","A2YAYHZYI7M3HD","either","1","1","","","","","","","0","0","1","","0.2418389683","0.8","0.2","0.6","0.4","0.2457567503","0.1214526226","0.435880106","0.2418389683","","","","","","","","","","","","76","L","3","","","43","main_expt"
"","bandit","123","251469","0.0-84.0-0.0","88268402","wem/bandit_either_2","A2YAYHZYI7M3HD","either","1","80","","","","","","","0","0","1","0.1943491227","","0.8","0.2","0.6","0.4","","","","","0.2432732657","0.1450738833","0.4450576882","0.1943491227","","","","","","","","76","L","3","","","44","main_expt"
"","bandit","124","253029","0.0-85.0-0.0","88268402","wem/bandit_either_2","A2YAYHZYI7M3HD","either","1","44","","","","","","","1","0","0","0.2656772236","","0.8","0.2","0.6","0.4","","","","","0.2656772236","0.09632230927","0.4382030275","0.1543250971","","","","","","","","72","H","0","img/none_selected.jpg","","45","main_expt"
"","bandit","125","254572","0.0-86.0-0.0","88268402","wem/bandit_either_2","A2YAYHZYI7M3HD","either","1","26","","","","","","","0","0","1","0.2432112423","","0.8","0.2","0.6","0.4","","","","","0.2432112423","0.103211431","0.4412369426","0.09719433791","","","","","","","","72","H","0","img/none_selected.jpg","","46","main_expt"
"","bandit","126","256637","0.0-87.0-0.0","88268402","wem/bandit_either_2","A2YAYHZYI7M3HD","either","1","545","","","","","","","0","0","1","","0.1228880329","0.8","0.2","0.6","0.4","0.2992745976","0.09916324924","0.4588863431","0.1228880329","","","","","","","","","","","","76","L","3","","","47","main_expt"
"","bandit","127","258400","0.0-88.0-0.0","88268402","wem/bandit_either_2","A2YAYHZYI7M3HD","either","1","245","","","","","","","0","0","1","","0.1068532567","0.8","0.2","0.6","0.4","0.2594611615","0.1090242341","0.4408788818","0.1068532567","","","","","","","","","","","","76","L","3","","","48","main_expt"
"","bandit","128","259987","0.0-89.0-0.0","88268402","wem/bandit_either_2","A2YAYHZYI7M3HD","either","1","70","","","","","","","0","0","1","","0.2767916858","0.8","0.2","0.6","0.4","0.2767916858","0.1265186769","0.4232064109","0.1044048509","","","","","","","","","","","","72","H","0","img/none_selected.jpg","","49","main_expt"
"","bandit","129","261970","0.0-90.0-0.0","88268402","wem/bandit_either_2","A2YAYHZYI7M3HD","either","1","466","","","","","","","1","0","0","0.2762534014","","0.8","0.2","0.6","0.4","","","","","0.2762534014","0.1397440907","0.4210883962","0.1072026782","","","","","","","","72","H","0","img/none_selected.jpg","","50","main_expt"
"","bandit","130","263698","0.0-91.0-0.0","88268402","wem/bandit_either_2","A2YAYHZYI7M3HD","either","1","210","","","","","","","1","0","0","0.3379376541","","0.8","0.2","0.6","0.4","","","","","0.3379376541","0.153600331","0.4225635581","0.1287882573","","","","","","","","72","H","0","img/none_selected.jpg","","51","main_expt"
"","bandit","131","265294","0.0-92.0-0.0","88268402","wem/bandit_either_2","A2YAYHZYI7M3HD","either","1","79","","","","","","","0","0","1","0.3395267946","","0.8","0.2","0.6","0.4","","","","","0.3395267946","0.1718407591","0.4146237098","0.1298059469","","","","","","","","72","H","0","img/none_selected.jpg","","52","main_expt"
"","bandit","132","267059","0.0-93.0-0.0","88268402","wem/bandit_either_2","A2YAYHZYI7M3HD","either","1","248","","","","","","","0","0","1","","0.07423060895","0.8","0.2","0.6","0.4","0.29674647","0.1945727614","0.3763623321","0.07423060895","","","","","","","","","","","","76","L","3","","","53","main_expt"
"","bandit","133","268737","0.0-94.0-0.0","88268402","wem/bandit_either_2","A2YAYHZYI7M3HD","either","1","161","","","","","","","0","0","1","0.08562383645","","0.8","0.2","0.6","0.4","","","","","0.3372955831","0.2450542523","0.3289081181","0.08562383645","","","","","","","","76","L","3","","","54","main_expt"
"","bandit","134","270423","0.0-95.0-0.0","88268402","wem/bandit_either_2","A2YAYHZYI7M3HD","either","1","168","","","","","","","0","0","1","0.3025984711","","0.8","0.2","0.6","0.4","","","","","0.3506099842","0.2547241938","0.3025984711","0.0757818623","","","","","","","","75","K","2","","","55","main_expt"
"","bandit","135","271986","0.0-96.0-0.0","88268402","wem/bandit_either_2","A2YAYHZYI7M3HD","either","1","44","","","","","","","0","0","1","","0.2595112895","0.8","0.2","0.6","0.4","0.3418029788","0.2595112895","0.2921333137","0.09897923035","","","","","","","","","","","","74","J","1","","","56","main_expt"
"","bandit","136","273598","0.0-97.0-0.0","88268402","wem/bandit_either_2","A2YAYHZYI7M3HD","either","1","93","","","","","","","0","0","1","","0.2610276213","0.8","0.2","0.6","0.4","0.3162475816","0.2610276213","0.3317177772","0.1160875525","","","","","","","","","","","","74","J","1","","","57","main_expt"
"","bandit","137","275261","0.0-98.0-0.0","88268402","wem/bandit_either_2","A2YAYHZYI7M3HD","either","1","144","","","","","","","0","0","1","","0.3240244649","0.8","0.2","0.6","0.4","0.3269881105","0.2354201416","0.3240244649","0.1134641846","","","","","","","","","","","","75","K","2","","","58","main_expt"
"","bandit","138","277253","0.0-99.0-0.0","88268402","wem/bandit_either_2","A2YAYHZYI7M3HD","either","1","473","","","","","","","0","0","1","","0.2901324944","0.8","0.2","0.6","0.4","0.2901324944","0.2346370837","0.2988076671","0.1177083384","","","","","","","","","","","","72","H","0","img/none_selected.jpg","","59","main_expt"
"","bandit","139","278864","0.0-100.0-0.0","88268402","wem/bandit_either_2","A2YAYHZYI7M3HD","either","1","93","","","","","","","0","0","1","0.1125723432","","0.8","0.2","0.6","0.4","","","","","0.289588464","0.2315637733","0.3096792726","0.1125723432","","","","","","","","76","L","3","","","60","main_expt"
"","bandit","140","280451","0.0-101.0-0.0","88268402","wem/bandit_either_2","A2YAYHZYI7M3HD","either","1","68","","","","","","","0","0","1","","0.09911093426","0.8","0.2","0.6","0.4","0.2782845563","0.2599537756","0.2821336973","0.09911093426","","","","","","","","","","","","76","L","3","","","61","main_expt"
"","bandit","141","281971","0.0-102.0-0.0","88268402","wem/bandit_either_2","A2YAYHZYI7M3HD","either","1","2","","","","","","","0","0","1","","0.2594941563","0.8","0.2","0.6","0.4","0.3165490401","0.2594941563","0.2414244345","0.09440438105","","","","","","","","","","","","74","J","1","","","62","main_expt"
"","bandit","142","283612","0.0-103.0-0.0","88268402","wem/bandit_either_2","A2YAYHZYI7M3HD","either","1","120","","","","","","","0","0","1","","0.2660839385","0.8","0.2","0.6","0.4","0.3034564924","0.2660839385","0.213639373","0.1015409351","","","","","","","","","","","","74","J","1","","","63","main_expt"
"","bandit","143","285233","0.0-104.0-0.0","88268402","wem/bandit_either_2","A2YAYHZYI7M3HD","either","1","104","","","","","","","0","0","1","0.1876308072","","0.8","0.2","0.6","0.4","","","","","0.2506654962","0.2426585031","0.1876308072","0.07049798599","","","","","","","","75","K","2","","","64","main_expt"
"","bandit","144","286895","0.0-105.0-0.0","88268402","wem/bandit_either_2","A2YAYHZYI7M3HD","either","1","139","","","","","","","0","0","1","0.1841803182","","0.8","0.2","0.6","0.4","","","","","0.253414466","0.2581047566","0.1841803182","0.05735603507","","","","","","","","75","K","2","","","65","main_expt"
"","bandit","145","288486","0.0-106.0-0.0","88268402","wem/bandit_either_2","A2YAYHZYI7M3HD","either","1","71","","","","","","","0","0","1","0.2836500186","","0.8","0.2","0.6","0.4","","","","","0.2836500186","0.2872127433","0.187417598","0.0621258055","","","","","","","","72","H","0","img/none_selected.jpg","","66","main_expt"
"","bandit","146","290147","0.0-107.0-0.0","88268402","wem/bandit_either_2","A2YAYHZYI7M3HD","either","1","141","","","","","","","0","0","1","0.3217852231","","0.8","0.2","0.6","0.4","","","","","0.3217852231","0.3232337643","0.1395950637","0.06966106928","","","","","","","","72","H","0","img/none_selected.jpg","","67","main_expt"
"","bandit","147","292088","0.0-108.0-0.0","88268402","wem/bandit_either_2","A2YAYHZYI7M3HD","either","1","422","","","","","","","1","0","0","0.3574581916","","0.8","0.2","0.6","0.4","","","","","0.3574581916","0.3376006622","0.1363519197","0.09965709916","","","","","","","","72","H","0","img/none_selected.jpg","","68","main_expt"
"","bandit","148","293626","0.0-109.0-0.0","88268402","wem/bandit_either_2","A2YAYHZYI7M3HD","either","1","19","","","","","","","1","0","0","0.3884563005","","0.8","0.2","0.6","0.4","","","","","0.3884563005","0.2917609244","0.1117144852","0.1428217854","","","","","","","","72","H","0","img/none_selected.jpg","","69","main_expt"
"","bandit","149","295207","0.0-110.0-0.0","88268402","wem/bandit_either_2","A2YAYHZYI7M3HD","either","1","61","","","","","","","0","1","0","","0.3920047773","0.8","0.2","0.6","0.4","0.3920047773","0.2218665627","0.09667493602","0.1866845388","","","","","","","","","","","","72","H","0","img/none_selected.jpg","","70","main_expt"
"","bandit","150","296807","0.0-111.0-0.0","88268402","wem/bandit_either_2","A2YAYHZYI7M3HD","either","1","80","","","","","","","0","0","1","","0.1702545286","0.8","0.2","0.6","0.4","0.4066376731","0.2409383839","0.09186933139","0.1702545286","","","","","","","","","","","","76","L","3","","","71","main_expt"
"","bandit","151","298329","0.0-112.0-0.0","88268402","wem/bandit_either_2","A2YAYHZYI7M3HD","either","1","2","","","","","","","0","1","0","","0.1836279043","0.8","0.2","0.6","0.4","0.3443789926","0.1920783453","0.09472009463","0.1836279043","","","","","","","","","","","","76","L","3","","","72","main_expt"
"","bandit","152","300061","0.0-113.0-0.0","88268402","wem/bandit_either_2","A2YAYHZYI7M3HD","either","1","212","","","","","","","0","1","0","","0.1644348242","0.8","0.2","0.6","0.4","0.3227553012","0.1905254877","0.1167805336","0.1644348242","","","","","","","","","","","","76","L","3","","","73","main_expt"
"","bandit","153","301626","0.0-114.0-0.0","88268402","wem/bandit_either_2","A2YAYHZYI7M3HD","either","1","45","","","","","","","0","0","1","","0.3336652139","0.8","0.2","0.6","0.4","0.3336652139","0.184198213","0.1465151254","0.1833421201","","","","","","","","","","","","72","H","0","img/none_selected.jpg","","74","main_expt"
"","bandit","154","303222","0.0-115.0-0.0","88268402","wem/bandit_either_2","A2YAYHZYI7M3HD","either","1","76","","","","","","","0","0","1","0.2890150868","","0.8","0.2","0.6","0.4","","","","","0.2890150868","0.1881920243","0.123285719","0.1519653276","","","","","","","","72","H","0","img/none_selected.jpg","","75","main_expt"
"","bandit","155","304764","0.0-116.0-0.0","88268402","wem/bandit_either_2","A2YAYHZYI7M3HD","either","1","22","","","","","","","0","0","1","0.2673490463","","0.8","0.2","0.6","0.4","","","","","0.2673490463","0.1988930589","0.1392606081","0.1506622639","","","","","","","","72","H","0","img/none_selected.jpg","","76","main_expt"
"","bandit","156","306544","0.0-117.0-0.0","88268402","wem/bandit_either_2","A2YAYHZYI7M3HD","either","1","261","","","","","","","0","0","1","0.2858541315","","0.8","0.2","0.6","0.4","","","","","0.2858541315","0.2255968657","0.099337717","0.1860897766","","","","","","","","72","H","0","img/none_selected.jpg","","77","main_expt"
"","bandit","157","309071","0.0-118.0-0.0","88268402","wem/bandit_either_2","A2YAYHZYI7M3HD","either","1","1007","","","","","","","1","0","0","0.2639968829","","0.8","0.2","0.6","0.4","","","","","0.2639968829","0.1917014014","0.09666605973","0.1618556875","","","","","","","","72","H","0","img/none_selected.jpg","","78","main_expt"
"","bandit","158","310758","0.0-119.0-0.0","88268402","wem/bandit_either_2","A2YAYHZYI7M3HD","either","1","166","","","","","","","0","0","1","0.2304888896","","0.8","0.2","0.6","0.4","","","","","0.2304888896","0.2092129429","0.09639353985","0.1976853889","","","","","","","","72","H","0","img/none_selected.jpg","","79","main_expt"
"","bandit","159","312449","0.0-120.0-0.0","88268402","wem/bandit_either_2","A2YAYHZYI7M3HD","either","1","172","","","","","","","0","0","1","0.1991809665","","0.8","0.2","0.6","0.4","","","","","0.1991809665","0.1974306726","0.09566996791","0.2198838985","","","","","","","","72","H","0","img/none_selected.jpg","","80","main_expt"
"","bandit","160","314008","0.0-121.0-0.0","88268402","wem/bandit_either_2","A2YAYHZYI7M3HD","either","1","40","","","","","","","0","0","1","0.1627434897","","0.8","0.2","0.6","0.4","","","","","0.1627434897","0.1414754506","0.07958501382","0.2167005254","","","","","","","","72","H","0","img/none_selected.jpg","","81","main_expt"
"","bandit","161","315650","0.0-122.0-0.0","88268402","wem/bandit_either_2","A2YAYHZYI7M3HD","either","1","123","","","","","","","0","0","1","0.2527486409","","0.8","0.2","0.6","0.4","","","","","0.1624637972","0.1422587364","0.08833774835","0.2527486409","","","","","","","","76","L","3","","","82","main_expt"
"","bandit","162","317194","0.0-123.0-0.0","88268402","wem/bandit_either_2","A2YAYHZYI7M3HD","either","1","20","","","","","","","0","0","1","0.2569721607","","0.8","0.2","0.6","0.4","","","","","0.1900332","0.1079415531","0.09109006352","0.2569721607","","","","","","","","76","L","3","","","83","main_expt"
"","bandit","163","318817","0.0-124.0-0.0","88268402","wem/bandit_either_2","A2YAYHZYI7M3HD","either","1","101","","","","","","","0","0","1","","0.2535394321","0.8","0.2","0.6","0.4","0.1705646391","0.07696487024","0.05321730921","0.2535394321","","","","","","","","","","","","76","L","3","","","84","main_expt"
"","bandit","164","320377","0.0-125.0-0.0","88268402","wem/bandit_either_2","A2YAYHZYI7M3HD","either","1","34","","","","","","","0","0","1","0.2053302659","","0.8","0.2","0.6","0.4","","","","","0.2053302659","0.08313016423","0.03321009489","0.2255799186","","","","","","","","72","H","0","img/none_selected.jpg","","85","main_expt"
"","bandit","165","321899","0.0-126.0-0.0","88268402","wem/bandit_either_2","A2YAYHZYI7M3HD","either","1","2","","","","","","","0","1","0","","0.2128685413","0.8","0.2","0.6","0.4","0.2128685413","0.102083396","0.04864990798","0.2197080914","","","","","","","","","","","","72","H","0","img/none_selected.jpg","","86","main_expt"
"","bandit","166","323550","0.0-127.0-0.0","88268402","wem/bandit_either_2","A2YAYHZYI7M3HD","either","1","130","","","","","","","1","0","0","0.2230338057","","0.8","0.2","0.6","0.4","","","","","0.213778815","0.09067070718","0.07919268752","0.2230338057","","","","","","","","76","L","3","","","87","main_expt"
"","bandit","167","325096","0.0-128.0-0.0","88268402","wem/bandit_either_2","A2YAYHZYI7M3HD","either","1","24","","","","","","","0","0","1","","0.2484269739","0.8","0.2","0.6","0.4","0.2102340809","0.1421970704","0.05835116993","0.2484269739","","","","","","","","","","","","76","L","3","","","88","main_expt"
"","bandit","168","326617","0.0-129.0-0.0","88268402","wem/bandit_either_2","A2YAYHZYI7M3HD","either","1","1","","","","","","","0","1","0","","0.2733562597","0.8","0.2","0.6","0.4","0.1809358483","0.219142046","0.05115519592","0.2733562597","","","","","","","","","","","","76","L","3","","","89","main_expt"
"","bandit","169","328408","0.0-130.0-0.0","88268402","wem/bandit_either_2","A2YAYHZYI7M3HD","either","1","273","","","","","","","0","0","1","0.1293356972","","0.8","0.2","0.6","0.4","","","","","0.1293356972","0.2806923657","0.07819273649","0.2973868449","","","","","","","","72","H","0","img/none_selected.jpg","","90","main_expt"
"","bandit","170","330175","0.0-131.0-0.0","88268402","wem/bandit_either_2","A2YAYHZYI7M3HD","either","1","247","","","","","","","1","0","0","0.1136224352","","0.8","0.2","0.6","0.4","","","","","0.1136224352","0.2819660137","0.05564661524","0.3067689268","","","","","","","","72","H","0","img/none_selected.jpg","","91","main_expt"
"","bandit","171","331970","0.0-132.0-0.0","88268402","wem/bandit_either_2","A2YAYHZYI7M3HD","either","1","273","","","","","","","0","0","1","0.07539152519","","0.8","0.2","0.6","0.4","","","","","0.07539152519","0.3370305887","0.05914103421","0.2719776188","","","","","","","","72","H","0","img/none_selected.jpg","","92","main_expt"
"","bandit","172","333683","0.0-133.0-0.0","88268402","wem/bandit_either_2","A2YAYHZYI7M3HD","either","1","191","","","","","","","0","0","1","0.08243558305","","0.8","0.2","0.6","0.4","","","","","0.08243558305","0.3722719914","0.03944324463","0.3081791896","","","","","","","","72","H","0","img/none_selected.jpg","","93","main_expt"
"","bandit","173","335334","0.0-134.0-0.0","88268402","wem/bandit_either_2","A2YAYHZYI7M3HD","either","1","130","","","","","","","0","0","1","0.09807673793","","0.8","0.2","0.6","0.4","","","","","0.09807673793","0.3840030774","0.05023017475","0.356667856","","","","","","","","72","H","0","img/none_selected.jpg","","94","main_expt"
"","bandit","174","336926","0.0-135.0-0.0","88268402","wem/bandit_either_2","A2YAYHZYI7M3HD","either","1","71","","","","","","","0","0","1","","0.09746204728","0.8","0.2","0.6","0.4","0.09746204728","0.4050844552","0.07311956304","0.3300765204","","","","","","","","","","","","72","H","0","img/none_selected.jpg","","95","main_expt"
"","bandit","175","338603","0.0-136.0-0.0","88268402","wem/bandit_either_2","A2YAYHZYI7M3HD","either","1","155","","","","","","","0","0","1","","0.3642735905","0.8","0.2","0.6","0.4","0.08559835745","0.4081076376","0.09573717159","0.3642735905","","","","","","","","","","","","76","L","3","","","96","main_expt"
"","bandit","176","340214","0.0-137.0-0.0","88268402","wem/bandit_either_2","A2YAYHZYI7M3HD","either","1","84","","","","","","","0","1","0","","0.3885664579","0.8","0.2","0.6","0.4","0.0732645996","0.4142780263","0.1235519285","0.3885664579","","","","","","","","","","","","76","L","3","","","97","main_expt"
"","bandit","177","341885","0.0-138.0-0.0","88268402","wem/bandit_either_2","A2YAYHZYI7M3HD","either","1","147","","","","","","","0","0","1","","0.4162912028","0.8","0.2","0.6","0.4","0.05343209845","0.4131193208","0.1274282425","0.4162912028","","","","","","","","","","","","76","L","3","","","98","main_expt"
"","bandit","178","343427","0.0-139.0-0.0","88268402","wem/bandit_either_2","A2YAYHZYI7M3HD","either","1","21","","","","","","","0","0","1","","0.4074153657","0.8","0.2","0.6","0.4","0.05144299931","0.428944851","0.1457321849","0.4074153657","","","","","","","","","","","","76","L","3","","","99","main_expt"
"","bandit","179","345012","0.0-140.0-0.0","88268402","wem/bandit_either_2","A2YAYHZYI7M3HD","either","1","63","","","","","","","0","0","1","","0.03934302155","0.8","0.2","0.6","0.4","0.03934302155","0.4279797645","0.1492128348","0.3349137267","","","","","","","","","","","","72","H","0","img/none_selected.jpg","","100","main_expt"
"","bandit","180","347011","0.0-141.0-0.0","88268402","wem/bandit_either_2","A2YAYHZYI7M3HD","either","1","476","","","","","","","0","0","1","0.05783306622","","0.8","0.2","0.6","0.4","","","","","0.05783306622","0.4189249443","0.125019219","0.2732947861","","","","","","","","72","H","0","img/none_selected.jpg","","101","main_expt"
"","bandit","181","348701","0.0-142.0-0.0","88268402","wem/bandit_either_2","A2YAYHZYI7M3HD","either","1","168","","","","","","","0","0","1","","0.06484492547","0.8","0.2","0.6","0.4","0.06484492547","0.4279241466","0.1008510245","0.2584454073","","","","","","","","","","","","72","H","0","img/none_selected.jpg","","102","main_expt"
"","bandit","182","351114","0.0-143.0-0.0","88268402","wem/bandit_either_2","A2YAYHZYI7M3HD","either","1","890","","","","","","","0","0","1","","0.419390052","0.8","0.2","0.6","0.4","0.0701259157","0.419390052","0.1087281004","0.2143891894","","","","","","","","","","","","74","J","1","","","103","main_expt"
"","bandit","183","352640","0.0-144.0-0.0","88268402","wem/bandit_either_2","A2YAYHZYI7M3HD","either","1","2","","","","","","","0","0","1","","0.143855427","0.8","0.2","0.6","0.4","0.06922647753","0.3761202226","0.143855427","0.1354346047","","","","","","","","","","","","75","K","2","","","104","main_expt"
"","bandit","184","354364","0.0-145.0-0.0","88268402","wem/bandit_either_2","A2YAYHZYI7M3HD","either","1","199","","","","","","","0","0","1","0.1606853024","","0.8","0.2","0.6","0.4","","","","","0.07802312096","0.4229881466","0.1606853024","0.1615963473","","","","","","","","75","K","2","","","105","main_expt"
"","bandit","185","356048","0.0-146.0-0.0","88268402","wem/bandit_either_2","A2YAYHZYI7M3HD","either","1","161","","","","","","","0","0","1","","0.4110558218","0.8","0.2","0.6","0.4","0.08930313369","0.4110558218","0.1612939645","0.1738621023","","","","","","","","","","","","74","J","1","","","106","main_expt"
"","bandit","186","357607","0.0-147.0-0.0","88268402","wem/bandit_either_2","A2YAYHZYI7M3HD","either","1","37","","","","","","","0","0","1","","0.1778053335","0.8","0.2","0.6","0.4","0.1397733654","0.4176599015","0.1778053335","0.1799671425","","","","","","","","","","","","75","K","2","","","107","main_expt"
"","bandit","187","359367","0.0-148.0-0.0","88268402","wem/bandit_either_2","A2YAYHZYI7M3HD","either","1","239","","","","","","","0","0","1","","0.1844274074","0.8","0.2","0.6","0.4","0.1505899732","0.4210396584","0.1826465361","0.1844274074","","","","","","","","","","","","76","L","3","","","108","main_expt"
"","bandit","188","360893","0.0-149.0-0.0","88268402","wem/bandit_either_2","A2YAYHZYI7M3HD","either","1","4","","","","","","","0","0","1","0.1162436109","","0.8","0.2","0.6","0.4","","","","","0.1162436109","0.4328015469","0.1737022726","0.1702708828","","","","","","","","72","H","0","img/none_selected.jpg","","109","main_expt"
"","bandit","189","362496","0.0-150.0-0.0","88268402","wem/bandit_either_2","A2YAYHZYI7M3HD","either","1","78","","","","","","","0","0","1","0.08267976014","","0.8","0.2","0.6","0.4","","","","","0.08267976014","0.4495585744","0.1658344406","0.1964407335","","","","","","","","72","H","0","img/none_selected.jpg","","110","main_expt"
"","bandit","190","364124","0.0-151.0-0.0","88268402","wem/bandit_either_2","A2YAYHZYI7M3HD","either","1","106","","","","","","","0","0","1","0.09389793805","","0.8","0.2","0.6","0.4","","","","","0.09389793805","0.4237631325","0.240619448","0.1777579569","","","","","","","","72","H","0","img/none_selected.jpg","","111","main_expt"
"","bandit","191","365709","0.0-152.0-0.0","88268402","wem/bandit_either_2","A2YAYHZYI7M3HD","either","1","64","","","","","","","0","1","0","","0.1395994444","0.8","0.2","0.6","0.4","0.07903418564","0.4521571561","0.1927397719","0.1395994444","","","","","","","","","","","","76","L","3","","","112","main_expt"
"","bandit","192","367291","0.0-153.0-0.0","88268402","wem/bandit_either_2","A2YAYHZYI7M3HD","either","1","58","","","","","","","0","0","1","","0.1205999431","0.8","0.2","0.6","0.4","0.05501139052","0.4350762846","0.234725565","0.1205999431","","","","","","","","","","","","76","L","3","","","113","main_expt"
"","bandit","193","368948","0.0-154.0-0.0","88268402","wem/bandit_either_2","A2YAYHZYI7M3HD","either","1","134","","","","","","","0","0","1","0.09123355482","","0.8","0.2","0.6","0.4","","","","","0.07627702456","0.4315824664","0.1950215869","0.09123355482","","","","","","","","76","L","3","","","114","main_expt"
"","bandit","194","370509","0.0-155.0-0.0","88268402","wem/bandit_either_2","A2YAYHZYI7M3HD","either","1","38","","","","","","","0","0","1","0.09554471192","","0.8","0.2","0.6","0.4","","","","","0.03985247356","0.4127349624","0.2575833325","0.09554471192","","","","","","","","76","L","3","","","115","main_expt"
"","bandit","195","372477","0.0-156.0-0.0","88268402","wem/bandit_either_2","A2YAYHZYI7M3HD","either","1","444","","","","","","","0","0","1","0.0683792979","","0.8","0.2","0.6","0.4","","","","","0.0683792979","0.4468356006","0.2296468005","0.1942182492","","","","","","","","72","H","0","img/none_selected.jpg","","116","main_expt"
"","bandit","196","374127","0.0-157.0-0.0","88268402","wem/bandit_either_2","A2YAYHZYI7M3HD","either","1","127","","","","","","","0","0","1","0.03956212276","","0.8","0.2","0.6","0.4","","","","","0.03956212276","0.4458703805","0.2816483341","0.2208250117","","","","","","","","72","H","0","img/none_selected.jpg","","117","main_expt"
"","bandit","197","375652","0.0-158.0-0.0","88268402","wem/bandit_either_2","A2YAYHZYI7M3HD","either","1","2","","","","","","","0","0","1","","0.04459229253","0.8","0.2","0.6","0.4","0.04459229253","0.4500370674","0.2626769985","0.1687975443","","","","","","","","","","","","72","H","0","img/none_selected.jpg","","118","main_expt"
"","bandit","198","377407","0.0-159.0-0.0","88268402","wem/bandit_either_2","A2YAYHZYI7M3HD","either","1","232","","","","","","","0","0","1","","0.1546105485","0.8","0.2","0.6","0.4","0.03386957434","0.4704359259","0.2418090277","0.1546105485","","","","","","","","","","","","76","L","3","","","119","main_expt"
"","bandit","199","378935","0.0-160.0-0.0","88268402","wem/bandit_either_2","A2YAYHZYI7M3HD","either","1","5","","","","","","","0","0","1","0.143668411","","0.8","0.2","0.6","0.4","","","","","0.03305427522","0.4578798539","0.2603236095","0.143668411","","","","","","","","76","L","3","","","120","main_expt"
"","bandit","200","380541","0.0-161.0-0.0","88268402","wem/bandit_either_2","A2YAYHZYI7M3HD","either","1","81","","","","","","","0","0","1","","0.03146098963","0.8","0.2","0.6","0.4","0.03146098963","0.4591190262","0.2381785671","0.1098317425","","","","","","","","","","","","72","H","0","img/none_selected.jpg","","121","main_expt"
"","bandit","201","382203","0.0-162.0-0.0","88268402","wem/bandit_either_2","A2YAYHZYI7M3HD","either","1","138","","","","","","","0","0","1","0.2388462554","","0.8","0.2","0.6","0.4","","","","","0.02311797033","0.4643737298","0.2388462554","0.1097832873","","","","","","","","75","K","2","","","122","main_expt"
"","bandit","202","383854","0.0-163.0-0.0","88268402","wem/bandit_either_2","A2YAYHZYI7M3HD","either","1","128","","","","","","","0","1","0","","0.451586091","0.8","0.2","0.6","0.4","0.0171261738","0.451586091","0.2079929623","0.1145900252","","","","","","","","","","","","74","J","1","","","123","main_expt"
"","bandit","203","385483","0.0-164.0-0.0","88268402","wem/bandit_either_2","A2YAYHZYI7M3HD","either","1","104","","","","","","","0","0","1","0.03468299263","","0.8","0.2","0.6","0.4","","","","","0.03468299263","0.4456906556","0.2148400852","0.1137783892","","","","","","","","72","H","0","img/none_selected.jpg","","124","main_expt"
"","bandit","204","387063","0.0-165.0-0.0","88268402","wem/bandit_either_2","A2YAYHZYI7M3HD","either","1","55","","","","","","","0","0","1","0.145605256","","0.8","0.2","0.6","0.4","","","","","0.02544516396","0.4240876494","0.2185056602","0.145605256","","","","","","","","76","L","3","","","125","main_expt"
"","bandit","205","388618","0.0-166.0-0.0","88268402","wem/bandit_either_2","A2YAYHZYI7M3HD","either","1","34","","","","","","","0","0","1","0.2152323899","","0.8","0.2","0.6","0.4","","","","","0.03059506073","0.4008501573","0.2152323899","0.1443839055","","","","","","","","75","K","2","","","126","main_expt"
"","bandit","206","390240","0.0-167.0-0.0","88268402","wem/bandit_either_2","A2YAYHZYI7M3HD","either","1","97","","","","","","","0","0","1","","0.4066073101","0.8","0.2","0.6","0.4","0.0339638967","0.4066073101","0.1699446714","0.1434222382","","","","","","","","","","","","74","J","1","","","127","main_expt"
"","bandit","207","391801","0.0-168.0-0.0","88268402","wem/bandit_either_2","A2YAYHZYI7M3HD","either","1","37","","","","","","","0","0","1","0.02632978063","","0.8","0.2","0.6","0.4","","","","","0.02632978063","0.4270302575","0.1299446217","0.1412168693","","","","","","","","72","H","0","img/none_selected.jpg","","128","main_expt"
"","bandit","208","393389","0.0-169.0-0.0","88268402","wem/bandit_either_2","A2YAYHZYI7M3HD","either","1","63","","","","","","","0","0","1","0.02640977482","","0.8","0.2","0.6","0.4","","","","","0.02640977482","0.4401824822","0.1299487573","0.1086871361","","","","","","","","72","H","0","img/none_selected.jpg","","129","main_expt"
"","bandit","209","394934","0.0-170.0-0.0","88268402","wem/bandit_either_2","A2YAYHZYI7M3HD","either","1","22","","","","","","","0","0","1","0.03646961518","","0.8","0.2","0.6","0.4","","","","","0.03646961518","0.4160959849","0.1172580566","0.1672766288","","","","","","","","72","H","0","img/none_selected.jpg","","130","main_expt"
"","bandit","210","396460","0.0-171.0-0.0","88268402","wem/bandit_either_2","A2YAYHZYI7M3HD","either","1","1","","","","","","","0","0","1","","0.157110596","0.8","0.2","0.6","0.4","0.02171712127","0.4374535298","0.1289979545","0.157110596","","","","","","","","","","","","76","L","3","","","131","main_expt"
"","bandit","211","398103","0.0-172.0-0.0","88268402","wem/bandit_either_2","A2YAYHZYI7M3HD","either","1","118","","","","","","","0","0","1","","0.1338697581","0.8","0.2","0.6","0.4","0.01004766493","0.4382483821","0.1243754988","0.1338697581","","","","","","","","","","","","76","L","3","","","132","main_expt"
"","bandit","212","401042","0.0-173.0-0.0","88268402","wem/bandit_either_2","A2YAYHZYI7M3HD","either","1","1415","","","","","","","0","1","0","","0.1101669797","0.8","0.2","0.6","0.4","0.005153708139","0.3913946914","0.1189203389","0.1101669797","","","","","","","","","","","","76","L","3","","","133","main_expt"
"","bandit","213","402657","0.0-174.0-0.0","88268402","wem/bandit_either_2","A2YAYHZYI7M3HD","either","1","89","","","","","","","0","0","1","0.060775537","","0.8","0.2","0.6","0.4","","","","","0.01308543257","0.4280120537","0.07075860378","0.060775537","","","","","","","","76","L","3","","","134","main_expt"
"","bandit","214","405808","0.0-175.0-0.0","88268402","wem/bandit_either_2","A2YAYHZYI7M3HD","either","1","1627","","","","","","","0","0","1","0.0714416082","","0.8","0.2","0.6","0.4","","","","","0.02634180281","0.4385213509","0.1073185777","0.0714416082","","","","","","","","76","L","3","","","135","main_expt"
"","bandit","215","407974","0.0-176.0-0.0","88268402","wem/bandit_either_2","A2YAYHZYI7M3HD","either","1","640","","","","","","","0","0","1","0.1115096907","","0.8","0.2","0.6","0.4","","","","","0.04122629063","0.4605212521","0.1001442491","0.1115096907","","","","","","","","76","L","3","","","136","main_expt"
"","bandit","216","410939","0.0-177.0-0.0","88268402","wem/bandit_either_2","A2YAYHZYI7M3HD","either","1","1441","","","","","","","0","0","1","","0.05517648788","0.8","0.2","0.6","0.4","0.05517648788","0.4729500637","0.1736681681","0.1307091067","","","","","","","","","","","","72","H","0","img/none_selected.jpg","","137","main_expt"
"","bandit","217","412709","0.0-178.0-0.0","88268402","wem/bandit_either_2","A2YAYHZYI7M3HD","either","1","245","","","","","","","0","0","1","0.05929415862","","0.8","0.2","0.6","0.4","","","","","0.05929415862","0.4705425907","0.1839908368","0.1289533412","","","","","","","","72","H","0","img/none_selected.jpg","","138","main_expt"
"","bandit","218","415717","0.0-179.0-0.0","88268402","wem/bandit_either_2","A2YAYHZYI7M3HD","either","1","1482","","","","","","","0","0","1","0.05470710098","","0.8","0.2","0.6","0.4","","","","","0.05470710098","0.465423541","0.1500833973","0.1215972271","","","","","","","","72","H","0","img/none_selected.jpg","","139","main_expt"
"","bandit","219","417280","0.0-180.0-0.0","88268402","wem/bandit_either_2","A2YAYHZYI7M3HD","either","1","36","","","","","","","0","0","1","0.06062538604","","0.8","0.2","0.6","0.4","","","","","0.06062538604","0.4486857012","0.1718879457","0.1158179575","","","","","","","","72","H","0","img/none_selected.jpg","","140","main_expt"
"","bandit","220","418971","0.0-181.0-0.0","88268402","wem/bandit_either_2","A2YAYHZYI7M3HD","either","1","167","","","","","","","0","0","1","0.05819772386","","0.8","0.2","0.6","0.4","","","","","0.05819772386","0.4053061298","0.2025036279","0.08691297649","","","","","","","","72","H","0","img/none_selected.jpg","","141","main_expt"
"","bandit","221","420498","0.0-182.0-0.0","88268402","wem/bandit_either_2","A2YAYHZYI7M3HD","either","1","2","","","","","","","0","0","1","0.05329701838","","0.8","0.2","0.6","0.4","","","","","0.05329701838","0.3989731656","0.1872564568","0.1425267255","","","","","","","","72","H","0","img/none_selected.jpg","","142","main_expt"
"","bandit","222","422752","0.0-183.0-0.0","88268402","wem/bandit_either_2","A2YAYHZYI7M3HD","either","1","730","","","","","","","0","0","1","0.06209903385","","0.8","0.2","0.6","0.4","","","","","0.06209903385","0.3783570596","0.1676641842","0.1425141192","","","","","","","","72","H","0","img/none_selected.jpg","","143","main_expt"
"","bandit","223","424336","0.0-184.0-0.0","88268402","wem/bandit_either_2","A2YAYHZYI7M3HD","either","1","58","","","","","","","0","0","1","","0.1362652721","0.8","0.2","0.6","0.4","0.06954729647","0.3485663762","0.1502987652","0.1362652721","","","","","","","","","","","","76","L","3","","","144","main_expt"
"","bandit","224","426137","0.0-185.0-0.0","88268402","wem/bandit_either_2","A2YAYHZYI7M3HD","either","1","275","","","","","","","0","0","1","0.1335650053","","0.8","0.2","0.6","0.4","","","","","0.062760129","0.3534190037","0.1050568962","0.1335650053","","","","","","","","76","L","3","","","145","main_expt"
"","bandit","225","427873","0.0-186.0-0.0","88268402","wem/bandit_either_2","A2YAYHZYI7M3HD","either","1","206","","","","","","","1","0","0","0.1392461982","","0.8","0.2","0.6","0.4","","","","","0.05014677947","0.342282706","0.1266784727","0.1392461982","","","","","","","","76","L","3","","","146","main_expt"
"","bandit","226","429534","0.0-187.0-0.0","88268402","wem/bandit_either_2","A2YAYHZYI7M3HD","either","1","134","","","","","","","0","0","1","","0.1060810453","0.8","0.2","0.6","0.4","0.04801868921","0.3497384939","0.1121887101","0.1060810453","","","","","","","","","","","","76","L","3","","","147","main_expt"
"","bandit","227","431332","0.0-188.0-0.0","88268402","wem/bandit_either_2","A2YAYHZYI7M3HD","either","1","272","","","","","","","0","0","1","","0.1076054289","0.8","0.2","0.6","0.4","0.05298179562","0.3507348305","0.1050077765","0.1076054289","","","","","","","","","","","","76","L","3","","","148","main_expt"
"","bandit","228","433007","0.0-189.0-0.0","88268402","wem/bandit_either_2","A2YAYHZYI7M3HD","either","1","148","","","","","","","0","0","1","0.09143227578","","0.8","0.2","0.6","0.4","","","","","0.05271587927","0.306786392","0.08725679698","0.09143227578","","","","","","","","76","L","3","","","149","main_expt"
"","bandit","229","434607","0.0-190.0-0.0","88268402","wem/bandit_either_2","A2YAYHZYI7M3HD","either","1","74","","","","","","","0","0","1","0.08361181256","","0.8","0.2","0.6","0.4","","","","","0.06153260368","0.3289077467","0.04813781364","0.08361181256","","","","","","","","76","L","3","","","150","main_expt"
"","bandit","230","436314","0.0-191.0-0.0","88268402","wem/bandit_either_2","A2YAYHZYI7M3HD","either","1","179","","","","","","","0","0","1","0.07716317934","","0.8","0.2","0.6","0.4","","","","","0.07716317934","0.2844912386","0.04690393958","0.1038450747","","","","","","","","72","H","0","img/none_selected.jpg","","151","main_expt"
"","bandit","231","437843","0.0-192.0-0.0","88268402","wem/bandit_either_2","A2YAYHZYI7M3HD","either","1","3","","","","","","","0","0","1","0.08370894892","","0.8","0.2","0.6","0.4","","","","","0.08370894892","0.3221551402","0.05051779207","0.1311897928","","","","","","","","72","H","0","img/none_selected.jpg","","152","main_expt"
"","bandit","232","439712","0.0-193.0-0.0","88268402","wem/bandit_either_2","A2YAYHZYI7M3HD","either","1","342","","","","","","","0","0","1","","0.06235129306","0.8","0.2","0.6","0.4","0.06235129306","0.288581716","0.0417019452","0.1106636196","","","","","","","","","","","","72","H","0","img/none_selected.jpg","","153","main_expt"
"","bandit","233","441469","0.0-194.0-0.0","88268402","wem/bandit_either_2","A2YAYHZYI7M3HD","either","1","230","","","","","","","0","0","1","0.08808261531","","0.8","0.2","0.6","0.4","","","","","0.08808261531","0.3674714493","0.04565059468","0.08044616817","","","","","","","","72","H","0","img/none_selected.jpg","","154","main_expt"
"","bandit","234","443134","0.0-195.0-0.0","88268402","wem/bandit_either_2","A2YAYHZYI7M3HD","either","1","138","","","","","","","0","0","1","0.08415746701","","0.8","0.2","0.6","0.4","","","","","0.08415746701","0.3836765626","0.0249337719","0.09849608375","","","","","","","","72","H","0","img/none_selected.jpg","","155","main_expt"
"","bandit","235","444668","0.0-196.0-0.0","88268402","wem/bandit_either_2","A2YAYHZYI7M3HD","either","1","8","","","","","","","0","0","1","","0.0679626842","0.8","0.2","0.6","0.4","0.1363215429","0.3499766022","0.0207568711","0.0679626842","","","","","","","","","","","","76","L","3","","","156","main_expt"
"","bandit","236","446472","0.0-197.0-0.0","88268402","wem/bandit_either_2","A2YAYHZYI7M3HD","either","1","277","","","","","","","0","0","1","","0.06316877849","0.8","0.2","0.6","0.4","0.176329139","0.3083455354","0.01044871803","0.06316877849","","","","","","","","","","","","76","L","3","","","157","main_expt"
"","bandit","237","448085","0.0-198.0-0.0","88268402","wem/bandit_either_2","A2YAYHZYI7M3HD","either","1","86","","","","","","","0","0","1","","0.06381796224","0.8","0.2","0.6","0.4","0.2239815039","0.2780985587","0.008486032171","0.06381796224","","","","","","","","","","","","76","L","3","","","158","main_expt"
"","bandit","238","449705","0.0-199.0-0.0","88268402","wem/bandit_either_2","A2YAYHZYI7M3HD","either","1","95","","","","","","","0","0","1","","0.09986374221","0.8","0.2","0.6","0.4","0.1754735631","0.2721424699","0.006770001311","0.09986374221","","","","","","","","","","","","76","L","3","","","159","main_expt"
"","bandit","239","451304","0.0-200.0-0.0","88268402","wem/bandit_either_2","A2YAYHZYI7M3HD","either","1","71","","","","","","","0","0","1","","0.08334790929","0.8","0.2","0.6","0.4","0.1820859676","0.3005636977","0.005009972043","0.08334790929","","","","","","","","","","","","76","L","3","","","160","main_expt"
"","bandit","240","452833","0.0-201.0-0.0","88268402","wem/bandit_either_2","A2YAYHZYI7M3HD","either","1","2","","","","","","","0","0","1","","0.003825417776","0.8","0.2","0.6","0.4","0.1771527669","0.2481613967","0.003825417776","0.1094566723","","","","","","","","","","","","75","K","2","","","161","main_expt"
"","bandit","241","454637","0.0-202.0-0.0","88268402","wem/bandit_either_2","A2YAYHZYI7M3HD","either","1","275","","","","","","","0","0","1","","0.2040880477","0.8","0.2","0.6","0.4","0.209245514","0.2040880477","0.006458278423","0.1287108975","","","","","","","","","","","","74","J","1","","","162","main_expt"
"","bandit","242","456257","0.0-203.0-0.0","88268402","wem/bandit_either_2","A2YAYHZYI7M3HD","either","1","91","","","","","","","0","0","1","","0.01344146107","0.8","0.2","0.6","0.4","0.1864252411","0.256608811","0.01344146107","0.1811808859","","","","","","","","","","","","75","K","2","","","163","main_expt"
"","bandit","243","458025","0.0-204.0-0.0","88268402","wem/bandit_either_2","A2YAYHZYI7M3HD","either","1","236","","","","","","","0","0","1","0.004940614731","","0.8","0.2","0.6","0.4","","","","","0.1662237337","0.2798468236","0.004940614731","0.1374611454","","","","","","","","75","K","2","","","164","main_expt"
"","bandit","244","459662","0.0-205.0-0.0","88268402","wem/bandit_either_2","A2YAYHZYI7M3HD","either","1","110","","","","","","","0","0","1","0.007349038951","","0.8","0.2","0.6","0.4","","","","","0.1375661656","0.2689568899","0.007349038951","0.1640313333","","","","","","","","75","K","2","","","165","main_expt"
"","bandit","245","461256","0.0-206.0-0.0","88268402","wem/bandit_either_2","A2YAYHZYI7M3HD","either","1","67","","","","","","","0","0","1","0.1416727521","","0.8","0.2","0.6","0.4","","","","","0.1416727521","0.2786045926","0.005679103294","0.20052236","","","","","","","","72","H","0","img/none_selected.jpg","","166","main_expt"
"","bandit","246","462829","0.0-207.0-0.0","88268402","wem/bandit_either_2","A2YAYHZYI7M3HD","either","1","44","","","","","","","1","0","0","0.1497541138","","0.8","0.2","0.6","0.4","","","","","0.1497541138","0.2507583434","0.004037182679","0.1945206589","","","","","","","","72","H","0","img/none_selected.jpg","","167","main_expt"
"","bandit","247","464542","0.0-208.0-0.0","88268402","wem/bandit_either_2","A2YAYHZYI7M3HD","either","1","176","","","","","","","1","0","0","0.1761460581","","0.8","0.2","0.6","0.4","","","","","0.1761460581","0.1827624484","0.007111326723","0.1902154162","","","","","","","","72","H","0","img/none_selected.jpg","","168","main_expt"
"","bandit","248","466286","0.0-209.0-0.0","88268402","wem/bandit_either_2","A2YAYHZYI7M3HD","either","1","217","","","","","","","0","0","1","0.2248215173","","0.8","0.2","0.6","0.4","","","","","0.2248215173","0.1558723634","0.01708305062","0.1931964682","","","","","","","","72","H","0","img/none_selected.jpg","","169","main_expt"
"","bandit","249","467910","0.0-210.0-0.0","88268402","wem/bandit_either_2","A2YAYHZYI7M3HD","either","1","97","","","","","","","0","0","1","","0.2503105048","0.8","0.2","0.6","0.4","0.2503105048","0.1757164868","0.02105388628","0.236179436","","","","","","","","","","","","72","H","0","img/none_selected.jpg","","170","main_expt"
"","bandit","250","469442","0.0-211.0-0.0","88268402","wem/bandit_either_2","A2YAYHZYI7M3HD","either","1","1","","","","","","","1","0","0","0.2515708499","","0.8","0.2","0.6","0.4","","","","","0.2515708499","0.1985597056","0.01477187034","0.2229285478","","","","","","","","72","H","0","img/none_selected.jpg","","171","main_expt"
"","bandit","251","471267","0.0-212.0-0.0","88268402","wem/bandit_either_2","A2YAYHZYI7M3HD","either","1","297","","","","","","","1","0","0","0.2601117771","","0.8","0.2","0.6","0.4","","","","","0.2601117771","0.1725269859","0.00639283578","0.1805811295","","","","","","","","72","H","0","img/none_selected.jpg","","172","main_expt"
"","bandit","252","472952","0.0-213.0-0.0","88268402","wem/bandit_either_2","A2YAYHZYI7M3HD","either","1","159","","","","","","","1","0","0","0.2277859889","","0.8","0.2","0.6","0.4","","","","","0.2277859889","0.1955807132","0.008503536177","0.2203049146","","","","","","","","72","H","0","img/none_selected.jpg","","173","main_expt"
"","bandit","253","474733","0.0-214.0-0.0","88268402","wem/bandit_either_2","A2YAYHZYI7M3HD","either","1","253","","","","","","","0","0","1","0.204090619","","0.8","0.2","0.6","0.4","","","","","0.204090619","0.1712969398","0.01512836446","0.2079245196","","","","","","","","72","H","0","img/none_selected.jpg","","174","main_expt"
"","bandit","254","476500","0.0-215.0-0.0","88268402","wem/bandit_either_2","A2YAYHZYI7M3HD","either","1","238","","","","","","","0","0","1","0.2264282848","","0.8","0.2","0.6","0.4","","","","","0.2264282848","0.2145566876","0.034550241","0.1904909119","","","","","","","","72","H","0","img/none_selected.jpg","","175","main_expt"
"","bandit","255","478073","0.0-216.0-0.0","88268402","wem/bandit_either_2","A2YAYHZYI7M3HD","either","1","45","","","","","","","0","0","1","0.2263436383","","0.8","0.2","0.6","0.4","","","","","0.2263436383","0.1987050603","0.01969997198","0.1611975006","","","","","","","","72","H","0","img/none_selected.jpg","","176","main_expt"
"","bandit","256","479636","0.0-217.0-0.0","88268402","wem/bandit_either_2","A2YAYHZYI7M3HD","either","1","34","","","","","","","0","0","1","0.2449632337","","0.8","0.2","0.6","0.4","","","","","0.2449632337","0.2161967517","0.02558747067","0.1747210449","","","","","","","","72","H","0","img/none_selected.jpg","","177","main_expt"
"","bandit","257","481305","0.0-218.0-0.0","88268402","wem/bandit_either_2","A2YAYHZYI7M3HD","either","1","139","","","","","","","0","1","0","","0.1923885174","0.8","0.2","0.6","0.4","0.1923885174","0.1790488899","0.02865462312","0.1667690144","","","","","","","","","","","","72","H","0","img/none_selected.jpg","","178","main_expt"
"","bandit","258","482915","0.0-219.0-0.0","88268402","wem/bandit_either_2","A2YAYHZYI7M3HD","either","1","82","","","","","","","0","0","1","0.1791230597","","0.8","0.2","0.6","0.4","","","","","0.1791230597","0.1254539317","0.05873937836","0.248539666","","","","","","","","72","H","0","img/none_selected.jpg","","179","main_expt"
"","bandit","259","484665","0.0-220.0-0.0","88268402","wem/bandit_either_2","A2YAYHZYI7M3HD","either","1","218","","","","","","","0","0","1","","0.1641305094","0.8","0.2","0.6","0.4","0.1641305094","0.1761702366","0.04996702027","0.2393284063","","","","","","","","","","","","72","H","0","img/none_selected.jpg","","180","main_expt"
"","bandit","260","486713","0.0-221.0-0.0","88268402","wem/bandit_either_2","A2YAYHZYI7M3HD","either","1","518","","","","","","","1","0","0","0.1567194189","","0.8","0.2","0.6","0.4","","","","","0.1567194189","0.2307221343","0.06192223509","0.2450765022","","","","","","","","72","H","0","img/none_selected.jpg","","181","main_expt"
"","bandit","261","488511","0.0-222.0-0.0","88268402","wem/bandit_either_2","A2YAYHZYI7M3HD","either","1","268","","","","","","","0","1","0","","0.1805899487","0.8","0.2","0.6","0.4","0.1805899487","0.1656926355","0.07865608963","0.2898963007","","","","","","","","","","","","72","H","0","img/none_selected.jpg","","182","main_expt"
"","bandit","262","490259","0.0-223.0-0.0","88268402","wem/bandit_either_2","A2YAYHZYI7M3HD","either","1","218","","","","","","","1","0","0","0.1381226487","","0.8","0.2","0.6","0.4","","","","","0.1381226487","0.1997223474","0.0695036973","0.337419987","","","","","","","","72","H","0","img/none_selected.jpg","","183","main_expt"
"","bandit","263","491979","0.0-224.0-0.0","88268402","wem/bandit_either_2","A2YAYHZYI7M3HD","either","1","190","","","","","","","0","0","1","0.1157029232","","0.8","0.2","0.6","0.4","","","","","0.1157029232","0.1936006223","0.09883674892","0.3334404967","","","","","","","","72","H","0","img/none_selected.jpg","","184","main_expt"
"","bandit","264","493758","0.0-225.0-0.0","88268402","wem/bandit_either_2","A2YAYHZYI7M3HD","either","1","251","","","","","","","0","0","1","0.09007466759","","0.8","0.2","0.6","0.4","","","","","0.09007466759","0.1794548994","0.1344132801","0.3049781316","","","","","","","","72","H","0","img/none_selected.jpg","","185","main_expt"
"","bandit","265","495528","0.0-226.0-0.0","88268402","wem/bandit_either_2","A2YAYHZYI7M3HD","either","1","239","","","","","","","0","0","1","0.07784091677","","0.8","0.2","0.6","0.4","","","","","0.07784091677","0.1679588243","0.1194183803","0.322039184","","","","","","","","72","H","0","img/none_selected.jpg","","186","main_expt"
"","bandit","266","497159","0.0-227.0-0.0","88268402","wem/bandit_either_2","A2YAYHZYI7M3HD","either","1","100","","","","","","","0","0","1","0.1332261693","","0.8","0.2","0.6","0.4","","","","","0.1332261693","0.1692259204","0.1456002269","0.2898485093","","","","","","","","72","H","0","img/none_selected.jpg","","187","main_expt"
"","bandit","267","498781","0.0-228.0-0.0","88268402","wem/bandit_either_2","A2YAYHZYI7M3HD","either","1","92","","","","","","","1","0","0","0.1302169342","","0.8","0.2","0.6","0.4","","","","","0.1302169342","0.1796926114","0.1008589119","0.3046836684","","","","","","","","72","H","0","img/none_selected.jpg","","188","main_expt"
"","bandit","268","500396","0.0-229.0-0.0","88268402","wem/bandit_either_2","A2YAYHZYI7M3HD","either","1","87","","","","","","","0","0","1","","0.1459867673","0.8","0.2","0.6","0.4","0.1459867673","0.1463090895","0.09109327247","0.3437642557","","","","","","","","","","","","72","H","0","img/none_selected.jpg","","189","main_expt"
"","bandit","269","502001","0.0-230.0-0.0","88268402","wem/bandit_either_2","A2YAYHZYI7M3HD","either","1","76","","","","","","","0","0","1","0.1930387326","","0.8","0.2","0.6","0.4","","","","","0.1930387326","0.1670442817","0.133333279","0.3685715368","","","","","","","","72","H","0","img/none_selected.jpg","","190","main_expt"
"","bandit","270","503722","0.0-231.0-0.0","88268402","wem/bandit_either_2","A2YAYHZYI7M3HD","either","1","191","","","","","","","0","0","1","0.1447045196","","0.8","0.2","0.6","0.4","","","","","0.1447045196","0.2148667481","0.1253338948","0.4063368095","","","","","","","","72","H","0","img/none_selected.jpg","","191","main_expt"
"","bandit","271","505420","0.0-232.0-0.0","88268402","wem/bandit_either_2","A2YAYHZYI7M3HD","either","1","168","","","","","","","0","1","0","","0.4194789623","0.8","0.2","0.6","0.4","0.1521301445","0.1891029698","0.1371372983","0.4194789623","","","","","","","","","","","","76","L","3","","","192","main_expt"
"","bandit","272","507044","0.0-233.0-0.0","88268402","wem/bandit_either_2","A2YAYHZYI7M3HD","either","1","94","","","","","","","0","1","0","","0.3914453041","0.8","0.2","0.6","0.4","0.1216552598","0.1818436489","0.1269519223","0.3914453041","","","","","","","","","","","","76","L","3","","","193","main_expt"
"","bandit","273","508663","0.0-234.0-0.0","88268402","wem/bandit_either_2","A2YAYHZYI7M3HD","either","1","88","","","","","","","0","0","1","0.07681554104","","0.8","0.2","0.6","0.4","","","","","0.07681554104","0.2036833838","0.1253972088","0.3988429791","","","","","","","","72","H","0","img/none_selected.jpg","","194","main_expt"
"","bandit","274","510292","0.0-235.0-0.0","88268402","wem/bandit_either_2","A2YAYHZYI7M3HD","either","1","104","","","","","","","0","0","1","0.07468822185","","0.8","0.2","0.6","0.4","","","","","0.07468822185","0.2189502041","0.1231557279","0.4212514022","","","","","","","","72","H","0","img/none_selected.jpg","","195","main_expt"
"","bandit","275","511901","0.0-236.0-0.0","88268402","wem/bandit_either_2","A2YAYHZYI7M3HD","either","1","78","","","","","","","0","0","1","0.07634526252","","0.8","0.2","0.6","0.4","","","","","0.07634526252","0.2011136523","0.2304226507","0.4128950903","","","","","","","","72","H","0","img/none_selected.jpg","","196","main_expt"
"","bandit","276","513724","0.0-237.0-0.0","88268402","wem/bandit_either_2","A2YAYHZYI7M3HD","either","1","290","","","","","","","0","0","1","0.06680697181","","0.8","0.2","0.6","0.4","","","","","0.06680697181","0.2295646827","0.3102822931","0.3979973083","","","","","","","","72","H","0","img/none_selected.jpg","","197","main_expt"
"","bandit","277","515366","0.0-238.0-0.0","88268402","wem/bandit_either_2","A2YAYHZYI7M3HD","either","1","110","","","","","","","0","0","1","0.05107679344","","0.8","0.2","0.6","0.4","","","","","0.05107679344","0.2570874699","0.3222054514","0.3153467244","","","","","","","","72","H","0","img/none_selected.jpg","","198","main_expt"
"","bandit","278","517016","0.0-239.0-0.0","88268402","wem/bandit_either_2","A2YAYHZYI7M3HD","either","1","119","","","","","","","0","0","1","0.06140804873","","0.8","0.2","0.6","0.4","","","","","0.06140804873","0.2215013189","0.3416159467","0.3121882746","","","","","","","","72","H","0","img/none_selected.jpg","","199","main_expt"
"","bandit","279","518747","0.0-240.0-0.0","88268402","wem/bandit_either_2","A2YAYHZYI7M3HD","either","1","195","","","","","","","0","0","1","0.05697288244","","0.8","0.2","0.6","0.4","","","","","0.05697288244","0.1681318695","0.3826655938","0.3789620948","","","","","","","","72","H","0","img/none_selected.jpg","","200","main_expt"
"","bandit","280","520421","0.0-241.0-0.0","88268402","wem/bandit_either_2","A2YAYHZYI7M3HD","either","1","142","","","","","","","0","0","1","","0.04802221103","0.8","0.2","0.6","0.4","0.04802221103","0.1787039029","0.4117435103","0.3575696279","","","","","","","","","","","","72","H","0","img/none_selected.jpg","","201","main_expt"
"","bandit","281","522137","0.0-242.0-0.0","88268402","wem/bandit_either_2","A2YAYHZYI7M3HD","either","1","185","","","","","","","0","0","1","0.04583536071","","0.8","0.2","0.6","0.4","","","","","0.04583536071","0.2180442152","0.4023622846","0.3937046418","","","","","","","","72","H","0","img/none_selected.jpg","","202","main_expt"
"","bandit","282","523670","0.0-243.0-0.0","88268402","wem/bandit_either_2","A2YAYHZYI7M3HD","either","1","2","","","","","","","0","0","1","0.03655969434","","0.8","0.2","0.6","0.4","","","","","0.03655969434","0.262784421","0.4225273878","0.3901943722","","","","","","","","72","H","0","img/none_selected.jpg","","203","main_expt"
"","bandit","283","525450","0.0-244.0-0.0","88268402","wem/bandit_either_2","A2YAYHZYI7M3HD","either","1","248","","","","","","","0","0","1","0.05773518339","","0.8","0.2","0.6","0.4","","","","","0.05773518339","0.2843732649","0.4151046429","0.4099131859","","","","","","","","72","H","0","img/none_selected.jpg","","204","main_expt"
"","bandit","284","527067","0.0-245.0-0.0","88268402","wem/bandit_either_2","A2YAYHZYI7M3HD","either","1","86","","","","","","","0","0","1","0.06616346658","","0.8","0.2","0.6","0.4","","","","","0.06616346658","0.2549063301","0.4288165897","0.4238238901","","","","","","","","72","H","0","img/none_selected.jpg","","205","main_expt"
"","bandit","285","528645","0.0-246.0-0.0","88268402","wem/bandit_either_2","A2YAYHZYI7M3HD","either","1","47","","","","","","","0","0","1","","0.4139837541","0.8","0.2","0.6","0.4","0.09055598832","0.2982701688","0.436745712","0.4139837541","","","","","","","","","","","","76","L","3","","","206","main_expt"
"","bandit","286","530284","0.0-247.0-0.0","88268402","wem/bandit_either_2","A2YAYHZYI7M3HD","either","1","107","","","","","","","0","0","1","","0.3544894801","0.8","0.2","0.6","0.4","0.07583085731","0.3423773839","0.4484652972","0.3544894801","","","","","","","","","","","","76","L","3","","","207","main_expt"
"","bandit","287","531893","0.0-248.0-0.0","88268402","wem/bandit_either_2","A2YAYHZYI7M3HD","either","1","77","","","","","","","0","0","1","","0.3703609936","0.8","0.2","0.6","0.4","0.09768014643","0.3321535101","0.4516947584","0.3703609936","","","","","","","","","","","","76","L","3","","","208","main_expt"
"","bandit","288","533508","0.0-249.0-0.0","88268402","wem/bandit_either_2","A2YAYHZYI7M3HD","either","1","81","","","","","","","0","0","1","","0.3590511704","0.8","0.2","0.6","0.4","0.08389795445","0.3467721984","0.4590139285","0.3590511704","","","","","","","","","","","","76","L","3","","","209","main_expt"
"","bandit","289","535292","0.0-250.0-0.0","88268402","wem/bandit_either_2","A2YAYHZYI7M3HD","either","1","254","","","","","","","0","1","0","","0.3781523972","0.8","0.2","0.6","0.4","0.07846525543","0.3513447539","0.4378910613","0.3781523972","","","","","","","","","","","","76","L","3","","","210","main_expt"
"","bandit","290","536879","0.0-251.0-0.0","88268402","wem/bandit_either_2","A2YAYHZYI7M3HD","either","1","54","","","","","","","0","1","0","","0.3895188655","0.8","0.2","0.6","0.4","0.05906932722","0.4003692624","0.4139384991","0.3895188655","","","","","","","","","","","","76","L","3","","","211","main_expt"
"","bandit","291","538454","0.0-252.0-0.0","88268402","wem/bandit_either_2","A2YAYHZYI7M3HD","either","1","45","","","","","","","0","0","1","0.4075098947","","0.8","0.2","0.6","0.4","","","","","0.04754192311","0.3949660502","0.3659234609","0.4075098947","","","","","","","","76","L","3","","","212","main_expt"
"","bandit","292","540079","0.0-253.0-0.0","88268402","wem/bandit_either_2","A2YAYHZYI7M3HD","either","1","92","","","","","","","0","0","1","","0.4191075236","0.8","0.2","0.6","0.4","0.05481920189","0.4233479157","0.3180572988","0.4191075236","","","","","","","","","","","","76","L","3","","","213","main_expt"
"","bandit","293","541846","0.0-254.0-0.0","88268402","wem/bandit_either_2","A2YAYHZYI7M3HD","either","1","236","","","","","","","0","0","1","","0.3799529118","0.8","0.2","0.6","0.4","0.07954578011","0.4182751871","0.2611162072","0.3799529118","","","","","","","","","","","","76","L","3","","","214","main_expt"
"","bandit","294","543549","0.0-255.0-0.0","88268402","wem/bandit_either_2","A2YAYHZYI7M3HD","either","1","170","","","","","","","0","0","1","0.3924699069","","0.8","0.2","0.6","0.4","","","","","0.1078137614","0.3745823719","0.2331309726","0.3924699069","","","","","","","","76","L","3","","","215","main_expt"
"","bandit","295","545160","0.0-256.0-0.0","88268402","wem/bandit_either_2","A2YAYHZYI7M3HD","either","1","79","","","","","","","1","0","0","0.1269525553","","0.8","0.2","0.6","0.4","","","","","0.1269525553","0.3809837923","0.2428402293","0.3556657658","","","","","","","","72","H","0","img/none_selected.jpg","","216","main_expt"
"","bandit","296","546853","0.0-257.0-0.0","88268402","wem/bandit_either_2","A2YAYHZYI7M3HD","either","1","159","","","","","","","1","0","0","0.1849794572","","0.8","0.2","0.6","0.4","","","","","0.1849794572","0.4144294186","0.2317762644","0.3870416945","","","","","","","","72","H","0","img/none_selected.jpg","","217","main_expt"
"","bandit","297","548515","0.0-258.0-0.0","88268402","wem/bandit_either_2","A2YAYHZYI7M3HD","either","1","128","","","","","","","0","0","1","","0.1903787706","0.8","0.2","0.6","0.4","0.1903787706","0.4090742927","0.204309912","0.3944581396","","","","","","","","","","","","72","H","0","img/none_selected.jpg","","218","main_expt"
"","bandit","298","550205","0.0-259.0-0.0","88268402","wem/bandit_either_2","A2YAYHZYI7M3HD","either","1","158","","","","","","","0","1","0","","0.1768508397","0.8","0.2","0.6","0.4","0.1768508397","0.3869695378","0.1685596251","0.4256173987","","","","","","","","","","","","72","H","0","img/none_selected.jpg","","219","main_expt"
"","bandit","299","551924","0.0-260.0-0.0","88268402","wem/bandit_either_2","A2YAYHZYI7M3HD","either","1","187","","","","","","","1","0","0","0.2176561852","","0.8","0.2","0.6","0.4","","","","","0.2176561852","0.3814250035","0.2488487331","0.4240862242","","","","","","","","72","H","0","img/none_selected.jpg","","220","main_expt"
"","bandit","300","553605","0.0-261.0-0.0","88268402","wem/bandit_either_2","A2YAYHZYI7M3HD","either","1","148","","","","","","","0","0","1","0.2075488201","","0.8","0.2","0.6","0.4","","","","","0.2075488201","0.3560431311","0.2789816034","0.4364702466","","","","","","","","72","H","0","img/none_selected.jpg","","221","main_expt"
"","bandit","301","555184","0.0-262.0-0.0","88268402","wem/bandit_either_2","A2YAYHZYI7M3HD","either","1","45","","","","","","","0","0","1","","0.2260831429","0.8","0.2","0.6","0.4","0.2260831429","0.3424215647","0.242729834","0.4512924842","","","","","","","","","","","","72","H","0","img/none_selected.jpg","","222","main_expt"
"","bandit","302","557626","0.0-263.0-0.0","88268402","wem/bandit_either_2","A2YAYHZYI7M3HD","either","1","910","","","","","","","1","0","0","0.2512075751","","0.8","0.2","0.6","0.4","","","","","0.2512075751","0.3118962833","0.196538567","0.4649948574","","","","","","","","72","H","0","img/none_selected.jpg","","223","main_expt"
"","bandit","303","559279","0.0-264.0-0.0","88268402","wem/bandit_either_2","A2YAYHZYI7M3HD","either","1","120","","","","","","","0","0","1","0.3072691987","","0.8","0.2","0.6","0.4","","","","","0.3072691987","0.261290028","0.2189223785","0.4692106987","","","","","","","","72","H","0","img/none_selected.jpg","","224","main_expt"
"","bandit","304","560966","0.0-265.0-0.0","88268402","wem/bandit_either_2","A2YAYHZYI7M3HD","either","1","155","","","","","","","0","0","1","0.3358063032","","0.8","0.2","0.6","0.4","","","","","0.3358063032","0.2748104332","0.2131207899","0.4772226815","","","","","","","","72","H","0","img/none_selected.jpg","","225","main_expt"
"","bandit","305","562521","0.0-266.0-0.0","88268402","wem/bandit_either_2","A2YAYHZYI7M3HD","either","1","22","","","","","","","1","0","0","0.2994610032","","0.8","0.2","0.6","0.4","","","","","0.2994610032","0.2112523614","0.187439681","0.4828013869","","","","","","","","72","H","0","img/none_selected.jpg","","226","main_expt"
"","bandit","306","564178","0.0-267.0-0.0","88268402","wem/bandit_either_2","A2YAYHZYI7M3HD","either","1","124","","","","","","","0","0","1","0.2719992041","","0.8","0.2","0.6","0.4","","","","","0.2719992041","0.1879164098","0.1522087394","0.4805292857","","","","","","","","72","H","0","img/none_selected.jpg","","227","main_expt"
"","bandit","307","565797","0.0-268.0-0.0","88268402","wem/bandit_either_2","A2YAYHZYI7M3HD","either","1","86","","","","","","","0","0","1","0.2601066631","","0.8","0.2","0.6","0.4","","","","","0.2601066631","0.1857646906","0.1975586059","0.4770879938","","","","","","","","72","H","0","img/none_selected.jpg","","228","main_expt"
"","bandit","308","567494","0.0-269.0-0.0","88268402","wem/bandit_either_2","A2YAYHZYI7M3HD","either","1","162","","","","","","","0","0","1","0.2333982712","","0.8","0.2","0.6","0.4","","","","","0.2333982712","0.1608888173","0.2280604414","0.4830225504","","","","","","","","72","H","0","img/none_selected.jpg","","229","main_expt"
"","bandit","309","569509","0.0-270.0-0.0","88268402","wem/bandit_either_2","A2YAYHZYI7M3HD","either","1","483","","","","","","","0","0","1","0.2179366985","","0.8","0.2","0.6","0.4","","","","","0.2179366985","0.1139945837","0.2120359748","0.4827210916","","","","","","","","72","H","0","img/none_selected.jpg","","230","main_expt"
"","bandit","310","571988","0.0-271.0-0.0","88268402","wem/bandit_either_2","A2YAYHZYI7M3HD","either","1","945","","","","","","","0","0","1","0.210335649","","0.8","0.2","0.6","0.4","","","","","0.210335649","0.1071229599","0.2260377558","0.4764813513","","","","","","","","72","H","0","img/none_selected.jpg","","231","main_expt"
"","bandit","311","573644","0.0-272.0-0.0","88268402","wem/bandit_either_2","A2YAYHZYI7M3HD","either","1","122","","","","","","","1","0","0","0.2154905401","","0.8","0.2","0.6","0.4","","","","","0.2154905401","0.1250262501","0.2810037348","0.4794978353","","","","","","","","72","H","0","img/none_selected.jpg","","232","main_expt"
"","bandit","312","575319","0.0-273.0-0.0","88268402","wem/bandit_either_2","A2YAYHZYI7M3HD","either","1","141","","","","","","","0","0","1","0.2199054097","","0.8","0.2","0.6","0.4","","","","","0.2199054097","0.1262657767","0.3371590923","0.4717583679","","","","","","","","72","H","0","img/none_selected.jpg","","233","main_expt"
"","bandit","313","576910","0.0-274.0-0.0","88268402","wem/bandit_either_2","A2YAYHZYI7M3HD","either","1","58","","","","","","","0","0","1","0.2116885818","","0.8","0.2","0.6","0.4","","","","","0.2116885818","0.1436583916","0.2614597929","0.4801470087","","","","","","","","72","H","0","img/none_selected.jpg","","234","main_expt"
"","bandit","314","578796","0.0-275.0-0.0","88268402","wem/bandit_either_2","A2YAYHZYI7M3HD","either","1","350","","","","","","","0","0","1","0.2037112673","","0.8","0.2","0.6","0.4","","","","","0.2037112673","0.1776605917","0.2855471023","0.4698449305","","","","","","","","72","H","0","img/none_selected.jpg","","235","main_expt"
"","bandit","315","580567","0.0-276.0-0.0","88268402","wem/bandit_either_2","A2YAYHZYI7M3HD","either","1","237","","","","","","","0","0","1","0.2295670059","","0.8","0.2","0.6","0.4","","","","","0.2295670059","0.2039581082","0.2806831757","0.4750890902","","","","","","","","72","H","0","img/none_selected.jpg","","236","main_expt"
"","bandit","316","582451","0.0-277.0-0.0","88268402","wem/bandit_either_2","A2YAYHZYI7M3HD","either","1","351","","","","","","","1","0","0","0.2602584061","","0.8","0.2","0.6","0.4","","","","","0.2602584061","0.1898025468","0.3314479917","0.490873849","","","","","","","","72","H","0","img/none_selected.jpg","","237","main_expt"
"","bandit","317","584114","0.0-278.0-0.0","88268402","wem/bandit_either_2","A2YAYHZYI7M3HD","either","1","129","","","","","","","0","0","1","0.2505035884","","0.8","0.2","0.6","0.4","","","","","0.2505035884","0.20274426","0.3495093658","0.4658125052","","","","","","","","72","H","0","img/none_selected.jpg","","238","main_expt"
"","bandit","318","585731","0.0-279.0-0.0","88268402","wem/bandit_either_2","A2YAYHZYI7M3HD","either","1","83","","","","","","","1","0","0","0.209031891","","0.8","0.2","0.6","0.4","","","","","0.209031891","0.2051086292","0.3413466471","0.4717810478","","","","","","","","72","H","0","img/none_selected.jpg","","239","main_expt"
"","bandit","319","587437","0.0-280.0-0.0","88268402","wem/bandit_either_2","A2YAYHZYI7M3HD","either","1","171","","","","","","","0","0","1","0.2203826704","","0.8","0.2","0.6","0.4","","","","","0.2203826704","0.1823871945","0.3848911707","0.4751676635","","","","","","","","72","H","0","img/none_selected.jpg","","240","main_expt"
"","bandit","320","589054","0.0-281.0-0.0","88268402","wem/bandit_either_2","A2YAYHZYI7M3HD","either","1","82","","","","","","","1","0","0","0.2502218434","","0.8","0.2","0.6","0.4","","","","","0.2502218434","0.2206124516","0.3352713547","0.4782176083","","","","","","","","72","H","0","img/none_selected.jpg","","241","main_expt"
"","bandit","321","590781","0.0-282.0-0.0","88268402","wem/bandit_either_2","A2YAYHZYI7M3HD","either","1","193","","","","","","","0","1","0","","0.2465850657","0.8","0.2","0.6","0.4","0.2465850657","0.1822231347","0.3898112853","0.4842593171","","","","","","","","","","","","72","H","0","img/none_selected.jpg","","242","main_expt"
"","bandit","322","592498","0.0-283.0-0.0","88268402","wem/bandit_either_2","A2YAYHZYI7M3HD","either","1","183","","","","","","","0","0","1","","0.2768687636","0.8","0.2","0.6","0.4","0.2768687636","0.1782216913","0.3746092993","0.4877308522","","","","","","","","","","","","72","H","0","img/none_selected.jpg","","243","main_expt"
