"consent","trial_type","trial_index","time_elapsed","internal_node_id","subjID","study","MID","cond","drift","rt","responses","key_press","expt_phase","like","value","connected","gems","bombs","no_reward","GemPrChosen","BombPrChosen","GainOverPainPr_0","GainOverPainPr_1","GainOverPainPr_2","GainOverPainPr_3","LosePr_0","LosePr_1","LosePr_2","LosePr_3","WinPr_0","WinPr_1","WinPr_2","WinPr_3","Q0","Q1","Q2","gender","age","ethnicity","target","respCharCode","respKey","respChoiceNum","respChoice","practice","trial_counter","trial_label"
"INL_behavioral_consent_30min_online.html","consent","0","7593","0.0-0.0","88529839","wem/bandit_either_2","A126BDE73YE05F","either","4","","","","","","","","","","","","","","","","","","","","","","","","","","","","","","","","","","","","","",""
"","survey-text","1","18036","0.0-1.0","88529839","wem/bandit_either_2","A126BDE73YE05F","either","4","9423","{""Q0"":""A126BDE73YE05F""}","","","","","","","","","","","","","","","","","","","","","","","","","","","","","","","","","","","",""
"","text","2","32772","0.0-2.0","88529839","wem/bandit_either_2","A126BDE73YE05F","either","4","13728","","32","","","","","","","","","","","","","","","","","","","","","","","","","","","","","","","","","","",""
"","text","3","42998","0.0-3.0","88529839","wem/bandit_either_2","A126BDE73YE05F","either","4","10216","","32","","","","","","","","","","","","","","","","","","","","","","","","","","","","","","","","","","",""
"","text","4","76106","0.0-4.0","88529839","wem/bandit_either_2","A126BDE73YE05F","either","4","33093","","32","","","","","","","","","","","","","","","","","","","","","","","","","","","","","","","","","","",""
"","text","5","91893","0.0-5.0","88529839","wem/bandit_either_2","A126BDE73YE05F","either","4","15773","","32","","","","","","","","","","","","","","","","","","","","","","","","","","","","","","","","","","",""
"","text","6","115503","0.0-6.0","88529839","wem/bandit_either_2","A126BDE73YE05F","either","4","23596","","32","","","","","","","","","","","","","","","","","","","","","","","","","","","","","","","","","","",""
"","text","7","133437","0.0-7.0","88529839","wem/bandit_either_2","A126BDE73YE05F","either","4","17923","","32","","","","","","","","","","","","","","","","","","","","","","","","","","","","","","","","","","",""
"","text","8","139290","0.0-8.0","88529839","wem/bandit_either_2","A126BDE73YE05F","either","4","5842","","32","","","","","","","","","","","","","","","","","","","","","","","","","","","","","","","","","","",""
"","identification","9","152880","0.0-9.0-0.0","88529839","wem/bandit_either_2","A126BDE73YE05F","either","4","13507","","","","3","3","3","","","","","","","","","","","","","","","","","","","","","","","","the village of Zur","","","","","","",""
"","identification","10","160506","0.0-9.0-1.0","88529839","wem/bandit_either_2","A126BDE73YE05F","either","4","6516","","","","2","2","2","","","","","","","","","","","","","","","","","","","","","","","","the village of Nyx","","","","","","",""
"","text","11","167709","0.0-10.0","88529839","wem/bandit_either_2","A126BDE73YE05F","either","4","6197","","32","","","","","","","","","","","","","","","","","","","","","","","","","","","","","","","","","","",""
"","text","12","173735","0.0-11.0","88529839","wem/bandit_either_2","A126BDE73YE05F","either","4","6007","","32","","","","","","","","","","","","","","","","","","","","","","","","","","","","","","","","","","",""
"","text","13","175325","0.0-12.0","88529839","wem/bandit_either_2","A126BDE73YE05F","either","4","1571","","32","","","","","","","","","","","","","","","","","","","","","","","","","","","","","","","","","","",""
"","text","14","180179","0.0-13.0","88529839","wem/bandit_either_2","A126BDE73YE05F","either","4","4842","","32","","","","","","","","","","","","","","","","","","","","","","","","","","","","","","","","","","",""
"","bandit","15","183732","0.0-14.0-0.0","88529839","wem/bandit_either_2","A126BDE73YE05F","either","4","1977","","","","","","","0","0","1","0","0","","","","","0","","","","0","","","","","","","","","","","74","J","0","img/none_selected_demo.jpg","true","0",""
"","bandit","16","186285","0.0-15.0-0.0","88529839","wem/bandit_either_2","A126BDE73YE05F","either","4","972","","","","","","","0","0","1","0","0","","","","","0","","","","0","","","","","","","","","","","75","K","0","img/none_selected_demo.jpg","true","0",""
"","text","17","196701","0.0-16.0","88529839","wem/bandit_either_2","A126BDE73YE05F","either","4","10402","","32","","","","","","","","","","","","","","","","","","","","","","","","","","","","","","","","","","",""
"","text","18","207704","0.0-17.0","88529839","wem/bandit_either_2","A126BDE73YE05F","either","4","10991","","32","","","","","","","","","","","","","","","","","","","","","","","","","","","","","","","","","","",""
"","text","19","215179","0.0-18.0","88529839","wem/bandit_either_2","A126BDE73YE05F","either","4","7463","","32","","","","","","","","","","","","","","","","","","","","","","","","","","","","","","","","","","",""
"","text","20","224556","0.0-19.0","88529839","wem/bandit_either_2","A126BDE73YE05F","either","4","9366","","32","","","","","","","","","","","","","","","","","","","","","","","","","","","","","","","","","","",""
"","bandit","21","227385","0.0-20.0-0.0","88529839","wem/bandit_either_2","A126BDE73YE05F","either","4","1268","","","","","","","0","0","1","0.8","","0.5","0.5","","","","","","","0.8","0.2","","","","","","","","","","74","J","0","img/none_selected_demo.jpg","true","0","80_20_practice"
"","bandit","22","229676","0.0-20.0-1.0","88529839","wem/bandit_either_2","A126BDE73YE05F","either","4","720","","","","","","","0","0","1","0.2","","0.5","0.5","","","","","","","0.8","0.2","","","","","","","","","","75","K","1","","true","0","80_20_practice"
"","bandit","23","231789","0.0-20.0-2.0","88529839","wem/bandit_either_2","A126BDE73YE05F","either","4","561","","","","","","","1","0","0","0.2","","0.5","0.5","","","","","","","0.8","0.2","","","","","","","","","","75","K","1","","true","0","80_20_practice"
"","bandit","24","233985","0.0-20.0-3.0","88529839","wem/bandit_either_2","A126BDE73YE05F","either","4","641","","","","","","","0","0","1","0.2","","0.5","0.5","","","","","","","0.8","0.2","","","","","","","","","","75","K","1","","true","0","80_20_practice"
"","bandit","25","235883","0.0-20.0-4.0","88529839","wem/bandit_either_2","A126BDE73YE05F","either","4","344","","","","","","","0","0","1","0.2","","0.5","0.5","","","","","","","0.8","0.2","","","","","","","","","","75","K","1","","true","0","80_20_practice"
"","bandit","26","237770","0.0-20.0-5.0","88529839","wem/bandit_either_2","A126BDE73YE05F","either","4","313","","","","","","","1","0","0","0.8","","0.5","0.5","","","","","","","0.8","0.2","","","","","","","","","","74","J","0","img/none_selected_demo.jpg","true","0","80_20_practice"
"","bandit","27","239990","0.0-20.0-6.0","88529839","wem/bandit_either_2","A126BDE73YE05F","either","4","662","","","","","","","1","0","0","0.8","","0.5","0.5","","","","","","","0.8","0.2","","","","","","","","","","74","J","0","img/none_selected_demo.jpg","true","0","80_20_practice"
"","bandit","28","241904","0.0-20.0-7.0","88529839","wem/bandit_either_2","A126BDE73YE05F","either","4","329","","","","","","","0","1","0","","0.8","0.5","0.5","","","0.8","0.2","","","","","","","","","","","","","","74","J","0","img/none_selected_demo.jpg","true","0","80_20_practice"
"","bandit","29","243809","0.0-20.0-8.0","88529839","wem/bandit_either_2","A126BDE73YE05F","either","4","335","","","","","","","0","0","1","","0.8","0.5","0.5","","","0.8","0.2","","","","","","","","","","","","","","74","J","0","img/none_selected_demo.jpg","true","0","80_20_practice"
"","bandit","30","246135","0.0-20.0-9.0","88529839","wem/bandit_either_2","A126BDE73YE05F","either","4","769","","","","","","","1","0","0","0.8","","0.5","0.5","","","","","","","0.8","0.2","","","","","","","","","","74","J","0","img/none_selected_demo.jpg","true","0","80_20_practice"
"","bandit","31","248036","0.0-20.0-10.0","88529839","wem/bandit_either_2","A126BDE73YE05F","either","4","325","","","","","","","0","1","0","","0.8","0.5","0.5","","","0.8","0.2","","","","","","","","","","","","","","74","J","0","img/none_selected_demo.jpg","true","0","80_20_practice"
"","bandit","32","249571","0.0-20.0-11.0","88529839","wem/bandit_either_2","A126BDE73YE05F","either","4","1","","","","","","","0","1","0","","0.8","0.5","0.5","","","0.8","0.2","","","","","","","","","","","","","","74","J","0","img/none_selected_demo.jpg","true","0","80_20_practice"
"","bandit","33","251495","0.0-20.0-12.0","88529839","wem/bandit_either_2","A126BDE73YE05F","either","4","372","","","","","","","0","1","0","","0.8","0.5","0.5","","","0.8","0.2","","","","","","","","","","","","","","74","J","0","img/none_selected_demo.jpg","true","0","80_20_practice"
"","bandit","34","253177","0.0-20.0-13.0","88529839","wem/bandit_either_2","A126BDE73YE05F","either","4","125","","","","","","","1","0","0","0.8","","0.5","0.5","","","","","","","0.8","0.2","","","","","","","","","","74","J","0","img/none_selected_demo.jpg","true","0","80_20_practice"
"","bandit","35","254898","0.0-20.0-14.0","88529839","wem/bandit_either_2","A126BDE73YE05F","either","4","171","","","","","","","0","1","0","","0.8","0.5","0.5","","","0.8","0.2","","","","","","","","","","","","","","74","J","0","img/none_selected_demo.jpg","true","0","80_20_practice"
"","bandit","36","256782","0.0-20.0-15.0","88529839","wem/bandit_either_2","A126BDE73YE05F","either","4","306","","","","","","","0","1","0","","0.8","0.5","0.5","","","0.8","0.2","","","","","","","","","","","","","","74","J","0","img/none_selected_demo.jpg","true","0","80_20_practice"
"","bandit","37","258569","0.0-20.0-16.0","88529839","wem/bandit_either_2","A126BDE73YE05F","either","4","227","","","","","","","1","0","0","0.8","","0.5","0.5","","","","","","","0.8","0.2","","","","","","","","","","74","J","0","img/none_selected_demo.jpg","true","0","80_20_practice"
"","bandit","38","261261","0.0-20.0-17.0","88529839","wem/bandit_either_2","A126BDE73YE05F","either","4","1122","","","","","","","0","1","0","","0.8","0.5","0.5","","","0.8","0.2","","","","","","","","","","","","","","74","J","0","img/none_selected_demo.jpg","true","0","80_20_practice"
"","bandit","39","263262","0.0-20.0-18.0","88529839","wem/bandit_either_2","A126BDE73YE05F","either","4","445","","","","","","","0","1","0","","0.8","0.5","0.5","","","0.8","0.2","","","","","","","","","","","","","","74","J","0","img/none_selected_demo.jpg","true","0","80_20_practice"
"","bandit","40","266073","0.0-20.0-19.0","88529839","wem/bandit_either_2","A126BDE73YE05F","either","4","1243","","","","","","","0","1","0","","0.8","0.5","0.5","","","0.8","0.2","","","","","","","","","","","","","","74","J","0","img/none_selected_demo.jpg","true","0","80_20_practice"
"","text","41","273228","0.0-21.0","88529839","wem/bandit_either_2","A126BDE73YE05F","either","4","7120","","32","","","","","","","","","","","","","","","","","","","","","","","","","","","","","","","","","","",""
"","bandit","42","275581","0.0-22.0-0.0","88529839","wem/bandit_either_2","A126BDE73YE05F","either","4","804","","","","","","","1","0","0","1","0","","","","","0","1","","","1","0","","","","","","","","","","74","J","0","img/none_selected_demo.jpg","true","0",""
"","text","43","282942","0.0-23.0","88529839","wem/bandit_either_2","A126BDE73YE05F","either","4","7348","","32","","","","","","","","","","","","","","","","","","","","","","","","","","","","","","","","","","",""
"","text","44","286925","0.0-24.0","88529839","wem/bandit_either_2","A126BDE73YE05F","either","4","3968","","32","","","","","","","","","","","","","","","","","","","","","","","","","","","","","","","","","","",""
"","text","45","289622","0.0-25.0","88529839","wem/bandit_either_2","A126BDE73YE05F","either","4","2688","","32","","","","","","","","","","","","","","","","","","","","","","","","","","","","","","","","","","",""
"","text","46","293029","0.0-26.0","88529839","wem/bandit_either_2","A126BDE73YE05F","either","4","3389","","32","","","","","","","","","","","","","","","","","","","","","","","","","","","","","","","","","","",""
"","text","47","301218","0.0-27.0","88529839","wem/bandit_either_2","A126BDE73YE05F","either","4","8173","","32","","","","","","","","","","","","","","","","","","","","","","","","","","","","","","","","","","",""
"","text","48","304686","0.0-28.0","88529839","wem/bandit_either_2","A126BDE73YE05F","either","4","3451","","32","","","","","","","","","","","","","","","","","","","","","","","","","","","","","","","","","","",""
"","text","49","311333","0.0-29.0","88529839","wem/bandit_either_2","A126BDE73YE05F","either","4","6630","","32","","","","","","","","","","","","","","","","","","","","","","","","","","","","","","","","","","",""
"","text","50","316773","0.0-30.0","88529839","wem/bandit_either_2","A126BDE73YE05F","either","4","5419","","32","","","","","","","","","","","","","","","","","","","","","","","","","","","","","","","","","","",""
"","text","51","324633","0.0-31.0","88529839","wem/bandit_either_2","A126BDE73YE05F","either","4","7836","","32","","","","","","","","","","","","","","","","","","","","","","","","","","","","","","","","","","",""
"","text","52","327485","0.0-32.0","88529839","wem/bandit_either_2","A126BDE73YE05F","either","4","2829","","32","","","","","","","","","","","","","","","","","","","","","","","","","","","","","","","","","","",""
"","text","53","331370","0.0-33.0","88529839","wem/bandit_either_2","A126BDE73YE05F","either","4","3863","","32","","","","","","","","","","","","","","","","","","","","","","","","","","","","","","","","","","",""
"","bandit","54","333505","0.0-34.0-0.0","88529839","wem/bandit_either_2","A126BDE73YE05F","either","4","531","","","","","","","1","0","0","0.8","","0.5","0.5","0.5","0.5","","","","","0.8","0.2","0.6","0.2","","","","","","","","72","H","0","img/none_selected.jpg","true","0","full_practice"
"","bandit","55","335442","0.0-34.0-1.0","88529839","wem/bandit_either_2","A126BDE73YE05F","either","4","350","","","","","","","0","1","0","","0.8","0.5","0.5","0.5","0.5","0.8","0.2","0.6","0.2","","","","","","","","","","","","72","H","0","img/none_selected.jpg","true","0","full_practice"
"","bandit","56","337313","0.0-34.0-2.0","88529839","wem/bandit_either_2","A126BDE73YE05F","either","4","297","","","","","","","1","0","0","0.8","","0.5","0.5","0.5","0.5","","","","","0.8","0.2","0.6","0.2","","","","","","","","72","H","0","img/none_selected.jpg","true","0","full_practice"
"","bandit","57","339122","0.0-34.0-3.0","88529839","wem/bandit_either_2","A126BDE73YE05F","either","4","244","","","","","","","0","1","0","","0.8","0.5","0.5","0.5","0.5","0.8","0.2","0.6","0.2","","","","","","","","","","","","72","H","0","img/none_selected.jpg","true","0","full_practice"
"","bandit","58","341504","0.0-34.0-4.0","88529839","wem/bandit_either_2","A126BDE73YE05F","either","4","821","","","","","","","0","1","0","","0.8","0.5","0.5","0.5","0.5","0.8","0.2","0.6","0.2","","","","","","","","","","","","72","H","0","img/none_selected.jpg","true","0","full_practice"
"","bandit","59","343516","0.0-34.0-5.0","88529839","wem/bandit_either_2","A126BDE73YE05F","either","4","432","","","","","","","0","1","0","","0.8","0.5","0.5","0.5","0.5","0.8","0.2","0.6","0.2","","","","","","","","","","","","72","H","0","img/none_selected.jpg","true","0","full_practice"
"","bandit","60","345405","0.0-34.0-6.0","88529839","wem/bandit_either_2","A126BDE73YE05F","either","4","318","","","","","","","0","0","1","","0.8","0.5","0.5","0.5","0.5","0.8","0.2","0.6","0.2","","","","","","","","","","","","72","H","0","img/none_selected.jpg","true","0","full_practice"
"","bandit","61","347456","0.0-34.0-7.0","88529839","wem/bandit_either_2","A126BDE73YE05F","either","4","471","","","","","","","0","0","1","0.8","","0.5","0.5","0.5","0.5","","","","","0.8","0.2","0.6","0.2","","","","","","","","72","H","0","img/none_selected.jpg","true","0","full_practice"
"","bandit","62","349443","0.0-34.0-8.0","88529839","wem/bandit_either_2","A126BDE73YE05F","either","4","426","","","","","","","0","0","1","","0.2","0.5","0.5","0.5","0.5","0.8","0.2","0.6","0.2","","","","","","","","","","","","76","L","3","","true","0","full_practice"
"","bandit","63","351285","0.0-34.0-9.0","88529839","wem/bandit_either_2","A126BDE73YE05F","either","4","273","","","","","","","0","1","0","","0.6","0.5","0.5","0.5","0.5","0.8","0.2","0.6","0.2","","","","","","","","","","","","75","K","2","","true","0","full_practice"
"","bandit","64","353135","0.0-34.0-10.0","88529839","wem/bandit_either_2","A126BDE73YE05F","either","4","275","","","","","","","1","0","0","0.6","","0.5","0.5","0.5","0.5","","","","","0.8","0.2","0.6","0.2","","","","","","","","75","K","2","","true","0","full_practice"
"","bandit","65","354752","0.0-34.0-11.0","88529839","wem/bandit_either_2","A126BDE73YE05F","either","4","42","","","","","","","0","1","0","","0.6","0.5","0.5","0.5","0.5","0.8","0.2","0.6","0.2","","","","","","","","","","","","75","K","2","","true","0","full_practice"
"","bandit","66","356470","0.0-34.0-12.0","88529839","wem/bandit_either_2","A126BDE73YE05F","either","4","150","","","","","","","0","0","1","","0.6","0.5","0.5","0.5","0.5","0.8","0.2","0.6","0.2","","","","","","","","","","","","75","K","2","","true","0","full_practice"
"","bandit","67","358265","0.0-34.0-13.0","88529839","wem/bandit_either_2","A126BDE73YE05F","either","4","226","","","","","","","0","0","1","0.2","","0.5","0.5","0.5","0.5","","","","","0.8","0.2","0.6","0.2","","","","","","","","74","J","1","","true","0","full_practice"
"","bandit","68","360703","0.0-34.0-14.0","88529839","wem/bandit_either_2","A126BDE73YE05F","either","4","873","","","","","","","0","0","1","0.2","","0.5","0.5","0.5","0.5","","","","","0.8","0.2","0.6","0.2","","","","","","","","76","L","3","","true","0","full_practice"
"","bandit","69","362790","0.0-34.0-15.0","88529839","wem/bandit_either_2","A126BDE73YE05F","either","4","503","","","","","","","0","1","0","","0.8","0.5","0.5","0.5","0.5","0.8","0.2","0.6","0.2","","","","","","","","","","","","72","H","0","img/none_selected.jpg","true","0","full_practice"
"","bandit","70","364689","0.0-34.0-16.0","88529839","wem/bandit_either_2","A126BDE73YE05F","either","4","323","","","","","","","1","0","0","0.8","","0.5","0.5","0.5","0.5","","","","","0.8","0.2","0.6","0.2","","","","","","","","72","H","0","img/none_selected.jpg","true","0","full_practice"
"","bandit","71","366538","0.0-34.0-17.0","88529839","wem/bandit_either_2","A126BDE73YE05F","either","4","272","","","","","","","0","0","1","0.8","","0.5","0.5","0.5","0.5","","","","","0.8","0.2","0.6","0.2","","","","","","","","72","H","0","img/none_selected.jpg","true","0","full_practice"
"","bandit","72","368438","0.0-34.0-18.0","88529839","wem/bandit_either_2","A126BDE73YE05F","either","4","325","","","","","","","0","1","0","","0.8","0.5","0.5","0.5","0.5","0.8","0.2","0.6","0.2","","","","","","","","","","","","72","H","0","img/none_selected.jpg","true","0","full_practice"
"","bandit","73","370298","0.0-34.0-19.0","88529839","wem/bandit_either_2","A126BDE73YE05F","either","4","302","","","","","","","1","0","0","0.8","","0.5","0.5","0.5","0.5","","","","","0.8","0.2","0.6","0.2","","","","","","","","72","H","0","img/none_selected.jpg","true","0","full_practice"
"","text","74","372936","0.0-35.0","88529839","wem/bandit_either_2","A126BDE73YE05F","either","4","2603","","32","","","","","","","","","","","","","","","","","","","","","","","","","","","","","","","","","","",""
"","text","75","386398","0.0-36.0","88529839","wem/bandit_either_2","A126BDE73YE05F","either","4","12162","","32","","","","","","","","","","","","","","","","","","","","","","","","","","","","","","","","","","",""
"","text","76","398247","0.0-37.0","88529839","wem/bandit_either_2","A126BDE73YE05F","either","4","11813","","32","","","","","","","","","","","","","","","","","","","","","","","","","","","","","","","","","","",""
"","text","77","405946","0.0-38.0","88529839","wem/bandit_either_2","A126BDE73YE05F","either","4","7669","","32","","","","","","","","","","","","","","","","","","","","","","","","","","","","","","","","","","",""
"","text","78","411260","0.0-39.0","88529839","wem/bandit_either_2","A126BDE73YE05F","either","4","5283","","32","","","","","","","","","","","","","","","","","","","","","","","","","","","","","","","","","","",""
"","text","79","414737","0.0-40.0","88529839","wem/bandit_either_2","A126BDE73YE05F","either","4","3459","","32","","","","","","","","","","","","","","","","","","","","","","","","","","","","","","","","","","",""
"","bandit","80","418703","0.0-41.0-0.0","88529839","wem/bandit_either_2","A126BDE73YE05F","either","4","2377","","","","","","","0","1","0","","0.3242650943","0.2","0.8","0.4","0.6","0.3894728165","0.3525715257","0.2771551185","0.3242650943","","","","","","","","","","","","76","L","3","","","1","main_expt"
"","bandit","81","420570","0.0-42.0-0.0","88529839","wem/bandit_either_2","A126BDE73YE05F","either","4","291","","","","","","","0","0","1","0.3296228245","","0.2","0.8","0.4","0.6","","","","","0.363660736","0.390153736","0.3030893157","0.3296228245","","","","","","","","76","L","3","","","2","main_expt"
"","bandit","82","422506","0.0-43.0-0.0","88529839","wem/bandit_either_2","A126BDE73YE05F","either","4","370","","","","","","","0","0","1","","0.3102780753","0.2","0.8","0.4","0.6","0.3842171554","0.3725447061","0.3211059343","0.3102780753","","","","","","","","","","","","76","L","3","","","3","main_expt"
"","bandit","83","424152","0.0-44.0-0.0","88529839","wem/bandit_either_2","A126BDE73YE05F","either","4","83","","","","","","","0","0","1","","0.2804386453","0.2","0.8","0.4","0.6","0.3831963053","0.3431524481","0.2804386453","0.2749892112","","","","","","","","","","","","75","K","2","","","4","main_expt"
"","bandit","84","426018","0.0-45.0-0.0","88529839","wem/bandit_either_2","A126BDE73YE05F","either","4","301","","","","","","","0","0","1","0.3448007793","","0.2","0.8","0.4","0.6","","","","","0.4056596471","0.3448007793","0.2609559086","0.3037824898","","","","","","","","74","J","1","","","5","main_expt"
"","bandit","85","427659","0.0-46.0-0.0","88529839","wem/bandit_either_2","A126BDE73YE05F","either","4","61","","","","","","","0","0","1","","0.4409946319","0.2","0.8","0.4","0.6","0.4409946319","0.3980888019","0.2259287768","0.3217417103","","","","","","","","","","","","72","H","0","img/none_selected.jpg","","6","main_expt"
"","bandit","86","429522","0.0-47.0-0.0","88529839","wem/bandit_either_2","A126BDE73YE05F","either","4","297","","","","","","","0","0","1","","0.3018715163","0.2","0.8","0.4","0.6","0.3821747998","0.3693121862","0.2433618728","0.3018715163","","","","","","","","","","","","76","L","3","","","7","main_expt"
"","bandit","87","431733","0.0-48.0-0.0","88529839","wem/bandit_either_2","A126BDE73YE05F","either","4","647","","","","","","","0","0","1","0.2025356769","","0.2","0.8","0.4","0.6","","","","","0.3841844813","0.2933697555","0.2025356769","0.3643645816","","","","","","","","75","K","2","","","8","main_expt"
"","bandit","88","433820","0.0-49.0-0.0","88529839","wem/bandit_either_2","A126BDE73YE05F","either","4","519","","","","","","","0","0","1","0.3036212831","","0.2","0.8","0.4","0.6","","","","","0.3412237964","0.3036212831","0.1441028094","0.3418610374","","","","","","","","74","J","1","","","9","main_expt"
"","bandit","89","435589","0.0-50.0-0.0","88529839","wem/bandit_either_2","A126BDE73YE05F","either","4","195","","","","","","","1","0","0","0.308020301","","0.2","0.8","0.4","0.6","","","","","0.3256420777","0.308020301","0.1736005971","0.3190157878","","","","","","","","74","J","1","","","10","main_expt"
"","bandit","90","437486","0.0-51.0-0.0","88529839","wem/bandit_either_2","A126BDE73YE05F","either","4","308","","","","","","","0","0","1","0.3065973113","","0.2","0.8","0.4","0.6","","","","","0.3514007431","0.3065973113","0.1836365694","0.2998731478","","","","","","","","74","J","1","","","11","main_expt"
"","bandit","91","439065","0.0-52.0-0.0","88529839","wem/bandit_either_2","A126BDE73YE05F","either","4","6","","","","","","","0","0","1","0.3722032088","","0.2","0.8","0.4","0.6","","","","","0.3722032088","0.3271859636","0.2143869662","0.2942822571","","","","","","","","72","H","0","img/none_selected.jpg","","12","main_expt"
"","bandit","92","440942","0.0-53.0-0.0","88529839","wem/bandit_either_2","A126BDE73YE05F","either","4","310","","","","","","","1","0","0","0.3009212619","","0.2","0.8","0.4","0.6","","","","","0.3681707299","0.2761076709","0.1637139448","0.3009212619","","","","","","","","76","L","3","","","13","main_expt"
"","bandit","93","442776","0.0-54.0-0.0","88529839","wem/bandit_either_2","A126BDE73YE05F","either","4","276","","","","","","","0","0","1","0.3227424667","","0.2","0.8","0.4","0.6","","","","","0.3528222564","0.2311164494","0.1488535162","0.3227424667","","","","","","","","76","L","3","","","14","main_expt"
"","bandit","94","444407","0.0-55.0-0.0","88529839","wem/bandit_either_2","A126BDE73YE05F","either","4","61","","","","","","","1","0","0","0.3547546862","","0.2","0.8","0.4","0.6","","","","","0.3738838661","0.2905977425","0.1332411271","0.3547546862","","","","","","","","76","L","3","","","15","main_expt"
"","bandit","95","446567","0.0-56.0-0.0","88529839","wem/bandit_either_2","A126BDE73YE05F","either","4","326","","","","","","","0","0","1","","0.3241157583","0.2","0.8","0.4","0.6","0.3385239332","0.2924554969","0.09882415698","0.3241157583","","","","","","","","","","","","76","L","3","","","16","main_expt"
"","bandit","96","449002","0.0-57.0-0.0","88529839","wem/bandit_either_2","A126BDE73YE05F","either","4","853","","","","","","","0","0","1","","0.1069157009","0.2","0.8","0.4","0.6","0.3111355138","0.3114836302","0.1069157009","0.3363410386","","","","","","","","","","","","75","K","2","","","17","main_expt"
"","bandit","97","451052","0.0-58.0-0.0","88529839","wem/bandit_either_2","A126BDE73YE05F","either","4","477","","","","","","","0","0","1","0.3215333475","","0.2","0.8","0.4","0.6","","","","","0.3487767647","0.3215333475","0.134958137","0.3880947854","","","","","","","","74","J","1","","","18","main_expt"
"","bandit","98","452765","0.0-59.0-0.0","88529839","wem/bandit_either_2","A126BDE73YE05F","either","4","135","","","","","","","0","1","0","","0.3010303499","0.2","0.8","0.4","0.6","0.3010303499","0.2733398822","0.1230418706","0.4116912081","","","","","","","","","","","","72","H","0","img/none_selected.jpg","","19","main_expt"
"","bandit","99","454717","0.0-60.0-0.0","88529839","wem/bandit_either_2","A126BDE73YE05F","either","4","342","","","","","","","1","0","0","0.2907203997","","0.2","0.8","0.4","0.6","","","","","0.2907203997","0.2351410235","0.09866604889","0.3973894305","","","","","","","","72","H","0","img/none_selected.jpg","","20","main_expt"
"","bandit","100","456630","0.0-61.0-0.0","88529839","wem/bandit_either_2","A126BDE73YE05F","either","4","318","","","","","","","0","0","1","","0.3088108907","0.2","0.8","0.4","0.6","0.3088108907","0.2257810982","0.1021222834","0.369037109","","","","","","","","","","","","72","H","0","img/none_selected.jpg","","21","main_expt"
"","bandit","101","458494","0.0-62.0-0.0","88529839","wem/bandit_either_2","A126BDE73YE05F","either","4","311","","","","","","","0","0","1","","0.349202701","0.2","0.8","0.4","0.6","0.349202701","0.2221856846","0.1234138809","0.4179468344","","","","","","","","","","","","72","H","0","img/none_selected.jpg","","22","main_expt"
"","bandit","102","460132","0.0-63.0-0.0","88529839","wem/bandit_either_2","A126BDE73YE05F","either","4","76","","","","","","","0","0","1","","0.2127124712","0.2","0.8","0.4","0.6","0.3785068464","0.2127124712","0.1030640584","0.4276062926","","","","","","","","","","","","74","J","1","","","23","main_expt"
"","bandit","103","461681","0.0-64.0-0.0","88529839","wem/bandit_either_2","A126BDE73YE05F","either","4","0","","","","","","","0","0","1","","0.1261035851","0.2","0.8","0.4","0.6","0.4012919653","0.1882566648","0.1261035851","0.4078122208","","","","","","","","","","","","75","K","2","","","24","main_expt"
"","bandit","104","463736","0.0-65.0-0.0","88529839","wem/bandit_either_2","A126BDE73YE05F","either","4","482","","","","","","","1","0","0","0.3950411191","","0.2","0.8","0.4","0.6","","","","","0.400899794","0.1273223766","0.1796705612","0.3950411191","","","","","","","","76","L","3","","","25","main_expt"
"","bandit","105","465572","0.0-66.0-0.0","88529839","wem/bandit_either_2","A126BDE73YE05F","either","4","265","","","","","","","1","0","0","0.4322303329","","0.2","0.8","0.4","0.6","","","","","0.4126274585","0.15747458","0.2414651519","0.4322303329","","","","","","","","76","L","3","","","26","main_expt"
"","bandit","106","467465","0.0-67.0-0.0","88529839","wem/bandit_either_2","A126BDE73YE05F","either","4","323","","","","","","","0","0","1","","0.4353643722","0.2","0.8","0.4","0.6","0.3992263875","0.1442684908","0.2005374927","0.4353643722","","","","","","","","","","","","76","L","3","","","27","main_expt"
"","bandit","107","469305","0.0-68.0-0.0","88529839","wem/bandit_either_2","A126BDE73YE05F","either","4","273","","","","","","","0","1","0","","0.4464017809","0.2","0.8","0.4","0.6","0.3846584236","0.2255404594","0.3197257227","0.4464017809","","","","","","","","","","","","76","L","3","","","28","main_expt"
"","bandit","108","471167","0.0-69.0-0.0","88529839","wem/bandit_either_2","A126BDE73YE05F","either","4","295","","","","","","","0","1","0","","0.4417109462","0.2","0.8","0.4","0.6","0.3561298134","0.2730951691","0.3141869899","0.4417109462","","","","","","","","","","","","76","L","3","","","29","main_expt"
"","bandit","109","472750","0.0-70.0-0.0","88529839","wem/bandit_either_2","A126BDE73YE05F","either","4","12","","","","","","","1","0","0","0.4065908859","","0.2","0.8","0.4","0.6","","","","","0.3101363315","0.2890412698","0.3445991012","0.4065908859","","","","","","","","76","L","3","","","30","main_expt"
"","bandit","110","474635","0.0-71.0-0.0","88529839","wem/bandit_either_2","A126BDE73YE05F","either","4","302","","","","","","","0","0","1","","0.3954582793","0.2","0.8","0.4","0.6","0.3322219809","0.3309226042","0.3456655029","0.3954582793","","","","","","","","","","","","76","L","3","","","31","main_expt"
"","bandit","111","479062","0.0-72.0-0.0","88529839","wem/bandit_either_2","A126BDE73YE05F","either","4","279","","","","","","","0","0","1","","0.3716723047","0.2","0.8","0.4","0.6","0.3516269472","0.3519301717","0.3826172224","0.3716723047","","","","","","","","","","","","76","L","3","","","32","main_expt"
"","bandit","112","481202","0.0-73.0-0.0","88529839","wem/bandit_either_2","A126BDE73YE05F","either","4","553","","","","","","","1","0","0","0.3804083149","","0.2","0.8","0.4","0.6","","","","","0.3852085553","0.3414953842","0.3804083149","0.3799724366","","","","","","","","75","K","2","","","33","main_expt"
"","bandit","113","483111","0.0-74.0-0.0","88529839","wem/bandit_either_2","A126BDE73YE05F","either","4","323","","","","","","","0","1","0","","0.3808178469","0.2","0.8","0.4","0.6","0.4196644934","0.2938412915","0.3808178469","0.409480615","","","","","","","","","","","","75","K","2","","","34","main_expt"
"","bandit","114","484863","0.0-75.0-0.0","88529839","wem/bandit_either_2","A126BDE73YE05F","either","4","173","","","","","","","0","1","0","","0.376129724","0.2","0.8","0.4","0.6","0.420891004","0.2256616696","0.376129724","0.3869649509","","","","","","","","","","","","75","K","2","","","35","main_expt"
"","bandit","115","486723","0.0-76.0-0.0","88529839","wem/bandit_either_2","A126BDE73YE05F","either","4","299","","","","","","","0","1","0","","0.4027809904","0.2","0.8","0.4","0.6","0.3808881167","0.2525957923","0.4027809904","0.3045389962","","","","","","","","","","","","75","K","2","","","36","main_expt"
"","bandit","116","488413","0.0-77.0-0.0","88529839","wem/bandit_either_2","A126BDE73YE05F","either","4","128","","","","","","","0","0","1","","0.3715556026","0.2","0.8","0.4","0.6","0.3634360393","0.2333373749","0.3715556026","0.2954217214","","","","","","","","","","","","75","K","2","","","37","main_expt"
"","bandit","117","490135","0.0-78.0-0.0","88529839","wem/bandit_either_2","A126BDE73YE05F","either","4","152","","","","","","","0","1","0","","0.354842885","0.2","0.8","0.4","0.6","0.3432691328","0.2126884676","0.354842885","0.2749906923","","","","","","","","","","","","75","K","2","","","38","main_expt"
"","bandit","118","492091","0.0-79.0-0.0","88529839","wem/bandit_either_2","A126BDE73YE05F","either","4","368","","","","","","","0","0","1","","0.3066825603","0.2","0.8","0.4","0.6","0.3113322025","0.212498526","0.3066825603","0.2911873598","","","","","","","","","","","","75","K","2","","","39","main_expt"
"","bandit","119","493932","0.0-80.0-0.0","88529839","wem/bandit_either_2","A126BDE73YE05F","either","4","289","","","","","","","0","0","1","0.3208648015","","0.2","0.8","0.4","0.6","","","","","0.3298138996","0.2031275136","0.3208648015","0.3066149412","","","","","","","","75","K","2","","","40","main_expt"
"","bandit","120","496043","0.0-81.0-0.0","88529839","wem/bandit_either_2","A126BDE73YE05F","either","4","534","","","","","","","0","0","1","0.3590557929","","0.2","0.8","0.4","0.6","","","","","0.3590557929","0.2409224204","0.2774570704","0.2612722093","","","","","","","","72","H","0","img/none_selected.jpg","","41","main_expt"
"","bandit","121","497621","0.0-82.0-0.0","88529839","wem/bandit_either_2","A126BDE73YE05F","either","4","24","","","","","","","0","0","1","0.2166695961","","0.2","0.8","0.4","0.6","","","","","0.3455434044","0.2166695961","0.3092882543","0.2579482203","","","","","","","","74","J","1","","","42","main_expt"
"","bandit","122","499833","0.0-83.0-0.0","88529839","wem/bandit_either_2","A126BDE73YE05F","either","4","629","","","","","","","0","0","1","","0.2232302517","0.2","0.8","0.4","0.6","0.4020043176","0.2314197793","0.3161251671","0.2232302517","","","","","","","","","","","","76","L","3","","","43","main_expt"
"","bandit","123","501596","0.0-84.0-0.0","88529839","wem/bandit_either_2","A126BDE73YE05F","either","4","180","","","","","","","0","0","1","","0.4088695108","0.2","0.8","0.4","0.6","0.4088695108","0.1889371852","0.3032549762","0.2435669349","","","","","","","","","","","","72","H","0","img/none_selected.jpg","","44","main_expt"
"","bandit","124","503495","0.0-85.0-0.0","88529839","wem/bandit_either_2","A126BDE73YE05F","either","4","327","","","","","","","1","0","0","0.2152104473","","0.2","0.8","0.4","0.6","","","","","0.3914045207","0.2152104473","0.3012359134","0.1885724617","","","","","","","","74","J","1","","","45","main_expt"
"","bandit","125","505339","0.0-86.0-0.0","88529839","wem/bandit_either_2","A126BDE73YE05F","either","4","269","","","","","","","0","0","1","0.2260726972","","0.2","0.8","0.4","0.6","","","","","0.3682142312","0.2260726972","0.2994346937","0.104230756","","","","","","","","74","J","1","","","46","main_expt"
"","bandit","126","506897","0.0-87.0-0.0","88529839","wem/bandit_either_2","A126BDE73YE05F","either","4","12","","","","","","","1","0","0","0.2330399618","","0.2","0.8","0.4","0.6","","","","","0.3462276735","0.2330399618","0.3169549043","0.09013225529","","","","","","","","74","J","1","","","47","main_expt"
"","bandit","127","508783","0.0-88.0-0.0","88529839","wem/bandit_either_2","A126BDE73YE05F","either","4","332","","","","","","","0","0","1","0.2769685944","","0.2","0.8","0.4","0.6","","","","","0.3501405617","0.2769685944","0.3137179834","0.1066227192","","","","","","","","74","J","1","","","48","main_expt"
"","bandit","128","510646","0.0-89.0-0.0","88529839","wem/bandit_either_2","A126BDE73YE05F","either","4","314","","","","","","","0","0","1","0.2954986192","","0.2","0.8","0.4","0.6","","","","","0.3607669766","0.2954986192","0.3026837323","0.1273062614","","","","","","","","74","J","1","","","49","main_expt"
"","bandit","129","512334","0.0-90.0-0.0","88529839","wem/bandit_either_2","A126BDE73YE05F","either","4","120","","","","","","","0","0","1","0.08158159543","","0.2","0.8","0.4","0.6","","","","","0.3776327681","0.2730110453","0.2690248343","0.08158159543","","","","","","","","76","L","3","","","50","main_expt"
"","bandit","130","514060","0.0-91.0-0.0","88529839","wem/bandit_either_2","A126BDE73YE05F","either","4","155","","","","","","","0","0","1","","0.2407215714","0.2","0.8","0.4","0.6","0.3922012959","0.2672659715","0.2407215714","0.08035098666","","","","","","","","","","","","75","K","2","","","51","main_expt"
"","bandit","131","516711","0.0-92.0-0.0","88529839","wem/bandit_either_2","A126BDE73YE05F","either","4","1096","","","","","","","0","1","0","","0.3532085343","0.2","0.8","0.4","0.6","0.3532085343","0.2552972095","0.2758158767","0.1007468434","","","","","","","","","","","","72","H","0","img/none_selected.jpg","","52","main_expt"
"","bandit","132","518858","0.0-93.0-0.0","88529839","wem/bandit_either_2","A126BDE73YE05F","either","4","574","","","","","","","0","0","1","","0.3597378762","0.2","0.8","0.4","0.6","0.3597378762","0.1954439593","0.2661511239","0.1479770317","","","","","","","","","","","","72","H","0","img/none_selected.jpg","","53","main_expt"
"","bandit","133","522235","0.0-94.0-0.0","88529839","wem/bandit_either_2","A126BDE73YE05F","either","4","1766","","","","","","","1","0","0","0.3553644404","","0.2","0.8","0.4","0.6","","","","","0.3553644404","0.1250298759","0.250303373","0.1450389045","","","","","","","","72","H","0","img/none_selected.jpg","","54","main_expt"
"","bandit","134","524145","0.0-95.0-0.0","88529839","wem/bandit_either_2","A126BDE73YE05F","either","4","318","","","","","","","0","0","1","","0.3427354451","0.2","0.8","0.4","0.6","0.3427354451","0.1224949652","0.1850572083","0.1678096349","","","","","","","","","","","","72","H","0","img/none_selected.jpg","","55","main_expt"
"","bandit","135","525962","0.0-96.0-0.0","88529839","wem/bandit_either_2","A126BDE73YE05F","either","4","195","","","","","","","0","0","1","","0.3158877586","0.2","0.8","0.4","0.6","0.3158877586","0.1312048923","0.2410157884","0.1748395718","","","","","","","","","","","","72","H","0","img/none_selected.jpg","","56","main_expt"
"","bandit","136","528335","0.0-97.0-0.0","88529839","wem/bandit_either_2","A126BDE73YE05F","either","4","797","","","","","","","0","0","1","","0.2657224069","0.2","0.8","0.4","0.6","0.3224611445","0.14452077","0.2657224069","0.146986137","","","","","","","","","","","","75","K","2","","","57","main_expt"
"","bandit","137","530215","0.0-98.0-0.0","88529839","wem/bandit_either_2","A126BDE73YE05F","either","4","297","","","","","","","0","0","1","0.1198415177","","0.2","0.8","0.4","0.6","","","","","0.3378672788","0.1198415177","0.2361308133","0.1316135006","","","","","","","","74","J","1","","","58","main_expt"
"","bandit","138","532622","0.0-99.0-0.0","88529839","wem/bandit_either_2","A126BDE73YE05F","either","4","812","","","","","","","0","0","1","","0.1776120447","0.2","0.8","0.4","0.6","0.3438075972","0.1674914914","0.2078360154","0.1776120447","","","","","","","","","","","","76","L","3","","","59","main_expt"
"","bandit","139","534499","0.0-100.0-0.0","88529839","wem/bandit_either_2","A126BDE73YE05F","either","4","294","","","","","","","0","0","1","","0.2256957235","0.2","0.8","0.4","0.6","0.2950987239","0.147959707","0.2256957235","0.2034864675","","","","","","","","","","","","75","K","2","","","60","main_expt"
"","bandit","140","536397","0.0-101.0-0.0","88529839","wem/bandit_either_2","A126BDE73YE05F","either","4","300","","","","","","","1","0","0","0.1217284172","","0.2","0.8","0.4","0.6","","","","","0.2939622289","0.1217284172","0.2713547376","0.1325668513","","","","","","","","74","J","1","","","61","main_expt"
"","bandit","141","538344","0.0-102.0-0.0","88529839","wem/bandit_either_2","A126BDE73YE05F","either","4","364","","","","","","","0","0","1","0.1392905859","","0.2","0.8","0.4","0.6","","","","","0.2907096119","0.1392905859","0.2800078023","0.125492747","","","","","","","","74","J","1","","","62","main_expt"
"","bandit","142","540182","0.0-103.0-0.0","88529839","wem/bandit_either_2","A126BDE73YE05F","either","4","257","","","","","","","0","1","0","","0.1953314019","0.2","0.8","0.4","0.6","0.2696382907","0.1953314019","0.362183352","0.1081989139","","","","","","","","","","","","74","J","1","","","63","main_expt"
"","bandit","143","541993","0.0-104.0-0.0","88529839","wem/bandit_either_2","A126BDE73YE05F","either","4","255","","","","","","","0","0","1","0.2618523415","","0.2","0.8","0.4","0.6","","","","","0.2496415039","0.2618523415","0.3354395381","0.09104284411","","","","","","","","74","J","1","","","64","main_expt"
"","bandit","144","543808","0.0-105.0-0.0","88529839","wem/bandit_either_2","A126BDE73YE05F","either","4","228","","","","","","","0","0","1","0.2686672798","","0.2","0.8","0.4","0.6","","","","","0.2364994079","0.2686672798","0.2893845237","0.1264903162","","","","","","","","74","J","1","","","65","main_expt"
"","bandit","145","545880","0.0-106.0-0.0","88529839","wem/bandit_either_2","A126BDE73YE05F","either","4","477","","","","","","","0","0","1","","0.2541683514","0.2","0.8","0.4","0.6","0.2541683514","0.2451656397","0.2355717356","0.1665937301","","","","","","","","","","","","72","H","0","img/none_selected.jpg","","66","main_expt"
"","bandit","146","548038","0.0-107.0-0.0","88529839","wem/bandit_either_2","A126BDE73YE05F","either","4","580","","","","","","","1","0","0","0.2848755716","","0.2","0.8","0.4","0.6","","","","","0.2985471382","0.2445320338","0.2848755716","0.1740025863","","","","","","","","75","K","2","","","67","main_expt"
"","bandit","147","550176","0.0-108.0-0.0","88529839","wem/bandit_either_2","A126BDE73YE05F","either","4","571","","","","","","","1","0","0","0.3341158043","","0.2","0.8","0.4","0.6","","","","","0.3391290389","0.2261158315","0.3341158043","0.2300011382","","","","","","","","75","K","2","","","68","main_expt"
"","bandit","148","551811","0.0-109.0-0.0","88529839","wem/bandit_either_2","A126BDE73YE05F","either","4","59","","","","","","","0","0","1","0.3253412689","","0.2","0.8","0.4","0.6","","","","","0.3114764975","0.1627286519","0.3253412689","0.1768594062","","","","","","","","75","K","2","","","69","main_expt"
"","bandit","149","554511","0.0-110.0-0.0","88529839","wem/bandit_either_2","A126BDE73YE05F","either","4","1161","","","","","","","1","0","0","0.3280915152","","0.2","0.8","0.4","0.6","","","","","0.3056328376","0.1301009224","0.3280915152","0.1906145184","","","","","","","","75","K","2","","","70","main_expt"
"","bandit","150","556660","0.0-111.0-0.0","88529839","wem/bandit_either_2","A126BDE73YE05F","either","4","557","","","","","","","0","0","1","","0.3772643828","0.2","0.8","0.4","0.6","0.3445325487","0.1356707761","0.3772643828","0.1451664327","","","","","","","","","","","","75","K","2","","","71","main_expt"
"","bandit","151","558858","0.0-112.0-0.0","88529839","wem/bandit_either_2","A126BDE73YE05F","either","4","613","","","","","","","0","0","1","","0.4074174212","0.2","0.8","0.4","0.6","0.364612409","0.1045412551","0.4074174212","0.1091447996","","","","","","","","","","","","75","K","2","","","72","main_expt"
"","bandit","152","560713","0.0-113.0-0.0","88529839","wem/bandit_either_2","A126BDE73YE05F","either","4","277","","","","","","","0","0","1","0.1248737042","","0.2","0.8","0.4","0.6","","","","","0.4454774056","0.0867882282","0.3736299767","0.1248737042","","","","","","","","76","L","3","","","73","main_expt"
"","bandit","153","562403","0.0-114.0-0.0","88529839","wem/bandit_either_2","A126BDE73YE05F","either","4","120","","","","","","","0","0","1","","0.4492830973","0.2","0.8","0.4","0.6","0.4492830973","0.1018359722","0.383211712","0.1073746888","","","","","","","","","","","","72","H","0","img/none_selected.jpg","","74","main_expt"
"","bandit","154","564730","0.0-115.0-0.0","88529839","wem/bandit_either_2","A126BDE73YE05F","either","4","769","","","","","","","0","0","1","0.09443707336","","0.2","0.8","0.4","0.6","","","","","0.449321966","0.09443707336","0.3681962321","0.1051395745","","","","","","","","74","J","1","","","75","main_expt"
"","bandit","155","566675","0.0-116.0-0.0","88529839","wem/bandit_either_2","A126BDE73YE05F","either","4","379","","","","","","","0","1","0","","0.4299726132","0.2","0.8","0.4","0.6","0.4299726132","0.08768691443","0.3574328021","0.09171451076","","","","","","","","","","","","72","H","0","img/none_selected.jpg","","76","main_expt"
"","bandit","156","568635","0.0-117.0-0.0","88529839","wem/bandit_either_2","A126BDE73YE05F","either","4","398","","","","","","","0","1","0","","0.4349340462","0.2","0.8","0.4","0.6","0.4349340462","0.07744448812","0.4041720962","0.1256070833","","","","","","","","","","","","72","H","0","img/none_selected.jpg","","77","main_expt"
"","bandit","157","570582","0.0-118.0-0.0","88529839","wem/bandit_either_2","A126BDE73YE05F","either","4","371","","","","","","","0","0","1","","0.4112950215","0.2","0.8","0.4","0.6","0.4112950215","0.05712631425","0.4000946746","0.1398604905","","","","","","","","","","","","72","H","0","img/none_selected.jpg","","78","main_expt"
"","bandit","158","572449","0.0-119.0-0.0","88529839","wem/bandit_either_2","A126BDE73YE05F","either","4","289","","","","","","","0","1","0","","0.4123046053","0.2","0.8","0.4","0.6","0.4123046053","0.03981704588","0.425248604","0.1303191282","","","","","","","","","","","","72","H","0","img/none_selected.jpg","","79","main_expt"
"","bandit","159","574354","0.0-120.0-0.0","88529839","wem/bandit_either_2","A126BDE73YE05F","either","4","309","","","","","","","0","1","0","","0.4345430878","0.2","0.8","0.4","0.6","0.4345430878","0.02961196177","0.4263383456","0.1491340647","","","","","","","","","","","","72","H","0","img/none_selected.jpg","","80","main_expt"
"","bandit","160","576245","0.0-121.0-0.0","88529839","wem/bandit_either_2","A126BDE73YE05F","either","4","304","","","","","","","0","0","1","","0.4255274095","0.2","0.8","0.4","0.6","0.4255274095","0.0408206899","0.4377411966","0.1484119081","","","","","","","","","","","","72","H","0","img/none_selected.jpg","","81","main_expt"
"","bandit","161","578516","0.0-122.0-0.0","88529839","wem/bandit_either_2","A126BDE73YE05F","either","4","704","","","","","","","0","0","1","0.135460029","","0.2","0.8","0.4","0.6","","","","","0.4266934287","0.03491361241","0.4263216968","0.135460029","","","","","","","","76","L","3","","","82","main_expt"
"","bandit","162","580367","0.0-123.0-0.0","88529839","wem/bandit_either_2","A126BDE73YE05F","either","4","282","","","","","","","0","0","1","","0.4536492548","0.2","0.8","0.4","0.6","0.4321646522","0.01881925386","0.4536492548","0.09497461961","","","","","","","","","","","","75","K","2","","","83","main_expt"
"","bandit","163","581919","0.0-124.0-0.0","88529839","wem/bandit_either_2","A126BDE73YE05F","either","4","1","","","","","","","0","0","1","","0.0956585677","0.2","0.8","0.4","0.6","0.43129245","0.03441768066","0.4344769981","0.0956585677","","","","","","","","","","","","76","L","3","","","84","main_expt"
"","bandit","164","583901","0.0-125.0-0.0","88529839","wem/bandit_either_2","A126BDE73YE05F","either","4","431","","","","","","","0","0","1","0.04015732792","","0.2","0.8","0.4","0.6","","","","","0.4307495417","0.04015732792","0.4167097255","0.08427930603","","","","","","","","74","J","1","","","85","main_expt"
"","bandit","165","585861","0.0-126.0-0.0","88529839","wem/bandit_either_2","A126BDE73YE05F","either","4","381","","","","","","","0","0","1","","0.09540141202","0.2","0.8","0.4","0.6","0.4327415212","0.0462821445","0.4215971904","0.09540141202","","","","","","","","","","","","76","L","3","","","86","main_expt"
"","bandit","166","587953","0.0-127.0-0.0","88529839","wem/bandit_either_2","A126BDE73YE05F","either","4","476","","","","","","","0","1","0","","0.4507305815","0.2","0.8","0.4","0.6","0.4507305815","0.07236867375","0.3962725568","0.06504543429","","","","","","","","","","","","72","H","0","img/none_selected.jpg","","87","main_expt"
"","bandit","167","589756","0.0-128.0-0.0","88529839","wem/bandit_either_2","A126BDE73YE05F","either","4","209","","","","","","","0","0","1","0.4571393315","","0.2","0.8","0.4","0.6","","","","","0.4571393315","0.1132918069","0.4038430626","0.05894337134","","","","","","","","72","H","0","img/none_selected.jpg","","88","main_expt"
"","bandit","168","592346","0.0-129.0-0.0","88529839","wem/bandit_either_2","A126BDE73YE05F","either","4","1003","","","","","","","1","0","0","0.4639779763","","0.2","0.8","0.4","0.6","","","","","0.4639779763","0.1466354559","0.4247877058","0.06803635399","","","","","","","","72","H","0","img/none_selected.jpg","","89","main_expt"
"","bandit","169","594278","0.0-130.0-0.0","88529839","wem/bandit_either_2","A126BDE73YE05F","either","4","354","","","","","","","0","0","1","","0.4620017245","0.2","0.8","0.4","0.6","0.4620017245","0.1746819083","0.4196700557","0.09657856289","","","","","","","","","","","","72","H","0","img/none_selected.jpg","","90","main_expt"
"","bandit","170","595927","0.0-131.0-0.0","88529839","wem/bandit_either_2","A126BDE73YE05F","either","4","33","","","","","","","1","0","0","0.4492963398","","0.2","0.8","0.4","0.6","","","","","0.4492963398","0.1864657318","0.401758082","0.08522031428","","","","","","","","72","H","0","img/none_selected.jpg","","91","main_expt"
"","bandit","171","597783","0.0-132.0-0.0","88529839","wem/bandit_either_2","A126BDE73YE05F","either","4","260","","","","","","","0","1","0","","0.462009279","0.2","0.8","0.4","0.6","0.462009279","0.2124622091","0.3422099147","0.07078380504","","","","","","","","","","","","72","H","0","img/none_selected.jpg","","92","main_expt"
"","bandit","172","599644","0.0-133.0-0.0","88529839","wem/bandit_either_2","A126BDE73YE05F","either","4","278","","","","","","","0","0","1","0.4363090379","","0.2","0.8","0.4","0.6","","","","","0.4363090379","0.245786276","0.3279059742","0.0564278809","","","","","","","","72","H","0","img/none_selected.jpg","","93","main_expt"
"","bandit","173","601510","0.0-134.0-0.0","88529839","wem/bandit_either_2","A126BDE73YE05F","either","4","275","","","","","","","0","1","0","","0.4457519602","0.2","0.8","0.4","0.6","0.4457519602","0.2316759231","0.3155724737","0.06067733924","","","","","","","","","","","","72","H","0","img/none_selected.jpg","","94","main_expt"
"","bandit","174","603436","0.0-135.0-0.0","88529839","wem/bandit_either_2","A126BDE73YE05F","either","4","329","","","","","","","0","0","1","","0.4231248902","0.2","0.8","0.4","0.6","0.4231248902","0.2231756969","0.3519625041","0.08632751489","","","","","","","","","","","","72","H","0","img/none_selected.jpg","","95","main_expt"
"","bandit","175","605207","0.0-136.0-0.0","88529839","wem/bandit_either_2","A126BDE73YE05F","either","4","182","","","","","","","0","0","1","","0.4210676831","0.2","0.8","0.4","0.6","0.4210676831","0.1957128212","0.3661455107","0.08481729553","","","","","","","","","","","","72","H","0","img/none_selected.jpg","","96","main_expt"
"","bandit","176","606844","0.0-137.0-0.0","88529839","wem/bandit_either_2","A126BDE73YE05F","either","4","49","","","","","","","0","0","1","","0.08386440452","0.2","0.8","0.4","0.6","0.4022895305","0.1638116915","0.3558031673","0.08386440452","","","","","","","","","","","","76","L","3","","","97","main_expt"
"","bandit","177","608492","0.0-138.0-0.0","88529839","wem/bandit_either_2","A126BDE73YE05F","either","4","68","","","","","","","0","1","0","","0.3558230887","0.2","0.8","0.4","0.6","0.4187351015","0.1405816365","0.3558230887","0.0940701929","","","","","","","","","","","","75","K","2","","","98","main_expt"
"","bandit","178","610361","0.0-139.0-0.0","88529839","wem/bandit_either_2","A126BDE73YE05F","either","4","273","","","","","","","0","0","1","","0.3064708089","0.2","0.8","0.4","0.6","0.3981340028","0.1435678602","0.3064708089","0.1285058524","","","","","","","","","","","","75","K","2","","","99","main_expt"
"","bandit","179","612529","0.0-140.0-0.0","88529839","wem/bandit_either_2","A126BDE73YE05F","either","4","575","","","","","","","1","0","0","0.352498313","","0.2","0.8","0.4","0.6","","","","","0.3520446815","0.1478754355","0.352498313","0.065882019","","","","","","","","75","K","2","","","100","main_expt"
"","bandit","180","614460","0.0-141.0-0.0","88529839","wem/bandit_either_2","A126BDE73YE05F","either","4","339","","","","","","","1","0","0","0.3511810171","","0.2","0.8","0.4","0.6","","","","","0.3715523215","0.1532559328","0.3511810171","0.05692140794","","","","","","","","75","K","2","","","101","main_expt"
"","bandit","181","616713","0.0-142.0-0.0","88529839","wem/bandit_either_2","A126BDE73YE05F","either","4","674","","","","","","","0","0","1","","0.3246867477","0.2","0.8","0.4","0.6","0.3966955113","0.15857411","0.3246867477","0.04322280369","","","","","","","","","","","","75","K","2","","","102","main_expt"
"","bandit","182","618657","0.0-143.0-0.0","88529839","wem/bandit_either_2","A126BDE73YE05F","either","4","360","","","","","","","0","0","1","","0.2827689756","0.2","0.8","0.4","0.6","0.3865714765","0.1552377357","0.2827689756","0.05121437093","","","","","","","","","","","","75","K","2","","","103","main_expt"
"","bandit","183","620376","0.0-144.0-0.0","88529839","wem/bandit_either_2","A126BDE73YE05F","either","4","161","","","","","","","0","0","1","0.1584193753","","0.2","0.8","0.4","0.6","","","","","0.3440646931","0.1584193753","0.3307995119","0.06548077564","","","","","","","","74","J","1","","","104","main_expt"
"","bandit","184","622558","0.0-145.0-0.0","88529839","wem/bandit_either_2","A126BDE73YE05F","either","4","614","","","","","","","0","0","1","0.192058402","","0.2","0.8","0.4","0.6","","","","","0.330981063","0.192058402","0.3078297571","0.07577357845","","","","","","","","74","J","1","","","105","main_expt"
"","bandit","185","624662","0.0-146.0-0.0","88529839","wem/bandit_either_2","A126BDE73YE05F","either","4","527","","","","","","","0","0","1","","0.09041352565","0.2","0.8","0.4","0.6","0.3317280627","0.1562344916","0.3202685942","0.09041352565","","","","","","","","","","","","76","L","3","","","106","main_expt"
"","bandit","186","626599","0.0-147.0-0.0","88529839","wem/bandit_either_2","A126BDE73YE05F","either","4","355","","","","","","","0","0","1","","0.2760665195","0.2","0.8","0.4","0.6","0.2760665195","0.1493116313","0.3163418234","0.1184921167","","","","","","","","","","","","72","H","0","img/none_selected.jpg","","107","main_expt"
"","bandit","187","628485","0.0-148.0-0.0","88529839","wem/bandit_either_2","A126BDE73YE05F","either","4","289","","","","","","","0","0","1","0.1057615429","","0.2","0.8","0.4","0.6","","","","","0.2826301941","0.1357435498","0.3425943818","0.1057615429","","","","","","","","76","L","3","","","108","main_expt"
"","bandit","188","630400","0.0-149.0-0.0","88529839","wem/bandit_either_2","A126BDE73YE05F","either","4","314","","","","","","","1","0","0","0.2852030557","","0.2","0.8","0.4","0.6","","","","","0.318117281","0.1164074326","0.2852030557","0.1464484126","","","","","","","","75","K","2","","","109","main_expt"
"","bandit","189","632166","0.0-150.0-0.0","88529839","wem/bandit_either_2","A126BDE73YE05F","either","4","192","","","","","","","0","0","1","","0.3392406975","0.2","0.8","0.4","0.6","0.3358587519","0.1444451916","0.3392406975","0.1641354829","","","","","","","","","","","","75","K","2","","","110","main_expt"
"","bandit","190","633732","0.0-151.0-0.0","88529839","wem/bandit_either_2","A126BDE73YE05F","either","4","1","","","","","","","0","0","1","","0.3023411017","0.2","0.8","0.4","0.6","0.3031660534","0.09905323685","0.3023411017","0.1386891192","","","","","","","","","","","","75","K","2","","","111","main_expt"
"","bandit","191","635524","0.0-152.0-0.0","88529839","wem/bandit_either_2","A126BDE73YE05F","either","4","220","","","","","","","0","0","1","0.09652445584","","0.2","0.8","0.4","0.6","","","","","0.2773548355","0.09652445584","0.296849772","0.1847512065","","","","","","","","74","J","1","","","112","main_expt"
"","bandit","192","637111","0.0-153.0-0.0","88529839","wem/bandit_either_2","A126BDE73YE05F","either","4","1","","","","","","","0","1","0","","0.2370758425","0.2","0.8","0.4","0.6","0.2370758425","0.09961189632","0.2673419259","0.1304555333","","","","","","","","","","","","72","H","0","img/none_selected.jpg","","113","main_expt"
"","bandit","193","638920","0.0-154.0-0.0","88529839","wem/bandit_either_2","A126BDE73YE05F","either","4","239","","","","","","","0","0","1","","0.1821928837","0.2","0.8","0.4","0.6","0.1821928837","0.1036139638","0.2670531803","0.1770102637","","","","","","","","","","","","72","H","0","img/none_selected.jpg","","114","main_expt"
"","bandit","194","641288","0.0-155.0-0.0","88529839","wem/bandit_either_2","A126BDE73YE05F","either","4","796","","","","","","","0","0","1","","0.1315453283","0.2","0.8","0.4","0.6","0.1315453283","0.0968506792","0.2825009356","0.1564651975","","","","","","","","","","","","72","H","0","img/none_selected.jpg","","115","main_expt"
"","bandit","195","643739","0.0-156.0-0.0","88529839","wem/bandit_either_2","A126BDE73YE05F","either","4","870","","","","","","","0","0","1","0.3237719372","","0.2","0.8","0.4","0.6","","","","","0.1102777544","0.08782875681","0.3237719372","0.1665702367","","","","","","","","75","K","2","","","116","main_expt"
"","bandit","196","645788","0.0-157.0-0.0","88529839","wem/bandit_either_2","A126BDE73YE05F","either","4","494","","","","","","","0","0","1","0.06031800864","","0.2","0.8","0.4","0.6","","","","","0.1101610351","0.06031800864","0.3154846423","0.1530687496","","","","","","","","74","J","1","","","117","main_expt"
"","bandit","197","647690","0.0-158.0-0.0","88529839","wem/bandit_either_2","A126BDE73YE05F","either","4","321","","","","","","","0","0","1","","0.1674206906","0.2","0.8","0.4","0.6","0.122460482","0.05633053331","0.2584508078","0.1674206906","","","","","","","","","","","","76","L","3","","","118","main_expt"
"","bandit","198","649570","0.0-159.0-0.0","88529839","wem/bandit_either_2","A126BDE73YE05F","either","4","324","","","","","","","0","0","1","","0.2141905193","0.2","0.8","0.4","0.6","0.1451868924","0.07530514027","0.2141905193","0.1990215448","","","","","","","","","","","","75","K","2","","","119","main_expt"
"","bandit","199","651653","0.0-160.0-0.0","88529839","wem/bandit_either_2","A126BDE73YE05F","either","4","532","","","","","","","0","0","1","","0.09092593383","0.2","0.8","0.4","0.6","0.09092593383","0.09639595661","0.2341954374","0.2208640619","","","","","","","","","","","","72","H","0","img/none_selected.jpg","","120","main_expt"
"","bandit","200","653563","0.0-161.0-0.0","88529839","wem/bandit_either_2","A126BDE73YE05F","either","4","287","","","","","","","0","1","0","","0.1080456108","0.2","0.8","0.4","0.6","0.1080456108","0.1421799471","0.1886372651","0.2602917539","","","","","","","","","","","","72","H","0","img/none_selected.jpg","","121","main_expt"
"","bandit","201","655458","0.0-162.0-0.0","88529839","wem/bandit_either_2","A126BDE73YE05F","either","4","317","","","","","","","0","1","0","","0.1169053248","0.2","0.8","0.4","0.6","0.1169053248","0.1624760489","0.1597592322","0.2512498235","","","","","","","","","","","","72","H","0","img/none_selected.jpg","","122","main_expt"
"","bandit","202","657632","0.0-163.0-0.0","88529839","wem/bandit_either_2","A126BDE73YE05F","either","4","553","","","","","","","0","0","1","0.1571594809","","0.2","0.8","0.4","0.6","","","","","0.1571594809","0.1640214383","0.1895266442","0.2266242761","","","","","","","","72","H","0","img/none_selected.jpg","","123","main_expt"
"","bandit","203","659632","0.0-164.0-0.0","88529839","wem/bandit_either_2","A126BDE73YE05F","either","4","376","","","","","","","0","1","0","","0.2231804049","0.2","0.8","0.4","0.6","0.2231804049","0.2014340991","0.2042850732","0.2373824638","","","","","","","","","","","","72","H","0","img/none_selected.jpg","","124","main_expt"
"","bandit","204","661497","0.0-165.0-0.0","88529839","wem/bandit_either_2","A126BDE73YE05F","either","4","280","","","","","","","0","0","1","","0.2232794356","0.2","0.8","0.4","0.6","0.2232794356","0.2229229076","0.1812515389","0.2538727107","","","","","","","","","","","","72","H","0","img/none_selected.jpg","","125","main_expt"
"","bandit","205","663227","0.0-166.0-0.0","88529839","wem/bandit_either_2","A126BDE73YE05F","either","4","119","","","","","","","0","0","1","","0.2316903634","0.2","0.8","0.4","0.6","0.2316903634","0.2324712723","0.1694736183","0.290219491","","","","","","","","","","","","72","H","0","img/none_selected.jpg","","126","main_expt"
"","bandit","206","665105","0.0-167.0-0.0","88529839","wem/bandit_either_2","A126BDE73YE05F","either","4","295","","","","","","","1","0","0","0.2542505169","","0.2","0.8","0.4","0.6","","","","","0.2337524142","0.2628391623","0.1624528765","0.2542505169","","","","","","","","76","L","3","","","127","main_expt"
"","bandit","207","667225","0.0-168.0-0.0","88529839","wem/bandit_either_2","A126BDE73YE05F","either","4","536","","","","","","","0","0","1","","0.2582316027","0.2","0.8","0.4","0.6","0.2198210178","0.2654356302","0.1632982916","0.2582316027","","","","","","","","","","","","76","L","3","","","128","main_expt"
"","bandit","208","669493","0.0-169.0-0.0","88529839","wem/bandit_either_2","A126BDE73YE05F","either","4","671","","","","","","","0","0","1","0.3267566011","","0.2","0.8","0.4","0.6","","","","","0.2280168395","0.2070569149","0.2264598068","0.3267566011","","","","","","","","76","L","3","","","129","main_expt"
"","bandit","209","671485","0.0-170.0-0.0","88529839","wem/bandit_either_2","A126BDE73YE05F","either","4","387","","","","","","","0","0","1","","0.3323271388","0.2","0.8","0.4","0.6","0.243895296","0.2579182239","0.202760285","0.3323271388","","","","","","","","","","","","76","L","3","","","130","main_expt"
"","bandit","210","673398","0.0-171.0-0.0","88529839","wem/bandit_either_2","A126BDE73YE05F","either","4","333","","","","","","","0","0","1","0.1585094705","","0.2","0.8","0.4","0.6","","","","","0.2164454501","0.2329110821","0.1585094705","0.2666668646","","","","","","","","75","K","2","","","131","main_expt"
"","bandit","211","675234","0.0-172.0-0.0","88529839","wem/bandit_either_2","A126BDE73YE05F","either","4","257","","","","","","","0","0","1","0.2400232435","","0.2","0.8","0.4","0.6","","","","","0.200468731","0.2400232435","0.1304261544","0.2359119393","","","","","","","","74","J","1","","","132","main_expt"
"","bandit","212","677455","0.0-173.0-0.0","88529839","wem/bandit_either_2","A126BDE73YE05F","either","4","657","","","","","","","0","0","1","0.2038597077","","0.2","0.8","0.4","0.6","","","","","0.2038597077","0.2084798617","0.09339990826","0.2540740643","","","","","","","","72","H","0","img/none_selected.jpg","","133","main_expt"
"","bandit","213","679162","0.0-174.0-0.0","88529839","wem/bandit_either_2","A126BDE73YE05F","either","4","143","","","","","","","0","0","1","","0.2263269307","0.2","0.8","0.4","0.6","0.2263269307","0.2034544","0.08524612959","0.2414927735","","","","","","","","","","","","72","H","0","img/none_selected.jpg","","134","main_expt"
"","bandit","214","680869","0.0-175.0-0.0","88529839","wem/bandit_either_2","A126BDE73YE05F","either","4","118","","","","","","","0","0","1","","0.2632369982","0.2","0.8","0.4","0.6","0.2686469146","0.2088958693","0.0622033461","0.2632369982","","","","","","","","","","","","76","L","3","","","135","main_expt"
"","bandit","215","682874","0.0-176.0-0.0","88529839","wem/bandit_either_2","A126BDE73YE05F","either","4","402","","","","","","","0","1","0","","0.05632890875","0.2","0.8","0.4","0.6","0.3170393738","0.2573758916","0.05632890875","0.3032623762","","","","","","","","","","","","75","K","2","","","136","main_expt"
"","bandit","216","684607","0.0-177.0-0.0","88529839","wem/bandit_either_2","A126BDE73YE05F","either","4","161","","","","","","","0","0","1","0.06052980877","","0.2","0.8","0.4","0.6","","","","","0.338962466","0.2467438462","0.06052980877","0.2984046037","","","","","","","","75","K","2","","","137","main_expt"
"","bandit","217","686588","0.0-178.0-0.0","88529839","wem/bandit_either_2","A126BDE73YE05F","either","4","410","","","","","","","0","0","1","0.1038497792","","0.2","0.8","0.4","0.6","","","","","0.3586643031","0.2221944767","0.1038497792","0.3110629865","","","","","","","","75","K","2","","","138","main_expt"
"","bandit","218","688444","0.0-179.0-0.0","88529839","wem/bandit_either_2","A126BDE73YE05F","either","4","275","","","","","","","0","0","1","0.3048373826","","0.2","0.8","0.4","0.6","","","","","0.3430902759","0.2750517365","0.08561062373","0.3048373826","","","","","","","","76","L","3","","","139","main_expt"
"","bandit","219","690099","0.0-180.0-0.0","88529839","wem/bandit_either_2","A126BDE73YE05F","either","4","55","","","","","","","0","1","0","","0.3777112835","0.2","0.8","0.4","0.6","0.3777112835","0.277474309","0.08025295029","0.3163642845","","","","","","","","","","","","72","H","0","img/none_selected.jpg","","140","main_expt"
"","bandit","220","692007","0.0-181.0-0.0","88529839","wem/bandit_either_2","A126BDE73YE05F","either","4","321","","","","","","","0","0","1","","0.4276051364","0.2","0.8","0.4","0.6","0.4276051364","0.2932007391","0.09309891757","0.2213861514","","","","","","","","","","","","72","H","0","img/none_selected.jpg","","141","main_expt"
"","bandit","221","693841","0.0-182.0-0.0","88529839","wem/bandit_either_2","A126BDE73YE05F","either","4","244","","","","","","","0","0","1","0.4312347149","","0.2","0.8","0.4","0.6","","","","","0.4312347149","0.3001807938","0.1107976638","0.2492613222","","","","","","","","72","H","0","img/none_selected.jpg","","142","main_expt"
"","bandit","222","695796","0.0-183.0-0.0","88529839","wem/bandit_either_2","A126BDE73YE05F","either","4","364","","","","","","","1","0","0","0.3640878437","","0.2","0.8","0.4","0.6","","","","","0.386657586","0.3640878437","0.09575525052","0.2645663874","","","","","","","","74","J","1","","","143","main_expt"
"","bandit","223","697652","0.0-184.0-0.0","88529839","wem/bandit_either_2","A126BDE73YE05F","either","4","272","","","","","","","0","0","1","0.2706796495","","0.2","0.8","0.4","0.6","","","","","0.3409851627","0.2706796495","0.07222794989","0.2928215939","","","","","","","","74","J","1","","","144","main_expt"
"","bandit","224","699216","0.0-185.0-0.0","88529839","wem/bandit_either_2","A126BDE73YE05F","either","4","0","","","","","","","0","0","1","0.2359726437","","0.2","0.8","0.4","0.6","","","","","0.3538709708","0.2359726437","0.03203798906","0.3178979655","","","","","","","","74","J","1","","","145","main_expt"
"","bandit","225","701092","0.0-186.0-0.0","88529839","wem/bandit_either_2","A126BDE73YE05F","either","4","291","","","","","","","0","0","1","","0.2850957273","0.2","0.8","0.4","0.6","0.2745956728","0.2200332621","0.03073079809","0.2850957273","","","","","","","","","","","","76","L","3","","","146","main_expt"
"","bandit","226","702933","0.0-187.0-0.0","88529839","wem/bandit_either_2","A126BDE73YE05F","either","4","248","","","","","","","0","0","1","0.05105424151","","0.2","0.8","0.4","0.6","","","","","0.2375793476","0.1957794229","0.05105424151","0.2483519338","","","","","","","","75","K","2","","","147","main_expt"
"","bandit","227","704587","0.0-188.0-0.0","88529839","wem/bandit_either_2","A126BDE73YE05F","either","4","90","","","","","","","0","0","1","","0.2954602587","0.2","0.8","0.4","0.6","0.2954602587","0.1790722045","0.04045355104","0.2309770791","","","","","","","","","","","","72","H","0","img/none_selected.jpg","","148","main_expt"
"","bandit","228","706393","0.0-189.0-0.0","88529839","wem/bandit_either_2","A126BDE73YE05F","either","4","232","","","","","","","0","0","1","","0.06416506337","0.2","0.8","0.4","0.6","0.3435099865","0.2189150546","0.06416506337","0.1759049641","","","","","","","","","","","","75","K","2","","","149","main_expt"
"","bandit","229","708154","0.0-190.0-0.0","88529839","wem/bandit_either_2","A126BDE73YE05F","either","4","175","","","","","","","0","0","1","0.1910702346","","0.2","0.8","0.4","0.6","","","","","0.268900415","0.2119229637","0.07819388902","0.1910702346","","","","","","","","76","L","3","","","150","main_expt"
"","bandit","230","710098","0.0-191.0-0.0","88529839","wem/bandit_either_2","A126BDE73YE05F","either","4","370","","","","","","","0","1","0","","0.1799178466","0.2","0.8","0.4","0.6","0.2326488896","0.2472398003","0.1186979887","0.1799178466","","","","","","","","","","","","76","L","3","","","151","main_expt"
"","bandit","231","711989","0.0-192.0-0.0","88529839","wem/bandit_either_2","A126BDE73YE05F","either","4","324","","","","","","","0","0","1","","0.1826140084","0.2","0.8","0.4","0.6","0.2768057641","0.2148428051","0.1084773402","0.1826140084","","","","","","","","","","","","76","L","3","","","152","main_expt"
"","bandit","232","714437","0.0-193.0-0.0","88529839","wem/bandit_either_2","A126BDE73YE05F","either","4","841","","","","","","","0","0","1","","0.147924298","0.2","0.8","0.4","0.6","0.2997660112","0.1598057249","0.1314289417","0.147924298","","","","","","","","","","","","76","L","3","","","153","main_expt"
"","bandit","233","716552","0.0-194.0-0.0","88529839","wem/bandit_either_2","A126BDE73YE05F","either","4","558","","","","","","","0","0","1","0.1489099923","","0.2","0.8","0.4","0.6","","","","","0.3196464983","0.1489099923","0.1354051011","0.1388357139","","","","","","","","74","J","1","","","154","main_expt"
"","bandit","234","718442","0.0-195.0-0.0","88529839","wem/bandit_either_2","A126BDE73YE05F","either","4","314","","","","","","","0","1","0","","0.3141654429","0.2","0.8","0.4","0.6","0.3141654429","0.1502541116","0.1085215933","0.1658398244","","","","","","","","","","","","72","H","0","img/none_selected.jpg","","155","main_expt"
"","bandit","235","720387","0.0-196.0-0.0","88529839","wem/bandit_either_2","A126BDE73YE05F","either","4","366","","","","","","","1","0","0","0.2667217688","","0.2","0.8","0.4","0.6","","","","","0.2667217688","0.1605084188","0.1383379057","0.1104921729","","","","","","","","72","H","0","img/none_selected.jpg","","156","main_expt"
"","bandit","236","721972","0.0-197.0-0.0","88529839","wem/bandit_either_2","A126BDE73YE05F","either","4","1","","","","","","","0","0","1","0.2867075714","","0.2","0.8","0.4","0.6","","","","","0.2867075714","0.1684101418","0.1428990181","0.09530810267","","","","","","","","72","H","0","img/none_selected.jpg","","157","main_expt"
"","bandit","237","723907","0.0-198.0-0.0","88529839","wem/bandit_either_2","A126BDE73YE05F","either","4","371","","","","","","","0","0","1","0.07455979893","","0.2","0.8","0.4","0.6","","","","","0.2788639118","0.1807688322","0.07455979893","0.1211627972","","","","","","","","75","K","2","","","158","main_expt"
"","bandit","238","725710","0.0-199.0-0.0","88529839","wem/bandit_either_2","A126BDE73YE05F","either","4","254","","","","","","","0","0","1","","0.3020710819","0.2","0.8","0.4","0.6","0.3020710819","0.1516426412","0.1009372764","0.1012897464","","","","","","","","","","","","72","H","0","img/none_selected.jpg","","159","main_expt"
"","bandit","239","727990","0.0-200.0-0.0","88529839","wem/bandit_either_2","A126BDE73YE05F","either","4","693","","","","","","","0","0","1","","0.3404227007","0.2","0.8","0.4","0.6","0.3404227007","0.1638698877","0.05118862797","0.1188035868","","","","","","","","","","","","72","H","0","img/none_selected.jpg","","160","main_expt"
"","bandit","240","730188","0.0-201.0-0.0","88529839","wem/bandit_either_2","A126BDE73YE05F","either","4","584","","","","","","","0","0","1","0.1645359983","","0.2","0.8","0.4","0.6","","","","","0.2876249865","0.1645359983","0.05265847637","0.1606836622","","","","","","","","74","J","1","","","161","main_expt"
"","bandit","241","732051","0.0-202.0-0.0","88529839","wem/bandit_either_2","A126BDE73YE05F","either","4","273","","","","","","","0","0","1","","0.1859884171","0.2","0.8","0.4","0.6","0.2401308511","0.2509918509","0.07938684611","0.1859884171","","","","","","","","","","","","76","L","3","","","162","main_expt"
"","bandit","242","733979","0.0-203.0-0.0","88529839","wem/bandit_either_2","A126BDE73YE05F","either","4","341","","","","","","","0","0","1","","0.0970900163","0.2","0.8","0.4","0.6","0.2486605046","0.1883685458","0.0970900163","0.2528258464","","","","","","","","","","","","75","K","2","","","163","main_expt"
"","bandit","243","735905","0.0-204.0-0.0","88529839","wem/bandit_either_2","A126BDE73YE05F","either","4","331","","","","","","","0","0","1","","0.2515292425","0.2","0.8","0.4","0.6","0.22675384","0.2179532334","0.07401968201","0.2515292425","","","","","","","","","","","","76","L","3","","","164","main_expt"
"","bandit","244","737737","0.0-205.0-0.0","88529839","wem/bandit_either_2","A126BDE73YE05F","either","4","233","","","","","","","0","0","1","0.2068970429","","0.2","0.8","0.4","0.6","","","","","0.2841151948","0.2143704678","0.06633104104","0.2068970429","","","","","","","","76","L","3","","","165","main_expt"
"","bandit","245","739681","0.0-206.0-0.0","88529839","wem/bandit_either_2","A126BDE73YE05F","either","4","277","","","","","","","0","1","0","","0.2842980464","0.2","0.8","0.4","0.6","0.2842980464","0.2175899085","0.05309652092","0.1413778631","","","","","","","","","","","","72","H","0","img/none_selected.jpg","","166","main_expt"
"","bandit","246","742022","0.0-207.0-0.0","88529839","wem/bandit_either_2","A126BDE73YE05F","either","4","729","","","","","","","1","0","0","0.3007590714","","0.2","0.8","0.4","0.6","","","","","0.3007590714","0.2137120923","0.07357446968","0.1999497975","","","","","","","","72","H","0","img/none_selected.jpg","","167","main_expt"
"","bandit","247","744117","0.0-208.0-0.0","88529839","wem/bandit_either_2","A126BDE73YE05F","either","4","512","","","","","","","0","0","1","","0.2884936601","0.2","0.8","0.4","0.6","0.2884936601","0.2331560811","0.1054325378","0.1696145944","","","","","","","","","","","","72","H","0","img/none_selected.jpg","","168","main_expt"
"","bandit","248","746057","0.0-209.0-0.0","88529839","wem/bandit_either_2","A126BDE73YE05F","either","4","348","","","","","","","1","0","0","0.2803439438","","0.2","0.8","0.4","0.6","","","","","0.2803439438","0.2367963754","0.08536867429","0.1338518967","","","","","","","","72","H","0","img/none_selected.jpg","","169","main_expt"
"","bandit","249","747985","0.0-210.0-0.0","88529839","wem/bandit_either_2","A126BDE73YE05F","either","4","321","","","","","","","1","0","0","0.3010437192","","0.2","0.8","0.4","0.6","","","","","0.3010437192","0.2378050175","0.1083432756","0.1307598277","","","","","","","","72","H","0","img/none_selected.jpg","","170","main_expt"
"","bandit","250","749889","0.0-211.0-0.0","88529839","wem/bandit_either_2","A126BDE73YE05F","either","4","316","","","","","","","0","0","1","","0.3243802095","0.2","0.8","0.4","0.6","0.3243802095","0.2253696972","0.09185370626","0.1200375331","","","","","","","","","","","","72","H","0","img/none_selected.jpg","","171","main_expt"
"","bandit","251","751871","0.0-212.0-0.0","88529839","wem/bandit_either_2","A126BDE73YE05F","either","4","402","","","","","","","0","1","0","","0.3140094691","0.2","0.8","0.4","0.6","0.3140094691","0.2903394368","0.09458096772","0.07514546963","","","","","","","","","","","","72","H","0","img/none_selected.jpg","","172","main_expt"
"","bandit","252","753937","0.0-213.0-0.0","88529839","wem/bandit_either_2","A126BDE73YE05F","either","4","487","","","","","","","1","0","0","0.2433770114","","0.2","0.8","0.4","0.6","","","","","0.2433770114","0.2384828248","0.1016296913","0.07704486673","","","","","","","","72","H","0","img/none_selected.jpg","","173","main_expt"
"","bandit","253","756023","0.0-214.0-0.0","88529839","wem/bandit_either_2","A126BDE73YE05F","either","4","519","","","","","","","0","0","1","0.2080779891","","0.2","0.8","0.4","0.6","","","","","0.2080779891","0.2823111034","0.117107939","0.04061738922","","","","","","","","72","H","0","img/none_selected.jpg","","174","main_expt"
"","bandit","254","758018","0.0-215.0-0.0","88529839","wem/bandit_either_2","A126BDE73YE05F","either","4","395","","","","","","","0","0","1","","0.2211365803","0.2","0.8","0.4","0.6","0.2211365803","0.292147578","0.1254773658","0.02968316822","","","","","","","","","","","","72","H","0","img/none_selected.jpg","","175","main_expt"
"","bandit","255","759838","0.0-216.0-0.0","88529839","wem/bandit_either_2","A126BDE73YE05F","either","4","250","","","","","","","0","1","0","","0.2928295457","0.2","0.8","0.4","0.6","0.231280906","0.2928295457","0.1518856622","0.04419366322","","","","","","","","","","","","74","J","1","","","176","main_expt"
"","bandit","256","761802","0.0-217.0-0.0","88529839","wem/bandit_either_2","A126BDE73YE05F","either","4","332","","","","","","","0","0","1","0.297241693","","0.2","0.8","0.4","0.6","","","","","0.1689881391","0.297241693","0.1502483312","0.04140429262","","","","","","","","74","J","1","","","177","main_expt"
"","bandit","257","763407","0.0-218.0-0.0","88529839","wem/bandit_either_2","A126BDE73YE05F","either","4","1","","","","","","","0","0","1","0.276241128","","0.2","0.8","0.4","0.6","","","","","0.1699404395","0.276241128","0.2073149786","0.06103489621","","","","","","","","74","J","1","","","178","main_expt"
"","bandit","258","765387","0.0-219.0-0.0","88529839","wem/bandit_either_2","A126BDE73YE05F","either","4","373","","","","","","","0","0","1","","0.1928578162","0.2","0.8","0.4","0.6","0.1571972967","0.2405339857","0.1928578162","0.053608248","","","","","","","","","","","","75","K","2","","","179","main_expt"
"","bandit","259","767268","0.0-220.0-0.0","88529839","wem/bandit_either_2","A126BDE73YE05F","either","4","277","","","","","","","0","0","1","0.06289379635","","0.2","0.8","0.4","0.6","","","","","0.1567782565","0.233428307","0.1412953234","0.06289379635","","","","","","","","76","L","3","","","180","main_expt"
"","bandit","260","768988","0.0-221.0-0.0","88529839","wem/bandit_either_2","A126BDE73YE05F","either","4","128","","","","","","","0","0","1","","0.07748386732","0.2","0.8","0.4","0.6","0.1492691696","0.1459310114","0.1258774719","0.07748386732","","","","","","","","","","","","76","L","3","","","181","main_expt"
"","bandit","261","770751","0.0-222.0-0.0","88529839","wem/bandit_either_2","A126BDE73YE05F","either","4","145","","","","","","","0","0","1","","0.1609613705","0.2","0.8","0.4","0.6","0.1609613705","0.1796360657","0.1121960069","0.096714051","","","","","","","","","","","","72","H","0","img/none_selected.jpg","","182","main_expt"
"","bandit","262","772698","0.0-223.0-0.0","88529839","wem/bandit_either_2","A126BDE73YE05F","either","4","339","","","","","","","0","0","1","","0.08335286121","0.2","0.8","0.4","0.6","0.1982891881","0.1907874973","0.08335286121","0.05351369794","","","","","","","","","","","","75","K","2","","","183","main_expt"
"","bandit","263","774454","0.0-224.0-0.0","88529839","wem/bandit_either_2","A126BDE73YE05F","either","4","162","","","","","","","0","0","1","0.08854511538","","0.2","0.8","0.4","0.6","","","","","0.1703318442","0.1451627339","0.1085923678","0.08854511538","","","","","","","","76","L","3","","","184","main_expt"
"","bandit","264","776138","0.0-225.0-0.0","88529839","wem/bandit_either_2","A126BDE73YE05F","either","4","96","","","","","","","0","0","1","","0.136385666","0.2","0.8","0.4","0.6","0.09566746086","0.1692531577","0.1113654269","0.136385666","","","","","","","","","","","","76","L","3","","","185","main_expt"
"","bandit","265","778020","0.0-226.0-0.0","88529839","wem/bandit_either_2","A126BDE73YE05F","either","4","298","","","","","","","0","0","1","0.1885113298","","0.2","0.8","0.4","0.6","","","","","0.1254261761","0.1885113298","0.1383531569","0.1848043888","","","","","","","","74","J","1","","","186","main_expt"
"","bandit","266","779917","0.0-227.0-0.0","88529839","wem/bandit_either_2","A126BDE73YE05F","either","4","291","","","","","","","0","0","1","","0.1081798115","0.2","0.8","0.4","0.6","0.1081798115","0.2088125345","0.1739713275","0.1640989128","","","","","","","","","","","","72","H","0","img/none_selected.jpg","","187","main_expt"
"","bandit","267","781784","0.0-228.0-0.0","88529839","wem/bandit_either_2","A126BDE73YE05F","either","4","276","","","","","","","0","0","1","","0.1926366302","0.2","0.8","0.4","0.6","0.08529062399","0.2228369986","0.1926366302","0.1301402021","","","","","","","","","","","","75","K","2","","","188","main_expt"
"","bandit","268","783789","0.0-229.0-0.0","88529839","wem/bandit_either_2","A126BDE73YE05F","either","4","410","","","","","","","0","0","1","0.1980942663","","0.2","0.8","0.4","0.6","","","","","0.07250281893","0.2567428292","0.2499935398","0.1980942663","","","","","","","","76","L","3","","","189","main_expt"
"","bandit","269","785515","0.0-230.0-0.0","88529839","wem/bandit_either_2","A126BDE73YE05F","either","4","127","","","","","","","0","0","1","","0.1842725295","0.2","0.8","0.4","0.6","0.07895395147","0.3177850294","0.2367317824","0.1842725295","","","","","","","","","","","","76","L","3","","","190","main_expt"
"","bandit","270","787391","0.0-231.0-0.0","88529839","wem/bandit_either_2","A126BDE73YE05F","either","4","268","","","","","","","1","0","0","0.2876912335","","0.2","0.8","0.4","0.6","","","","","0.06204701637","0.2876912335","0.2515026666","0.2087081259","","","","","","","","74","J","1","","","191","main_expt"
"","bandit","271","789363","0.0-232.0-0.0","88529839","wem/bandit_either_2","A126BDE73YE05F","either","4","372","","","","","","","0","0","1","","0.2383873749","0.2","0.8","0.4","0.6","0.064067899","0.2383873749","0.2451916405","0.1800110976","","","","","","","","","","","","74","J","1","","","192","main_expt"
"","bandit","272","791251","0.0-233.0-0.0","88529839","wem/bandit_either_2","A126BDE73YE05F","either","4","292","","","","","","","0","0","1","","0.1286650472","0.2","0.8","0.4","0.6","0.1286650472","0.24690957","0.2353451433","0.1519186298","","","","","","","","","","","","72","H","0","img/none_selected.jpg","","193","main_expt"
"","bandit","273","793121","0.0-234.0-0.0","88529839","wem/bandit_either_2","A126BDE73YE05F","either","4","279","","","","","","","0","0","1","0.2728455101","","0.2","0.8","0.4","0.6","","","","","0.1746490116","0.2728455101","0.307075739","0.1431656489","","","","","","","","74","J","1","","","194","main_expt"
"","bandit","274","794713","0.0-235.0-0.0","88529839","wem/bandit_either_2","A126BDE73YE05F","either","4","0","","","","","","","0","0","1","0.3011001907","","0.2","0.8","0.4","0.6","","","","","0.129035247","0.2421292151","0.3011001907","0.1868251083","","","","","","","","75","K","2","","","195","main_expt"
"","bandit","275","796368","0.0-236.0-0.0","88529839","wem/bandit_either_2","A126BDE73YE05F","either","4","79","","","","","","","0","0","1","0.176624335","","0.2","0.8","0.4","0.6","","","","","0.09052040682","0.2598052724","0.2861216794","0.176624335","","","","","","","","76","L","3","","","196","main_expt"
"","bandit","276","798290","0.0-237.0-0.0","88529839","wem/bandit_either_2","A126BDE73YE05F","either","4","327","","","","","","","0","0","1","","0.08675464884","0.2","0.8","0.4","0.6","0.08675464884","0.2540930088","0.2121549007","0.2383323772","","","","","","","","","","","","72","H","0","img/none_selected.jpg","","197","main_expt"
"","bandit","277","805829","0.0-238.0-0.0","88529839","wem/bandit_either_2","A126BDE73YE05F","either","4","5927","","","","","","","0","0","1","0.2460150375","","0.2","0.8","0.4","0.6","","","","","0.09429549835","0.2460150375","0.260340052","0.260618614","","","","","","","","74","J","1","","","198","main_expt"
"","bandit","278","807416","0.0-239.0-0.0","88529839","wem/bandit_either_2","A126BDE73YE05F","either","4","1","","","","","","","0","0","1","0.3009562829","","0.2","0.8","0.4","0.6","","","","","0.09303778716","0.2217343644","0.3009562829","0.2935067364","","","","","","","","75","K","2","","","199","main_expt"
"","bandit","279","809228","0.0-240.0-0.0","88529839","wem/bandit_either_2","A126BDE73YE05F","either","4","208","","","","","","","0","1","0","","0.362920627","0.2","0.8","0.4","0.6","0.07354084322","0.2830302048","0.3430896668","0.362920627","","","","","","","","","","","","76","L","3","","","200","main_expt"
"","bandit","280","810839","0.0-241.0-0.0","88529839","wem/bandit_either_2","A126BDE73YE05F","either","4","13","","","","","","","0","0","1","0.3119044903","","0.2","0.8","0.4","0.6","","","","","0.08115367452","0.3175621279","0.2973668079","0.3119044903","","","","","","","","76","L","3","","","201","main_expt"
"","bandit","281","813206","0.0-242.0-0.0","88529839","wem/bandit_either_2","A126BDE73YE05F","either","4","742","","","","","","","0","0","1","","0.3095695708","0.2","0.8","0.4","0.6","0.0774842685","0.3049471546","0.3219337599","0.3095695708","","","","","","","","","","","","76","L","3","","","202","main_expt"
"","bandit","282","815214","0.0-243.0-0.0","88529839","wem/bandit_either_2","A126BDE73YE05F","either","4","395","","","","","","","0","0","1","0.3005459379","","0.2","0.8","0.4","0.6","","","","","0.09704724367","0.2975042969","0.3229991028","0.3005459379","","","","","","","","76","L","3","","","203","main_expt"
"","bandit","283","816896","0.0-244.0-0.0","88529839","wem/bandit_either_2","A126BDE73YE05F","either","4","53","","","","","","","0","0","1","","0.1224111047","0.2","0.8","0.4","0.6","0.1224111047","0.2268457719","0.3077995671","0.3116824409","","","","","","","","","","","","72","H","0","img/none_selected.jpg","","204","main_expt"
"","bandit","284","818736","0.0-245.0-0.0","88529839","wem/bandit_either_2","A126BDE73YE05F","either","4","252","","","","","","","0","0","1","","0.3070199156","0.2","0.8","0.4","0.6","0.1627664319","0.2582085449","0.3070199156","0.3291635812","","","","","","","","","","","","75","K","2","","","205","main_expt"
"","bandit","285","820348","0.0-246.0-0.0","88529839","wem/bandit_either_2","A126BDE73YE05F","either","4","1","","","","","","","0","1","0","","0.1604236747","0.2","0.8","0.4","0.6","0.1604236747","0.2841247045","0.3109683939","0.4008790519","","","","","","","","","","","","72","H","0","img/none_selected.jpg","","206","main_expt"
"","bandit","286","822314","0.0-247.0-0.0","88529839","wem/bandit_either_2","A126BDE73YE05F","either","4","361","","","","","","","0","0","1","0.126388554","","0.2","0.8","0.4","0.6","","","","","0.126388554","0.3333225396","0.2845075958","0.4202180382","","","","","","","","72","H","0","img/none_selected.jpg","","207","main_expt"
"","bandit","287","824254","0.0-248.0-0.0","88529839","wem/bandit_either_2","A126BDE73YE05F","either","4","316","","","","","","","0","0","1","","0.1602309633","0.2","0.8","0.4","0.6","0.1602309633","0.290219871","0.2419557814","0.4168586074","","","","","","","","","","","","72","H","0","img/none_selected.jpg","","208","main_expt"
"","bandit","288","826140","0.0-249.0-0.0","88529839","wem/bandit_either_2","A126BDE73YE05F","either","4","288","","","","","","","0","0","1","","0.2009997365","0.2","0.8","0.4","0.6","0.2009997365","0.3426384504","0.2449545816","0.3949328033","","","","","","","","","","","","72","H","0","img/none_selected.jpg","","209","main_expt"
"","bandit","289","827999","0.0-250.0-0.0","88529839","wem/bandit_either_2","A126BDE73YE05F","either","4","281","","","","","","","0","0","1","","0.2932754766","0.2","0.8","0.4","0.6","0.1997114924","0.2932754766","0.2176860071","0.41782505","","","","","","","","","","","","74","J","1","","","210","main_expt"
"","bandit","290","829594","0.0-251.0-0.0","88529839","wem/bandit_either_2","A126BDE73YE05F","either","4","1","","","","","","","0","0","1","","0.4377941382","0.2","0.8","0.4","0.6","0.2631807131","0.2522206247","0.2460847292","0.4377941382","","","","","","","","","","","","76","L","3","","","211","main_expt"
"","bandit","291","831892","0.0-252.0-0.0","88529839","wem/bandit_either_2","A126BDE73YE05F","either","4","697","","","","","","","0","0","1","0.2017704833","","0.2","0.8","0.4","0.6","","","","","0.2008991105","0.2323705111","0.2017704833","0.4619006446","","","","","","","","75","K","2","","","212","main_expt"
"","bandit","292","833607","0.0-253.0-0.0","88529839","wem/bandit_either_2","A126BDE73YE05F","either","4","116","","","","","","","0","0","1","0.1656487101","","0.2","0.8","0.4","0.6","","","","","0.1656487101","0.2815580385","0.1891715169","0.4508737721","","","","","","","","72","H","0","img/none_selected.jpg","","213","main_expt"
"","bandit","293","835551","0.0-254.0-0.0","88529839","wem/bandit_either_2","A126BDE73YE05F","either","4","263","","","","","","","0","0","1","0.2955812139","","0.2","0.8","0.4","0.6","","","","","0.213788386","0.2955812139","0.1819308411","0.4639731149","","","","","","","","74","J","1","","","214","main_expt"
"","bandit","294","837789","0.0-255.0-0.0","88529839","wem/bandit_either_2","A126BDE73YE05F","either","4","650","","","","","","","0","0","1","0.2206736926","","0.2","0.8","0.4","0.6","","","","","0.2206736926","0.2988647484","0.1406935411","0.4690757113","","","","","","","","72","H","0","img/none_selected.jpg","","215","main_expt"
"","bandit","295","839890","0.0-256.0-0.0","88529839","wem/bandit_either_2","A126BDE73YE05F","either","4","501","","","","","","","0","1","0","","0.4685680314","0.2","0.8","0.4","0.6","0.2270120675","0.3361974059","0.206739756","0.4685680314","","","","","","","","","","","","76","L","3","","","216","main_expt"
"","bandit","296","841815","0.0-257.0-0.0","88529839","wem/bandit_either_2","A126BDE73YE05F","either","4","330","","","","","","","0","0","1","","0.4873952874","0.2","0.8","0.4","0.6","0.2561581829","0.2764506131","0.178624692","0.4873952874","","","","","","","","","","","","76","L","3","","","217","main_expt"
"","bandit","297","843763","0.0-258.0-0.0","88529839","wem/bandit_either_2","A126BDE73YE05F","either","4","343","","","","","","","1","0","0","0.4790671899","","0.2","0.8","0.4","0.6","","","","","0.2785758431","0.299893698","0.2021641755","0.4790671899","","","","","","","","76","L","3","","","218","main_expt"
"","bandit","298","845702","0.0-259.0-0.0","88529839","wem/bandit_either_2","A126BDE73YE05F","either","4","336","","","","","","","1","0","0","0.4769795117","","0.2","0.8","0.4","0.6","","","","","0.2707863597","0.3213687962","0.2076996705","0.4769795117","","","","","","","","76","L","3","","","219","main_expt"
"","bandit","299","847681","0.0-260.0-0.0","88529839","wem/bandit_either_2","A126BDE73YE05F","either","4","385","","","","","","","0","0","1","","0.4746148145","0.2","0.8","0.4","0.6","0.2262269101","0.3782095139","0.2479045362","0.4746148145","","","","","","","","","","","","76","L","3","","","220","main_expt"
"","bandit","300","849575","0.0-261.0-0.0","88529839","wem/bandit_either_2","A126BDE73YE05F","either","4","312","","","","","","","0","1","0","","0.4789253058","0.2","0.8","0.4","0.6","0.2522421151","0.3572699546","0.251163546","0.4789253058","","","","","","","","","","","","76","L","3","","","221","main_expt"
"","bandit","301","851498","0.0-262.0-0.0","88529839","wem/bandit_either_2","A126BDE73YE05F","either","4","326","","","","","","","0","0","1","0.4765400837","","0.2","0.8","0.4","0.6","","","","","0.2323100388","0.332217079","0.2653622565","0.4765400837","","","","","","","","76","L","3","","","222","main_expt"
"","bandit","302","853620","0.0-263.0-0.0","88529839","wem/bandit_either_2","A126BDE73YE05F","either","4","529","","","","","","","1","0","0","0.4872993944","","0.2","0.8","0.4","0.6","","","","","0.2013525365","0.3327789551","0.2034578964","0.4872993944","","","","","","","","76","L","3","","","223","main_expt"
"","bandit","303","855832","0.0-264.0-0.0","88529839","wem/bandit_either_2","A126BDE73YE05F","either","4","626","","","","","","","0","0","1","0.4864577786","","0.2","0.8","0.4","0.6","","","","","0.2017363432","0.3720138676","0.1176985371","0.4864577786","","","","","","","","76","L","3","","","224","main_expt"
"","bandit","304","857809","0.0-265.0-0.0","88529839","wem/bandit_either_2","A126BDE73YE05F","either","4","361","","","","","","","0","0","1","0.4815865163","","0.2","0.8","0.4","0.6","","","","","0.1608447522","0.4035982493","0.08531446518","0.4815865163","","","","","","","","76","L","3","","","225","main_expt"
"","bandit","305","859398","0.0-266.0-0.0","88529839","wem/bandit_either_2","A126BDE73YE05F","either","4","1","","","","","","","0","0","1","0.0901010045","","0.2","0.8","0.4","0.6","","","","","0.2023183299","0.3538577565","0.0901010045","0.4781941344","","","","","","","","75","K","2","","","226","main_expt"
"","bandit","306","861076","0.0-267.0-0.0","88529839","wem/bandit_either_2","A126BDE73YE05F","either","4","93","","","","","","","0","0","1","","0.1555458008","0.2","0.8","0.4","0.6","0.1555458008","0.4205879778","0.06499555022","0.4742279627","","","","","","","","","","","","72","H","0","img/none_selected.jpg","","227","main_expt"
"","bandit","307","862993","0.0-268.0-0.0","88529839","wem/bandit_either_2","A126BDE73YE05F","either","4","344","","","","","","","0","0","1","0.1210896773","","0.2","0.8","0.4","0.6","","","","","0.1210896773","0.4082381823","0.06967502077","0.4597327255","","","","","","","","72","H","0","img/none_selected.jpg","","228","main_expt"
"","bandit","308","865029","0.0-269.0-0.0","88529839","wem/bandit_either_2","A126BDE73YE05F","either","4","439","","","","","","","0","0","1","","0.4274963613","0.2","0.8","0.4","0.6","0.1206830913","0.4274963613","0.07642173418","0.4733003713","","","","","","","","","","","","74","J","1","","","229","main_expt"
"","bandit","309","866926","0.0-270.0-0.0","88529839","wem/bandit_either_2","A126BDE73YE05F","either","4","314","","","","","","","0","1","0","","0.4362488765","0.2","0.8","0.4","0.6","0.1334008039","0.4362488765","0.04973788902","0.4832022084","","","","","","","","","","","","74","J","1","","","230","main_expt"
"","bandit","310","868916","0.0-271.0-0.0","88529839","wem/bandit_either_2","A126BDE73YE05F","either","4","374","","","","","","","0","0","1","0.4420629534","","0.2","0.8","0.4","0.6","","","","","0.1048467088","0.4420629534","0.07419495466","0.4802630573","","","","","","","","74","J","1","","","231","main_expt"
"","bandit","311","870848","0.0-272.0-0.0","88529839","wem/bandit_either_2","A126BDE73YE05F","either","4","360","","","","","","","1","0","0","0.4287414635","","0.2","0.8","0.4","0.6","","","","","0.1184002818","0.4287414635","0.08125260149","0.4739318499","","","","","","","","74","J","1","","","232","main_expt"
"","bandit","312","872831","0.0-273.0-0.0","88529839","wem/bandit_either_2","A126BDE73YE05F","either","4","337","","","","","","","1","0","0","0.4395511981","","0.2","0.8","0.4","0.6","","","","","0.08533064469","0.4395511981","0.06057073796","0.4709765286","","","","","","","","74","J","1","","","233","main_expt"
"","bandit","313","875040","0.0-274.0-0.0","88529839","wem/bandit_either_2","A126BDE73YE05F","either","4","407","","","","","","","0","0","1","0.4479240545","","0.2","0.8","0.4","0.6","","","","","0.1190123434","0.4479240545","0.1037411708","0.4658145356","","","","","","","","74","J","1","","","234","main_expt"
"","bandit","314","877022","0.0-275.0-0.0","88529839","wem/bandit_either_2","A126BDE73YE05F","either","4","363","","","","","","","0","0","1","0.4476644646","","0.2","0.8","0.4","0.6","","","","","0.1392024459","0.4476644646","0.1267441937","0.4312508187","","","","","","","","74","J","1","","","235","main_expt"
"","bandit","315","878977","0.0-276.0-0.0","88529839","wem/bandit_either_2","A126BDE73YE05F","either","4","370","","","","","","","0","0","1","","0.1002206095","0.2","0.8","0.4","0.6","0.1076242464","0.457106966","0.1002206095","0.4323277229","","","","","","","","","","","","75","K","2","","","236","main_expt"
"","bandit","316","880832","0.0-277.0-0.0","88529839","wem/bandit_either_2","A126BDE73YE05F","either","4","251","","","","","","","0","0","1","","0.08353940566","0.2","0.8","0.4","0.6","0.1539911713","0.4097288684","0.08353940566","0.4517679415","","","","","","","","","","","","75","K","2","","","237","main_expt"
"","bandit","317","882739","0.0-278.0-0.0","88529839","wem/bandit_either_2","A126BDE73YE05F","either","4","285","","","","","","","0","0","1","","0.1833253983","0.2","0.8","0.4","0.6","0.1833253983","0.4530646831","0.07847158511","0.4476427196","","","","","","","","","","","","72","H","0","img/none_selected.jpg","","238","main_expt"
"","bandit","318","884862","0.0-279.0-0.0","88529839","wem/bandit_either_2","A126BDE73YE05F","either","4","497","","","","","","","0","0","1","","0.185515968","0.2","0.8","0.4","0.6","0.185515968","0.4532148127","0.1132310855","0.4421551546","","","","","","","","","","","","72","H","0","img/none_selected.jpg","","239","main_expt"
"","bandit","319","886759","0.0-280.0-0.0","88529839","wem/bandit_either_2","A126BDE73YE05F","either","4","298","","","","","","","0","0","1","0.4205303603","","0.2","0.8","0.4","0.6","","","","","0.2545144829","0.4456906816","0.130249024","0.4205303603","","","","","","","","76","L","3","","","240","main_expt"
"","bandit","320","888753","0.0-281.0-0.0","88529839","wem/bandit_either_2","A126BDE73YE05F","either","4","378","","","","","","","0","0","1","0.4304808994","","0.2","0.8","0.4","0.6","","","","","0.1902236802","0.4515134246","0.1356270161","0.4304808994","","","","","","","","76","L","3","","","241","main_expt"
"","bandit","321","890681","0.0-282.0-0.0","88529839","wem/bandit_either_2","A126BDE73YE05F","either","4","332","","","","","","","0","0","1","","0.2196571485","0.2","0.8","0.4","0.6","0.2196571485","0.4640222466","0.1402569013","0.4318168925","","","","","","","","","","","","72","H","0","img/none_selected.jpg","","242","main_expt"
"","bandit","322","892361","0.0-283.0-0.0","88529839","wem/bandit_either_2","A126BDE73YE05F","either","4","72","","","","","","","0","1","0","","0.2691755858","0.2","0.8","0.4","0.6","0.2691755858","0.4305348251","0.1851652895","0.4437639365","","","","","","","","","","","","72","H","0","img/none_selected.jpg","","243","main_expt"
"","bandit","323","894267","0.0-284.0-0.0","88529839","wem/bandit_either_2","A126BDE73YE05F","either","4","304","","","","","","","0","0","1","","0.2689580194","0.2","0.8","0.4","0.6","0.2689580194","0.4444417595","0.1871667761","0.4444545885","","","","","","","","","","","","72","H","0","img/none_selected.jpg","","244","main_expt"
"","bandit","324","896195","0.0-285.0-0.0","88529839","wem/bandit_either_2","A126BDE73YE05F","either","4","329","","","","","","","0","0","1","0.1935089033","","0.2","0.8","0.4","0.6","","","","","0.1935089033","0.4468105605","0.1881322931","0.445216333","","","","","","","","72","H","0","img/none_selected.jpg","","245","main_expt"
