"consent","trial_type","trial_index","time_elapsed","internal_node_id","subjID","study","MID","cond","drift","rt","responses","key_press","expt_phase","like","value","connected","gems","bombs","no_reward","GemPrChosen","BombPrChosen","GainOverPainPr_0","GainOverPainPr_1","GainOverPainPr_2","GainOverPainPr_3","LosePr_0","LosePr_1","LosePr_2","LosePr_3","WinPr_0","WinPr_1","WinPr_2","WinPr_3","Q0","Q1","Q2","gender","age","ethnicity","target","respCharCode","respKey","respChoiceNum","respChoice","practice","trial_counter","trial_label"
"INL_behavioral_consent_30min_online.html","consent","0","9060","0.0-0.0","90064203","wem/bandit_either_2","A255A9FFZD8PQW","either","8","","","","","","","","","","","","","","","","","","","","","","","","","","","","","","","","","","","","","",""
"","survey-text","1","12393","0.0-1.0","90064203","wem/bandit_either_2","A255A9FFZD8PQW","either","8","2321","{""Q0"":""A255A9FFZD8PQW""}","","","","","","","","","","","","","","","","","","","","","","","","","","","","","","","","","","","",""
"","text","2","350049","0.0-2.0","90064203","wem/bandit_either_2","A255A9FFZD8PQW","either","8","336644","","32","","","","","","","","","","","","","","","","","","","","","","","","","","","","","","","","","","",""
"","text","3","355227","0.0-3.0","90064203","wem/bandit_either_2","A255A9FFZD8PQW","either","8","5174","","32","","","","","","","","","","","","","","","","","","","","","","","","","","","","","","","","","","",""
"","text","4","369106","0.0-4.0","90064203","wem/bandit_either_2","A255A9FFZD8PQW","either","8","13874","","32","","","","","","","","","","","","","","","","","","","","","","","","","","","","","","","","","","",""
"","text","5","376545","0.0-5.0","90064203","wem/bandit_either_2","A255A9FFZD8PQW","either","8","7435","","32","","","","","","","","","","","","","","","","","","","","","","","","","","","","","","","","","","",""
"","text","6","403360","0.0-6.0","90064203","wem/bandit_either_2","A255A9FFZD8PQW","either","8","26813","","32","","","","","","","","","","","","","","","","","","","","","","","","","","","","","","","","","","",""
"","text","7","412655","0.0-7.0","90064203","wem/bandit_either_2","A255A9FFZD8PQW","either","8","9293","","32","","","","","","","","","","","","","","","","","","","","","","","","","","","","","","","","","","",""
"","text","8","416098","0.0-8.0","90064203","wem/bandit_either_2","A255A9FFZD8PQW","either","8","3440","","32","","","","","","","","","","","","","","","","","","","","","","","","","","","","","","","","","","",""
"","identification","9","428860","0.0-9.0-0.0","90064203","wem/bandit_either_2","A255A9FFZD8PQW","either","8","12730","","","","4","4","4","","","","","","","","","","","","","","","","","","","","","","","","the village of Zur","","","","","","",""
"","identification","10","439077","0.0-9.0-1.0","90064203","wem/bandit_either_2","A255A9FFZD8PQW","either","8","9179","","","","0","0","0","","","","","","","","","","","","","","","","","","","","","","","","the village of Nyx","","","","","","",""
"","text","11","447353","0.0-10.0","90064203","wem/bandit_either_2","A255A9FFZD8PQW","either","8","7260","","32","","","","","","","","","","","","","","","","","","","","","","","","","","","","","","","","","","",""
"","text","12","449714","0.0-11.0","90064203","wem/bandit_either_2","A255A9FFZD8PQW","either","8","2358","","32","","","","","","","","","","","","","","","","","","","","","","","","","","","","","","","","","","",""
"","text","13","451297","0.0-12.0","90064203","wem/bandit_either_2","A255A9FFZD8PQW","either","8","1579","","32","","","","","","","","","","","","","","","","","","","","","","","","","","","","","","","","","","",""
"","text","14","455785","0.0-13.0","90064203","wem/bandit_either_2","A255A9FFZD8PQW","either","8","4485","","32","","","","","","","","","","","","","","","","","","","","","","","","","","","","","","","","","","",""
"","bandit","15","458831","0.0-14.0-0.0","90064203","wem/bandit_either_2","A255A9FFZD8PQW","either","8","1518","","","","","","","0","0","1","0","0","","","","","0","","","","0","","","","","","","","","","","74","J","0","img/none_selected_demo.jpg","true","0",""
"","bandit","16","461336","0.0-15.0-0.0","90064203","wem/bandit_either_2","A255A9FFZD8PQW","either","8","971","","","","","","","0","0","1","0","0","","","","","0","","","","0","","","","","","","","","","","75","K","0","img/none_selected_demo.jpg","true","0",""
"","text","17","464473","0.0-16.0","90064203","wem/bandit_either_2","A255A9FFZD8PQW","either","8","3133","","32","","","","","","","","","","","","","","","","","","","","","","","","","","","","","","","","","","",""
"","text","18","472818","0.0-17.0","90064203","wem/bandit_either_2","A255A9FFZD8PQW","either","8","8342","","32","","","","","","","","","","","","","","","","","","","","","","","","","","","","","","","","","","",""
"","text","19","476881","0.0-18.0","90064203","wem/bandit_either_2","A255A9FFZD8PQW","either","8","4059","","32","","","","","","","","","","","","","","","","","","","","","","","","","","","","","","","","","","",""
"","text","20","483681","0.0-19.0","90064203","wem/bandit_either_2","A255A9FFZD8PQW","either","8","6796","","32","","","","","","","","","","","","","","","","","","","","","","","","","","","","","","","","","","",""
"","bandit","21","486519","0.0-20.0-0.0","90064203","wem/bandit_either_2","A255A9FFZD8PQW","either","8","1298","","","","","","","1","0","0","0.8","","0.5","0.5","","","","","","","0.8","0.2","","","","","","","","","","74","J","0","img/none_selected_demo.jpg","true","0","80_20_practice"
"","bandit","22","488995","0.0-20.0-1.0","90064203","wem/bandit_either_2","A255A9FFZD8PQW","either","8","944","","","","","","","0","1","0","","0.8","0.5","0.5","","","0.8","0.2","","","","","","","","","","","","","","74","J","0","img/none_selected_demo.jpg","true","0","80_20_practice"
"","bandit","23","493890","0.0-20.0-2.0","90064203","wem/bandit_either_2","A255A9FFZD8PQW","either","8","3364","","","","","","","1","0","0","0.8","","0.5","0.5","","","","","","","0.8","0.2","","","","","","","","","","74","J","0","img/none_selected_demo.jpg","true","0","80_20_practice"
"","bandit","24","496972","0.0-20.0-3.0","90064203","wem/bandit_either_2","A255A9FFZD8PQW","either","8","1568","","","","","","","1","0","0","0.8","","0.5","0.5","","","","","","","0.8","0.2","","","","","","","","","","74","J","0","img/none_selected_demo.jpg","true","0","80_20_practice"
"","bandit","25","500078","0.0-20.0-4.0","90064203","wem/bandit_either_2","A255A9FFZD8PQW","either","8","1584","","","","","","","1","0","0","0.8","","0.5","0.5","","","","","","","0.8","0.2","","","","","","","","","","74","J","0","img/none_selected_demo.jpg","true","0","80_20_practice"
"","bandit","26","502563","0.0-20.0-5.0","90064203","wem/bandit_either_2","A255A9FFZD8PQW","either","8","947","","","","","","","0","1","0","","0.8","0.5","0.5","","","0.8","0.2","","","","","","","","","","","","","","74","J","0","img/none_selected_demo.jpg","true","0","80_20_practice"
"","bandit","27","504628","0.0-20.0-6.0","90064203","wem/bandit_either_2","A255A9FFZD8PQW","either","8","535","","","","","","","0","1","0","","0.8","0.5","0.5","","","0.8","0.2","","","","","","","","","","","","","","74","J","0","img/none_selected_demo.jpg","true","0","80_20_practice"
"","bandit","28","506945","0.0-20.0-7.0","90064203","wem/bandit_either_2","A255A9FFZD8PQW","either","8","719","","","","","","","0","1","0","","0.8","0.5","0.5","","","0.8","0.2","","","","","","","","","","","","","","74","J","0","img/none_selected_demo.jpg","true","0","80_20_practice"
"","bandit","29","508824","0.0-20.0-8.0","90064203","wem/bandit_either_2","A255A9FFZD8PQW","either","8","352","","","","","","","1","0","0","0.8","","0.5","0.5","","","","","","","0.8","0.2","","","","","","","","","","74","J","0","img/none_selected_demo.jpg","true","0","80_20_practice"
"","bandit","30","510954","0.0-20.0-9.0","90064203","wem/bandit_either_2","A255A9FFZD8PQW","either","8","611","","","","","","","0","0","1","0.2","","0.5","0.5","","","","","","","0.8","0.2","","","","","","","","","","75","K","1","","true","0","80_20_practice"
"","bandit","31","513312","0.0-20.0-10.0","90064203","wem/bandit_either_2","A255A9FFZD8PQW","either","8","791","","","","","","","0","0","1","0.2","","0.5","0.5","","","","","","","0.8","0.2","","","","","","","","","","75","K","1","","true","0","80_20_practice"
"","bandit","32","515357","0.0-20.0-11.0","90064203","wem/bandit_either_2","A255A9FFZD8PQW","either","8","523","","","","","","","0","0","1","","0.2","0.5","0.5","","","0.8","0.2","","","","","","","","","","","","","","75","K","1","","true","0","80_20_practice"
"","bandit","33","517368","0.0-20.0-12.0","90064203","wem/bandit_either_2","A255A9FFZD8PQW","either","8","501","","","","","","","0","1","0","","0.8","0.5","0.5","","","0.8","0.2","","","","","","","","","","","","","","74","J","0","img/none_selected_demo.jpg","true","0","80_20_practice"
"","bandit","34","520208","0.0-20.0-13.0","90064203","wem/bandit_either_2","A255A9FFZD8PQW","either","8","1332","","","","","","","0","0","1","0.2","","0.5","0.5","","","","","","","0.8","0.2","","","","","","","","","","75","K","1","","true","0","80_20_practice"
"","bandit","35","522544","0.0-20.0-14.0","90064203","wem/bandit_either_2","A255A9FFZD8PQW","either","8","535","","","","","","","0","1","0","","0.2","0.5","0.5","","","0.8","0.2","","","","","","","","","","","","","","75","K","1","","true","0","80_20_practice"
"","bandit","36","524479","0.0-20.0-15.0","90064203","wem/bandit_either_2","A255A9FFZD8PQW","either","8","428","","","","","","","0","0","1","","0.8","0.5","0.5","","","0.8","0.2","","","","","","","","","","","","","","74","J","0","img/none_selected_demo.jpg","true","0","80_20_practice"
"","bandit","37","526562","0.0-20.0-16.0","90064203","wem/bandit_either_2","A255A9FFZD8PQW","either","8","569","","","","","","","0","0","1","","0.2","0.5","0.5","","","0.8","0.2","","","","","","","","","","","","","","75","K","1","","true","0","80_20_practice"
"","bandit","38","528842","0.0-20.0-17.0","90064203","wem/bandit_either_2","A255A9FFZD8PQW","either","8","770","","","","","","","1","0","0","0.8","","0.5","0.5","","","","","","","0.8","0.2","","","","","","","","","","74","J","0","img/none_selected_demo.jpg","true","0","80_20_practice"
"","bandit","39","530732","0.0-20.0-18.0","90064203","wem/bandit_either_2","A255A9FFZD8PQW","either","8","375","","","","","","","1","0","0","0.8","","0.5","0.5","","","","","","","0.8","0.2","","","","","","","","","","74","J","0","img/none_selected_demo.jpg","true","0","80_20_practice"
"","bandit","40","532487","0.0-20.0-19.0","90064203","wem/bandit_either_2","A255A9FFZD8PQW","either","8","248","","","","","","","1","0","0","0.8","","0.5","0.5","","","","","","","0.8","0.2","","","","","","","","","","74","J","0","img/none_selected_demo.jpg","true","0","80_20_practice"
"","text","41","538234","0.0-21.0","90064203","wem/bandit_either_2","A255A9FFZD8PQW","either","8","5734","","32","","","","","","","","","","","","","","","","","","","","","","","","","","","","","","","","","","",""
"","bandit","42","540956","0.0-22.0-0.0","90064203","wem/bandit_either_2","A255A9FFZD8PQW","either","8","1208","","","","","","","1","0","0","1","0","","","","","0","1","","","1","0","","","","","","","","","","74","J","0","img/none_selected_demo.jpg","true","0",""
"","text","43","550586","0.0-23.0","90064203","wem/bandit_either_2","A255A9FFZD8PQW","either","8","9624","","32","","","","","","","","","","","","","","","","","","","","","","","","","","","","","","","","","","",""
"","text","44","553113","0.0-24.0","90064203","wem/bandit_either_2","A255A9FFZD8PQW","either","8","2523","","32","","","","","","","","","","","","","","","","","","","","","","","","","","","","","","","","","","",""
"","text","45","555568","0.0-25.0","90064203","wem/bandit_either_2","A255A9FFZD8PQW","either","8","2451","","32","","","","","","","","","","","","","","","","","","","","","","","","","","","","","","","","","","",""
"","text","46","558809","0.0-26.0","90064203","wem/bandit_either_2","A255A9FFZD8PQW","either","8","3236","","32","","","","","","","","","","","","","","","","","","","","","","","","","","","","","","","","","","",""
"","text","47","562706","0.0-27.0","90064203","wem/bandit_either_2","A255A9FFZD8PQW","either","8","3892","","32","","","","","","","","","","","","","","","","","","","","","","","","","","","","","","","","","","",""
"","text","48","564553","0.0-28.0","90064203","wem/bandit_either_2","A255A9FFZD8PQW","either","8","1842","","32","","","","","","","","","","","","","","","","","","","","","","","","","","","","","","","","","","",""
"","text","49","565967","0.0-29.0","90064203","wem/bandit_either_2","A255A9FFZD8PQW","either","8","1410","","32","","","","","","","","","","","","","","","","","","","","","","","","","","","","","","","","","","",""
"","text","50","566939","0.0-30.0","90064203","wem/bandit_either_2","A255A9FFZD8PQW","either","8","970","","32","","","","","","","","","","","","","","","","","","","","","","","","","","","","","","","","","","",""
"","text","51","570665","0.0-31.0","90064203","wem/bandit_either_2","A255A9FFZD8PQW","either","8","3723","","32","","","","","","","","","","","","","","","","","","","","","","","","","","","","","","","","","","",""
"","text","52","572545","0.0-32.0","90064203","wem/bandit_either_2","A255A9FFZD8PQW","either","8","1875","","32","","","","","","","","","","","","","","","","","","","","","","","","","","","","","","","","","","",""
"","text","53","574378","0.0-33.0","90064203","wem/bandit_either_2","A255A9FFZD8PQW","either","8","1825","","32","","","","","","","","","","","","","","","","","","","","","","","","","","","","","","","","","","",""
"","bandit","54","576975","0.0-34.0-0.0","90064203","wem/bandit_either_2","A255A9FFZD8PQW","either","8","1069","","","","","","","0","1","0","","0.6","0.5","0.5","0.5","0.5","0.8","0.2","0.6","0.2","","","","","","","","","","","","75","K","2","","true","0","full_practice"
"","bandit","55","579249","0.0-34.0-1.0","90064203","wem/bandit_either_2","A255A9FFZD8PQW","either","8","722","","","","","","","0","0","1","","0.2","0.5","0.5","0.5","0.5","0.8","0.2","0.6","0.2","","","","","","","","","","","","76","L","3","","true","0","full_practice"
"","bandit","56","581607","0.0-34.0-2.0","90064203","wem/bandit_either_2","A255A9FFZD8PQW","either","8","817","","","","","","","0","0","1","0.2","","0.5","0.5","0.5","0.5","","","","","0.8","0.2","0.6","0.2","","","","","","","","74","J","1","","true","0","full_practice"
"","bandit","57","583877","0.0-34.0-3.0","90064203","wem/bandit_either_2","A255A9FFZD8PQW","either","8","737","","","","","","","0","0","1","","0.8","0.5","0.5","0.5","0.5","0.8","0.2","0.6","0.2","","","","","","","","","","","","72","H","0","img/none_selected.jpg","true","0","full_practice"
"","bandit","58","586097","0.0-34.0-4.0","90064203","wem/bandit_either_2","A255A9FFZD8PQW","either","8","684","","","","","","","1","0","0","0.6","","0.5","0.5","0.5","0.5","","","","","0.8","0.2","0.6","0.2","","","","","","","","75","K","2","","true","0","full_practice"
"","bandit","59","587979","0.0-34.0-5.0","90064203","wem/bandit_either_2","A255A9FFZD8PQW","either","8","356","","","","","","","0","1","0","","0.6","0.5","0.5","0.5","0.5","0.8","0.2","0.6","0.2","","","","","","","","","","","","75","K","2","","true","0","full_practice"
"","bandit","60","589886","0.0-34.0-6.0","90064203","wem/bandit_either_2","A255A9FFZD8PQW","either","8","384","","","","","","","0","0","1","","0.6","0.5","0.5","0.5","0.5","0.8","0.2","0.6","0.2","","","","","","","","","","","","75","K","2","","true","0","full_practice"
"","bandit","61","592312","0.0-34.0-7.0","90064203","wem/bandit_either_2","A255A9FFZD8PQW","either","8","760","","","","","","","0","0","1","0.6","","0.5","0.5","0.5","0.5","","","","","0.8","0.2","0.6","0.2","","","","","","","","75","K","2","","true","0","full_practice"
"","bandit","62","594135","0.0-34.0-8.0","90064203","wem/bandit_either_2","A255A9FFZD8PQW","either","8","300","","","","","","","0","0","1","","0.8","0.5","0.5","0.5","0.5","0.8","0.2","0.6","0.2","","","","","","","","","","","","72","H","0","img/none_selected.jpg","true","0","full_practice"
"","bandit","63","595987","0.0-34.0-9.0","90064203","wem/bandit_either_2","A255A9FFZD8PQW","either","8","314","","","","","","","0","0","1","0.2","","0.5","0.5","0.5","0.5","","","","","0.8","0.2","0.6","0.2","","","","","","","","74","J","1","","true","0","full_practice"
"","bandit","64","597581","0.0-34.0-10.0","90064203","wem/bandit_either_2","A255A9FFZD8PQW","either","8","50","","","","","","","0","0","1","0.2","","0.5","0.5","0.5","0.5","","","","","0.8","0.2","0.6","0.2","","","","","","","","76","L","3","","true","0","full_practice"
"","bandit","65","600901","0.0-34.0-11.0","90064203","wem/bandit_either_2","A255A9FFZD8PQW","either","8","1775","","","","","","","0","0","1","0.2","","0.5","0.5","0.5","0.5","","","","","0.8","0.2","0.6","0.2","","","","","","","","76","L","3","","true","0","full_practice"
"","bandit","66","603468","0.0-34.0-12.0","90064203","wem/bandit_either_2","A255A9FFZD8PQW","either","8","1037","","","","","","","0","0","1","0.2","","0.5","0.5","0.5","0.5","","","","","0.8","0.2","0.6","0.2","","","","","","","","74","J","1","","true","0","full_practice"
"","bandit","67","605403","0.0-34.0-13.0","90064203","wem/bandit_either_2","A255A9FFZD8PQW","either","8","393","","","","","","","0","0","1","","0.6","0.5","0.5","0.5","0.5","0.8","0.2","0.6","0.2","","","","","","","","","","","","75","K","2","","true","0","full_practice"
"","bandit","68","607306","0.0-34.0-14.0","90064203","wem/bandit_either_2","A255A9FFZD8PQW","either","8","276","","","","","","","0","0","1","0.8","","0.5","0.5","0.5","0.5","","","","","0.8","0.2","0.6","0.2","","","","","","","","72","H","0","img/none_selected.jpg","true","0","full_practice"
"","bandit","69","609001","0.0-34.0-15.0","90064203","wem/bandit_either_2","A255A9FFZD8PQW","either","8","187","","","","","","","0","1","0","","0.8","0.5","0.5","0.5","0.5","0.8","0.2","0.6","0.2","","","","","","","","","","","","72","H","0","img/none_selected.jpg","true","0","full_practice"
"","bandit","70","610839","0.0-34.0-16.0","90064203","wem/bandit_either_2","A255A9FFZD8PQW","either","8","302","","","","","","","1","0","0","0.8","","0.5","0.5","0.5","0.5","","","","","0.8","0.2","0.6","0.2","","","","","","","","72","H","0","img/none_selected.jpg","true","0","full_practice"
"","bandit","71","613360","0.0-34.0-17.0","90064203","wem/bandit_either_2","A255A9FFZD8PQW","either","8","816","","","","","","","0","1","0","","0.8","0.5","0.5","0.5","0.5","0.8","0.2","0.6","0.2","","","","","","","","","","","","72","H","0","img/none_selected.jpg","true","0","full_practice"
"","bandit","72","615223","0.0-34.0-18.0","90064203","wem/bandit_either_2","A255A9FFZD8PQW","either","8","335","","","","","","","1","0","0","0.8","","0.5","0.5","0.5","0.5","","","","","0.8","0.2","0.6","0.2","","","","","","","","72","H","0","img/none_selected.jpg","true","0","full_practice"
"","bandit","73","617558","0.0-34.0-19.0","90064203","wem/bandit_either_2","A255A9FFZD8PQW","either","8","809","","","","","","","1","0","0","0.8","","0.5","0.5","0.5","0.5","","","","","0.8","0.2","0.6","0.2","","","","","","","","72","H","0","img/none_selected.jpg","true","0","full_practice"
"","text","74","622342","0.0-35.0","90064203","wem/bandit_either_2","A255A9FFZD8PQW","either","8","4761","","32","","","","","","","","","","","","","","","","","","","","","","","","","","","","","","","","","","",""
"","text","75","631138","0.0-36.0","90064203","wem/bandit_either_2","A255A9FFZD8PQW","either","8","7787","","32","","","","","","","","","","","","","","","","","","","","","","","","","","","","","","","","","","",""
"","text","76","639474","0.0-37.0","90064203","wem/bandit_either_2","A255A9FFZD8PQW","either","8","8329","","32","","","","","","","","","","","","","","","","","","","","","","","","","","","","","","","","","","",""
"","text","77","794356","0.0-38.0","90064203","wem/bandit_either_2","A255A9FFZD8PQW","either","8","154875","","32","","","","","","","","","","","","","","","","","","","","","","","","","","","","","","","","","","",""
"","text","78","797359","0.0-39.0","90064203","wem/bandit_either_2","A255A9FFZD8PQW","either","8","2996","","32","","","","","","","","","","","","","","","","","","","","","","","","","","","","","","","","","","",""
"","text","79","800315","0.0-40.0","90064203","wem/bandit_either_2","A255A9FFZD8PQW","either","8","2952","","32","","","","","","","","","","","","","","","","","","","","","","","","","","","","","","","","","","",""
"","bandit","80","804773","0.0-41.0-0.0","90064203","wem/bandit_either_2","A255A9FFZD8PQW","either","8","2909","","","","","","","0","0","1","","0.2928194041","0.6","0.2","0.4","0.8","0.2928194041","0.1351790469","0.2637293772","0.3540548627","","","","","","","","","","","","72","H","0","img/none_selected.jpg","","1","main_expt"
"","bandit","81","806772","0.0-42.0-0.0","90064203","wem/bandit_either_2","A255A9FFZD8PQW","either","8","449","","","","","","","0","0","1","0.125602744","","0.6","0.2","0.4","0.8","","","","","0.3040419902","0.125602744","0.2760013096","0.3812516843","","","","","","","","74","J","1","","","2","main_expt"
"","bandit","82","808453","0.0-43.0-0.0","90064203","wem/bandit_either_2","A255A9FFZD8PQW","either","8","159","","","","","","","0","0","1","","0.3240499928","0.6","0.2","0.4","0.8","0.2875251023","0.09574082279","0.3240499928","0.3901316494","","","","","","","","","","","","75","K","2","","","3","main_expt"
"","bandit","83","810129","0.0-44.0-0.0","90064203","wem/bandit_either_2","A255A9FFZD8PQW","either","8","146","","","","","","","0","0","1","0.3945399471","","0.6","0.2","0.4","0.8","","","","","0.2965567903","0.0913382225","0.3510822359","0.3945399471","","","","","","","","76","L","3","","","4","main_expt"
"","bandit","84","812788","0.0-45.0-0.0","90064203","wem/bandit_either_2","A255A9FFZD8PQW","either","8","1119","","","","","","","0","0","1","0.3522827721","","0.6","0.2","0.4","0.8","","","","","0.2681113314","0.106177601","0.3522827721","0.3997977613","","","","","","","","75","K","2","","","5","main_expt"
"","bandit","85","814755","0.0-46.0-0.0","90064203","wem/bandit_either_2","A255A9FFZD8PQW","either","8","414","","","","","","","0","0","1","","0.08998955495","0.6","0.2","0.4","0.8","0.2330443498","0.08998955495","0.382674005","0.390783501","","","","","","","","","","","","74","J","1","","","6","main_expt"
"","bandit","86","817021","0.0-47.0-0.0","90064203","wem/bandit_either_2","A255A9FFZD8PQW","either","8","724","","","","","","","0","0","1","0.1630509172","","0.6","0.2","0.4","0.8","","","","","0.1630509172","0.1077526668","0.3998463606","0.3305693427","","","","","","","","72","H","0","img/none_selected.jpg","","7","main_expt"
"","bandit","87","819626","0.0-48.0-0.0","90064203","wem/bandit_either_2","A255A9FFZD8PQW","either","8","1082","","","","","","","0","0","1","","0.3056545716","0.6","0.2","0.4","0.8","0.2002468685","0.1243697388","0.3832029687","0.3056545716","","","","","","","","","","","","76","L","3","","","8","main_expt"
"","bandit","88","821533","0.0-49.0-0.0","90064203","wem/bandit_either_2","A255A9FFZD8PQW","either","8","366","","","","","","","0","0","1","","0.3796681134","0.6","0.2","0.4","0.8","0.1835034381","0.1698108096","0.3796681134","0.3278889804","","","","","","","","","","","","75","K","2","","","9","main_expt"
"","bandit","89","823306","0.0-50.0-0.0","90064203","wem/bandit_either_2","A255A9FFZD8PQW","either","8","158","","","","","","","0","0","1","","0.221757114","0.6","0.2","0.4","0.8","0.1939723001","0.221757114","0.3614311416","0.3137855556","","","","","","","","","","","","74","J","1","","","10","main_expt"
"","bandit","90","824869","0.0-51.0-0.0","90064203","wem/bandit_either_2","A255A9FFZD8PQW","either","8","44","","","","","","","0","1","0","","0.1949806013","0.6","0.2","0.4","0.8","0.1949806013","0.1961062924","0.3938737051","0.3253079181","","","","","","","","","","","","72","H","0","img/none_selected.jpg","","11","main_expt"
"","bandit","91","826627","0.0-52.0-0.0","90064203","wem/bandit_either_2","A255A9FFZD8PQW","either","8","238","","","","","","","0","1","0","","0.2587943474","0.6","0.2","0.4","0.8","0.2587943474","0.1907056259","0.3810544723","0.3298150516","","","","","","","","","","","","72","H","0","img/none_selected.jpg","","12","main_expt"
"","bandit","92","828480","0.0-53.0-0.0","90064203","wem/bandit_either_2","A255A9FFZD8PQW","either","8","327","","","","","","","0","0","1","","0.3085985727","0.6","0.2","0.4","0.8","0.3085985727","0.2162865666","0.3707046684","0.3673307406","","","","","","","","","","","","72","H","0","img/none_selected.jpg","","13","main_expt"
"","bandit","93","830335","0.0-54.0-0.0","90064203","wem/bandit_either_2","A255A9FFZD8PQW","either","8","337","","","","","","","0","0","1","","0.2464992766","0.6","0.2","0.4","0.8","0.2464992766","0.2399362825","0.3486531997","0.3679224674","","","","","","","","","","","","72","H","0","img/none_selected.jpg","","14","main_expt"
"","bandit","94","832517","0.0-55.0-0.0","90064203","wem/bandit_either_2","A255A9FFZD8PQW","either","8","463","","","","","","","0","0","1","0.2474611475","","0.6","0.2","0.4","0.8","","","","","0.2474611475","0.1986859052","0.3263578384","0.3062507314","","","","","","","","72","H","0","img/none_selected.jpg","","15","main_expt"
"","bandit","95","834476","0.0-56.0-0.0","90064203","wem/bandit_either_2","A255A9FFZD8PQW","either","8","430","","","","","","","0","0","1","","0.1865641621","0.6","0.2","0.4","0.8","0.2835538477","0.1865641621","0.3514189979","0.2892976033","","","","","","","","","","","","74","J","1","","","16","main_expt"
"","bandit","96","836391","0.0-57.0-0.0","90064203","wem/bandit_either_2","A255A9FFZD8PQW","either","8","371","","","","","","","0","0","1","","0.3532592314","0.6","0.2","0.4","0.8","0.3256112075","0.2035525071","0.3532592314","0.2861796528","","","","","","","","","","","","75","K","2","","","17","main_expt"
"","bandit","97","838370","0.0-58.0-0.0","90064203","wem/bandit_either_2","A255A9FFZD8PQW","either","8","367","","","","","","","1","0","0","0.2958570682","","0.6","0.2","0.4","0.8","","","","","0.3802227677","0.2039336531","0.3858608091","0.2958570682","","","","","","","","76","L","3","","","18","main_expt"
"","bandit","98","840034","0.0-59.0-0.0","90064203","wem/bandit_either_2","A255A9FFZD8PQW","either","8","143","","","","","","","0","1","0","","0.3353028819","0.6","0.2","0.4","0.8","0.360566968","0.1598579642","0.3837638756","0.3353028819","","","","","","","","","","","","76","L","3","","","19","main_expt"
"","bandit","99","841809","0.0-60.0-0.0","90064203","wem/bandit_either_2","A255A9FFZD8PQW","either","8","239","","","","","","","0","0","1","","0.3139704528","0.6","0.2","0.4","0.8","0.3696799013","0.1437622327","0.2872100501","0.3139704528","","","","","","","","","","","","76","L","3","","","20","main_expt"
"","bandit","100","843825","0.0-61.0-0.0","90064203","wem/bandit_either_2","A255A9FFZD8PQW","either","8","485","","","","","","","0","0","1","0.2524707143","","0.6","0.2","0.4","0.8","","","","","0.4006907501","0.07974703335","0.2975414498","0.2524707143","","","","","","","","76","L","3","","","21","main_expt"
"","bandit","101","845776","0.0-62.0-0.0","90064203","wem/bandit_either_2","A255A9FFZD8PQW","either","8","411","","","","","","","0","0","1","","0.2741965999","0.6","0.2","0.4","0.8","0.4081217326","0.1361132429","0.2741965999","0.248326021","","","","","","","","","","","","75","K","2","","","22","main_expt"
"","bandit","102","847874","0.0-63.0-0.0","90064203","wem/bandit_either_2","A255A9FFZD8PQW","either","8","565","","","","","","","0","1","0","","0.1705973249","0.6","0.2","0.4","0.8","0.3740207531","0.1705973249","0.2379064449","0.2937153481","","","","","","","","","","","","74","J","1","","","23","main_expt"
"","bandit","103","849515","0.0-64.0-0.0","90064203","wem/bandit_either_2","A255A9FFZD8PQW","either","8","99","","","","","","","0","0","1","","0.1392759225","0.6","0.2","0.4","0.8","0.3913756451","0.1392759225","0.2078598572","0.2625315469","","","","","","","","","","","","74","J","1","","","24","main_expt"
"","bandit","104","851327","0.0-65.0-0.0","90064203","wem/bandit_either_2","A255A9FFZD8PQW","either","8","301","","","","","","","0","0","1","","0.1800538527","0.6","0.2","0.4","0.8","0.4100905738","0.1800538527","0.2764850733","0.2405651368","","","","","","","","","","","","74","J","1","","","25","main_expt"
"","bandit","105","853325","0.0-66.0-0.0","90064203","wem/bandit_either_2","A255A9FFZD8PQW","either","8","469","","","","","","","0","0","1","","0.3600668969","0.6","0.2","0.4","0.8","0.3600668969","0.2146400533","0.3080191348","0.2503350336","","","","","","","","","","","","72","H","0","img/none_selected.jpg","","26","main_expt"
"","bandit","106","855340","0.0-67.0-0.0","90064203","wem/bandit_either_2","A255A9FFZD8PQW","either","8","487","","","","","","","0","0","1","0.1948367851","","0.6","0.2","0.4","0.8","","","","","0.3703096079","0.1948367851","0.3606197488","0.354091838","","","","","","","","74","J","1","","","27","main_expt"
"","bandit","107","857329","0.0-68.0-0.0","90064203","wem/bandit_either_2","A255A9FFZD8PQW","either","8","448","","","","","","","0","0","1","","0.3696097963","0.6","0.2","0.4","0.8","0.3527269899","0.2282666016","0.3696097963","0.3419366675","","","","","","","","","","","","75","K","2","","","28","main_expt"
"","bandit","108","859491","0.0-69.0-0.0","90064203","wem/bandit_either_2","A255A9FFZD8PQW","either","8","622","","","","","","","0","0","1","0.361896517","","0.6","0.2","0.4","0.8","","","","","0.2854860911","0.1842618798","0.3434444954","0.361896517","","","","","","","","76","L","3","","","29","main_expt"
"","bandit","109","861228","0.0-70.0-0.0","90064203","wem/bandit_either_2","A255A9FFZD8PQW","either","8","203","","","","","","","0","0","1","","0.2971434158","0.6","0.2","0.4","0.8","0.2971434158","0.1930267653","0.3528183973","0.3701160785","","","","","","","","","","","","72","H","0","img/none_selected.jpg","","30","main_expt"
"","bandit","110","862950","0.0-71.0-0.0","90064203","wem/bandit_either_2","A255A9FFZD8PQW","either","8","138","","","","","","","0","0","1","0.3192935598","","0.6","0.2","0.4","0.8","","","","","0.3192935598","0.2279264959","0.3436926249","0.3602312343","","","","","","","","72","H","0","img/none_selected.jpg","","31","main_expt"
"","bandit","111","864711","0.0-72.0-0.0","90064203","wem/bandit_either_2","A255A9FFZD8PQW","either","8","233","","","","","","","0","0","1","0.1922668126","","0.6","0.2","0.4","0.8","","","","","0.2910845839","0.1922668126","0.3392376576","0.3550043818","","","","","","","","74","J","1","","","32","main_expt"
"","bandit","112","866710","0.0-73.0-0.0","90064203","wem/bandit_either_2","A255A9FFZD8PQW","either","8","453","","","","","","","0","0","1","0.2524106513","","0.6","0.2","0.4","0.8","","","","","0.2956883229","0.1503247695","0.2524106513","0.3927862597","","","","","","","","75","K","2","","","33","main_expt"
"","bandit","113","868445","0.0-74.0-0.0","90064203","wem/bandit_either_2","A255A9FFZD8PQW","either","8","219","","","","","","","0","0","1","0.4185963197","","0.6","0.2","0.4","0.8","","","","","0.2918182698","0.1875072744","0.2378308988","0.4185963197","","","","","","","","76","L","3","","","34","main_expt"
"","bandit","114","870544","0.0-75.0-0.0","90064203","wem/bandit_either_2","A255A9FFZD8PQW","either","8","568","","","","","","","0","0","1","","0.2683654211","0.6","0.2","0.4","0.8","0.3063909307","0.2135507624","0.2683654211","0.441983755","","","","","","","","","","","","75","K","2","","","35","main_expt"
"","bandit","115","872312","0.0-76.0-0.0","90064203","wem/bandit_either_2","A255A9FFZD8PQW","either","8","92","","","","","","","0","0","1","","0.2042402853","0.6","0.2","0.4","0.8","0.2820805085","0.2042402853","0.2645223933","0.4352827683","","","","","","","","","","","","74","J","1","","","36","main_expt"
"","bandit","116","873854","0.0-77.0-0.0","90064203","wem/bandit_either_2","A255A9FFZD8PQW","either","8","22","","","","","","","0","0","1","","0.2610370824","0.6","0.2","0.4","0.8","0.2610370824","0.2024605481","0.2360561858","0.450520142","","","","","","","","","","","","72","H","0","img/none_selected.jpg","","37","main_expt"
"","bandit","117","875716","0.0-78.0-0.0","90064203","wem/bandit_either_2","A255A9FFZD8PQW","either","8","317","","","","","","","0","0","1","","0.1896233007","0.6","0.2","0.4","0.8","0.1896233007","0.1677713785","0.2001865083","0.4681224698","","","","","","","","","","","","72","H","0","img/none_selected.jpg","","38","main_expt"
"","bandit","118","877608","0.0-79.0-0.0","90064203","wem/bandit_either_2","A255A9FFZD8PQW","either","8","362","","","","","","","0","1","0","","0.221779122","0.6","0.2","0.4","0.8","0.168851025","0.221779122","0.1687915361","0.4711022053","","","","","","","","","","","","74","J","1","","","39","main_expt"
"","bandit","119","879512","0.0-80.0-0.0","90064203","wem/bandit_either_2","A255A9FFZD8PQW","either","8","349","","","","","","","1","0","0","0.2722397218","","0.6","0.2","0.4","0.8","","","","","0.1615787635","0.2722397218","0.1503151413","0.4559447699","","","","","","","","74","J","1","","","40","main_expt"
"","bandit","120","881331","0.0-81.0-0.0","90064203","wem/bandit_either_2","A255A9FFZD8PQW","either","8","274","","","","","","","0","0","1","","0.3298230943","0.6","0.2","0.4","0.8","0.1472326003","0.3298230943","0.08168262283","0.4412687596","","","","","","","","","","","","74","J","1","","","41","main_expt"
"","bandit","121","883306","0.0-82.0-0.0","90064203","wem/bandit_either_2","A255A9FFZD8PQW","either","8","298","","","","","","","0","0","1","","0.3104885444","0.6","0.2","0.4","0.8","0.1533480506","0.3104885444","0.07668629145","0.4457751761","","","","","","","","","","","","74","J","1","","","42","main_expt"
"","bandit","122","885306","0.0-83.0-0.0","90064203","wem/bandit_either_2","A255A9FFZD8PQW","either","8","464","","","","","","","0","0","1","0.3005355489","","0.6","0.2","0.4","0.8","","","","","0.1414351437","0.3005355489","0.07394587158","0.4298378352","","","","","","","","74","J","1","","","43","main_expt"
"","bandit","123","887540","0.0-84.0-0.0","90064203","wem/bandit_either_2","A255A9FFZD8PQW","either","8","705","","","","","","","0","0","1","","0.1192337685","0.6","0.2","0.4","0.8","0.1067646429","0.2456242138","0.1192337685","0.4416915379","","","","","","","","","","","","75","K","2","","","44","main_expt"
"","bandit","124","889753","0.0-85.0-0.0","90064203","wem/bandit_either_2","A255A9FFZD8PQW","either","8","680","","","","","","","1","0","0","0.3915522423","","0.6","0.2","0.4","0.8","","","","","0.1250796286","0.2839901561","0.1285724119","0.3915522423","","","","","","","","76","L","3","","","45","main_expt"
"","bandit","125","891604","0.0-86.0-0.0","90064203","wem/bandit_either_2","A255A9FFZD8PQW","either","8","324","","","","","","","0","0","1","0.4318427431","","0.6","0.2","0.4","0.8","","","","","0.1927264636","0.2353621531","0.1112684106","0.4318427431","","","","","","","","76","L","3","","","46","main_expt"
"","bandit","126","894044","0.0-87.0-0.0","90064203","wem/bandit_either_2","A255A9FFZD8PQW","either","8","909","","","","","","","0","0","1","0.4395998441","","0.6","0.2","0.4","0.8","","","","","0.1804488412","0.2405257196","0.1207340475","0.4395998441","","","","","","","","76","L","3","","","47","main_expt"
"","bandit","127","896990","0.0-88.0-0.0","90064203","wem/bandit_either_2","A255A9FFZD8PQW","either","8","1400","","","","","","","0","0","1","0.1182533935","","0.6","0.2","0.4","0.8","","","","","0.168268176","0.2629408555","0.1182533935","0.4630443269","","","","","","","","75","K","2","","","48","main_expt"
"","bandit","128","899116","0.0-89.0-0.0","90064203","wem/bandit_either_2","A255A9FFZD8PQW","either","8","612","","","","","","","0","1","0","","0.2902453213","0.6","0.2","0.4","0.8","0.1466838001","0.2902453213","0.1460801474","0.4794982466","","","","","","","","","","","","74","J","1","","","49","main_expt"
"","bandit","129","900950","0.0-90.0-0.0","90064203","wem/bandit_either_2","A255A9FFZD8PQW","either","8","302","","","","","","","0","0","1","","0.3033715012","0.6","0.2","0.4","0.8","0.1336340117","0.3033715012","0.1765155983","0.4562783041","","","","","","","","","","","","74","J","1","","","50","main_expt"
"","bandit","130","902892","0.0-91.0-0.0","90064203","wem/bandit_either_2","A255A9FFZD8PQW","either","8","414","","","","","","","0","0","1","","0.3536831403","0.6","0.2","0.4","0.8","0.1067821754","0.3536831403","0.1614266163","0.4515646323","","","","","","","","","","","","74","J","1","","","51","main_expt"
"","bandit","131","905019","0.0-92.0-0.0","90064203","wem/bandit_either_2","A255A9FFZD8PQW","either","8","598","","","","","","","0","0","1","0.07294577227","","0.6","0.2","0.4","0.8","","","","","0.07294577227","0.3058792917","0.1938643747","0.4344137529","","","","","","","","72","H","0","img/none_selected.jpg","","52","main_expt"
"","bandit","132","907348","0.0-93.0-0.0","90064203","wem/bandit_either_2","A255A9FFZD8PQW","either","8","727","","","","","","","0","1","0","","0.3466820038","0.6","0.2","0.4","0.8","0.07676454597","0.3466820038","0.1721886996","0.4421766306","","","","","","","","","","","","74","J","1","","","53","main_expt"
"","bandit","133","910076","0.0-94.0-0.0","90064203","wem/bandit_either_2","A255A9FFZD8PQW","either","8","1215","","","","","","","0","1","0","","0.3159173384","0.6","0.2","0.4","0.8","0.07707135067","0.3159173384","0.1542880765","0.4591875032","","","","","","","","","","","","74","J","1","","","54","main_expt"
"","bandit","134","911958","0.0-95.0-0.0","90064203","wem/bandit_either_2","A255A9FFZD8PQW","either","8","362","","","","","","","0","0","1","","0.3205246683","0.6","0.2","0.4","0.8","0.08227932488","0.3205246683","0.2155598061","0.4455250987","","","","","","","","","","","","74","J","1","","","55","main_expt"
"","bandit","135","914576","0.0-96.0-0.0","90064203","wem/bandit_either_2","A255A9FFZD8PQW","either","8","1084","","","","","","","0","0","1","","0.3067659888","0.6","0.2","0.4","0.8","0.09013031375","0.3067659888","0.199350645","0.4200701886","","","","","","","","","","","","74","J","1","","","56","main_expt"
"","bandit","136","916477","0.0-97.0-0.0","90064203","wem/bandit_either_2","A255A9FFZD8PQW","either","8","360","","","","","","","0","0","1","","0.1991981904","0.6","0.2","0.4","0.8","0.106866739","0.3786279545","0.1991981904","0.3635567377","","","","","","","","","","","","75","K","2","","","57","main_expt"
"","bandit","137","918295","0.0-98.0-0.0","90064203","wem/bandit_either_2","A255A9FFZD8PQW","either","8","134","","","","","","","0","0","1","0.3647217687","","0.6","0.2","0.4","0.8","","","","","0.0915584437","0.3796022377","0.1307276253","0.3647217687","","","","","","","","76","L","3","","","58","main_expt"
"","bandit","138","920450","0.0-99.0-0.0","90064203","wem/bandit_either_2","A255A9FFZD8PQW","either","8","615","","","","","","","0","0","1","","0.1036540812","0.6","0.2","0.4","0.8","0.1036540812","0.3570845549","0.1540949786","0.3975499765","","","","","","","","","","","","72","H","0","img/none_selected.jpg","","59","main_expt"
"","bandit","139","922437","0.0-100.0-0.0","90064203","wem/bandit_either_2","A255A9FFZD8PQW","either","8","267","","","","","","","1","0","0","0.398525789","","0.6","0.2","0.4","0.8","","","","","0.07948280662","0.398525789","0.1187181044","0.376383165","","","","","","","","74","J","1","","","60","main_expt"
"","bandit","140","924301","0.0-101.0-0.0","90064203","wem/bandit_either_2","A255A9FFZD8PQW","either","8","326","","","","","","","0","0","1","","0.380986593","0.6","0.2","0.4","0.8","0.0685056185","0.380986593","0.1734870435","0.3384437455","","","","","","","","","","","","74","J","1","","","61","main_expt"
"","bandit","141","926606","0.0-102.0-0.0","90064203","wem/bandit_either_2","A255A9FFZD8PQW","either","8","766","","","","","","","0","1","0","","0.3928002855","0.6","0.2","0.4","0.8","0.04196312691","0.3928002855","0.2056999461","0.3086389155","","","","","","","","","","","","74","J","1","","","62","main_expt"
"","bandit","142","928493","0.0-103.0-0.0","90064203","wem/bandit_either_2","A255A9FFZD8PQW","either","8","337","","","","","","","0","1","0","","0.4097838671","0.6","0.2","0.4","0.8","0.06524357318","0.4097838671","0.2421495796","0.3098998428","","","","","","","","","","","","74","J","1","","","63","main_expt"
"","bandit","143","930466","0.0-104.0-0.0","90064203","wem/bandit_either_2","A255A9FFZD8PQW","either","8","448","","","","","","","0","0","1","","0.3942475769","0.6","0.2","0.4","0.8","0.04599317762","0.3942475769","0.2678986655","0.2859800092","","","","","","","","","","","","74","J","1","","","64","main_expt"
"","bandit","144","932679","0.0-105.0-0.0","90064203","wem/bandit_either_2","A255A9FFZD8PQW","either","8","671","","","","","","","0","1","0","","0.3756823908","0.6","0.2","0.4","0.8","0.04738713632","0.3756823908","0.2780805564","0.2780623804","","","","","","","","","","","","74","J","1","","","65","main_expt"
"","bandit","145","934740","0.0-106.0-0.0","90064203","wem/bandit_either_2","A255A9FFZD8PQW","either","8","519","","","","","","","0","1","0","","0.3780323226","0.6","0.2","0.4","0.8","0.02873144913","0.3780323226","0.2923516192","0.2740889186","","","","","","","","","","","","74","J","1","","","66","main_expt"
"","bandit","146","936759","0.0-107.0-0.0","90064203","wem/bandit_either_2","A255A9FFZD8PQW","either","8","486","","","","","","","0","0","1","","0.382091886","0.6","0.2","0.4","0.8","0.0355516853","0.382091886","0.3481747094","0.3122756929","","","","","","","","","","","","74","J","1","","","67","main_expt"
"","bandit","147","938953","0.0-108.0-0.0","90064203","wem/bandit_either_2","A255A9FFZD8PQW","either","8","675","","","","","","","0","0","1","","0.4080562953","0.6","0.2","0.4","0.8","0.04483006882","0.4080562953","0.3540590834","0.3004294993","","","","","","","","","","","","74","J","1","","","68","main_expt"
"","bandit","148","941148","0.0-109.0-0.0","90064203","wem/bandit_either_2","A255A9FFZD8PQW","either","8","665","","","","","","","0","0","1","0.3348318208","","0.6","0.2","0.4","0.8","","","","","0.04300650393","0.419826639","0.3348318208","0.3312842332","","","","","","","","75","K","2","","","69","main_expt"
"","bandit","149","943339","0.0-110.0-0.0","90064203","wem/bandit_either_2","A255A9FFZD8PQW","either","8","560","","","","","","","0","1","0","","0.3844983113","0.6","0.2","0.4","0.8","0.03960880855","0.3889643965","0.3844983113","0.2362018798","","","","","","","","","","","","75","K","2","","","70","main_expt"
"","bandit","150","945191","0.0-111.0-0.0","90064203","wem/bandit_either_2","A255A9FFZD8PQW","either","8","312","","","","","","","1","0","0","0.3753843975","","0.6","0.2","0.4","0.8","","","","","0.02401392238","0.3492343966","0.3753843975","0.1838323472","","","","","","","","75","K","2","","","71","main_expt"
"","bandit","151","947294","0.0-112.0-0.0","90064203","wem/bandit_either_2","A255A9FFZD8PQW","either","8","348","","","","","","","0","0","1","0.3861429343","","0.6","0.2","0.4","0.8","","","","","0.008756159955","0.3502155883","0.3861429343","0.1749810972","","","","","","","","75","K","2","","","72","main_expt"
"","bandit","152","949194","0.0-113.0-0.0","90064203","wem/bandit_either_2","A255A9FFZD8PQW","either","8","364","","","","","","","0","1","0","","0.3978436086","0.6","0.2","0.4","0.8","0.006257651783","0.3568691787","0.3978436086","0.1664097112","","","","","","","","","","","","75","K","2","","","73","main_expt"
"","bandit","153","951057","0.0-114.0-0.0","90064203","wem/bandit_either_2","A255A9FFZD8PQW","either","8","335","","","","","","","0","0","1","","0.3847979518","0.6","0.2","0.4","0.8","0.004732084297","0.3303653739","0.3847979518","0.2001176207","","","","","","","","","","","","75","K","2","","","74","main_expt"
"","bandit","154","952947","0.0-115.0-0.0","90064203","wem/bandit_either_2","A255A9FFZD8PQW","either","8","363","","","","","","","0","0","1","","0.3974319157","0.6","0.2","0.4","0.8","0.006967558871","0.3353283381","0.3974319157","0.1848717924","","","","","","","","","","","","75","K","2","","","75","main_expt"
"","bandit","155","954767","0.0-116.0-0.0","90064203","wem/bandit_either_2","A255A9FFZD8PQW","either","8","289","","","","","","","1","0","0","0.3987985884","","0.6","0.2","0.4","0.8","","","","","0.004525860487","0.3009524994","0.3987985884","0.1510178238","","","","","","","","75","K","2","","","76","main_expt"
"","bandit","156","956587","0.0-117.0-0.0","90064203","wem/bandit_either_2","A255A9FFZD8PQW","either","8","294","","","","","","","0","0","1","0.4127312768","","0.6","0.2","0.4","0.8","","","","","0.007245535115","0.3316028908","0.4127312768","0.2089633591","","","","","","","","75","K","2","","","77","main_expt"
"","bandit","157","958473","0.0-118.0-0.0","90064203","wem/bandit_either_2","A255A9FFZD8PQW","either","8","355","","","","","","","0","0","1","","0.4257675477","0.6","0.2","0.4","0.8","0.00483057751","0.3571024926","0.4257675477","0.2285147345","","","","","","","","","","","","75","K","2","","","78","main_expt"
"","bandit","158","960902","0.0-119.0-0.0","90064203","wem/bandit_either_2","A255A9FFZD8PQW","either","8","874","","","","","","","0","1","0","","0.4331167668","0.6","0.2","0.4","0.8","0.005956317848","0.3542776451","0.4331167668","0.2246975601","","","","","","","","","","","","75","K","2","","","79","main_expt"
"","bandit","159","962739","0.0-120.0-0.0","90064203","wem/bandit_either_2","A255A9FFZD8PQW","either","8","283","","","","","","","0","0","1","","0.4294395537","0.6","0.2","0.4","0.8","0.0076590047","0.3201174307","0.4294395537","0.1878766281","","","","","","","","","","","","75","K","2","","","80","main_expt"
"","bandit","160","964635","0.0-121.0-0.0","90064203","wem/bandit_either_2","A255A9FFZD8PQW","either","8","367","","","","","","","0","0","1","0.4234249918","","0.6","0.2","0.4","0.8","","","","","0.009115568074","0.3503003334","0.4234249918","0.2436254364","","","","","","","","75","K","2","","","81","main_expt"
"","bandit","161","966613","0.0-122.0-0.0","90064203","wem/bandit_either_2","A255A9FFZD8PQW","either","8","446","","","","","","","0","0","1","0.3956977209","","0.6","0.2","0.4","0.8","","","","","0.01382977225","0.3509066846","0.3956977209","0.2627531714","","","","","","","","75","K","2","","","82","main_expt"
"","bandit","162","968844","0.0-123.0-0.0","90064203","wem/bandit_either_2","A255A9FFZD8PQW","either","8","683","","","","","","","0","0","1","","0.3951868033","0.6","0.2","0.4","0.8","0.01500629599","0.3951868033","0.4248650233","0.2672212524","","","","","","","","","","","","74","J","1","","","83","main_expt"
"","bandit","163","970735","0.0-124.0-0.0","90064203","wem/bandit_either_2","A255A9FFZD8PQW","either","8","349","","","","","","","1","0","0","0.2817484998","","0.6","0.2","0.4","0.8","","","","","0.02310127573","0.4131477378","0.4196907627","0.2817484998","","","","","","","","76","L","3","","","84","main_expt"
"","bandit","164","972588","0.0-125.0-0.0","90064203","wem/bandit_either_2","A255A9FFZD8PQW","either","8","320","","","","","","","0","0","1","","0.3074775227","0.6","0.2","0.4","0.8","0.02639065846","0.3889697292","0.435633498","0.3074775227","","","","","","","","","","","","76","L","3","","","85","main_expt"
"","bandit","165","974488","0.0-126.0-0.0","90064203","wem/bandit_either_2","A255A9FFZD8PQW","either","8","349","","","","","","","1","0","0","0.2717847629","","0.6","0.2","0.4","0.8","","","","","0.01746441632","0.3885636443","0.4322222521","0.2717847629","","","","","","","","76","L","3","","","86","main_expt"
"","bandit","166","976438","0.0-127.0-0.0","90064203","wem/bandit_either_2","A255A9FFZD8PQW","either","8","408","","","","","","","0","0","1","0.2183858348","","0.6","0.2","0.4","0.8","","","","","0.01256144444","0.4028282504","0.4476119451","0.2183858348","","","","","","","","76","L","3","","","87","main_expt"
"","bandit","167","978346","0.0-128.0-0.0","90064203","wem/bandit_either_2","A255A9FFZD8PQW","either","8","362","","","","","","","0","0","1","0.2054961256","","0.6","0.2","0.4","0.8","","","","","0.01178158386","0.4306890759","0.4073123198","0.2054961256","","","","","","","","76","L","3","","","88","main_expt"
"","bandit","168","980238","0.0-129.0-0.0","90064203","wem/bandit_either_2","A255A9FFZD8PQW","either","8","337","","","","","","","0","0","1","0.1452714398","","0.6","0.2","0.4","0.8","","","","","0.008722555822","0.4103738654","0.3862301724","0.1452714398","","","","","","","","76","L","3","","","89","main_expt"
"","bandit","169","981994","0.0-130.0-0.0","90064203","wem/bandit_either_2","A255A9FFZD8PQW","either","8","229","","","","","","","0","0","1","0.008232471735","","0.6","0.2","0.4","0.8","","","","","0.008232471735","0.3980827974","0.3596745144","0.1077779513","","","","","","","","72","H","0","img/none_selected.jpg","","90","main_expt"
"","bandit","170","984028","0.0-131.0-0.0","90064203","wem/bandit_either_2","A255A9FFZD8PQW","either","8","473","","","","","","","0","0","1","0.4040531024","","0.6","0.2","0.4","0.8","","","","","0.01249180717","0.4040531024","0.3082854458","0.1308407065","","","","","","","","74","J","1","","","91","main_expt"
"","bandit","171","985913","0.0-132.0-0.0","90064203","wem/bandit_either_2","A255A9FFZD8PQW","either","8","332","","","","","","","1","0","0","0.312225492","","0.6","0.2","0.4","0.8","","","","","0.01470986316","0.3462944796","0.312225492","0.1652322036","","","","","","","","75","K","2","","","92","main_expt"
"","bandit","172","987942","0.0-133.0-0.0","90064203","wem/bandit_either_2","A255A9FFZD8PQW","either","8","461","","","","","","","0","1","0","","0.3671658277","0.6","0.2","0.4","0.8","0.02655281846","0.3411451966","0.3671658277","0.1344678182","","","","","","","","","","","","75","K","2","","","93","main_expt"
"","bandit","173","989834","0.0-134.0-0.0","90064203","wem/bandit_either_2","A255A9FFZD8PQW","either","8","351","","","","","","","0","0","1","0.3401731108","","0.6","0.2","0.4","0.8","","","","","0.02575246025","0.3384154489","0.3401731108","0.1301314301","","","","","","","","75","K","2","","","94","main_expt"
"","bandit","174","991740","0.0-135.0-0.0","90064203","wem/bandit_either_2","A255A9FFZD8PQW","either","8","358","","","","","","","0","0","1","","0.3413923724","0.6","0.2","0.4","0.8","0.02262355665","0.3126988266","0.3413923724","0.1746055711","","","","","","","","","","","","75","K","2","","","95","main_expt"
"","bandit","175","993844","0.0-136.0-0.0","90064203","wem/bandit_either_2","A255A9FFZD8PQW","either","8","558","","","","","","","1","0","0","0.3570420485","","0.6","0.2","0.4","0.8","","","","","0.02047181149","0.3800019137","0.3570420485","0.1994244555","","","","","","","","75","K","2","","","96","main_expt"
"","bandit","176","995677","0.0-137.0-0.0","90064203","wem/bandit_either_2","A255A9FFZD8PQW","either","8","284","","","","","","","0","0","1","","0.3435474977","0.6","0.2","0.4","0.8","0.0207754381","0.3328121005","0.3435474977","0.1834602947","","","","","","","","","","","","75","K","2","","","97","main_expt"
"","bandit","177","997558","0.0-138.0-0.0","90064203","wem/bandit_either_2","A255A9FFZD8PQW","either","8","332","","","","","","","0","0","1","","0.3614714926","0.6","0.2","0.4","0.8","0.02955834597","0.332228596","0.3614714926","0.1719221531","","","","","","","","","","","","75","K","2","","","98","main_expt"
"","bandit","178","999477","0.0-139.0-0.0","90064203","wem/bandit_either_2","A255A9FFZD8PQW","either","8","369","","","","","","","0","0","1","0.3176405447","","0.6","0.2","0.4","0.8","","","","","0.0383131093","0.2843854285","0.3176405447","0.1183399241","","","","","","","","75","K","2","","","99","main_expt"
"","bandit","179","1001600","0.0-140.0-0.0","90064203","wem/bandit_either_2","A255A9FFZD8PQW","either","8","582","","","","","","","0","0","1","0.1558635017","","0.6","0.2","0.4","0.8","","","","","0.03580757471","0.309751149","0.3586553183","0.1558635017","","","","","","","","76","L","3","","","100","main_expt"
"","bandit","180","1003295","0.0-141.0-0.0","90064203","wem/bandit_either_2","A255A9FFZD8PQW","either","8","127","","","","","","","0","0","1","0.04899620691","","0.6","0.2","0.4","0.8","","","","","0.04899620691","0.2993195944","0.2951503345","0.1389665978","","","","","","","","72","H","0","img/none_selected.jpg","","101","main_expt"
"","bandit","181","1005118","0.0-142.0-0.0","90064203","wem/bandit_either_2","A255A9FFZD8PQW","either","8","283","","","","","","","0","1","0","","0.3551890872","0.6","0.2","0.4","0.8","0.08055650644","0.3551890872","0.2998391809","0.1377203561","","","","","","","","","","","","74","J","1","","","102","main_expt"
"","bandit","182","1006979","0.0-143.0-0.0","90064203","wem/bandit_either_2","A255A9FFZD8PQW","either","8","336","","","","","","","1","0","0","0.3148404956","","0.6","0.2","0.4","0.8","","","","","0.1040447627","0.3148404956","0.2791823827","0.1285548106","","","","","","","","74","J","1","","","103","main_expt"
"","bandit","183","1008838","0.0-144.0-0.0","90064203","wem/bandit_either_2","A255A9FFZD8PQW","either","8","304","","","","","","","1","0","0","0.3286912191","","0.6","0.2","0.4","0.8","","","","","0.1143547335","0.3286912191","0.3382769334","0.1555523735","","","","","","","","74","J","1","","","104","main_expt"
"","bandit","184","1010772","0.0-145.0-0.0","90064203","wem/bandit_either_2","A255A9FFZD8PQW","either","8","396","","","","","","","0","0","1","","0.298340497","0.6","0.2","0.4","0.8","0.1487676438","0.298340497","0.3339697125","0.1775592141","","","","","","","","","","","","74","J","1","","","105","main_expt"
"","bandit","185","1012718","0.0-146.0-0.0","90064203","wem/bandit_either_2","A255A9FFZD8PQW","either","8","401","","","","","","","0","0","1","","0.3504464386","0.6","0.2","0.4","0.8","0.152088545","0.3504464386","0.3124129253","0.2263451353","","","","","","","","","","","","74","J","1","","","106","main_expt"
"","bandit","186","1014762","0.0-147.0-0.0","90064203","wem/bandit_either_2","A255A9FFZD8PQW","either","8","508","","","","","","","0","0","1","","0.3400683723","0.6","0.2","0.4","0.8","0.2406734145","0.3510410077","0.3400683723","0.1679769802","","","","","","","","","","","","75","K","2","","","107","main_expt"
"","bandit","187","1016859","0.0-148.0-0.0","90064203","wem/bandit_either_2","A255A9FFZD8PQW","either","8","551","","","","","","","0","0","1","0.1999870147","","0.6","0.2","0.4","0.8","","","","","0.3048040024","0.3282766846","0.3557340834","0.1999870147","","","","","","","","76","L","3","","","108","main_expt"
"","bandit","188","1018826","0.0-149.0-0.0","90064203","wem/bandit_either_2","A255A9FFZD8PQW","either","8","430","","","","","","","0","0","1","0.3418503096","","0.6","0.2","0.4","0.8","","","","","0.3418503096","0.3561186451","0.3846418901","0.208992856","","","","","","","","72","H","0","img/none_selected.jpg","","109","main_expt"
"","bandit","189","1020711","0.0-150.0-0.0","90064203","wem/bandit_either_2","A255A9FFZD8PQW","either","8","332","","","","","","","0","0","1","","0.3576445865","0.6","0.2","0.4","0.8","0.3198501315","0.3576445865","0.4057962062","0.1716040471","","","","","","","","","","","","74","J","1","","","110","main_expt"
"","bandit","190","1022491","0.0-151.0-0.0","90064203","wem/bandit_either_2","A255A9FFZD8PQW","either","8","242","","","","","","","0","0","1","","0.3692451483","0.6","0.2","0.4","0.8","0.3681534847","0.3377543854","0.3692451483","0.08984071331","","","","","","","","","","","","75","K","2","","","111","main_expt"
"","bandit","191","1024487","0.0-152.0-0.0","90064203","wem/bandit_either_2","A255A9FFZD8PQW","either","8","457","","","","","","","0","1","0","","0.286234052","0.6","0.2","0.4","0.8","0.3757830796","0.286234052","0.3577317973","0.1243463141","","","","","","","","","","","","74","J","1","","","112","main_expt"
"","bandit","192","1026375","0.0-153.0-0.0","90064203","wem/bandit_either_2","A255A9FFZD8PQW","either","8","340","","","","","","","0","0","1","0.1932674395","","0.6","0.2","0.4","0.8","","","","","0.3838999828","0.1932674395","0.3328808086","0.1433440675","","","","","","","","74","J","1","","","113","main_expt"
"","bandit","193","1028400","0.0-154.0-0.0","90064203","wem/bandit_either_2","A255A9FFZD8PQW","either","8","460","","","","","","","0","0","1","","0.2403040534","0.6","0.2","0.4","0.8","0.4157938717","0.2403040534","0.3416979579","0.1510662198","","","","","","","","","","","","74","J","1","","","114","main_expt"
"","bandit","194","1030331","0.0-155.0-0.0","90064203","wem/bandit_either_2","A255A9FFZD8PQW","either","8","380","","","","","","","0","0","1","0.254937398","","0.6","0.2","0.4","0.8","","","","","0.4055870595","0.254937398","0.3377137281","0.09845245139","","","","","","","","74","J","1","","","115","main_expt"
"","bandit","195","1032490","0.0-156.0-0.0","90064203","wem/bandit_either_2","A255A9FFZD8PQW","either","8","615","","","","","","","0","1","0","","0.4161015278","0.6","0.2","0.4","0.8","0.4161015278","0.2605063941","0.3039448029","0.107393795","","","","","","","","","","","","72","H","0","img/none_selected.jpg","","116","main_expt"
"","bandit","196","1034386","0.0-157.0-0.0","90064203","wem/bandit_either_2","A255A9FFZD8PQW","either","8","368","","","","","","","0","1","0","","0.414877819","0.6","0.2","0.4","0.8","0.414877819","0.2161328783","0.2974336912","0.07879800556","","","","","","","","","","","","72","H","0","img/none_selected.jpg","","117","main_expt"
"","bandit","197","1036281","0.0-158.0-0.0","90064203","wem/bandit_either_2","A255A9FFZD8PQW","either","8","358","","","","","","","0","0","1","0.3968259953","","0.6","0.2","0.4","0.8","","","","","0.3968259953","0.1931197841","0.2651867246","0.08383735875","","","","","","","","72","H","0","img/none_selected.jpg","","118","main_expt"
"","bandit","198","1038425","0.0-159.0-0.0","90064203","wem/bandit_either_2","A255A9FFZD8PQW","either","8","369","","","","","","","0","0","1","0.4198241006","","0.6","0.2","0.4","0.8","","","","","0.4198241006","0.1638183597","0.3131666206","0.1392474383","","","","","","","","72","H","0","img/none_selected.jpg","","119","main_expt"
"","bandit","199","1040431","0.0-160.0-0.0","90064203","wem/bandit_either_2","A255A9FFZD8PQW","either","8","458","","","","","","","0","0","1","","0.1893282748","0.6","0.2","0.4","0.8","0.4286088018","0.1893282748","0.358829095","0.1649404926","","","","","","","","","","","","74","J","1","","","120","main_expt"
"","bandit","200","1042313","0.0-161.0-0.0","90064203","wem/bandit_either_2","A255A9FFZD8PQW","either","8","330","","","","","","","0","0","1","","0.4253829576","0.6","0.2","0.4","0.8","0.4253829576","0.2290368179","0.3189860171","0.1764152442","","","","","","","","","","","","72","H","0","img/none_selected.jpg","","121","main_expt"
"","bandit","201","1044333","0.0-162.0-0.0","90064203","wem/bandit_either_2","A255A9FFZD8PQW","either","8","474","","","","","","","0","1","0","","0.3011672979","0.6","0.2","0.4","0.8","0.4235175979","0.2445441383","0.3011672979","0.2092397698","","","","","","","","","","","","75","K","2","","","122","main_expt"
"","bandit","202","1046225","0.0-163.0-0.0","90064203","wem/bandit_either_2","A255A9FFZD8PQW","either","8","359","","","","","","","0","0","1","0.3037948063","","0.6","0.2","0.4","0.8","","","","","0.4182090072","0.2091075756","0.3037948063","0.1884058447","","","","","","","","75","K","2","","","123","main_expt"
"","bandit","203","1048882","0.0-164.0-0.0","90064203","wem/bandit_either_2","A255A9FFZD8PQW","either","8","1113","","","","","","","0","0","1","0.1876417206","","0.6","0.2","0.4","0.8","","","","","0.4356016004","0.2216111921","0.2446200253","0.1876417206","","","","","","","","76","L","3","","","124","main_expt"
"","bandit","204","1050759","0.0-165.0-0.0","90064203","wem/bandit_either_2","A255A9FFZD8PQW","either","8","326","","","","","","","0","0","1","0.2464628806","","0.6","0.2","0.4","0.8","","","","","0.403953628","0.1622020501","0.2464628806","0.1890564589","","","","","","","","75","K","2","","","125","main_expt"
"","bandit","205","1052682","0.0-166.0-0.0","90064203","wem/bandit_either_2","A255A9FFZD8PQW","either","8","378","","","","","","","1","0","0","0.4020675328","","0.6","0.2","0.4","0.8","","","","","0.4020675328","0.173533554","0.281169445","0.1659850756","","","","","","","","72","H","0","img/none_selected.jpg","","126","main_expt"
"","bandit","206","1054553","0.0-167.0-0.0","90064203","wem/bandit_either_2","A255A9FFZD8PQW","either","8","350","","","","","","","0","0","1","0.338443572","","0.6","0.2","0.4","0.8","","","","","0.338443572","0.189829559","0.290080064","0.2006343121","","","","","","","","72","H","0","img/none_selected.jpg","","127","main_expt"
"","bandit","207","1056488","0.0-168.0-0.0","90064203","wem/bandit_either_2","A255A9FFZD8PQW","either","8","404","","","","","","","0","1","0","","0.323123489","0.6","0.2","0.4","0.8","0.323123489","0.1764696366","0.3280989756","0.2637444583","","","","","","","","","","","","72","H","0","img/none_selected.jpg","","128","main_expt"
"","bandit","208","1058338","0.0-169.0-0.0","90064203","wem/bandit_either_2","A255A9FFZD8PQW","either","8","304","","","","","","","1","0","0","0.3615310162","","0.6","0.2","0.4","0.8","","","","","0.3615310162","0.172709194","0.3052704822","0.2783394686","","","","","","","","72","H","0","img/none_selected.jpg","","129","main_expt"
"","bandit","209","1060193","0.0-170.0-0.0","90064203","wem/bandit_either_2","A255A9FFZD8PQW","either","8","311","","","","","","","0","0","1","","0.3667448715","0.6","0.2","0.4","0.8","0.3667448715","0.1407460215","0.314718742","0.2674474002","","","","","","","","","","","","72","H","0","img/none_selected.jpg","","130","main_expt"
"","bandit","210","1062047","0.0-171.0-0.0","90064203","wem/bandit_either_2","A255A9FFZD8PQW","either","8","324","","","","","","","0","0","1","0.341745941","","0.6","0.2","0.4","0.8","","","","","0.341745941","0.143826562","0.2492347367","0.2122920843","","","","","","","","72","H","0","img/none_selected.jpg","","131","main_expt"
"","bandit","211","1064020","0.0-172.0-0.0","90064203","wem/bandit_either_2","A255A9FFZD8PQW","either","8","424","","","","","","","0","0","1","0.2615325727","","0.6","0.2","0.4","0.8","","","","","0.2615325727","0.1862992663","0.2495736985","0.1969346152","","","","","","","","72","H","0","img/none_selected.jpg","","132","main_expt"
"","bandit","212","1065925","0.0-173.0-0.0","90064203","wem/bandit_either_2","A255A9FFZD8PQW","either","8","379","","","","","","","0","0","1","","0.27905624","0.6","0.2","0.4","0.8","0.27905624","0.185648564","0.2487120015","0.1390835973","","","","","","","","","","","","72","H","0","img/none_selected.jpg","","133","main_expt"
"","bandit","213","1067844","0.0-174.0-0.0","90064203","wem/bandit_either_2","A255A9FFZD8PQW","either","8","375","","","","","","","0","1","0","","0.2002276213","0.6","0.2","0.4","0.8","0.2751163123","0.2002276213","0.3239420422","0.1437640715","","","","","","","","","","","","74","J","1","","","134","main_expt"
"","bandit","214","1069722","0.0-175.0-0.0","90064203","wem/bandit_either_2","A255A9FFZD8PQW","either","8","355","","","","","","","0","0","1","","0.2474552851","0.6","0.2","0.4","0.8","0.2586507773","0.2474552851","0.3903525049","0.1175999949","","","","","","","","","","","","74","J","1","","","135","main_expt"
"","bandit","215","1071705","0.0-176.0-0.0","90064203","wem/bandit_either_2","A255A9FFZD8PQW","either","8","445","","","","","","","0","0","1","","0.2454982057","0.6","0.2","0.4","0.8","0.2385277364","0.2454982057","0.3703049055","0.1108499649","","","","","","","","","","","","74","J","1","","","136","main_expt"
"","bandit","216","1073834","0.0-177.0-0.0","90064203","wem/bandit_either_2","A255A9FFZD8PQW","either","8","583","","","","","","","0","0","1","","0.2708690816","0.6","0.2","0.4","0.8","0.1935782534","0.2708690816","0.3657944308","0.1208727618","","","","","","","","","","","","74","J","1","","","137","main_expt"
"","bandit","217","1075711","0.0-178.0-0.0","90064203","wem/bandit_either_2","A255A9FFZD8PQW","either","8","350","","","","","","","0","0","1","0.2219039101","","0.6","0.2","0.4","0.8","","","","","0.14087624","0.2219039101","0.3452946514","0.1098805161","","","","","","","","74","J","1","","","138","main_expt"
"","bandit","218","1077494","0.0-179.0-0.0","90064203","wem/bandit_either_2","A255A9FFZD8PQW","either","8","253","","","","","","","1","0","0","0.3225052804","","0.6","0.2","0.4","0.8","","","","","0.1340930794","0.2485571535","0.3225052804","0.1359731218","","","","","","","","75","K","2","","","139","main_expt"
"","bandit","219","1079690","0.0-180.0-0.0","90064203","wem/bandit_either_2","A255A9FFZD8PQW","either","8","656","","","","","","","0","0","1","","0.2997250911","0.6","0.2","0.4","0.8","0.1170750994","0.2605640439","0.2997250911","0.1419248406","","","","","","","","","","","","75","K","2","","","140","main_expt"
"","bandit","220","1081577","0.0-181.0-0.0","90064203","wem/bandit_either_2","A255A9FFZD8PQW","either","8","343","","","","","","","0","0","1","0.311933389","","0.6","0.2","0.4","0.8","","","","","0.1316830279","0.2260680923","0.311933389","0.1269577117","","","","","","","","75","K","2","","","141","main_expt"
"","bandit","221","1084145","0.0-182.0-0.0","90064203","wem/bandit_either_2","A255A9FFZD8PQW","either","8","1026","","","","","","","0","0","1","0.1073819056","","0.6","0.2","0.4","0.8","","","","","0.09490366034","0.2354846983","0.3442568425","0.1073819056","","","","","","","","76","L","3","","","142","main_expt"
"","bandit","222","1085961","0.0-183.0-0.0","90064203","wem/bandit_either_2","A255A9FFZD8PQW","either","8","275","","","","","","","0","0","1","0.1246024154","","0.6","0.2","0.4","0.8","","","","","0.1246024154","0.2089358464","0.3117203045","0.1152767294","","","","","","","","72","H","0","img/none_selected.jpg","","143","main_expt"
"","bandit","223","1087725","0.0-184.0-0.0","90064203","wem/bandit_either_2","A255A9FFZD8PQW","either","8","222","","","","","","","0","0","1","","0.1844607625","0.6","0.2","0.4","0.8","0.1179874238","0.1844607625","0.3080771123","0.1317444946","","","","","","","","","","","","74","J","1","","","144","main_expt"
"","bandit","224","1089452","0.0-185.0-0.0","90064203","wem/bandit_either_2","A255A9FFZD8PQW","either","8","191","","","","","","","0","0","1","","0.3146876691","0.6","0.2","0.4","0.8","0.1211842963","0.1940384654","0.3146876691","0.1058600218","","","","","","","","","","","","75","K","2","","","145","main_expt"
"","bandit","225","1091477","0.0-186.0-0.0","90064203","wem/bandit_either_2","A255A9FFZD8PQW","either","8","489","","","","","","","1","0","0","0.1862633901","","0.6","0.2","0.4","0.8","","","","","0.06212451067","0.2532022814","0.3526806189","0.1862633901","","","","","","","","76","L","3","","","146","main_expt"
"","bandit","226","1093317","0.0-187.0-0.0","90064203","wem/bandit_either_2","A255A9FFZD8PQW","either","8","280","","","","","","","0","1","0","","0.1944793183","0.6","0.2","0.4","0.8","0.05826033827","0.272856749","0.3859334927","0.1944793183","","","","","","","","","","","","76","L","3","","","147","main_expt"
"","bandit","227","1095224","0.0-188.0-0.0","90064203","wem/bandit_either_2","A255A9FFZD8PQW","either","8","369","","","","","","","0","0","1","","0.1572605535","0.6","0.2","0.4","0.8","0.04847575149","0.2441255329","0.4089873985","0.1572605535","","","","","","","","","","","","76","L","3","","","148","main_expt"
"","bandit","228","1097290","0.0-189.0-0.0","90064203","wem/bandit_either_2","A255A9FFZD8PQW","either","8","303","","","","","","","0","0","1","0.07397138717","","0.6","0.2","0.4","0.8","","","","","0.07397138717","0.2304797635","0.3317076441","0.1632070519","","","","","","","","72","H","0","img/none_selected.jpg","","149","main_expt"
"","bandit","229","1099154","0.0-190.0-0.0","90064203","wem/bandit_either_2","A255A9FFZD8PQW","either","8","335","","","","","","","1","0","0","0.2162169298","","0.6","0.2","0.4","0.8","","","","","0.1178437277","0.2645424191","0.2514439341","0.2162169298","","","","","","","","76","L","3","","","150","main_expt"
"","bandit","230","1101091","0.0-191.0-0.0","90064203","wem/bandit_either_2","A255A9FFZD8PQW","either","8","398","","","","","","","0","0","1","0.2806681102","","0.6","0.2","0.4","0.8","","","","","0.1116740648","0.2919476008","0.2209696772","0.2806681102","","","","","","","","76","L","3","","","151","main_expt"
"","bandit","231","1103368","0.0-192.0-0.0","90064203","wem/bandit_either_2","A255A9FFZD8PQW","either","8","635","","","","","","","0","0","1","","0.25223767","0.6","0.2","0.4","0.8","0.09681320826","0.3004198658","0.2004300668","0.25223767","","","","","","","","","","","","76","L","3","","","152","main_expt"
"","bandit","232","1105280","0.0-193.0-0.0","90064203","wem/bandit_either_2","A255A9FFZD8PQW","either","8","361","","","","","","","0","0","1","","0.1803159607","0.6","0.2","0.4","0.8","0.1162344283","0.2910243242","0.1803159607","0.2259503681","","","","","","","","","","","","75","K","2","","","153","main_expt"
"","bandit","233","1107311","0.0-194.0-0.0","90064203","wem/bandit_either_2","A255A9FFZD8PQW","either","8","310","","","","","","","0","0","1","0.2520515582","","0.6","0.2","0.4","0.8","","","","","0.1441765144","0.2858680692","0.1793353988","0.2520515582","","","","","","","","76","L","3","","","154","main_expt"
"","bandit","234","1109281","0.0-195.0-0.0","90064203","wem/bandit_either_2","A255A9FFZD8PQW","either","8","427","","","","","","","0","0","1","","0.276906037","0.6","0.2","0.4","0.8","0.1506434262","0.276906037","0.175125938","0.246895917","","","","","","","","","","","","74","J","1","","","155","main_expt"
"","bandit","235","1111162","0.0-196.0-0.0","90064203","wem/bandit_either_2","A255A9FFZD8PQW","either","8","332","","","","","","","0","0","1","","0.19004546","0.6","0.2","0.4","0.8","0.1691825384","0.3087514371","0.19004546","0.2067462234","","","","","","","","","","","","75","K","2","","","156","main_expt"
"","bandit","236","1112942","0.0-197.0-0.0","90064203","wem/bandit_either_2","A255A9FFZD8PQW","either","8","258","","","","","","","1","0","0","0.1736677602","","0.6","0.2","0.4","0.8","","","","","0.1465267651","0.3400763937","0.1538528063","0.1736677602","","","","","","","","76","L","3","","","157","main_expt"
"","bandit","237","1114809","0.0-198.0-0.0","90064203","wem/bandit_either_2","A255A9FFZD8PQW","either","8","349","","","","","","","0","0","1","0.2437422656","","0.6","0.2","0.4","0.8","","","","","0.1517260174","0.3388441277","0.1624419901","0.2437422656","","","","","","","","76","L","3","","","158","main_expt"
"","bandit","238","1116656","0.0-199.0-0.0","90064203","wem/bandit_either_2","A255A9FFZD8PQW","either","8","300","","","","","","","0","0","1","0.2627628197","","0.6","0.2","0.4","0.8","","","","","0.143579764","0.3496437485","0.1749682205","0.2627628197","","","","","","","","76","L","3","","","159","main_expt"
"","bandit","239","1118529","0.0-200.0-0.0","90064203","wem/bandit_either_2","A255A9FFZD8PQW","either","8","339","","","","","","","0","0","1","0.2532756584","","0.6","0.2","0.4","0.8","","","","","0.1701049762","0.3347491532","0.2227833177","0.2532756584","","","","","","","","76","L","3","","","160","main_expt"
"","bandit","240","1121575","0.0-201.0-0.0","90064203","wem/bandit_either_2","A255A9FFZD8PQW","either","8","1506","","","","","","","0","0","1","0.1596038406","","0.6","0.2","0.4","0.8","","","","","0.1596038406","0.3036625801","0.1616195486","0.2846030245","","","","","","","","72","H","0","img/none_selected.jpg","","161","main_expt"
"","bandit","241","1123526","0.0-202.0-0.0","90064203","wem/bandit_either_2","A255A9FFZD8PQW","either","8","386","","","","","","","0","0","1","","0.2735804545","0.6","0.2","0.4","0.8","0.1186271452","0.2735804545","0.1440802068","0.2480450928","","","","","","","","","","","","74","J","1","","","162","main_expt"
"","bandit","242","1125378","0.0-203.0-0.0","90064203","wem/bandit_either_2","A255A9FFZD8PQW","either","8","310","","","","","","","0","0","1","0.1349250059","","0.6","0.2","0.4","0.8","","","","","0.1460830151","0.2219233964","0.1349250059","0.3217860246","","","","","","","","75","K","2","","","163","main_expt"
"","bandit","243","1127286","0.0-204.0-0.0","90064203","wem/bandit_either_2","A255A9FFZD8PQW","either","8","356","","","","","","","0","0","1","","0.3528623486","0.6","0.2","0.4","0.8","0.1924179555","0.2489701673","0.1482528248","0.3528623486","","","","","","","","","","","","76","L","3","","","164","main_expt"
"","bandit","244","1129178","0.0-205.0-0.0","90064203","wem/bandit_either_2","A255A9FFZD8PQW","either","8","353","","","","","","","0","0","1","0.3113737792","","0.6","0.2","0.4","0.8","","","","","0.1909643941","0.2424219606","0.1444116863","0.3113737792","","","","","","","","76","L","3","","","165","main_expt"
"","bandit","245","1130842","0.0-206.0-0.0","90064203","wem/bandit_either_2","A255A9FFZD8PQW","either","8","136","","","","","","","0","0","1","","0.1899742571","0.6","0.2","0.4","0.8","0.1917506842","0.1899742571","0.1621449425","0.2820045276","","","","","","","","","","","","74","J","1","","","166","main_expt"
"","bandit","246","1132936","0.0-207.0-0.0","90064203","wem/bandit_either_2","A255A9FFZD8PQW","either","8","550","","","","","","","0","0","1","0.2238056512","","0.6","0.2","0.4","0.8","","","","","0.2238056512","0.2298880826","0.1695256229","0.2539690707","","","","","","","","72","H","0","img/none_selected.jpg","","167","main_expt"
"","bandit","247","1134840","0.0-208.0-0.0","90064203","wem/bandit_either_2","A255A9FFZD8PQW","either","8","373","","","","","","","0","1","0","","0.1712445676","0.6","0.2","0.4","0.8","0.2132240521","0.241220494","0.1712445676","0.2177565821","","","","","","","","","","","","75","K","2","","","168","main_expt"
"","bandit","248","1137181","0.0-209.0-0.0","90064203","wem/bandit_either_2","A255A9FFZD8PQW","either","8","794","","","","","","","0","0","1","","0.191079104","0.6","0.2","0.4","0.8","0.1363713625","0.2113351254","0.191079104","0.183214586","","","","","","","","","","","","75","K","2","","","169","main_expt"
"","bandit","249","1139368","0.0-210.0-0.0","90064203","wem/bandit_either_2","A255A9FFZD8PQW","either","8","630","","","","","","","0","0","1","","0.2227666825","0.6","0.2","0.4","0.8","0.2007690262","0.2224744884","0.2227666825","0.1757282231","","","","","","","","","","","","75","K","2","","","170","main_expt"
"","bandit","250","1141250","0.0-211.0-0.0","90064203","wem/bandit_either_2","A255A9FFZD8PQW","either","8","333","","","","","","","0","0","1","","0.2719914804","0.6","0.2","0.4","0.8","0.1238998316","0.262177911","0.2719914804","0.1679331046","","","","","","","","","","","","75","K","2","","","171","main_expt"
"","bandit","251","1143495","0.0-212.0-0.0","90064203","wem/bandit_either_2","A255A9FFZD8PQW","either","8","596","","","","","","","0","0","1","","0.14560319","0.6","0.2","0.4","0.8","0.09746419185","0.2822992514","0.2330128459","0.14560319","","","","","","","","","","","","76","L","3","","","172","main_expt"
"","bandit","252","1145043","0.0-213.0-0.0","90064203","wem/bandit_either_2","A255A9FFZD8PQW","either","8","1","","","","","","","0","0","1","0.1018164217","","0.6","0.2","0.4","0.8","","","","","0.1018164217","0.2545762091","0.2840251313","0.1341549344","","","","","","","","72","H","0","img/none_selected.jpg","","173","main_expt"
"","bandit","253","1147331","0.0-214.0-0.0","90064203","wem/bandit_either_2","A255A9FFZD8PQW","either","8","650","","","","","","","0","1","0","","0.2838184637","0.6","0.2","0.4","0.8","0.1401689619","0.2838184637","0.2739042306","0.1471305278","","","","","","","","","","","","74","J","1","","","174","main_expt"
"","bandit","254","1149282","0.0-215.0-0.0","90064203","wem/bandit_either_2","A255A9FFZD8PQW","either","8","421","","","","","","","0","0","1","","0.3002790513","0.6","0.2","0.4","0.8","0.1697524679","0.3002790513","0.3444735506","0.173963405","","","","","","","","","","","","74","J","1","","","175","main_expt"
"","bandit","255","1151389","0.0-216.0-0.0","90064203","wem/bandit_either_2","A255A9FFZD8PQW","either","8","557","","","","","","","0","1","0","","0.3771690292","0.6","0.2","0.4","0.8","0.1896898672","0.3771690292","0.3223017316","0.1821857965","","","","","","","","","","","","74","J","1","","","176","main_expt"
"","bandit","256","1153302","0.0-217.0-0.0","90064203","wem/bandit_either_2","A255A9FFZD8PQW","either","8","320","","","","","","","0","1","0","","0.4047809956","0.6","0.2","0.4","0.8","0.2441254625","0.4047809956","0.2964924158","0.1444884472","","","","","","","","","","","","74","J","1","","","177","main_expt"
"","bandit","257","1155220","0.0-218.0-0.0","90064203","wem/bandit_either_2","A255A9FFZD8PQW","either","8","367","","","","","","","0","0","1","","0.4344960837","0.6","0.2","0.4","0.8","0.2427722412","0.4344960837","0.2780576925","0.1207783293","","","","","","","","","","","","74","J","1","","","178","main_expt"
"","bandit","258","1157301","0.0-219.0-0.0","90064203","wem/bandit_either_2","A255A9FFZD8PQW","either","8","349","","","","","","","0","0","1","","0.4287912686","0.6","0.2","0.4","0.8","0.2284650367","0.4287912686","0.2859751729","0.111585665","","","","","","","","","","","","74","J","1","","","179","main_expt"
"","bandit","259","1159427","0.0-220.0-0.0","90064203","wem/bandit_either_2","A255A9FFZD8PQW","either","8","588","","","","","","","0","0","1","","0.283533164","0.6","0.2","0.4","0.8","0.2694081366","0.4294180747","0.283533164","0.06891525065","","","","","","","","","","","","75","K","2","","","180","main_expt"
"","bandit","260","1161271","0.0-221.0-0.0","90064203","wem/bandit_either_2","A255A9FFZD8PQW","either","8","308","","","","","","","0","0","1","","0.3887332701","0.6","0.2","0.4","0.8","0.2471628034","0.3887332701","0.2430023428","0.07407739619","","","","","","","","","","","","74","J","1","","","181","main_expt"
"","bandit","261","1162885","0.0-222.0-0.0","90064203","wem/bandit_either_2","A255A9FFZD8PQW","either","8","59","","","","","","","0","0","1","0.07501704201","","0.6","0.2","0.4","0.8","","","","","0.275372354","0.3910635387","0.223254837","0.07501704201","","","","","","","","76","L","3","","","182","main_expt"
"","bandit","262","1164834","0.0-223.0-0.0","90064203","wem/bandit_either_2","A255A9FFZD8PQW","either","8","404","","","","","","","0","0","1","","0.3957792538","0.6","0.2","0.4","0.8","0.2378950907","0.3957792538","0.2274286797","0.09354103142","","","","","","","","","","","","74","J","1","","","183","main_expt"
"","bandit","263","1166766","0.0-224.0-0.0","90064203","wem/bandit_either_2","A255A9FFZD8PQW","either","8","401","","","","","","","1","0","0","0.2611999536","","0.6","0.2","0.4","0.8","","","","","0.2611999536","0.3777829694","0.2485964068","0.06673830493","","","","","","","","72","H","0","img/none_selected.jpg","","184","main_expt"
"","bandit","264","1168894","0.0-225.0-0.0","90064203","wem/bandit_either_2","A255A9FFZD8PQW","either","8","575","","","","","","","1","0","0","0.2799245071","","0.6","0.2","0.4","0.8","","","","","0.2799245071","0.4130939835","0.2080173303","0.08617836821","","","","","","","","72","H","0","img/none_selected.jpg","","185","main_expt"
"","bandit","265","1170847","0.0-226.0-0.0","90064203","wem/bandit_either_2","A255A9FFZD8PQW","either","8","414","","","","","","","1","0","0","0.2275386122","","0.6","0.2","0.4","0.8","","","","","0.2275386122","0.376930599","0.2538883687","0.05054014018","","","","","","","","72","H","0","img/none_selected.jpg","","186","main_expt"
"","bandit","266","1172808","0.0-227.0-0.0","90064203","wem/bandit_either_2","A255A9FFZD8PQW","either","8","403","","","","","","","0","1","0","","0.2558518805","0.6","0.2","0.4","0.8","0.2558518805","0.3934592684","0.2267652077","0.1101456656","","","","","","","","","","","","72","H","0","img/none_selected.jpg","","187","main_expt"
"","bandit","267","1174697","0.0-228.0-0.0","90064203","wem/bandit_either_2","A255A9FFZD8PQW","either","8","329","","","","","","","0","0","1","0.2757393749","","0.6","0.2","0.4","0.8","","","","","0.2757393749","0.4086060551","0.2583789709","0.1076418148","","","","","","","","72","H","0","img/none_selected.jpg","","188","main_expt"
"","bandit","268","1176573","0.0-229.0-0.0","90064203","wem/bandit_either_2","A255A9FFZD8PQW","either","8","344","","","","","","","0","1","0","","0.3326758055","0.6","0.2","0.4","0.8","0.3326758055","0.447145564","0.2329768584","0.1230456027","","","","","","","","","","","","72","H","0","img/none_selected.jpg","","189","main_expt"
"","bandit","269","1178466","0.0-230.0-0.0","90064203","wem/bandit_either_2","A255A9FFZD8PQW","either","8","354","","","","","","","0","0","1","","0.332927569","0.6","0.2","0.4","0.8","0.332927569","0.386091063","0.2002510669","0.1872873117","","","","","","","","","","","","72","H","0","img/none_selected.jpg","","190","main_expt"
"","bandit","270","1180387","0.0-231.0-0.0","90064203","wem/bandit_either_2","A255A9FFZD8PQW","either","8","394","","","","","","","0","0","1","","0.3859199101","0.6","0.2","0.4","0.8","0.3859199101","0.4221145333","0.2182600554","0.1413073252","","","","","","","","","","","","72","H","0","img/none_selected.jpg","","191","main_expt"
"","bandit","271","1182389","0.0-232.0-0.0","90064203","wem/bandit_either_2","A255A9FFZD8PQW","either","8","443","","","","","","","0","0","1","","0.392668484","0.6","0.2","0.4","0.8","0.392668484","0.3913199708","0.2681613901","0.1868627967","","","","","","","","","","","","72","H","0","img/none_selected.jpg","","192","main_expt"
"","bandit","272","1184705","0.0-233.0-0.0","90064203","wem/bandit_either_2","A255A9FFZD8PQW","either","8","778","","","","","","","0","0","1","","0.3789843676","0.6","0.2","0.4","0.8","0.3789843676","0.4013624592","0.3035027483","0.2312719224","","","","","","","","","","","","72","H","0","img/none_selected.jpg","","193","main_expt"
"","bandit","273","1186625","0.0-234.0-0.0","90064203","wem/bandit_either_2","A255A9FFZD8PQW","either","8","372","","","","","","","1","0","0","0.3689216281","","0.6","0.2","0.4","0.8","","","","","0.3689216281","0.3668237699","0.275531754","0.2585201677","","","","","","","","72","H","0","img/none_selected.jpg","","194","main_expt"
"","bandit","274","1188533","0.0-235.0-0.0","90064203","wem/bandit_either_2","A255A9FFZD8PQW","either","8","364","","","","","","","0","0","1","0.4136905162","","0.6","0.2","0.4","0.8","","","","","0.4136905162","0.3856266791","0.2716401532","0.2786104129","","","","","","","","72","H","0","img/none_selected.jpg","","195","main_expt"
"","bandit","275","1190451","0.0-236.0-0.0","90064203","wem/bandit_either_2","A255A9FFZD8PQW","either","8","390","","","","","","","0","0","1","","0.4258575101","0.6","0.2","0.4","0.8","0.4258575101","0.3702439493","0.2814611543","0.2407834285","","","","","","","","","","","","72","H","0","img/none_selected.jpg","","196","main_expt"
"","bandit","276","1192325","0.0-237.0-0.0","90064203","wem/bandit_either_2","A255A9FFZD8PQW","either","8","339","","","","","","","0","0","1","","0.3976178043","0.6","0.2","0.4","0.8","0.3976178043","0.3665926528","0.2588010394","0.2550568011","","","","","","","","","","","","72","H","0","img/none_selected.jpg","","197","main_expt"
"","bandit","277","1194496","0.0-238.0-0.0","90064203","wem/bandit_either_2","A255A9FFZD8PQW","either","8","657","","","","","","","0","0","1","0.3802378075","","0.6","0.2","0.4","0.8","","","","","0.3802378075","0.3432124584","0.3094610495","0.3094863904","","","","","","","","72","H","0","img/none_selected.jpg","","198","main_expt"
"","bandit","278","1196433","0.0-239.0-0.0","90064203","wem/bandit_either_2","A255A9FFZD8PQW","either","8","391","","","","","","","1","0","0","0.3926800246","","0.6","0.2","0.4","0.8","","","","","0.3926800246","0.4096574544","0.3139278769","0.3012985694","","","","","","","","72","H","0","img/none_selected.jpg","","199","main_expt"
"","bandit","279","1198512","0.0-240.0-0.0","90064203","wem/bandit_either_2","A255A9FFZD8PQW","either","8","348","","","","","","","0","0","1","0.3814844917","","0.6","0.2","0.4","0.8","","","","","0.3814844917","0.3799023259","0.3459706187","0.3149132519","","","","","","","","72","H","0","img/none_selected.jpg","","200","main_expt"
"","bandit","280","1201240","0.0-241.0-0.0","90064203","wem/bandit_either_2","A255A9FFZD8PQW","either","8","1207","","","","","","","0","1","0","","0.3831630738","0.6","0.2","0.4","0.8","0.3831630738","0.3513783521","0.3038365479","0.3236307962","","","","","","","","","","","","72","H","0","img/none_selected.jpg","","201","main_expt"
"","bandit","281","1203458","0.0-242.0-0.0","90064203","wem/bandit_either_2","A255A9FFZD8PQW","either","8","694","","","","","","","1","0","0","0.3957430938","","0.6","0.2","0.4","0.8","","","","","0.3957430938","0.3439351057","0.2964599608","0.3163717903","","","","","","","","72","H","0","img/none_selected.jpg","","202","main_expt"
"","bandit","282","1205340","0.0-243.0-0.0","90064203","wem/bandit_either_2","A255A9FFZD8PQW","either","8","336","","","","","","","0","0","1","0.4175506619","","0.6","0.2","0.4","0.8","","","","","0.4175506619","0.2615327891","0.280336616","0.3165936227","","","","","","","","72","H","0","img/none_selected.jpg","","203","main_expt"
"","bandit","283","1206945","0.0-244.0-0.0","90064203","wem/bandit_either_2","A255A9FFZD8PQW","either","8","16","","","","","","","0","1","0","","0.4356800279","0.6","0.2","0.4","0.8","0.4356800279","0.2211517471","0.262900641","0.3166231072","","","","","","","","","","","","72","H","0","img/none_selected.jpg","","204","main_expt"
"","bandit","284","1208837","0.0-245.0-0.0","90064203","wem/bandit_either_2","A255A9FFZD8PQW","either","8","357","","","","","","","0","0","1","0.4342993254","","0.6","0.2","0.4","0.8","","","","","0.4342993254","0.1955747294","0.3403150927","0.2983153058","","","","","","","","72","H","0","img/none_selected.jpg","","205","main_expt"
"","bandit","285","1210579","0.0-246.0-0.0","90064203","wem/bandit_either_2","A255A9FFZD8PQW","either","8","187","","","","","","","0","0","1","","0.4515967499","0.6","0.2","0.4","0.8","0.4515967499","0.3137251184","0.3407188883","0.255573156","","","","","","","","","","","","72","H","0","img/none_selected.jpg","","206","main_expt"
"","bandit","286","1212537","0.0-247.0-0.0","90064203","wem/bandit_either_2","A255A9FFZD8PQW","either","8","398","","","","","","","0","0","1","0.4559700358","","0.6","0.2","0.4","0.8","","","","","0.4559700358","0.2982459604","0.2955601217","0.2816724171","","","","","","","","72","H","0","img/none_selected.jpg","","207","main_expt"
"","bandit","287","1214517","0.0-248.0-0.0","90064203","wem/bandit_either_2","A255A9FFZD8PQW","either","8","434","","","","","","","0","0","1","","0.2359404152","0.6","0.2","0.4","0.8","0.4711787588","0.2359404152","0.2832193826","0.2462622089","","","","","","","","","","","","74","J","1","","","208","main_expt"
"","bandit","288","1216350","0.0-249.0-0.0","90064203","wem/bandit_either_2","A255A9FFZD8PQW","either","8","286","","","","","","","0","0","1","","0.25637755","0.6","0.2","0.4","0.8","0.4859779177","0.2396635106","0.25637755","0.2608633631","","","","","","","","","","","","75","K","2","","","209","main_expt"
"","bandit","289","1218266","0.0-250.0-0.0","90064203","wem/bandit_either_2","A255A9FFZD8PQW","either","8","375","","","","","","","0","0","1","0.2649708152","","0.6","0.2","0.4","0.8","","","","","0.4798195452","0.2320506775","0.2500912527","0.2649708152","","","","","","","","76","L","3","","","210","main_expt"
"","bandit","290","1220384","0.0-251.0-0.0","90064203","wem/bandit_either_2","A255A9FFZD8PQW","either","8","559","","","","","","","0","0","1","0.4754072522","","0.6","0.2","0.4","0.8","","","","","0.4754072522","0.1894847828","0.2481129288","0.2658594566","","","","","","","","72","H","0","img/none_selected.jpg","","211","main_expt"
"","bandit","291","1222303","0.0-252.0-0.0","90064203","wem/bandit_either_2","A255A9FFZD8PQW","either","8","338","","","","","","","0","0","1","0.2330804604","","0.6","0.2","0.4","0.8","","","","","0.4780703898","0.2330804604","0.3192168596","0.2648449814","","","","","","","","74","J","1","","","212","main_expt"
"","bandit","292","1224120","0.0-253.0-0.0","90064203","wem/bandit_either_2","A255A9FFZD8PQW","either","8","290","","","","","","","0","0","1","","0.2361953268","0.6","0.2","0.4","0.8","0.4883488692","0.2484053244","0.2361953268","0.286492297","","","","","","","","","","","","75","K","2","","","213","main_expt"
"","bandit","293","1226017","0.0-254.0-0.0","90064203","wem/bandit_either_2","A255A9FFZD8PQW","either","8","350","","","","","","","0","0","1","0.2540339129","","0.6","0.2","0.4","0.8","","","","","0.4872562331","0.2182548364","0.2308921763","0.2540339129","","","","","","","","76","L","3","","","214","main_expt"
"","bandit","294","1227794","0.0-255.0-0.0","90064203","wem/bandit_either_2","A255A9FFZD8PQW","either","8","233","","","","","","","1","0","0","0.4749609167","","0.6","0.2","0.4","0.8","","","","","0.4749609167","0.1824073789","0.2161033537","0.254651127","","","","","","","","72","H","0","img/none_selected.jpg","","215","main_expt"
"","bandit","295","1229627","0.0-256.0-0.0","90064203","wem/bandit_either_2","A255A9FFZD8PQW","either","8","296","","","","","","","0","0","1","0.4798413464","","0.6","0.2","0.4","0.8","","","","","0.4798413464","0.1923730387","0.1896756427","0.3140517816","","","","","","","","72","H","0","img/none_selected.jpg","","216","main_expt"
"","bandit","296","1231763","0.0-257.0-0.0","90064203","wem/bandit_either_2","A255A9FFZD8PQW","either","8","597","","","","","","","0","0","1","","0.2266612446","0.6","0.2","0.4","0.8","0.4865144435","0.2266612446","0.1724286307","0.3338676317","","","","","","","","","","","","74","J","1","","","217","main_expt"
"","bandit","297","1233842","0.0-258.0-0.0","90064203","wem/bandit_either_2","A255A9FFZD8PQW","either","8","528","","","","","","","0","0","1","","0.4789145001","0.6","0.2","0.4","0.8","0.4789145001","0.1702705737","0.161168334","0.3397001125","","","","","","","","","","","","72","H","0","img/none_selected.jpg","","218","main_expt"
"","bandit","298","1235977","0.0-259.0-0.0","90064203","wem/bandit_either_2","A255A9FFZD8PQW","either","8","576","","","","","","","0","0","1","","0.2021763003","0.6","0.2","0.4","0.8","0.4834748692","0.1159766116","0.2021763003","0.2982528089","","","","","","","","","","","","75","K","2","","","219","main_expt"
"","bandit","299","1238005","0.0-260.0-0.0","90064203","wem/bandit_either_2","A255A9FFZD8PQW","either","8","480","","","","","","","0","0","1","0.4722371777","","0.6","0.2","0.4","0.8","","","","","0.4722371777","0.09529473055","0.2142164272","0.2770934022","","","","","","","","72","H","0","img/none_selected.jpg","","220","main_expt"
"","bandit","300","1240002","0.0-261.0-0.0","90064203","wem/bandit_either_2","A255A9FFZD8PQW","either","8","457","","","","","","","0","0","1","0.2696770889","","0.6","0.2","0.4","0.8","","","","","0.4654689219","0.09060922323","0.189068297","0.2696770889","","","","","","","","76","L","3","","","221","main_expt"
"","bandit","301","1243010","0.0-262.0-0.0","90064203","wem/bandit_either_2","A255A9FFZD8PQW","either","8","1466","","","","","","","1","0","0","0.4533789701","","0.6","0.2","0.4","0.8","","","","","0.4533789701","0.1250772464","0.2120997892","0.3103502417","","","","","","","","72","H","0","img/none_selected.jpg","","222","main_expt"
"","bandit","302","1244898","0.0-263.0-0.0","90064203","wem/bandit_either_2","A255A9FFZD8PQW","either","8","359","","","","","","","1","0","0","0.4473019993","","0.6","0.2","0.4","0.8","","","","","0.4473019993","0.1177235221","0.1937664477","0.3477728299","","","","","","","","72","H","0","img/none_selected.jpg","","223","main_expt"
"","bandit","303","1246823","0.0-264.0-0.0","90064203","wem/bandit_either_2","A255A9FFZD8PQW","either","8","364","","","","","","","1","0","0","0.4651086175","","0.6","0.2","0.4","0.8","","","","","0.4651086175","0.1589673504","0.2195846313","0.3230244909","","","","","","","","72","H","0","img/none_selected.jpg","","224","main_expt"
"","bandit","304","1248853","0.0-265.0-0.0","90064203","wem/bandit_either_2","A255A9FFZD8PQW","either","8","466","","","","","","","0","1","0","","0.4704934375","0.6","0.2","0.4","0.8","0.4704934375","0.1582937281","0.1973587738","0.3641913847","","","","","","","","","","","","72","H","0","img/none_selected.jpg","","225","main_expt"
"","bandit","305","1250703","0.0-266.0-0.0","90064203","wem/bandit_either_2","A255A9FFZD8PQW","either","8","324","","","","","","","0","0","1","","0.4545632724","0.6","0.2","0.4","0.8","0.4545632724","0.1585786296","0.2029059012","0.3211822138","","","","","","","","","","","","72","H","0","img/none_selected.jpg","","226","main_expt"
"","bandit","306","1252913","0.0-267.0-0.0","90064203","wem/bandit_either_2","A255A9FFZD8PQW","either","8","670","","","","","","","0","0","1","","0.4313330006","0.6","0.2","0.4","0.8","0.4313330006","0.1614007709","0.1677618241","0.3318596792","","","","","","","","","","","","72","H","0","img/none_selected.jpg","","227","main_expt"
"","bandit","307","1254797","0.0-268.0-0.0","90064203","wem/bandit_either_2","A255A9FFZD8PQW","either","8","340","","","","","","","0","0","1","","0.1160982884","0.6","0.2","0.4","0.8","0.4253897179","0.1160982884","0.2079318551","0.3715738924","","","","","","","","","","","","74","J","1","","","228","main_expt"
"","bandit","308","1256644","0.0-269.0-0.0","90064203","wem/bandit_either_2","A255A9FFZD8PQW","either","8","295","","","","","","","0","0","1","0.4416009531","","0.6","0.2","0.4","0.8","","","","","0.4416009531","0.1327168588","0.1860779256","0.3571583743","","","","","","","","72","H","0","img/none_selected.jpg","","229","main_expt"
"","bandit","309","1258492","0.0-270.0-0.0","90064203","wem/bandit_either_2","A255A9FFZD8PQW","either","8","301","","","","","","","0","0","1","","0.1294985144","0.6","0.2","0.4","0.8","0.4612445757","0.1751239199","0.1294985144","0.3455313741","","","","","","","","","","","","75","K","2","","","230","main_expt"
"","bandit","310","1261323","0.0-271.0-0.0","90064203","wem/bandit_either_2","A255A9FFZD8PQW","either","8","1278","","","","","","","0","0","1","0.3114256563","","0.6","0.2","0.4","0.8","","","","","0.4455927364","0.2080149414","0.1424139305","0.3114256563","","","","","","","","76","L","3","","","231","main_expt"
"","bandit","311","1263308","0.0-272.0-0.0","90064203","wem/bandit_either_2","A255A9FFZD8PQW","either","8","270","","","","","","","0","0","1","0.4449483857","","0.6","0.2","0.4","0.8","","","","","0.4449483857","0.2305008548","0.1777617008","0.3127001645","","","","","","","","72","H","0","img/none_selected.jpg","","232","main_expt"
"","bandit","312","1265369","0.0-273.0-0.0","90064203","wem/bandit_either_2","A255A9FFZD8PQW","either","8","529","","","","","","","0","1","0","","0.2331895239","0.6","0.2","0.4","0.8","0.4570404202","0.2331895239","0.1408291819","0.2953609795","","","","","","","","","","","","74","J","1","","","233","main_expt"
"","bandit","313","1267306","0.0-274.0-0.0","90064203","wem/bandit_either_2","A255A9FFZD8PQW","either","8","364","","","","","","","0","0","1","","0.2007149185","0.6","0.2","0.4","0.8","0.4785018613","0.2007149185","0.09563300426","0.2743769666","","","","","","","","","","","","74","J","1","","","234","main_expt"
"","bandit","314","1269201","0.0-275.0-0.0","90064203","wem/bandit_either_2","A255A9FFZD8PQW","either","8","351","","","","","","","0","0","1","","0.1428876463","0.6","0.2","0.4","0.8","0.4708517218","0.1428876463","0.06508254785","0.2842570603","","","","","","","","","","","","74","J","1","","","235","main_expt"
"","bandit","315","1271048","0.0-276.0-0.0","90064203","wem/bandit_either_2","A255A9FFZD8PQW","either","8","329","","","","","","","0","0","1","0.1327756685","","0.6","0.2","0.4","0.8","","","","","0.4721911582","0.1327756685","0.05272484418","0.3536106974","","","","","","","","74","J","1","","","236","main_expt"
"","bandit","316","1273019","0.0-277.0-0.0","90064203","wem/bandit_either_2","A255A9FFZD8PQW","either","8","439","","","","","","","1","0","0","0.4567984566","","0.6","0.2","0.4","0.8","","","","","0.4567984566","0.1969646424","0.05000735717","0.3777879982","","","","","","","","72","H","0","img/none_selected.jpg","","237","main_expt"
"","bandit","317","1274917","0.0-278.0-0.0","90064203","wem/bandit_either_2","A255A9FFZD8PQW","either","8","353","","","","","","","0","0","1","0.4601910044","","0.6","0.2","0.4","0.8","","","","","0.4601910044","0.2040955009","0.03409798278","0.3819628943","","","","","","","","72","H","0","img/none_selected.jpg","","238","main_expt"
"","bandit","318","1276948","0.0-279.0-0.0","90064203","wem/bandit_either_2","A255A9FFZD8PQW","either","8","488","","","","","","","0","0","1","","0.4663275819","0.6","0.2","0.4","0.8","0.4663275819","0.1885012088","0.03555143528","0.3590612953","","","","","","","","","","","","72","H","0","img/none_selected.jpg","","239","main_expt"
"","bandit","319","1278851","0.0-280.0-0.0","90064203","wem/bandit_either_2","A255A9FFZD8PQW","either","8","373","","","","","","","0","0","1","","0.4781926851","0.6","0.2","0.4","0.8","0.4781926851","0.1779850251","0.06633834621","0.3943681209","","","","","","","","","","","","72","H","0","img/none_selected.jpg","","240","main_expt"
"","bandit","320","1280917","0.0-281.0-0.0","90064203","wem/bandit_either_2","A255A9FFZD8PQW","either","8","503","","","","","","","0","0","1","","0.0332650027","0.6","0.2","0.4","0.8","0.4813407325","0.2132761508","0.0332650027","0.4178476804","","","","","","","","","","","","75","K","2","","","241","main_expt"
"","bandit","321","1282638","0.0-282.0-0.0","90064203","wem/bandit_either_2","A255A9FFZD8PQW","either","8","196","","","","","","","1","0","0","0.4083523659","","0.6","0.2","0.4","0.8","","","","","0.4758201438","0.2181708985","0.03674005559","0.4083523659","","","","","","","","76","L","3","","","242","main_expt"
"","bandit","322","1284457","0.0-283.0-0.0","90064203","wem/bandit_either_2","A255A9FFZD8PQW","either","8","290","","","","","","","1","0","0","0.4107673147","","0.6","0.2","0.4","0.8","","","","","0.4739127226","0.1880751836","0.02732183546","0.4107673147","","","","","","","","76","L","3","","","243","main_expt"
"","bandit","323","1286333","0.0-284.0-0.0","90064203","wem/bandit_either_2","A255A9FFZD8PQW","either","8","323","","","","","","","0","0","1","","0.3914084711","0.6","0.2","0.4","0.8","0.4467527753","0.2693527465","0.02742276317","0.3914084711","","","","","","","","","","","","76","L","3","","","244","main_expt"
"","bandit","324","1288335","0.0-285.0-0.0","90064203","wem/bandit_either_2","A255A9FFZD8PQW","either","8","305","","","","","","","0","0","1","0.4117032301","","0.6","0.2","0.4","0.8","","","","","0.4492118003","0.2474629182","0.03322496416","0.4117032301","","","","","","","","76","L","3","","","245","main_expt"
"","bandit","325","1290212","0.0-286.0-0.0","90064203","wem/bandit_either_2","A255A9FFZD8PQW","either","8","322","","","","","","","1","0","0","0.4225436654","","0.6","0.2","0.4","0.8","","","","","0.4702058379","0.3019125269","0.0538648904","0.4225436654","","","","","","","","76","L","3","","","246","main_expt"
