"consent","trial_type","trial_index","time_elapsed","internal_node_id","subjID","study","MID","cond","drift","rt","responses","key_press","expt_phase","like","value","connected","gems","bombs","no_reward","GemPrChosen","BombPrChosen","GainOverPainPr_0","GainOverPainPr_1","GainOverPainPr_2","GainOverPainPr_3","LosePr_0","LosePr_1","LosePr_2","LosePr_3","WinPr_0","WinPr_1","WinPr_2","WinPr_3","Q0","Q1","Q2","gender","age","ethnicity","target","respCharCode","respKey","respChoiceNum","respChoice","practice","trial_counter","trial_label"
"INL_behavioral_consent_30min_online.html","consent","0","14598","0.0-0.0","92015137","wem/bandit_either_2","A3CFBT2CBQQIZY","either","3","","","","","","","","","","","","","","","","","","","","","","","","","","","","","","","","","","","","","",""
"","survey-text","1","19869","0.0-1.0","92015137","wem/bandit_either_2","A3CFBT2CBQQIZY","either","3","4264","{""Q0"":""A3CFBT2CBQQIZY""}","","","","","","","","","","","","","","","","","","","","","","","","","","","","","","","","","","","",""
"","text","2","26287","0.0-2.0","92015137","wem/bandit_either_2","A3CFBT2CBQQIZY","either","3","5414","","32","","","","","","","","","","","","","","","","","","","","","","","","","","","","","","","","","","",""
"","text","3","31691","0.0-3.0","92015137","wem/bandit_either_2","A3CFBT2CBQQIZY","either","3","5403","","32","","","","","","","","","","","","","","","","","","","","","","","","","","","","","","","","","","",""
"","text","4","46798","0.0-4.0","92015137","wem/bandit_either_2","A3CFBT2CBQQIZY","either","3","15105","","32","","","","","","","","","","","","","","","","","","","","","","","","","","","","","","","","","","",""
"","text","5","58237","0.0-5.0","92015137","wem/bandit_either_2","A3CFBT2CBQQIZY","either","3","11437","","32","","","","","","","","","","","","","","","","","","","","","","","","","","","","","","","","","","",""
"","text","6","87199","0.0-6.0","92015137","wem/bandit_either_2","A3CFBT2CBQQIZY","either","3","28960","","32","","","","","","","","","","","","","","","","","","","","","","","","","","","","","","","","","","",""
"","text","7","97361","0.0-7.0","92015137","wem/bandit_either_2","A3CFBT2CBQQIZY","either","3","10159","","32","","","","","","","","","","","","","","","","","","","","","","","","","","","","","","","","","","",""
"","text","8","99906","0.0-8.0","92015137","wem/bandit_either_2","A3CFBT2CBQQIZY","either","3","2544","","32","","","","","","","","","","","","","","","","","","","","","","","","","","","","","","","","","","",""
"","identification","9","108743","0.0-9.0-0.0","92015137","wem/bandit_either_2","A3CFBT2CBQQIZY","either","3","8810","","","","1","0","0","","","","","","","","","","","","","","","","","","","","","","","","the village of Zur","","","","","","",""
"","identification","10","118456","0.0-9.0-1.0","92015137","wem/bandit_either_2","A3CFBT2CBQQIZY","either","3","8683","","","","4","4","2","","","","","","","","","","","","","","","","","","","","","","","","the village of Nyx","","","","","","",""
"","text","11","123989","0.0-10.0","92015137","wem/bandit_either_2","A3CFBT2CBQQIZY","either","3","4531","","32","","","","","","","","","","","","","","","","","","","","","","","","","","","","","","","","","","",""
"","text","12","127108","0.0-11.0","92015137","wem/bandit_either_2","A3CFBT2CBQQIZY","either","3","3117","","32","","","","","","","","","","","","","","","","","","","","","","","","","","","","","","","","","","",""
"","text","13","129277","0.0-12.0","92015137","wem/bandit_either_2","A3CFBT2CBQQIZY","either","3","2168","","32","","","","","","","","","","","","","","","","","","","","","","","","","","","","","","","","","","",""
"","text","14","132605","0.0-13.0","92015137","wem/bandit_either_2","A3CFBT2CBQQIZY","either","3","3327","","32","","","","","","","","","","","","","","","","","","","","","","","","","","","","","","","","","","",""
"","bandit","15","137278","0.0-14.0-0.0","92015137","wem/bandit_either_2","A3CFBT2CBQQIZY","either","3","3164","","","","","","","0","0","1","0","0","","","","","0","","","","0","","","","","","","","","","","74","J","0","img/none_selected_demo.jpg","true","0",""
"","bandit","16","140546","0.0-15.0-0.0","92015137","wem/bandit_either_2","A3CFBT2CBQQIZY","either","3","1761","","","","","","","0","0","1","0","0","","","","","0","","","","0","","","","","","","","","","","75","K","0","img/none_selected_demo.jpg","true","0",""
"","text","17","148407","0.0-16.0","92015137","wem/bandit_either_2","A3CFBT2CBQQIZY","either","3","7859","","32","","","","","","","","","","","","","","","","","","","","","","","","","","","","","","","","","","",""
"","text","18","155668","0.0-17.0","92015137","wem/bandit_either_2","A3CFBT2CBQQIZY","either","3","7260","","32","","","","","","","","","","","","","","","","","","","","","","","","","","","","","","","","","","",""
"","text","19","160241","0.0-18.0","92015137","wem/bandit_either_2","A3CFBT2CBQQIZY","either","3","4572","","32","","","","","","","","","","","","","","","","","","","","","","","","","","","","","","","","","","",""
"","text","20","162644","0.0-19.0","92015137","wem/bandit_either_2","A3CFBT2CBQQIZY","either","3","2402","","32","","","","","","","","","","","","","","","","","","","","","","","","","","","","","","","","","","",""
"","bandit","21","165445","0.0-20.0-0.0","92015137","wem/bandit_either_2","A3CFBT2CBQQIZY","either","3","1294","","","","","","","0","0","1","","0.8","0.5","0.5","","","0.8","0.2","","","","","","","","","","","","","","74","J","0","img/none_selected_demo.jpg","true","0","80_20_practice"
"","bandit","22","168088","0.0-20.0-1.0","92015137","wem/bandit_either_2","A3CFBT2CBQQIZY","either","3","1137","","","","","","","0","0","1","","0.2","0.5","0.5","","","0.8","0.2","","","","","","","","","","","","","","75","K","1","","true","0","80_20_practice"
"","bandit","23","169979","0.0-20.0-2.0","92015137","wem/bandit_either_2","A3CFBT2CBQQIZY","either","3","383","","","","","","","1","0","0","0.8","","0.5","0.5","","","","","","","0.8","0.2","","","","","","","","","","74","J","0","img/none_selected_demo.jpg","true","0","80_20_practice"
"","bandit","24","171876","0.0-20.0-3.0","92015137","wem/bandit_either_2","A3CFBT2CBQQIZY","either","3","391","","","","","","","0","1","0","","0.8","0.5","0.5","","","0.8","0.2","","","","","","","","","","","","","","74","J","0","img/none_selected_demo.jpg","true","0","80_20_practice"
"","bandit","25","173972","0.0-20.0-4.0","92015137","wem/bandit_either_2","A3CFBT2CBQQIZY","either","3","590","","","","","","","0","1","0","","0.8","0.5","0.5","","","0.8","0.2","","","","","","","","","","","","","","74","J","0","img/none_selected_demo.jpg","true","0","80_20_practice"
"","bandit","26","175756","0.0-20.0-5.0","92015137","wem/bandit_either_2","A3CFBT2CBQQIZY","either","3","253","","","","","","","0","0","1","","0.2","0.5","0.5","","","0.8","0.2","","","","","","","","","","","","","","75","K","1","","true","0","80_20_practice"
"","bandit","27","177634","0.0-20.0-6.0","92015137","wem/bandit_either_2","A3CFBT2CBQQIZY","either","3","371","","","","","","","0","0","1","0.2","","0.5","0.5","","","","","","","0.8","0.2","","","","","","","","","","75","K","1","","true","0","80_20_practice"
"","bandit","28","179433","0.0-20.0-7.0","92015137","wem/bandit_either_2","A3CFBT2CBQQIZY","either","3","294","","","","","","","0","0","1","0.8","","0.5","0.5","","","","","","","0.8","0.2","","","","","","","","","","74","J","0","img/none_selected_demo.jpg","true","0","80_20_practice"
"","bandit","29","181316","0.0-20.0-8.0","92015137","wem/bandit_either_2","A3CFBT2CBQQIZY","either","3","377","","","","","","","1","0","0","0.8","","0.5","0.5","","","","","","","0.8","0.2","","","","","","","","","","74","J","0","img/none_selected_demo.jpg","true","0","80_20_practice"
"","bandit","30","182999","0.0-20.0-9.0","92015137","wem/bandit_either_2","A3CFBT2CBQQIZY","either","3","175","","","","","","","0","1","0","","0.8","0.5","0.5","","","0.8","0.2","","","","","","","","","","","","","","74","J","0","img/none_selected_demo.jpg","true","0","80_20_practice"
"","bandit","31","184718","0.0-20.0-10.0","92015137","wem/bandit_either_2","A3CFBT2CBQQIZY","either","3","214","","","","","","","0","1","0","","0.8","0.5","0.5","","","0.8","0.2","","","","","","","","","","","","","","74","J","0","img/none_selected_demo.jpg","true","0","80_20_practice"
"","bandit","32","186663","0.0-20.0-11.0","92015137","wem/bandit_either_2","A3CFBT2CBQQIZY","either","3","439","","","","","","","0","0","1","","0.2","0.5","0.5","","","0.8","0.2","","","","","","","","","","","","","","75","K","1","","true","0","80_20_practice"
"","bandit","33","188859","0.0-20.0-12.0","92015137","wem/bandit_either_2","A3CFBT2CBQQIZY","either","3","689","","","","","","","0","0","1","0.2","","0.5","0.5","","","","","","","0.8","0.2","","","","","","","","","","75","K","1","","true","0","80_20_practice"
"","bandit","34","190761","0.0-20.0-13.0","92015137","wem/bandit_either_2","A3CFBT2CBQQIZY","either","3","393","","","","","","","0","0","1","0.2","","0.5","0.5","","","","","","","0.8","0.2","","","","","","","","","","75","K","1","","true","0","80_20_practice"
"","bandit","35","192598","0.0-20.0-14.0","92015137","wem/bandit_either_2","A3CFBT2CBQQIZY","either","3","328","","","","","","","0","0","1","0.2","","0.5","0.5","","","","","","","0.8","0.2","","","","","","","","","","75","K","1","","true","0","80_20_practice"
"","bandit","36","194336","0.0-20.0-15.0","92015137","wem/bandit_either_2","A3CFBT2CBQQIZY","either","3","232","","","","","","","1","0","0","0.8","","0.5","0.5","","","","","","","0.8","0.2","","","","","","","","","","74","J","0","img/none_selected_demo.jpg","true","0","80_20_practice"
"","bandit","37","196173","0.0-20.0-16.0","92015137","wem/bandit_either_2","A3CFBT2CBQQIZY","either","3","329","","","","","","","0","1","0","","0.8","0.5","0.5","","","0.8","0.2","","","","","","","","","","","","","","74","J","0","img/none_selected_demo.jpg","true","0","80_20_practice"
"","bandit","38","198044","0.0-20.0-17.0","92015137","wem/bandit_either_2","A3CFBT2CBQQIZY","either","3","365","","","","","","","0","1","0","","0.8","0.5","0.5","","","0.8","0.2","","","","","","","","","","","","","","74","J","0","img/none_selected_demo.jpg","true","0","80_20_practice"
"","bandit","39","199842","0.0-20.0-18.0","92015137","wem/bandit_either_2","A3CFBT2CBQQIZY","either","3","292","","","","","","","1","0","0","0.8","","0.5","0.5","","","","","","","0.8","0.2","","","","","","","","","","74","J","0","img/none_selected_demo.jpg","true","0","80_20_practice"
"","bandit","40","201557","0.0-20.0-19.0","92015137","wem/bandit_either_2","A3CFBT2CBQQIZY","either","3","207","","","","","","","0","1","0","","0.8","0.5","0.5","","","0.8","0.2","","","","","","","","","","","","","","74","J","0","img/none_selected_demo.jpg","true","0","80_20_practice"
"","text","41","205772","0.0-21.0","92015137","wem/bandit_either_2","A3CFBT2CBQQIZY","either","3","4213","","32","","","","","","","","","","","","","","","","","","","","","","","","","","","","","","","","","","",""
"","bandit","42","209767","0.0-22.0-0.0","92015137","wem/bandit_either_2","A3CFBT2CBQQIZY","either","3","2489","","","","","","","1","0","0","1","0","","","","","0","1","","","1","0","","","","","","","","","","74","J","0","img/none_selected_demo.jpg","true","0",""
"","text","43","218338","0.0-23.0","92015137","wem/bandit_either_2","A3CFBT2CBQQIZY","either","3","8569","","32","","","","","","","","","","","","","","","","","","","","","","","","","","","","","","","","","","",""
"","text","44","220498","0.0-24.0","92015137","wem/bandit_either_2","A3CFBT2CBQQIZY","either","3","2158","","32","","","","","","","","","","","","","","","","","","","","","","","","","","","","","","","","","","",""
"","text","45","223267","0.0-25.0","92015137","wem/bandit_either_2","A3CFBT2CBQQIZY","either","3","2767","","32","","","","","","","","","","","","","","","","","","","","","","","","","","","","","","","","","","",""
"","text","46","225174","0.0-26.0","92015137","wem/bandit_either_2","A3CFBT2CBQQIZY","either","3","1905","","32","","","","","","","","","","","","","","","","","","","","","","","","","","","","","","","","","","",""
"","text","47","234518","0.0-27.0","92015137","wem/bandit_either_2","A3CFBT2CBQQIZY","either","3","9343","","32","","","","","","","","","","","","","","","","","","","","","","","","","","","","","","","","","","",""
"","text","48","236794","0.0-28.0","92015137","wem/bandit_either_2","A3CFBT2CBQQIZY","either","3","2274","","32","","","","","","","","","","","","","","","","","","","","","","","","","","","","","","","","","","",""
"","text","49","240214","0.0-29.0","92015137","wem/bandit_either_2","A3CFBT2CBQQIZY","either","3","3418","","32","","","","","","","","","","","","","","","","","","","","","","","","","","","","","","","","","","",""
"","text","50","243795","0.0-30.0","92015137","wem/bandit_either_2","A3CFBT2CBQQIZY","either","3","3579","","32","","","","","","","","","","","","","","","","","","","","","","","","","","","","","","","","","","",""
"","text","51","247736","0.0-31.0","92015137","wem/bandit_either_2","A3CFBT2CBQQIZY","either","3","3939","","32","","","","","","","","","","","","","","","","","","","","","","","","","","","","","","","","","","",""
"","text","52","249158","0.0-32.0","92015137","wem/bandit_either_2","A3CFBT2CBQQIZY","either","3","1420","","32","","","","","","","","","","","","","","","","","","","","","","","","","","","","","","","","","","",""
"","text","53","252491","0.0-33.0","92015137","wem/bandit_either_2","A3CFBT2CBQQIZY","either","3","3330","","32","","","","","","","","","","","","","","","","","","","","","","","","","","","","","","","","","","",""
"","bandit","54","254760","0.0-34.0-0.0","92015137","wem/bandit_either_2","A3CFBT2CBQQIZY","either","3","760","","","","","","","1","0","0","0.8","","0.5","0.5","0.5","0.5","","","","","0.8","0.2","0.6","0.2","","","","","","","","72","H","0","img/none_selected.jpg","true","0","full_practice"
"","bandit","55","256906","0.0-34.0-1.0","92015137","wem/bandit_either_2","A3CFBT2CBQQIZY","either","3","638","","","","","","","0","0","1","0.2","","0.5","0.5","0.5","0.5","","","","","0.8","0.2","0.6","0.2","","","","","","","","74","J","1","","true","0","full_practice"
"","bandit","56","258730","0.0-34.0-2.0","92015137","wem/bandit_either_2","A3CFBT2CBQQIZY","either","3","302","","","","","","","0","0","1","","0.6","0.5","0.5","0.5","0.5","0.8","0.2","0.6","0.2","","","","","","","","","","","","75","K","2","","true","0","full_practice"
"","bandit","57","260567","0.0-34.0-3.0","92015137","wem/bandit_either_2","A3CFBT2CBQQIZY","either","3","329","","","","","","","0","0","1","","0.2","0.5","0.5","0.5","0.5","0.8","0.2","0.6","0.2","","","","","","","","","","","","76","L","3","","true","0","full_practice"
"","bandit","58","262448","0.0-34.0-4.0","92015137","wem/bandit_either_2","A3CFBT2CBQQIZY","either","3","374","","","","","","","0","1","0","","0.8","0.5","0.5","0.5","0.5","0.8","0.2","0.6","0.2","","","","","","","","","","","","72","H","0","img/none_selected.jpg","true","0","full_practice"
"","bandit","59","264327","0.0-34.0-5.0","92015137","wem/bandit_either_2","A3CFBT2CBQQIZY","either","3","374","","","","","","","0","1","0","","0.8","0.5","0.5","0.5","0.5","0.8","0.2","0.6","0.2","","","","","","","","","","","","72","H","0","img/none_selected.jpg","true","0","full_practice"
"","bandit","60","266258","0.0-34.0-6.0","92015137","wem/bandit_either_2","A3CFBT2CBQQIZY","either","3","425","","","","","","","1","0","0","0.8","","0.5","0.5","0.5","0.5","","","","","0.8","0.2","0.6","0.2","","","","","","","","72","H","0","img/none_selected.jpg","true","0","full_practice"
"","bandit","61","268112","0.0-34.0-7.0","92015137","wem/bandit_either_2","A3CFBT2CBQQIZY","either","3","348","","","","","","","0","1","0","","0.8","0.5","0.5","0.5","0.5","0.8","0.2","0.6","0.2","","","","","","","","","","","","72","H","0","img/none_selected.jpg","true","0","full_practice"
"","bandit","62","269973","0.0-34.0-8.0","92015137","wem/bandit_either_2","A3CFBT2CBQQIZY","either","3","353","","","","","","","1","0","0","0.8","","0.5","0.5","0.5","0.5","","","","","0.8","0.2","0.6","0.2","","","","","","","","72","H","0","img/none_selected.jpg","true","0","full_practice"
"","bandit","63","271698","0.0-34.0-9.0","92015137","wem/bandit_either_2","A3CFBT2CBQQIZY","either","3","218","","","","","","","1","0","0","0.8","","0.5","0.5","0.5","0.5","","","","","0.8","0.2","0.6","0.2","","","","","","","","72","H","0","img/none_selected.jpg","true","0","full_practice"
"","bandit","64","273385","0.0-34.0-10.0","92015137","wem/bandit_either_2","A3CFBT2CBQQIZY","either","3","179","","","","","","","0","1","0","","0.8","0.5","0.5","0.5","0.5","0.8","0.2","0.6","0.2","","","","","","","","","","","","72","H","0","img/none_selected.jpg","true","0","full_practice"
"","bandit","65","275328","0.0-34.0-11.0","92015137","wem/bandit_either_2","A3CFBT2CBQQIZY","either","3","436","","","","","","","0","1","0","","0.8","0.5","0.5","0.5","0.5","0.8","0.2","0.6","0.2","","","","","","","","","","","","72","H","0","img/none_selected.jpg","true","0","full_practice"
"","bandit","66","277149","0.0-34.0-12.0","92015137","wem/bandit_either_2","A3CFBT2CBQQIZY","either","3","314","","","","","","","0","0","1","0.8","","0.5","0.5","0.5","0.5","","","","","0.8","0.2","0.6","0.2","","","","","","","","72","H","0","img/none_selected.jpg","true","0","full_practice"
"","bandit","67","279153","0.0-34.0-13.0","92015137","wem/bandit_either_2","A3CFBT2CBQQIZY","either","3","498","","","","","","","0","1","0","","0.8","0.5","0.5","0.5","0.5","0.8","0.2","0.6","0.2","","","","","","","","","","","","72","H","0","img/none_selected.jpg","true","0","full_practice"
"","bandit","68","280988","0.0-34.0-14.0","92015137","wem/bandit_either_2","A3CFBT2CBQQIZY","either","3","327","","","","","","","0","0","1","0.2","","0.5","0.5","0.5","0.5","","","","","0.8","0.2","0.6","0.2","","","","","","","","74","J","1","","true","0","full_practice"
"","bandit","69","282747","0.0-34.0-15.0","92015137","wem/bandit_either_2","A3CFBT2CBQQIZY","either","3","252","","","","","","","0","1","0","","0.6","0.5","0.5","0.5","0.5","0.8","0.2","0.6","0.2","","","","","","","","","","","","75","K","2","","true","0","full_practice"
"","bandit","70","284689","0.0-34.0-16.0","92015137","wem/bandit_either_2","A3CFBT2CBQQIZY","either","3","437","","","","","","","0","0","1","","0.2","0.5","0.5","0.5","0.5","0.8","0.2","0.6","0.2","","","","","","","","","","","","76","L","3","","true","0","full_practice"
"","bandit","71","286531","0.0-34.0-17.0","92015137","wem/bandit_either_2","A3CFBT2CBQQIZY","either","3","336","","","","","","","0","1","0","","0.6","0.5","0.5","0.5","0.5","0.8","0.2","0.6","0.2","","","","","","","","","","","","75","K","2","","true","0","full_practice"
"","bandit","72","288207","0.0-34.0-18.0","92015137","wem/bandit_either_2","A3CFBT2CBQQIZY","either","3","168","","","","","","","0","0","1","","0.6","0.5","0.5","0.5","0.5","0.8","0.2","0.6","0.2","","","","","","","","","","","","75","K","2","","true","0","full_practice"
"","bandit","73","290034","0.0-34.0-19.0","92015137","wem/bandit_either_2","A3CFBT2CBQQIZY","either","3","319","","","","","","","0","1","0","","0.6","0.5","0.5","0.5","0.5","0.8","0.2","0.6","0.2","","","","","","","","","","","","75","K","2","","true","0","full_practice"
"","text","74","292759","0.0-35.0","92015137","wem/bandit_either_2","A3CFBT2CBQQIZY","either","3","2720","","32","","","","","","","","","","","","","","","","","","","","","","","","","","","","","","","","","","",""
"","text","75","301180","0.0-36.0","92015137","wem/bandit_either_2","A3CFBT2CBQQIZY","either","3","7419","","32","","","","","","","","","","","","","","","","","","","","","","","","","","","","","","","","","","",""
"","text","76","308516","0.0-37.0","92015137","wem/bandit_either_2","A3CFBT2CBQQIZY","either","3","7333","","32","","","","","","","","","","","","","","","","","","","","","","","","","","","","","","","","","","",""
"","text","77","312956","0.0-38.0","92015137","wem/bandit_either_2","A3CFBT2CBQQIZY","either","3","4439","","32","","","","","","","","","","","","","","","","","","","","","","","","","","","","","","","","","","",""
"","text","78","317346","0.0-39.0","92015137","wem/bandit_either_2","A3CFBT2CBQQIZY","either","3","4387","","32","","","","","","","","","","","","","","","","","","","","","","","","","","","","","","","","","","",""
"","text","79","321381","0.0-40.0","92015137","wem/bandit_either_2","A3CFBT2CBQQIZY","either","3","4033","","32","","","","","","","","","","","","","","","","","","","","","","","","","","","","","","","","","","",""
"","bandit","80","324436","0.0-41.0-0.0","92015137","wem/bandit_either_2","A3CFBT2CBQQIZY","either","3","1550","","","","","","","0","0","1","0.07685641067","","0.6","0.4","0.8","0.2","","","","","0.07685641067","0.4870892339","0.1646489015","0.1426046982","","","","","","","","72","H","0","img/none_selected.jpg","","1","main_expt"
"","bandit","81","326540","0.0-42.0-0.0","92015137","wem/bandit_either_2","A3CFBT2CBQQIZY","either","3","596","","","","","","","0","1","0","","0.4875162112","0.6","0.4","0.8","0.2","0.08388143876","0.4875162112","0.2180431119","0.1597004976","","","","","","","","","","","","74","J","1","","","2","main_expt"
"","bandit","82","328662","0.0-43.0-0.0","92015137","wem/bandit_either_2","A3CFBT2CBQQIZY","either","3","616","","","","","","","0","0","1","0.06528774038","","0.6","0.4","0.8","0.2","","","","","0.06528774038","0.4909945117","0.2294217256","0.1381850853","","","","","","","","72","H","0","img/none_selected.jpg","","3","main_expt"
"","bandit","83","330502","0.0-44.0-0.0","92015137","wem/bandit_either_2","A3CFBT2CBQQIZY","either","3","333","","","","","","","0","0","1","0.482579304","","0.6","0.4","0.8","0.2","","","","","0.07987899881","0.482579304","0.2162119515","0.1787932262","","","","","","","","74","J","1","","","4","main_expt"
"","bandit","84","332336","0.0-45.0-0.0","92015137","wem/bandit_either_2","A3CFBT2CBQQIZY","either","3","324","","","","","","","0","0","1","0.2246316054","","0.6","0.4","0.8","0.2","","","","","0.0432391811","0.4887913002","0.2246316054","0.1795032464","","","","","","","","75","K","2","","","5","main_expt"
"","bandit","85","334211","0.0-46.0-0.0","92015137","wem/bandit_either_2","A3CFBT2CBQQIZY","either","3","368","","","","","","","0","0","1","","0.164375756","0.6","0.4","0.8","0.2","0.03467601655","0.4887860333","0.2061018479","0.164375756","","","","","","","","","","","","76","L","3","","","6","main_expt"
"","bandit","86","336004","0.0-47.0-0.0","92015137","wem/bandit_either_2","A3CFBT2CBQQIZY","either","3","287","","","","","","","0","1","0","","0.4901971563","0.6","0.4","0.8","0.2","0.05033951668","0.4901971563","0.1795347326","0.204957223","","","","","","","","","","","","74","J","1","","","7","main_expt"
"","bandit","87","337859","0.0-48.0-0.0","92015137","wem/bandit_either_2","A3CFBT2CBQQIZY","either","3","346","","","","","","","0","0","1","","0.4862230721","0.6","0.4","0.8","0.2","0.07676355645","0.4862230721","0.1290452752","0.2162036531","","","","","","","","","","","","74","J","1","","","8","main_expt"
"","bandit","88","339713","0.0-49.0-0.0","92015137","wem/bandit_either_2","A3CFBT2CBQQIZY","either","3","316","","","","","","","1","0","0","0.4759730645","","0.6","0.4","0.8","0.2","","","","","0.08620859221","0.4759730645","0.1559184374","0.2167418122","","","","","","","","74","J","1","","","9","main_expt"
"","bandit","89","341609","0.0-50.0-0.0","92015137","wem/bandit_either_2","A3CFBT2CBQQIZY","either","3","389","","","","","","","0","0","1","0.4560980466","","0.6","0.4","0.8","0.2","","","","","0.1103839657","0.4560980466","0.1381514788","0.1607923637","","","","","","","","74","J","1","","","10","main_expt"
"","bandit","90","343335","0.0-51.0-0.0","92015137","wem/bandit_either_2","A3CFBT2CBQQIZY","either","3","217","","","","","","","1","0","0","0.4775116046","","0.6","0.4","0.8","0.2","","","","","0.1334948588","0.4775116046","0.1271140015","0.1386410957","","","","","","","","74","J","1","","","11","main_expt"
"","bandit","91","345180","0.0-52.0-0.0","92015137","wem/bandit_either_2","A3CFBT2CBQQIZY","either","3","335","","","","","","","0","0","1","","0.4705073552","0.6","0.4","0.8","0.2","0.1535602519","0.4705073552","0.1854664659","0.1718380738","","","","","","","","","","","","74","J","1","","","12","main_expt"
"","bandit","92","346974","0.0-53.0-0.0","92015137","wem/bandit_either_2","A3CFBT2CBQQIZY","either","3","286","","","","","","","0","1","0","","0.4851887342","0.6","0.4","0.8","0.2","0.127854239","0.4851887342","0.1869952656","0.1686303413","","","","","","","","","","","","74","J","1","","","13","main_expt"
"","bandit","93","349017","0.0-54.0-0.0","92015137","wem/bandit_either_2","A3CFBT2CBQQIZY","either","3","536","","","","","","","0","1","0","","0.4731273917","0.6","0.4","0.8","0.2","0.1507911491","0.4731273917","0.2035171393","0.1460019496","","","","","","","","","","","","74","J","1","","","14","main_expt"
"","bandit","94","350925","0.0-55.0-0.0","92015137","wem/bandit_either_2","A3CFBT2CBQQIZY","either","3","400","","","","","","","0","0","1","","0.4585867004","0.6","0.4","0.8","0.2","0.1741212098","0.4585867004","0.2800299461","0.1667614464","","","","","","","","","","","","74","J","1","","","15","main_expt"
"","bandit","95","352830","0.0-56.0-0.0","92015137","wem/bandit_either_2","A3CFBT2CBQQIZY","either","3","398","","","","","","","0","0","1","0.1918308831","","0.6","0.4","0.8","0.2","","","","","0.1918308831","0.4366533258","0.2725454461","0.1973644546","","","","","","","","72","H","0","img/none_selected.jpg","","16","main_expt"
"","bandit","96","354639","0.0-57.0-0.0","92015137","wem/bandit_either_2","A3CFBT2CBQQIZY","either","3","300","","","","","","","0","1","0","","0.4405228744","0.6","0.4","0.8","0.2","0.1950212473","0.4405228744","0.1570621471","0.1873415792","","","","","","","","","","","","74","J","1","","","17","main_expt"
"","bandit","97","356568","0.0-58.0-0.0","92015137","wem/bandit_either_2","A3CFBT2CBQQIZY","either","3","422","","","","","","","0","1","0","","0.4678551263","0.6","0.4","0.8","0.2","0.2094813194","0.4678551263","0.1968188506","0.1875860444","","","","","","","","","","","","74","J","1","","","18","main_expt"
"","bandit","98","358501","0.0-59.0-0.0","92015137","wem/bandit_either_2","A3CFBT2CBQQIZY","either","3","425","","","","","","","1","0","0","0.466140525","","0.6","0.4","0.8","0.2","","","","","0.2628959394","0.466140525","0.2439518204","0.1988439388","","","","","","","","74","J","1","","","19","main_expt"
"","bandit","99","360316","0.0-60.0-0.0","92015137","wem/bandit_either_2","A3CFBT2CBQQIZY","either","3","306","","","","","","","0","0","1","","0.4094087999","0.6","0.4","0.8","0.2","0.2116504525","0.4094087999","0.2806117898","0.1813993393","","","","","","","","","","","","74","J","1","","","20","main_expt"
"","bandit","100","362016","0.0-61.0-0.0","92015137","wem/bandit_either_2","A3CFBT2CBQQIZY","either","3","192","","","","","","","0","0","1","","0.4386974508","0.6","0.4","0.8","0.2","0.1904426465","0.4386974508","0.2658005831","0.2012004452","","","","","","","","","","","","74","J","1","","","21","main_expt"
"","bandit","101","363916","0.0-62.0-0.0","92015137","wem/bandit_either_2","A3CFBT2CBQQIZY","either","3","386","","","","","","","0","0","1","","0.4505723784","0.6","0.4","0.8","0.2","0.1581796968","0.4505723784","0.2774390086","0.1958646163","","","","","","","","","","","","74","J","1","","","22","main_expt"
"","bandit","102","365785","0.0-63.0-0.0","92015137","wem/bandit_either_2","A3CFBT2CBQQIZY","either","3","361","","","","","","","0","0","1","0.2795917474","","0.6","0.4","0.8","0.2","","","","","0.2039009352","0.4568000239","0.2795917474","0.2626819079","","","","","","","","75","K","2","","","23","main_expt"
"","bandit","103","367523","0.0-64.0-0.0","92015137","wem/bandit_either_2","A3CFBT2CBQQIZY","either","3","231","","","","","","","0","0","1","0.2906682881","","0.6","0.4","0.8","0.2","","","","","0.228339491","0.4518339256","0.2981059477","0.2906682881","","","","","","","","76","L","3","","","24","main_expt"
"","bandit","104","369254","0.0-65.0-0.0","92015137","wem/bandit_either_2","A3CFBT2CBQQIZY","either","3","223","","","","","","","0","0","1","0.2602465224","","0.6","0.4","0.8","0.2","","","","","0.2602465224","0.4120159309","0.3272059922","0.3270173502","","","","","","","","72","H","0","img/none_selected.jpg","","25","main_expt"
"","bandit","105","371016","0.0-66.0-0.0","92015137","wem/bandit_either_2","A3CFBT2CBQQIZY","either","3","255","","","","","","","1","0","0","0.3369826645","","0.6","0.4","0.8","0.2","","","","","0.1939420306","0.4134154185","0.3369826645","0.2951289915","","","","","","","","75","K","2","","","26","main_expt"
"","bandit","106","372846","0.0-67.0-0.0","92015137","wem/bandit_either_2","A3CFBT2CBQQIZY","either","3","324","","","","","","","0","0","1","0.2531212506","","0.6","0.4","0.8","0.2","","","","","0.2387331149","0.4031068294","0.2531212506","0.3520126272","","","","","","","","75","K","2","","","27","main_expt"
"","bandit","107","374443","0.0-68.0-0.0","92015137","wem/bandit_either_2","A3CFBT2CBQQIZY","either","3","90","","","","","","","0","0","1","0.2170461037","","0.6","0.4","0.8","0.2","","","","","0.2183458617","0.4305883772","0.2170461037","0.3369287003","","","","","","","","75","K","2","","","28","main_expt"
"","bandit","108","376036","0.0-69.0-0.0","92015137","wem/bandit_either_2","A3CFBT2CBQQIZY","either","3","86","","","","","","","0","0","1","0.2346211465","","0.6","0.4","0.8","0.2","","","","","0.2151501268","0.4383329838","0.2346211465","0.3591799128","","","","","","","","75","K","2","","","29","main_expt"
"","bandit","109","377662","0.0-70.0-0.0","92015137","wem/bandit_either_2","A3CFBT2CBQQIZY","either","3","120","","","","","","","0","0","1","0.4233276099","","0.6","0.4","0.8","0.2","","","","","0.2267233056","0.4233276099","0.2450860663","0.3324285477","","","","","","","","74","J","1","","","30","main_expt"
"","bandit","110","379459","0.0-71.0-0.0","92015137","wem/bandit_either_2","A3CFBT2CBQQIZY","either","3","290","","","","","","","0","0","1","0.4016185005","","0.6","0.4","0.8","0.2","","","","","0.2663701676","0.4016185005","0.2141169407","0.327032362","","","","","","","","74","J","1","","","31","main_expt"
"","bandit","111","381058","0.0-72.0-0.0","92015137","wem/bandit_either_2","A3CFBT2CBQQIZY","either","3","93","","","","","","","0","1","0","","0.3230905041","0.6","0.4","0.8","0.2","0.275969473","0.4134940178","0.2347854155","0.3230905041","","","","","","","","","","","","76","L","3","","","32","main_expt"
"","bandit","112","382919","0.0-73.0-0.0","92015137","wem/bandit_either_2","A3CFBT2CBQQIZY","either","3","353","","","","","","","0","0","1","","0.2969008969","0.6","0.4","0.8","0.2","0.3365270118","0.4331174495","0.246596708","0.2969008969","","","","","","","","","","","","76","L","3","","","33","main_expt"
"","bandit","113","384726","0.0-74.0-0.0","92015137","wem/bandit_either_2","A3CFBT2CBQQIZY","either","3","299","","","","","","","0","0","1","","0.2536392951","0.6","0.4","0.8","0.2","0.2916301021","0.4454497031","0.1914370393","0.2536392951","","","","","","","","","","","","76","L","3","","","34","main_expt"
"","bandit","114","386343","0.0-75.0-0.0","92015137","wem/bandit_either_2","A3CFBT2CBQQIZY","either","3","110","","","","","","","0","1","0","","0.2336030597","0.6","0.4","0.8","0.2","0.3236538836","0.4419706984","0.1408207185","0.2336030597","","","","","","","","","","","","76","L","3","","","35","main_expt"
"","bandit","115","388146","0.0-76.0-0.0","92015137","wem/bandit_either_2","A3CFBT2CBQQIZY","either","3","296","","","","","","","0","0","1","0.3110392291","","0.6","0.4","0.8","0.2","","","","","0.3317439785","0.4205940312","0.09539735145","0.3110392291","","","","","","","","76","L","3","","","36","main_expt"
"","bandit","116","389979","0.0-77.0-0.0","92015137","wem/bandit_either_2","A3CFBT2CBQQIZY","either","3","326","","","","","","","0","0","1","0.3354302382","","0.6","0.4","0.8","0.2","","","","","0.3620900841","0.4227305347","0.08867332122","0.3354302382","","","","","","","","76","L","3","","","37","main_expt"
"","bandit","117","391931","0.0-78.0-0.0","92015137","wem/bandit_either_2","A3CFBT2CBQQIZY","either","3","446","","","","","","","0","0","1","0.3649119955","","0.6","0.4","0.8","0.2","","","","","0.3649119955","0.3904174821","0.0804097964","0.3359947902","","","","","","","","72","H","0","img/none_selected.jpg","","38","main_expt"
"","bandit","118","393742","0.0-79.0-0.0","92015137","wem/bandit_either_2","A3CFBT2CBQQIZY","either","3","305","","","","","","","0","1","0","","0.3993258453","0.6","0.4","0.8","0.2","0.3993258453","0.3704092514","0.1092906338","0.3719467902","","","","","","","","","","","","72","H","0","img/none_selected.jpg","","39","main_expt"
"","bandit","119","395849","0.0-80.0-0.0","92015137","wem/bandit_either_2","A3CFBT2CBQQIZY","either","3","599","","","","","","","0","1","0","","0.43145226","0.6","0.4","0.8","0.2","0.43145226","0.3250394812","0.08771014895","0.37180955","","","","","","","","","","","","72","H","0","img/none_selected.jpg","","40","main_expt"
"","bandit","120","397789","0.0-81.0-0.0","92015137","wem/bandit_either_2","A3CFBT2CBQQIZY","either","3","433","","","","","","","0","0","1","0.3925837484","","0.6","0.4","0.8","0.2","","","","","0.3925837484","0.3633775572","0.1065106481","0.3972707938","","","","","","","","72","H","0","img/none_selected.jpg","","41","main_expt"
"","bandit","121","399630","0.0-82.0-0.0","92015137","wem/bandit_either_2","A3CFBT2CBQQIZY","either","3","335","","","","","","","1","0","0","0.4020613291","","0.6","0.4","0.8","0.2","","","","","0.4020613291","0.3708570881","0.0926848955","0.3981555674","","","","","","","","72","H","0","img/none_selected.jpg","","42","main_expt"
"","bandit","122","401533","0.0-83.0-0.0","92015137","wem/bandit_either_2","A3CFBT2CBQQIZY","either","3","396","","","","","","","1","0","0","0.4199094288","","0.6","0.4","0.8","0.2","","","","","0.4199094288","0.3852030547","0.09213729174","0.3698022864","","","","","","","","72","H","0","img/none_selected.jpg","","43","main_expt"
"","bandit","123","403486","0.0-84.0-0.0","92015137","wem/bandit_either_2","A3CFBT2CBQQIZY","either","3","444","","","","","","","0","0","1","0.4362917367","","0.6","0.4","0.8","0.2","","","","","0.4362917367","0.3653477133","0.0950319608","0.3278340923","","","","","","","","72","H","0","img/none_selected.jpg","","44","main_expt"
"","bandit","124","405357","0.0-85.0-0.0","92015137","wem/bandit_either_2","A3CFBT2CBQQIZY","either","3","365","","","","","","","0","0","1","","0.4310393502","0.6","0.4","0.8","0.2","0.4310393502","0.3423722135","0.07917944011","0.4004869948","","","","","","","","","","","","72","H","0","img/none_selected.jpg","","45","main_expt"
"","bandit","125","407262","0.0-86.0-0.0","92015137","wem/bandit_either_2","A3CFBT2CBQQIZY","either","3","397","","","","","","","0","0","1","0.4301719659","","0.6","0.4","0.8","0.2","","","","","0.4301719659","0.2713785315","0.08528552535","0.4389658195","","","","","","","","72","H","0","img/none_selected.jpg","","46","main_expt"
"","bandit","126","409163","0.0-87.0-0.0","92015137","wem/bandit_either_2","A3CFBT2CBQQIZY","either","3","396","","","","","","","0","0","1","","0.4294918489","0.6","0.4","0.8","0.2","0.4274268526","0.2675382036","0.08303267599","0.4294918489","","","","","","","","","","","","76","L","3","","","47","main_expt"
"","bandit","127","410952","0.0-88.0-0.0","92015137","wem/bandit_either_2","A3CFBT2CBQQIZY","either","3","281","","","","","","","0","1","0","","0.3948346084","0.6","0.4","0.8","0.2","0.4559220927","0.3006553151","0.1183490009","0.3948346084","","","","","","","","","","","","76","L","3","","","48","main_expt"
"","bandit","128","413140","0.0-89.0-0.0","92015137","wem/bandit_either_2","A3CFBT2CBQQIZY","either","3","679","","","","","","","0","1","0","","0.4226663974","0.6","0.4","0.8","0.2","0.4362936898","0.2865645246","0.09831357925","0.4226663974","","","","","","","","","","","","76","L","3","","","49","main_expt"
"","bandit","129","414977","0.0-90.0-0.0","92015137","wem/bandit_either_2","A3CFBT2CBQQIZY","either","3","329","","","","","","","0","1","0","","0.3943232949","0.6","0.4","0.8","0.2","0.4001593617","0.2842330123","0.0896163698","0.3943232949","","","","","","","","","","","","76","L","3","","","50","main_expt"
"","bandit","130","416872","0.0-91.0-0.0","92015137","wem/bandit_either_2","A3CFBT2CBQQIZY","either","3","388","","","","","","","0","1","0","","0.3911898034","0.6","0.4","0.8","0.2","0.3737598101","0.2933637591","0.08239790895","0.3911898034","","","","","","","","","","","","76","L","3","","","51","main_expt"
"","bandit","131","418738","0.0-92.0-0.0","92015137","wem/bandit_either_2","A3CFBT2CBQQIZY","either","3","359","","","","","","","0","1","0","","0.3897106723","0.6","0.4","0.8","0.2","0.3490564905","0.2802127762","0.06509061927","0.3897106723","","","","","","","","","","","","76","L","3","","","52","main_expt"
"","bandit","132","420606","0.0-93.0-0.0","92015137","wem/bandit_either_2","A3CFBT2CBQQIZY","either","3","360","","","","","","","0","0","1","","0.3977919118","0.6","0.4","0.8","0.2","0.3606416198","0.2567133084","0.05503049918","0.3977919118","","","","","","","","","","","","76","L","3","","","53","main_expt"
"","bandit","133","422344","0.0-94.0-0.0","92015137","wem/bandit_either_2","A3CFBT2CBQQIZY","either","3","231","","","","","","","0","1","0","","0.3803623479","0.6","0.4","0.8","0.2","0.3920172378","0.304436262","0.06606451817","0.3803623479","","","","","","","","","","","","76","L","3","","","54","main_expt"
"","bandit","134","424237","0.0-95.0-0.0","92015137","wem/bandit_either_2","A3CFBT2CBQQIZY","either","3","386","","","","","","","0","1","0","","0.3898030924","0.6","0.4","0.8","0.2","0.3841867886","0.3050376594","0.0812436444","0.3898030924","","","","","","","","","","","","76","L","3","","","55","main_expt"
"","bandit","135","426020","0.0-96.0-0.0","92015137","wem/bandit_either_2","A3CFBT2CBQQIZY","either","3","277","","","","","","","0","1","0","","0.4332266089","0.6","0.4","0.8","0.2","0.3752679739","0.2874076515","0.05752214818","0.4332266089","","","","","","","","","","","","76","L","3","","","56","main_expt"
"","bandit","136","427596","0.0-97.0-0.0","92015137","wem/bandit_either_2","A3CFBT2CBQQIZY","either","3","67","","","","","","","0","0","1","","0.4598680415","0.6","0.4","0.8","0.2","0.3595388075","0.2633226407","0.05957573693","0.4598680415","","","","","","","","","","","","76","L","3","","","57","main_expt"
"","bandit","137","429435","0.0-98.0-0.0","92015137","wem/bandit_either_2","A3CFBT2CBQQIZY","either","3","331","","","","","","","0","0","1","","0.4510058242","0.6","0.4","0.8","0.2","0.2926617498","0.282557186","0.08347810371","0.4510058242","","","","","","","","","","","","76","L","3","","","58","main_expt"
"","bandit","138","430990","0.0-99.0-0.0","92015137","wem/bandit_either_2","A3CFBT2CBQQIZY","either","3","46","","","","","","","1","0","0","0.4587464736","","0.6","0.4","0.8","0.2","","","","","0.2854140482","0.2675679041","0.1166757522","0.4587464736","","","","","","","","76","L","3","","","59","main_expt"
"","bandit","139","432733","0.0-100.0-0.0","92015137","wem/bandit_either_2","A3CFBT2CBQQIZY","either","3","235","","","","","","","0","1","0","","0.4534111386","0.6","0.4","0.8","0.2","0.2767785787","0.2654645802","0.1223048521","0.4534111386","","","","","","","","","","","","76","L","3","","","60","main_expt"
"","bandit","140","434619","0.0-101.0-0.0","92015137","wem/bandit_either_2","A3CFBT2CBQQIZY","either","3","380","","","","","","","0","0","1","","0.4581751116","0.6","0.4","0.8","0.2","0.3110110239","0.2326588137","0.1341525672","0.4581751116","","","","","","","","","","","","76","L","3","","","61","main_expt"
"","bandit","141","436348","0.0-102.0-0.0","92015137","wem/bandit_either_2","A3CFBT2CBQQIZY","either","3","221","","","","","","","0","0","1","","0.4447189615","0.6","0.4","0.8","0.2","0.2739379344","0.2430345153","0.1748443247","0.4447189615","","","","","","","","","","","","76","L","3","","","62","main_expt"
"","bandit","142","438173","0.0-103.0-0.0","92015137","wem/bandit_either_2","A3CFBT2CBQQIZY","either","3","318","","","","","","","0","0","1","0.4351057758","","0.6","0.4","0.8","0.2","","","","","0.2518438402","0.2682261916","0.1872250423","0.4351057758","","","","","","","","76","L","3","","","63","main_expt"
"","bandit","143","440161","0.0-104.0-0.0","92015137","wem/bandit_either_2","A3CFBT2CBQQIZY","either","3","481","","","","","","","0","0","1","0.216118181","","0.6","0.4","0.8","0.2","","","","","0.216118181","0.3136585585","0.1592276408","0.4559228662","","","","","","","","72","H","0","img/none_selected.jpg","","64","main_expt"
"","bandit","144","441968","0.0-105.0-0.0","92015137","wem/bandit_either_2","A3CFBT2CBQQIZY","either","3","299","","","","","","","0","0","1","0.3208042698","","0.6","0.4","0.8","0.2","","","","","0.1961712117","0.3208042698","0.1881419285","0.4526438492","","","","","","","","74","J","1","","","65","main_expt"
"","bandit","145","443758","0.0-106.0-0.0","92015137","wem/bandit_either_2","A3CFBT2CBQQIZY","either","3","284","","","","","","","0","0","1","0.2075830042","","0.6","0.4","0.8","0.2","","","","","0.1821057022","0.3550213758","0.2075830042","0.4604690516","","","","","","","","75","K","2","","","66","main_expt"
"","bandit","146","445628","0.0-107.0-0.0","92015137","wem/bandit_either_2","A3CFBT2CBQQIZY","either","3","364","","","","","","","0","0","1","0.4479534522","","0.6","0.4","0.8","0.2","","","","","0.2221692745","0.2883445083","0.210321401","0.4479534522","","","","","","","","76","L","3","","","67","main_expt"
"","bandit","147","447382","0.0-108.0-0.0","92015137","wem/bandit_either_2","A3CFBT2CBQQIZY","either","3","246","","","","","","","1","0","0","0.2492112051","","0.6","0.4","0.8","0.2","","","","","0.2385328342","0.2492112051","0.1740681144","0.4420076102","","","","","","","","74","J","1","","","68","main_expt"
"","bandit","148","449275","0.0-109.0-0.0","92015137","wem/bandit_either_2","A3CFBT2CBQQIZY","either","3","387","","","","","","","0","0","1","0.1725364023","","0.6","0.4","0.8","0.2","","","","","0.2693988132","0.1725364023","0.1495678232","0.3840886122","","","","","","","","74","J","1","","","69","main_expt"
"","bandit","149","451132","0.0-110.0-0.0","92015137","wem/bandit_either_2","A3CFBT2CBQQIZY","either","3","350","","","","","","","0","0","1","","0.2081322216","0.6","0.4","0.8","0.2","0.2633889128","0.2081322216","0.1594524764","0.3764426572","","","","","","","","","","","","74","J","1","","","70","main_expt"
"","bandit","150","452965","0.0-111.0-0.0","92015137","wem/bandit_either_2","A3CFBT2CBQQIZY","either","3","324","","","","","","","0","0","1","0.1308665948","","0.6","0.4","0.8","0.2","","","","","0.2881785301","0.2222096595","0.1308665948","0.3925575972","","","","","","","","75","K","2","","","71","main_expt"
"","bandit","151","454742","0.0-112.0-0.0","92015137","wem/bandit_either_2","A3CFBT2CBQQIZY","either","3","269","","","","","","","0","0","1","","0.1413665491","0.6","0.4","0.8","0.2","0.3496752211","0.2276413934","0.1413665491","0.4055717031","","","","","","","","","","","","75","K","2","","","72","main_expt"
"","bandit","152","456667","0.0-113.0-0.0","92015137","wem/bandit_either_2","A3CFBT2CBQQIZY","either","3","419","","","","","","","0","0","1","","0.3662649551","0.6","0.4","0.8","0.2","0.3662649551","0.202726327","0.1562096843","0.4313753627","","","","","","","","","","","","72","H","0","img/none_selected.jpg","","73","main_expt"
"","bandit","153","458514","0.0-114.0-0.0","92015137","wem/bandit_either_2","A3CFBT2CBQQIZY","either","3","337","","","","","","","0","0","1","","0.3318597218","0.6","0.4","0.8","0.2","0.3318597218","0.2465356434","0.1601549975","0.4294283137","","","","","","","","","","","","72","H","0","img/none_selected.jpg","","74","main_expt"
"","bandit","154","460326","0.0-115.0-0.0","92015137","wem/bandit_either_2","A3CFBT2CBQQIZY","either","3","303","","","","","","","0","0","1","0.4114775526","","0.6","0.4","0.8","0.2","","","","","0.3129946244","0.2780880013","0.1962365409","0.4114775526","","","","","","","","76","L","3","","","75","main_expt"
"","bandit","155","462039","0.0-116.0-0.0","92015137","wem/bandit_either_2","A3CFBT2CBQQIZY","either","3","205","","","","","","","0","1","0","","0.4038916894","0.6","0.4","0.8","0.2","0.3299880354","0.230570622","0.2315068675","0.4038916894","","","","","","","","","","","","76","L","3","","","76","main_expt"
"","bandit","156","463896","0.0-117.0-0.0","92015137","wem/bandit_either_2","A3CFBT2CBQQIZY","either","3","313","","","","","","","0","1","0","","0.4028298088","0.6","0.4","0.8","0.2","0.2704336052","0.1747897532","0.1749603823","0.4028298088","","","","","","","","","","","","76","L","3","","","77","main_expt"
"","bandit","157","465666","0.0-118.0-0.0","92015137","wem/bandit_either_2","A3CFBT2CBQQIZY","either","3","259","","","","","","","0","0","1","","0.4004321452","0.6","0.4","0.8","0.2","0.2489008917","0.2009150394","0.2091975686","0.4004321452","","","","","","","","","","","","76","L","3","","","78","main_expt"
"","bandit","158","467320","0.0-119.0-0.0","92015137","wem/bandit_either_2","A3CFBT2CBQQIZY","either","3","145","","","","","","","0","1","0","","0.3909827091","0.6","0.4","0.8","0.2","0.2182462247","0.2090883318","0.2699334682","0.3909827091","","","","","","","","","","","","76","L","3","","","79","main_expt"
"","bandit","159","469127","0.0-120.0-0.0","92015137","wem/bandit_either_2","A3CFBT2CBQQIZY","either","3","297","","","","","","","0","0","1","0.4289339141","","0.6","0.4","0.8","0.2","","","","","0.1591694045","0.215522018","0.2712134299","0.4289339141","","","","","","","","76","L","3","","","80","main_expt"
"","bandit","160","470857","0.0-121.0-0.0","92015137","wem/bandit_either_2","A3CFBT2CBQQIZY","either","3","222","","","","","","","0","0","1","","0.4256341571","0.6","0.4","0.8","0.2","0.1661146317","0.2655955182","0.2563236188","0.4256341571","","","","","","","","","","","","76","L","3","","","81","main_expt"
"","bandit","161","472731","0.0-122.0-0.0","92015137","wem/bandit_either_2","A3CFBT2CBQQIZY","either","3","367","","","","","","","0","0","1","0.2642342948","","0.6","0.4","0.8","0.2","","","","","0.2249160828","0.2642342948","0.2474856626","0.4153375647","","","","","","","","74","J","1","","","82","main_expt"
"","bandit","162","474432","0.0-123.0-0.0","92015137","wem/bandit_either_2","A3CFBT2CBQQIZY","either","3","191","","","","","","","0","0","1","0.2338037125","","0.6","0.4","0.8","0.2","","","","","0.2194800234","0.2615040017","0.2338037125","0.4239102097","","","","","","","","75","K","2","","","83","main_expt"
"","bandit","163","476286","0.0-124.0-0.0","92015137","wem/bandit_either_2","A3CFBT2CBQQIZY","either","3","345","","","","","","","0","0","1","0.2020024956","","0.6","0.4","0.8","0.2","","","","","0.2020024956","0.3136368113","0.2929655049","0.4021041833","","","","","","","","72","H","0","img/none_selected.jpg","","84","main_expt"
"","bandit","164","478208","0.0-125.0-0.0","92015137","wem/bandit_either_2","A3CFBT2CBQQIZY","either","3","416","","","","","","","0","0","1","0.1639230135","","0.6","0.4","0.8","0.2","","","","","0.1639230135","0.2433538552","0.2755572306","0.4322374594","","","","","","","","72","H","0","img/none_selected.jpg","","85","main_expt"
"","bandit","165","479956","0.0-126.0-0.0","92015137","wem/bandit_either_2","A3CFBT2CBQQIZY","either","3","242","","","","","","","0","0","1","","0.4247618508","0.6","0.4","0.8","0.2","0.1423092638","0.2583740773","0.2706615249","0.4247618508","","","","","","","","","","","","76","L","3","","","86","main_expt"
"","bandit","166","481804","0.0-127.0-0.0","92015137","wem/bandit_either_2","A3CFBT2CBQQIZY","either","3","340","","","","","","","0","0","1","0.3259805539","","0.6","0.4","0.8","0.2","","","","","0.1623313408","0.2656778135","0.3259805539","0.4130492334","","","","","","","","75","K","2","","","87","main_expt"
"","bandit","167","483621","0.0-128.0-0.0","92015137","wem/bandit_either_2","A3CFBT2CBQQIZY","either","3","308","","","","","","","0","0","1","0.2565525481","","0.6","0.4","0.8","0.2","","","","","0.1459946163","0.2565525481","0.3471137027","0.3883747858","","","","","","","","74","J","1","","","88","main_expt"
"","bandit","168","485491","0.0-129.0-0.0","92015137","wem/bandit_either_2","A3CFBT2CBQQIZY","either","3","361","","","","","","","0","1","0","","0.3950807547","0.6","0.4","0.8","0.2","0.1684807643","0.2471999074","0.3715311126","0.3950807547","","","","","","","","","","","","76","L","3","","","89","main_expt"
"","bandit","169","487142","0.0-130.0-0.0","92015137","wem/bandit_either_2","A3CFBT2CBQQIZY","either","3","144","","","","","","","0","1","0","","0.420982679","0.6","0.4","0.8","0.2","0.1937692241","0.2204199549","0.3571728809","0.420982679","","","","","","","","","","","","76","L","3","","","90","main_expt"
"","bandit","170","489089","0.0-131.0-0.0","92015137","wem/bandit_either_2","A3CFBT2CBQQIZY","either","3","439","","","","","","","1","0","0","0.4012606491","","0.6","0.4","0.8","0.2","","","","","0.1670397906","0.2013548925","0.3348642023","0.4012606491","","","","","","","","76","L","3","","","91","main_expt"
"","bandit","171","490981","0.0-132.0-0.0","92015137","wem/bandit_either_2","A3CFBT2CBQQIZY","either","3","382","","","","","","","0","1","0","","0.3950870333","0.6","0.4","0.8","0.2","0.1936095216","0.174921714","0.3551195155","0.3950870333","","","","","","","","","","","","76","L","3","","","92","main_expt"
"","bandit","172","492726","0.0-133.0-0.0","92015137","wem/bandit_either_2","A3CFBT2CBQQIZY","either","3","238","","","","","","","1","0","0","0.3797372222","","0.6","0.4","0.8","0.2","","","","","0.2399824117","0.1972058505","0.3494458231","0.3797372222","","","","","","","","76","L","3","","","93","main_expt"
"","bandit","173","494568","0.0-134.0-0.0","92015137","wem/bandit_either_2","A3CFBT2CBQQIZY","either","3","336","","","","","","","0","0","1","","0.3346339076","0.6","0.4","0.8","0.2","0.242536602","0.2144007407","0.3759818745","0.3346339076","","","","","","","","","","","","76","L","3","","","94","main_expt"
"","bandit","174","496341","0.0-135.0-0.0","92015137","wem/bandit_either_2","A3CFBT2CBQQIZY","either","3","264","","","","","","","0","0","1","","0.3433005441","0.6","0.4","0.8","0.2","0.3081296623","0.2025691914","0.3467088588","0.3433005441","","","","","","","","","","","","76","L","3","","","95","main_expt"
"","bandit","175","498249","0.0-136.0-0.0","92015137","wem/bandit_either_2","A3CFBT2CBQQIZY","either","3","400","","","","","","","0","0","1","","0.2900415689","0.6","0.4","0.8","0.2","0.371766452","0.1750118246","0.3520186383","0.2900415689","","","","","","","","","","","","76","L","3","","","96","main_expt"
"","bandit","176","500108","0.0-137.0-0.0","92015137","wem/bandit_either_2","A3CFBT2CBQQIZY","either","3","349","","","","","","","1","0","0","0.3737721809","","0.6","0.4","0.8","0.2","","","","","0.3737721809","0.2433812568","0.342216001","0.3136050561","","","","","","","","72","H","0","img/none_selected.jpg","","97","main_expt"
"","bandit","177","502089","0.0-138.0-0.0","92015137","wem/bandit_either_2","A3CFBT2CBQQIZY","either","3","472","","","","","","","0","0","1","0.3662625892","","0.6","0.4","0.8","0.2","","","","","0.3662625892","0.1834100281","0.3775958225","0.3236610102","","","","","","","","72","H","0","img/none_selected.jpg","","98","main_expt"
"","bandit","178","503938","0.0-139.0-0.0","92015137","wem/bandit_either_2","A3CFBT2CBQQIZY","either","3","341","","","","","","","0","0","1","0.3912879072","","0.6","0.4","0.8","0.2","","","","","0.3912879072","0.146161558","0.3490624926","0.3116662608","","","","","","","","72","H","0","img/none_selected.jpg","","99","main_expt"
"","bandit","179","505778","0.0-140.0-0.0","92015137","wem/bandit_either_2","A3CFBT2CBQQIZY","either","3","332","","","","","","","0","0","1","0.3916888764","","0.6","0.4","0.8","0.2","","","","","0.3916888764","0.1186266926","0.3418910903","0.3806420769","","","","","","","","72","H","0","img/none_selected.jpg","","100","main_expt"
"","bandit","180","507584","0.0-141.0-0.0","92015137","wem/bandit_either_2","A3CFBT2CBQQIZY","either","3","297","","","","","","","0","0","1","0.1467879228","","0.6","0.4","0.8","0.2","","","","","0.3803758031","0.1467879228","0.3544055354","0.3825052475","","","","","","","","74","J","1","","","101","main_expt"
"","bandit","181","509450","0.0-142.0-0.0","92015137","wem/bandit_either_2","A3CFBT2CBQQIZY","either","3","358","","","","","","","0","0","1","0.3580864163","","0.6","0.4","0.8","0.2","","","","","0.3685266224","0.1336514036","0.3580864163","0.3799327693","","","","","","","","75","K","2","","","102","main_expt"
"","bandit","182","511295","0.0-143.0-0.0","92015137","wem/bandit_either_2","A3CFBT2CBQQIZY","either","3","333","","","","","","","1","0","0","0.3502018886","","0.6","0.4","0.8","0.2","","","","","0.3754978655","0.1325092095","0.336528594","0.3502018886","","","","","","","","76","L","3","","","103","main_expt"
"","bandit","183","513260","0.0-144.0-0.0","92015137","wem/bandit_either_2","A3CFBT2CBQQIZY","either","3","457","","","","","","","0","0","1","","0.3443431466","0.6","0.4","0.8","0.2","0.4033056484","0.1162839287","0.3190078166","0.3443431466","","","","","","","","","","","","76","L","3","","","104","main_expt"
"","bandit","184","515123","0.0-145.0-0.0","92015137","wem/bandit_either_2","A3CFBT2CBQQIZY","either","3","356","","","","","","","0","1","0","","0.3551378046","0.6","0.4","0.8","0.2","0.3617388181","0.115620258","0.3100940773","0.3551378046","","","","","","","","","","","","76","L","3","","","105","main_expt"
"","bandit","185","516937","0.0-146.0-0.0","92015137","wem/bandit_either_2","A3CFBT2CBQQIZY","either","3","283","","","","","","","0","0","1","","0.3177956882","0.6","0.4","0.8","0.2","0.3656875331","0.1102569517","0.2964842485","0.3177956882","","","","","","","","","","","","76","L","3","","","106","main_expt"
"","bandit","186","518797","0.0-147.0-0.0","92015137","wem/bandit_either_2","A3CFBT2CBQQIZY","either","3","352","","","","","","","0","0","1","0.3463124521","","0.6","0.4","0.8","0.2","","","","","0.3478183852","0.110599846","0.3224579283","0.3463124521","","","","","","","","76","L","3","","","107","main_expt"
"","bandit","187","520630","0.0-148.0-0.0","92015137","wem/bandit_either_2","A3CFBT2CBQQIZY","either","3","322","","","","","","","0","1","0","","0.330790185","0.6","0.4","0.8","0.2","0.3715517583","0.1647947233","0.3365568187","0.330790185","","","","","","","","","","","","76","L","3","","","108","main_expt"
"","bandit","188","522493","0.0-149.0-0.0","92015137","wem/bandit_either_2","A3CFBT2CBQQIZY","either","3","356","","","","","","","0","0","1","","0.3259779601","0.6","0.4","0.8","0.2","0.3713851569","0.146095753","0.3200824859","0.3259779601","","","","","","","","","","","","76","L","3","","","109","main_expt"
"","bandit","189","524234","0.0-150.0-0.0","92015137","wem/bandit_either_2","A3CFBT2CBQQIZY","either","3","234","","","","","","","0","0","1","","0.3169053314","0.6","0.4","0.8","0.2","0.3401672382","0.1691954855","0.3179471713","0.3169053314","","","","","","","","","","","","76","L","3","","","110","main_expt"
"","bandit","190","526372","0.0-151.0-0.0","92015137","wem/bandit_either_2","A3CFBT2CBQQIZY","either","3","628","","","","","","","0","0","1","","0.3242328008","0.6","0.4","0.8","0.2","0.3242328008","0.1690298198","0.3168158386","0.342138516","","","","","","","","","","","","72","H","0","img/none_selected.jpg","","111","main_expt"
"","bandit","191","528045","0.0-152.0-0.0","92015137","wem/bandit_either_2","A3CFBT2CBQQIZY","either","3","165","","","","","","","0","0","1","","0.2196992501","0.6","0.4","0.8","0.2","0.2991119965","0.2196992501","0.3551606626","0.3597886873","","","","","","","","","","","","74","J","1","","","112","main_expt"
"","bandit","192","529744","0.0-153.0-0.0","92015137","wem/bandit_either_2","A3CFBT2CBQQIZY","either","3","191","","","","","","","0","0","1","0.3615444015","","0.6","0.4","0.8","0.2","","","","","0.3364281798","0.2723467559","0.3615444015","0.3580549124","","","","","","","","75","K","2","","","113","main_expt"
"","bandit","193","531595","0.0-154.0-0.0","92015137","wem/bandit_either_2","A3CFBT2CBQQIZY","either","3","342","","","","","","","0","0","1","0.3556181037","","0.6","0.4","0.8","0.2","","","","","0.3495122724","0.2470985199","0.4043222556","0.3556181037","","","","","","","","76","L","3","","","114","main_expt"
"","bandit","194","533336","0.0-155.0-0.0","92015137","wem/bandit_either_2","A3CFBT2CBQQIZY","either","3","232","","","","","","","0","0","1","","0.3489042174","0.6","0.4","0.8","0.2","0.324938203","0.2482590513","0.4179696435","0.3489042174","","","","","","","","","","","","76","L","3","","","115","main_expt"
"","bandit","195","535012","0.0-156.0-0.0","92015137","wem/bandit_either_2","A3CFBT2CBQQIZY","either","3","167","","","","","","","1","0","0","0.3466245191","","0.6","0.4","0.8","0.2","","","","","0.3227512736","0.1992012358","0.4324393975","0.3466245191","","","","","","","","76","L","3","","","116","main_expt"
"","bandit","196","536723","0.0-157.0-0.0","92015137","wem/bandit_either_2","A3CFBT2CBQQIZY","either","3","204","","","","","","","0","1","0","","0.3581754781","0.6","0.4","0.8","0.2","0.2585209305","0.216355905","0.4290779421","0.3581754781","","","","","","","","","","","","76","L","3","","","117","main_expt"
"","bandit","197","538584","0.0-158.0-0.0","92015137","wem/bandit_either_2","A3CFBT2CBQQIZY","either","3","354","","","","","","","0","0","1","","0.283939031","0.6","0.4","0.8","0.2","0.2817260076","0.1715453935","0.4459264202","0.283939031","","","","","","","","","","","","76","L","3","","","118","main_expt"
"","bandit","198","540304","0.0-159.0-0.0","92015137","wem/bandit_either_2","A3CFBT2CBQQIZY","either","3","212","","","","","","","0","0","1","","0.2992634423","0.6","0.4","0.8","0.2","0.328214026","0.1843456939","0.436995295","0.2992634423","","","","","","","","","","","","76","L","3","","","119","main_expt"
"","bandit","199","542144","0.0-160.0-0.0","92015137","wem/bandit_either_2","A3CFBT2CBQQIZY","either","3","332","","","","","","","0","0","1","","0.1878150733","0.6","0.4","0.8","0.2","0.3355603121","0.1848061615","0.4151314625","0.1878150733","","","","","","","","","","","","76","L","3","","","120","main_expt"
"","bandit","200","543890","0.0-161.0-0.0","92015137","wem/bandit_either_2","A3CFBT2CBQQIZY","either","3","235","","","","","","","0","1","0","","0.1447458933","0.6","0.4","0.8","0.2","0.3829587724","0.1679578636","0.4384064527","0.1447458933","","","","","","","","","","","","76","L","3","","","121","main_expt"
"","bandit","201","545881","0.0-162.0-0.0","92015137","wem/bandit_either_2","A3CFBT2CBQQIZY","either","3","484","","","","","","","0","0","1","","0.1176060398","0.6","0.4","0.8","0.2","0.3995678287","0.197295971","0.4417589501","0.1176060398","","","","","","","","","","","","76","L","3","","","122","main_expt"
"","bandit","202","547776","0.0-163.0-0.0","92015137","wem/bandit_either_2","A3CFBT2CBQQIZY","either","3","383","","","","","","","0","0","1","0.1097677055","","0.6","0.4","0.8","0.2","","","","","0.3656739583","0.2184653352","0.4017154396","0.1097677055","","","","","","","","76","L","3","","","123","main_expt"
"","bandit","203","549640","0.0-164.0-0.0","92015137","wem/bandit_either_2","A3CFBT2CBQQIZY","either","3","357","","","","","","","0","0","1","","0.08048168986","0.6","0.4","0.8","0.2","0.3862549257","0.2147868977","0.3619070526","0.08048168986","","","","","","","","","","","","76","L","3","","","124","main_expt"
"","bandit","204","551549","0.0-165.0-0.0","92015137","wem/bandit_either_2","A3CFBT2CBQQIZY","either","3","400","","","","","","","0","0","1","0.3593796239","","0.6","0.4","0.8","0.2","","","","","0.3593796239","0.1667936559","0.3567490645","0.07842900555","","","","","","","","72","H","0","img/none_selected.jpg","","125","main_expt"
"","bandit","205","553391","0.0-166.0-0.0","92015137","wem/bandit_either_2","A3CFBT2CBQQIZY","either","3","334","","","","","","","0","0","1","","0.1453295256","0.6","0.4","0.8","0.2","0.3413194209","0.1453295256","0.3558473019","0.08318363027","","","","","","","","","","","","74","J","1","","","126","main_expt"
"","bandit","206","555162","0.0-167.0-0.0","92015137","wem/bandit_either_2","A3CFBT2CBQQIZY","either","3","261","","","","","","","0","0","1","0.3543069734","","0.6","0.4","0.8","0.2","","","","","0.3369929262","0.1635755653","0.3543069734","0.06812438963","","","","","","","","75","K","2","","","127","main_expt"
"","bandit","207","557003","0.0-168.0-0.0","92015137","wem/bandit_either_2","A3CFBT2CBQQIZY","either","3","333","","","","","","","0","0","1","0.3328374851","","0.6","0.4","0.8","0.2","","","","","0.2922989636","0.1872639566","0.3328374851","0.08303766286","","","","","","","","75","K","2","","","128","main_expt"
"","bandit","208","558713","0.0-169.0-0.0","92015137","wem/bandit_either_2","A3CFBT2CBQQIZY","either","3","201","","","","","","","0","1","0","","0.3238683282","0.6","0.4","0.8","0.2","0.3095146075","0.2032718864","0.3238683282","0.09047360051","","","","","","","","","","","","75","K","2","","","129","main_expt"
"","bandit","209","560639","0.0-170.0-0.0","92015137","wem/bandit_either_2","A3CFBT2CBQQIZY","either","3","418","","","","","","","0","0","1","0.2750329062","","0.6","0.4","0.8","0.2","","","","","0.3068425872","0.2025864764","0.2750329062","0.131542256","","","","","","","","75","K","2","","","130","main_expt"
"","bandit","210","562443","0.0-171.0-0.0","92015137","wem/bandit_either_2","A3CFBT2CBQQIZY","either","3","296","","","","","","","0","0","1","0.2751886228","","0.6","0.4","0.8","0.2","","","","","0.3112504131","0.2158584071","0.2751886228","0.1492019489","","","","","","","","75","K","2","","","131","main_expt"
"","bandit","211","564310","0.0-172.0-0.0","92015137","wem/bandit_either_2","A3CFBT2CBQQIZY","either","3","359","","","","","","","0","0","1","","0.1571188116","0.6","0.4","0.8","0.2","0.3595653039","0.2105840197","0.2729729886","0.1571188116","","","","","","","","","","","","76","L","3","","","132","main_expt"
"","bandit","212","566175","0.0-173.0-0.0","92015137","wem/bandit_either_2","A3CFBT2CBQQIZY","either","3","356","","","","","","","0","0","1","","0.2021073832","0.6","0.4","0.8","0.2","0.3873527377","0.2328486735","0.3248088544","0.2021073832","","","","","","","","","","","","76","L","3","","","133","main_expt"
"","bandit","213","568087","0.0-174.0-0.0","92015137","wem/bandit_either_2","A3CFBT2CBQQIZY","either","3","403","","","","","","","0","0","1","","0.2693148074","0.6","0.4","0.8","0.2","0.3973884711","0.2589092944","0.3596446835","0.2693148074","","","","","","","","","","","","76","L","3","","","134","main_expt"
"","bandit","214","569926","0.0-175.0-0.0","92015137","wem/bandit_either_2","A3CFBT2CBQQIZY","either","3","330","","","","","","","1","0","0","0.4080523157","","0.6","0.4","0.8","0.2","","","","","0.4080523157","0.2637326353","0.318377279","0.2625780805","","","","","","","","72","H","0","img/none_selected.jpg","","135","main_expt"
"","bandit","215","571844","0.0-176.0-0.0","92015137","wem/bandit_either_2","A3CFBT2CBQQIZY","either","3","410","","","","","","","0","0","1","0.4176503084","","0.6","0.4","0.8","0.2","","","","","0.4176503084","0.2718680576","0.3160887017","0.2981707722","","","","","","","","72","H","0","img/none_selected.jpg","","136","main_expt"
"","bandit","216","573754","0.0-177.0-0.0","92015137","wem/bandit_either_2","A3CFBT2CBQQIZY","either","3","400","","","","","","","0","0","1","0.3859803947","","0.6","0.4","0.8","0.2","","","","","0.3859803947","0.2919957672","0.2883225013","0.3148158286","","","","","","","","72","H","0","img/none_selected.jpg","","137","main_expt"
"","bandit","217","575618","0.0-178.0-0.0","92015137","wem/bandit_either_2","A3CFBT2CBQQIZY","either","3","356","","","","","","","0","0","1","","0.358492916","0.6","0.4","0.8","0.2","0.358492916","0.3193993407","0.3009152141","0.3111523267","","","","","","","","","","","","72","H","0","img/none_selected.jpg","","138","main_expt"
"","bandit","218","577378","0.0-179.0-0.0","92015137","wem/bandit_either_2","A3CFBT2CBQQIZY","either","3","253","","","","","","","0","0","1","0.3034593298","","0.6","0.4","0.8","0.2","","","","","0.3608756281","0.3404434035","0.293720077","0.3034593298","","","","","","","","76","L","3","","","139","main_expt"
"","bandit","219","579191","0.0-180.0-0.0","92015137","wem/bandit_either_2","A3CFBT2CBQQIZY","either","3","304","","","","","","","0","0","1","0.2507495005","","0.6","0.4","0.8","0.2","","","","","0.3421836092","0.3278052243","0.286059761","0.2507495005","","","","","","","","76","L","3","","","140","main_expt"
"","bandit","220","581309","0.0-181.0-0.0","92015137","wem/bandit_either_2","A3CFBT2CBQQIZY","either","3","609","","","","","","","0","0","1","","0.3038906839","0.6","0.4","0.8","0.2","0.3737340371","0.3038906839","0.2931724706","0.2220694513","","","","","","","","","","","","74","J","1","","","141","main_expt"
"","bandit","221","583119","0.0-182.0-0.0","92015137","wem/bandit_either_2","A3CFBT2CBQQIZY","either","3","303","","","","","","","0","0","1","","0.2924195757","0.6","0.4","0.8","0.2","0.3461121542","0.2924195757","0.2182180164","0.2119249064","","","","","","","","","","","","74","J","1","","","142","main_expt"
"","bandit","222","585006","0.0-183.0-0.0","92015137","wem/bandit_either_2","A3CFBT2CBQQIZY","either","3","380","","","","","","","0","0","1","","0.2015475508","0.6","0.4","0.8","0.2","0.3305931074","0.2816149275","0.2015475508","0.2665135591","","","","","","","","","","","","75","K","2","","","143","main_expt"
"","bandit","223","586690","0.0-184.0-0.0","92015137","wem/bandit_either_2","A3CFBT2CBQQIZY","either","3","175","","","","","","","0","0","1","0.2074070562","","0.6","0.4","0.8","0.2","","","","","0.3561039987","0.2355525614","0.2074070562","0.2854155153","","","","","","","","75","K","2","","","144","main_expt"
"","bandit","224","588557","0.0-185.0-0.0","92015137","wem/bandit_either_2","A3CFBT2CBQQIZY","either","3","360","","","","","","","0","0","1","0.1415368311","","0.6","0.4","0.8","0.2","","","","","0.3648023512","0.2185662272","0.1415368311","0.2521048148","","","","","","","","75","K","2","","","145","main_expt"
"","bandit","225","590478","0.0-186.0-0.0","92015137","wem/bandit_either_2","A3CFBT2CBQQIZY","either","3","411","","","","","","","1","0","0","0.2209315791","","0.6","0.4","0.8","0.2","","","","","0.3450315","0.2209315791","0.1549520657","0.2321266643","","","","","","","","74","J","1","","","146","main_expt"
"","bandit","226","592369","0.0-187.0-0.0","92015137","wem/bandit_either_2","A3CFBT2CBQQIZY","either","3","382","","","","","","","0","0","1","","0.2889766311","0.6","0.4","0.8","0.2","0.2720321141","0.2889766311","0.1469310363","0.3159383216","","","","","","","","","","","","74","J","1","","","147","main_expt"
"","bandit","227","594231","0.0-188.0-0.0","92015137","wem/bandit_either_2","A3CFBT2CBQQIZY","either","3","353","","","","","","","0","0","1","","0.2859466156","0.6","0.4","0.8","0.2","0.2598972664","0.2859466156","0.1332828417","0.2673485129","","","","","","","","","","","","74","J","1","","","148","main_expt"
"","bandit","228","596146","0.0-189.0-0.0","92015137","wem/bandit_either_2","A3CFBT2CBQQIZY","either","3","408","","","","","","","0","0","1","","0.2588478233","0.6","0.4","0.8","0.2","0.2343157719","0.2588478233","0.1102010463","0.3348600541","","","","","","","","","","","","74","J","1","","","149","main_expt"
"","bandit","229","598135","0.0-190.0-0.0","92015137","wem/bandit_either_2","A3CFBT2CBQQIZY","either","3","480","","","","","","","0","0","1","0.2451363599","","0.6","0.4","0.8","0.2","","","","","0.2451363599","0.2224653457","0.1356103494","0.3659656834","","","","","","","","72","H","0","img/none_selected.jpg","","150","main_expt"
"","bandit","230","600067","0.0-191.0-0.0","92015137","wem/bandit_either_2","A3CFBT2CBQQIZY","either","3","422","","","","","","","0","0","1","","0.2053737132","0.6","0.4","0.8","0.2","0.2053737132","0.2387237716","0.1621229287","0.36397653","","","","","","","","","","","","72","H","0","img/none_selected.jpg","","151","main_expt"
"","bandit","231","601974","0.0-192.0-0.0","92015137","wem/bandit_either_2","A3CFBT2CBQQIZY","either","3","398","","","","","","","1","0","0","0.3710672623","","0.6","0.4","0.8","0.2","","","","","0.2396242378","0.2519133504","0.1412745606","0.3710672623","","","","","","","","76","L","3","","","152","main_expt"
"","bandit","232","603741","0.0-193.0-0.0","92015137","wem/bandit_either_2","A3CFBT2CBQQIZY","either","3","259","","","","","","","0","0","1","0.3828607765","","0.6","0.4","0.8","0.2","","","","","0.2923277395","0.3078499427","0.1707580034","0.3828607765","","","","","","","","76","L","3","","","153","main_expt"
"","bandit","233","605609","0.0-194.0-0.0","92015137","wem/bandit_either_2","A3CFBT2CBQQIZY","either","3","360","","","","","","","0","0","1","","0.3526468527","0.6","0.4","0.8","0.2","0.3166515581","0.3283820497","0.1717455462","0.3526468527","","","","","","","","","","","","76","L","3","","","154","main_expt"
"","bandit","234","607363","0.0-195.0-0.0","92015137","wem/bandit_either_2","A3CFBT2CBQQIZY","either","3","245","","","","","","","0","0","1","","0.3865981945","0.6","0.4","0.8","0.2","0.3194616596","0.3303057687","0.1785539081","0.3865981945","","","","","","","","","","","","76","L","3","","","155","main_expt"
"","bandit","235","609276","0.0-196.0-0.0","92015137","wem/bandit_either_2","A3CFBT2CBQQIZY","either","3","404","","","","","","","0","0","1","0.2175815231","","0.6","0.4","0.8","0.2","","","","","0.3767011333","0.3178912443","0.2175815231","0.4328422877","","","","","","","","75","K","2","","","156","main_expt"
"","bandit","236","611120","0.0-197.0-0.0","92015137","wem/bandit_either_2","A3CFBT2CBQQIZY","either","3","336","","","","","","","0","0","1","","0.3236874272","0.6","0.4","0.8","0.2","0.3853144204","0.3236874272","0.216674397","0.4224906378","","","","","","","","","","","","74","J","1","","","157","main_expt"
"","bandit","237","612960","0.0-198.0-0.0","92015137","wem/bandit_either_2","A3CFBT2CBQQIZY","either","3","331","","","","","","","0","1","0","","0.3519128793","0.6","0.4","0.8","0.2","0.3519128793","0.3731337511","0.2184316938","0.4428847078","","","","","","","","","","","","72","H","0","img/none_selected.jpg","","158","main_expt"
"","bandit","238","614976","0.0-199.0-0.0","92015137","wem/bandit_either_2","A3CFBT2CBQQIZY","either","3","508","","","","","","","0","1","0","","0.3255157266","0.6","0.4","0.8","0.2","0.3255157266","0.3758107074","0.2603966468","0.4498083842","","","","","","","","","","","","72","H","0","img/none_selected.jpg","","159","main_expt"
"","bandit","239","616919","0.0-200.0-0.0","92015137","wem/bandit_either_2","A3CFBT2CBQQIZY","either","3","434","","","","","","","0","1","0","","0.379238532","0.6","0.4","0.8","0.2","0.379238532","0.3494215766","0.2242017374","0.4319550234","","","","","","","","","","","","72","H","0","img/none_selected.jpg","","160","main_expt"
"","bandit","240","618831","0.0-201.0-0.0","92015137","wem/bandit_either_2","A3CFBT2CBQQIZY","either","3","402","","","","","","","0","0","1","0.3776335756","","0.6","0.4","0.8","0.2","","","","","0.3776335756","0.3327111917","0.2014027125","0.4417514389","","","","","","","","72","H","0","img/none_selected.jpg","","161","main_expt"
"","bandit","241","620872","0.0-202.0-0.0","92015137","wem/bandit_either_2","A3CFBT2CBQQIZY","either","3","532","","","","","","","0","0","1","0.2955751891","","0.6","0.4","0.8","0.2","","","","","0.2955751891","0.3171011618","0.2038621466","0.4081293495","","","","","","","","72","H","0","img/none_selected.jpg","","162","main_expt"
"","bandit","242","622853","0.0-203.0-0.0","92015137","wem/bandit_either_2","A3CFBT2CBQQIZY","either","3","430","","","","","","","0","0","1","0.30851492","","0.6","0.4","0.8","0.2","","","","","0.30851492","0.364183239","0.1238136799","0.4265776113","","","","","","","","72","H","0","img/none_selected.jpg","","163","main_expt"
"","bandit","243","624567","0.0-204.0-0.0","92015137","wem/bandit_either_2","A3CFBT2CBQQIZY","either","3","204","","","","","","","1","0","0","0.427472809","","0.6","0.4","0.8","0.2","","","","","0.3074756362","0.3917374524","0.1104941302","0.427472809","","","","","","","","76","L","3","","","164","main_expt"
"","bandit","244","626424","0.0-205.0-0.0","92015137","wem/bandit_either_2","A3CFBT2CBQQIZY","either","3","345","","","","","","","0","0","1","","0.4016343469","0.6","0.4","0.8","0.2","0.2743039079","0.3629360172","0.1099358877","0.4016343469","","","","","","","","","","","","76","L","3","","","165","main_expt"
"","bandit","245","628394","0.0-206.0-0.0","92015137","wem/bandit_either_2","A3CFBT2CBQQIZY","either","3","460","","","","","","","1","0","0","0.3578169927","","0.6","0.4","0.8","0.2","","","","","0.2900226329","0.3697042915","0.08082918558","0.3578169927","","","","","","","","76","L","3","","","166","main_expt"
"","bandit","246","630304","0.0-207.0-0.0","92015137","wem/bandit_either_2","A3CFBT2CBQQIZY","either","3","402","","","","","","","0","0","1","0.3346076013","","0.6","0.4","0.8","0.2","","","","","0.3444017494","0.3626443337","0.08539074978","0.3346076013","","","","","","","","76","L","3","","","167","main_expt"
"","bandit","247","632188","0.0-208.0-0.0","92015137","wem/bandit_either_2","A3CFBT2CBQQIZY","either","3","377","","","","","","","0","0","1","","0.36326211","0.6","0.4","0.8","0.2","0.3934904689","0.3488380128","0.1307687804","0.36326211","","","","","","","","","","","","76","L","3","","","168","main_expt"
"","bandit","248","633923","0.0-209.0-0.0","92015137","wem/bandit_either_2","A3CFBT2CBQQIZY","either","3","227","","","","","","","0","0","1","0.3389060657","","0.6","0.4","0.8","0.2","","","","","0.3712778229","0.3338465455","0.09435724838","0.3389060657","","","","","","","","76","L","3","","","169","main_expt"
"","bandit","249","635666","0.0-210.0-0.0","92015137","wem/bandit_either_2","A3CFBT2CBQQIZY","either","3","236","","","","","","","0","0","1","0.3348119161","","0.6","0.4","0.8","0.2","","","","","0.3348119161","0.3675902536","0.09371103674","0.3820287301","","","","","","","","72","H","0","img/none_selected.jpg","","170","main_expt"
"","bandit","250","637580","0.0-211.0-0.0","92015137","wem/bandit_either_2","A3CFBT2CBQQIZY","either","3","405","","","","","","","0","0","1","0.3697689907","","0.6","0.4","0.8","0.2","","","","","0.3697689907","0.3663425941","0.0912992704","0.3738350687","","","","","","","","72","H","0","img/none_selected.jpg","","171","main_expt"
"","bandit","251","639356","0.0-212.0-0.0","92015137","wem/bandit_either_2","A3CFBT2CBQQIZY","either","3","267","","","","","","","0","0","1","0.3571019768","","0.6","0.4","0.8","0.2","","","","","0.3438364448","0.3571019768","0.1053216192","0.3449486646","","","","","","","","74","J","1","","","172","main_expt"
"","bandit","252","641185","0.0-213.0-0.0","92015137","wem/bandit_either_2","A3CFBT2CBQQIZY","either","3","319","","","","","","","0","0","1","","0.383943734","0.6","0.4","0.8","0.2","0.4064517123","0.383943734","0.1119971747","0.3754463001","","","","","","","","","","","","74","J","1","","","173","main_expt"
"","bandit","253","643090","0.0-214.0-0.0","92015137","wem/bandit_either_2","A3CFBT2CBQQIZY","either","3","395","","","","","","","0","0","1","0.1049574405","","0.6","0.4","0.8","0.2","","","","","0.4266345201","0.378453819","0.1049574405","0.3983783957","","","","","","","","75","K","2","","","174","main_expt"
"","bandit","254","644869","0.0-215.0-0.0","92015137","wem/bandit_either_2","A3CFBT2CBQQIZY","either","3","268","","","","","","","0","0","1","0.07351671593","","0.6","0.4","0.8","0.2","","","","","0.4413212306","0.3577460836","0.07351671593","0.4176958341","","","","","","","","75","K","2","","","175","main_expt"
"","bandit","255","646761","0.0-216.0-0.0","92015137","wem/bandit_either_2","A3CFBT2CBQQIZY","either","3","378","","","","","","","0","0","1","","0.4336280271","0.6","0.4","0.8","0.2","0.438548454","0.3346789668","0.06097876817","0.4336280271","","","","","","","","","","","","76","L","3","","","176","main_expt"
"","bandit","256","648611","0.0-217.0-0.0","92015137","wem/bandit_either_2","A3CFBT2CBQQIZY","either","3","340","","","","","","","0","1","0","","0.3863917124","0.6","0.4","0.8","0.2","0.4350726265","0.3720341948","0.05873143133","0.3863917124","","","","","","","","","","","","76","L","3","","","177","main_expt"
"","bandit","257","650595","0.0-218.0-0.0","92015137","wem/bandit_either_2","A3CFBT2CBQQIZY","either","3","474","","","","","","","0","0","1","","0.3826512014","0.6","0.4","0.8","0.2","0.4029859975","0.4243236705","0.07829718294","0.3826512014","","","","","","","","","","","","76","L","3","","","178","main_expt"
"","bandit","258","652565","0.0-219.0-0.0","92015137","wem/bandit_either_2","A3CFBT2CBQQIZY","either","3","461","","","","","","","0","0","1","0.3681046487","","0.6","0.4","0.8","0.2","","","","","0.3738585124","0.4396564102","0.05868413977","0.3681046487","","","","","","","","76","L","3","","","179","main_expt"
"","bandit","259","654559","0.0-220.0-0.0","92015137","wem/bandit_either_2","A3CFBT2CBQQIZY","either","3","483","","","","","","","1","0","0","0.374340785","","0.6","0.4","0.8","0.2","","","","","0.3884150149","0.4501825932","0.04540529238","0.374340785","","","","","","","","76","L","3","","","180","main_expt"
"","bandit","260","656433","0.0-221.0-0.0","92015137","wem/bandit_either_2","A3CFBT2CBQQIZY","either","3","364","","","","","","","1","0","0","0.3844034803","","0.6","0.4","0.8","0.2","","","","","0.3977335033","0.4527537228","0.04810206047","0.3844034803","","","","","","","","76","L","3","","","181","main_expt"
"","bandit","261","658399","0.0-222.0-0.0","92015137","wem/bandit_either_2","A3CFBT2CBQQIZY","either","3","459","","","","","","","0","0","1","","0.3569363444","0.6","0.4","0.8","0.2","0.4194204302","0.4733821952","0.0564969073","0.3569363444","","","","","","","","","","","","76","L","3","","","182","main_expt"
"","bandit","262","660347","0.0-223.0-0.0","92015137","wem/bandit_either_2","A3CFBT2CBQQIZY","either","3","440","","","","","","","1","0","0","0.3930074682","","0.6","0.4","0.8","0.2","","","","","0.4050300101","0.4741352064","0.06674959941","0.3930074682","","","","","","","","76","L","3","","","183","main_expt"
"","bandit","263","662402","0.0-224.0-0.0","92015137","wem/bandit_either_2","A3CFBT2CBQQIZY","either","3","547","","","","","","","0","1","0","","0.4105724965","0.6","0.4","0.8","0.2","0.4272992256","0.4835015011","0.05730522946","0.4105724965","","","","","","","","","","","","76","L","3","","","184","main_expt"
"","bandit","264","664466","0.0-225.0-0.0","92015137","wem/bandit_either_2","A3CFBT2CBQQIZY","either","3","555","","","","","","","0","1","0","","0.4230276401","0.6","0.4","0.8","0.2","0.4213026748","0.4907566516","0.0759668512","0.4230276401","","","","","","","","","","","","76","L","3","","","185","main_expt"
"","bandit","265","666452","0.0-226.0-0.0","92015137","wem/bandit_either_2","A3CFBT2CBQQIZY","either","3","477","","","","","","","0","0","1","","0.4243078066","0.6","0.4","0.8","0.2","0.3729626057","0.4777100538","0.0736669194","0.4243078066","","","","","","","","","","","","76","L","3","","","186","main_expt"
"","bandit","266","668299","0.0-227.0-0.0","92015137","wem/bandit_either_2","A3CFBT2CBQQIZY","either","3","340","","","","","","","0","1","0","","0.419104652","0.6","0.4","0.8","0.2","0.4022080601","0.4751658893","0.1020870739","0.419104652","","","","","","","","","","","","76","L","3","","","187","main_expt"
"","bandit","267","670306","0.0-228.0-0.0","92015137","wem/bandit_either_2","A3CFBT2CBQQIZY","either","3","497","","","","","","","0","1","0","","0.3917910895","0.6","0.4","0.8","0.2","0.4218987807","0.4711403756","0.110066606","0.3917910895","","","","","","","","","","","","76","L","3","","","188","main_expt"
"","bandit","268","672364","0.0-229.0-0.0","92015137","wem/bandit_either_2","A3CFBT2CBQQIZY","either","3","550","","","","","","","0","0","1","","0.3696037293","0.6","0.4","0.8","0.2","0.4284519853","0.4848283219","0.1616324423","0.3696037293","","","","","","","","","","","","76","L","3","","","189","main_expt"
"","bandit","269","674184","0.0-230.0-0.0","92015137","wem/bandit_either_2","A3CFBT2CBQQIZY","either","3","309","","","","","","","0","1","0","","0.3722688899","0.6","0.4","0.8","0.2","0.4104863902","0.4906713727","0.1401199573","0.3722688899","","","","","","","","","","","","76","L","3","","","190","main_expt"
"","bandit","270","676244","0.0-231.0-0.0","92015137","wem/bandit_either_2","A3CFBT2CBQQIZY","either","3","551","","","","","","","0","0","1","","0.3956575009","0.6","0.4","0.8","0.2","0.4071825693","0.4944082075","0.1782786715","0.3956575009","","","","","","","","","","","","76","L","3","","","191","main_expt"
"","bandit","271","678172","0.0-232.0-0.0","92015137","wem/bandit_either_2","A3CFBT2CBQQIZY","either","3","418","","","","","","","0","0","1","","0.3843500594","0.6","0.4","0.8","0.2","0.4172763132","0.4922337742","0.203517815","0.3843500594","","","","","","","","","","","","76","L","3","","","192","main_expt"
"","bandit","272","680224","0.0-233.0-0.0","92015137","wem/bandit_either_2","A3CFBT2CBQQIZY","either","3","544","","","","","","","0","1","0","","0.3801723293","0.6","0.4","0.8","0.2","0.3965334946","0.4887356563","0.172030281","0.3801723293","","","","","","","","","","","","76","L","3","","","193","main_expt"
"","bandit","273","682265","0.0-234.0-0.0","92015137","wem/bandit_either_2","A3CFBT2CBQQIZY","either","3","532","","","","","","","0","0","1","","0.3871645121","0.6","0.4","0.8","0.2","0.383316574","0.4850955297","0.1813301739","0.3871645121","","","","","","","","","","","","76","L","3","","","194","main_expt"
"","bandit","274","684110","0.0-235.0-0.0","92015137","wem/bandit_either_2","A3CFBT2CBQQIZY","either","3","335","","","","","","","0","0","1","","0.3633903175","0.6","0.4","0.8","0.2","0.3965345796","0.4848341758","0.2284295163","0.3633903175","","","","","","","","","","","","76","L","3","","","195","main_expt"
"","bandit","275","686034","0.0-236.0-0.0","92015137","wem/bandit_either_2","A3CFBT2CBQQIZY","either","3","415","","","","","","","0","0","1","","0.3811675741","0.6","0.4","0.8","0.2","0.3978469093","0.490049139","0.2501246714","0.3811675741","","","","","","","","","","","","76","L","3","","","196","main_expt"
"","bandit","276","687956","0.0-237.0-0.0","92015137","wem/bandit_either_2","A3CFBT2CBQQIZY","either","3","402","","","","","","","1","0","0","0.3172926233","","0.6","0.4","0.8","0.2","","","","","0.3172926233","0.4912643012","0.3150809007","0.3487868089","","","","","","","","72","H","0","img/none_selected.jpg","","197","main_expt"
"","bandit","277","689944","0.0-238.0-0.0","92015137","wem/bandit_either_2","A3CFBT2CBQQIZY","either","3","478","","","","","","","0","1","0","","0.3113170709","0.6","0.4","0.8","0.2","0.3113170709","0.4793615714","0.3442077965","0.2986771554","","","","","","","","","","","","72","H","0","img/none_selected.jpg","","198","main_expt"
"","bandit","278","691946","0.0-239.0-0.0","92015137","wem/bandit_either_2","A3CFBT2CBQQIZY","either","3","492","","","","","","","0","1","0","","0.3066116159","0.6","0.4","0.8","0.2","0.3066116159","0.4661622676","0.3675051223","0.3481418533","","","","","","","","","","","","72","H","0","img/none_selected.jpg","","199","main_expt"
"","bandit","279","694047","0.0-240.0-0.0","92015137","wem/bandit_either_2","A3CFBT2CBQQIZY","either","3","592","","","","","","","0","1","0","","0.2521122026","0.6","0.4","0.8","0.2","0.2521122026","0.4479238565","0.3044821291","0.353319573","","","","","","","","","","","","72","H","0","img/none_selected.jpg","","200","main_expt"
"","bandit","280","696053","0.0-241.0-0.0","92015137","wem/bandit_either_2","A3CFBT2CBQQIZY","either","3","497","","","","","","","0","0","1","","0.2679963248","0.6","0.4","0.8","0.2","0.2679963248","0.4429166455","0.3013824411","0.3676338631","","","","","","","","","","","","72","H","0","img/none_selected.jpg","","201","main_expt"
"","bandit","281","698163","0.0-242.0-0.0","92015137","wem/bandit_either_2","A3CFBT2CBQQIZY","either","3","601","","","","","","","0","0","1","0.3001954661","","0.6","0.4","0.8","0.2","","","","","0.2076546236","0.442820363","0.3001954661","0.311657493","","","","","","","","75","K","2","","","202","main_expt"
"","bandit","282","700010","0.0-243.0-0.0","92015137","wem/bandit_either_2","A3CFBT2CBQQIZY","either","3","337","","","","","","","0","0","1","0.1881707852","","0.6","0.4","0.8","0.2","","","","","0.1881707852","0.4539008368","0.3189156814","0.3364041998","","","","","","","","72","H","0","img/none_selected.jpg","","203","main_expt"
"","bandit","283","702124","0.0-244.0-0.0","92015137","wem/bandit_either_2","A3CFBT2CBQQIZY","either","3","604","","","","","","","0","0","1","0.2057853427","","0.6","0.4","0.8","0.2","","","","","0.2057853427","0.4163307037","0.3162062407","0.3148670147","","","","","","","","72","H","0","img/none_selected.jpg","","204","main_expt"
"","bandit","284","704050","0.0-245.0-0.0","92015137","wem/bandit_either_2","A3CFBT2CBQQIZY","either","3","417","","","","","","","1","0","0","0.2564451259","","0.6","0.4","0.8","0.2","","","","","0.2564451259","0.4045388199","0.347278619","0.3293187519","","","","","","","","72","H","0","img/none_selected.jpg","","205","main_expt"
"","bandit","285","706060","0.0-246.0-0.0","92015137","wem/bandit_either_2","A3CFBT2CBQQIZY","either","3","501","","","","","","","0","0","1","","0.3082896296","0.6","0.4","0.8","0.2","0.3082896296","0.4083422121","0.2970129147","0.2705077244","","","","","","","","","","","","72","H","0","img/none_selected.jpg","","206","main_expt"
"","bandit","286","707926","0.0-247.0-0.0","92015137","wem/bandit_either_2","A3CFBT2CBQQIZY","either","3","357","","","","","","","0","0","1","0.3235103938","","0.6","0.4","0.8","0.2","","","","","0.3235103938","0.4033585138","0.3331481178","0.3083591011","","","","","","","","72","H","0","img/none_selected.jpg","","207","main_expt"
"","bandit","287","709906","0.0-248.0-0.0","92015137","wem/bandit_either_2","A3CFBT2CBQQIZY","either","3","471","","","","","","","0","0","1","","0.2489273718","0.6","0.4","0.8","0.2","0.3563539536","0.3753320851","0.3195917859","0.2489273718","","","","","","","","","","","","76","L","3","","","208","main_expt"
"","bandit","288","712028","0.0-249.0-0.0","92015137","wem/bandit_either_2","A3CFBT2CBQQIZY","either","3","610","","","","","","","0","0","1","","0.2224321457","0.6","0.4","0.8","0.2","0.3821305916","0.3864970555","0.3642345195","0.2224321457","","","","","","","","","","","","76","L","3","","","209","main_expt"
"","bandit","289","713968","0.0-250.0-0.0","92015137","wem/bandit_either_2","A3CFBT2CBQQIZY","either","3","412","","","","","","","1","0","0","0.2184729634","","0.6","0.4","0.8","0.2","","","","","0.4067483812","0.3894881908","0.3518797164","0.2184729634","","","","","","","","76","L","3","","","210","main_expt"
"","bandit","290","716108","0.0-251.0-0.0","92015137","wem/bandit_either_2","A3CFBT2CBQQIZY","either","3","630","","","","","","","0","0","1","","0.2178464352","0.6","0.4","0.8","0.2","0.376825818","0.4052823736","0.3781537602","0.2178464352","","","","","","","","","","","","76","L","3","","","211","main_expt"
"","bandit","291","718077","0.0-252.0-0.0","92015137","wem/bandit_either_2","A3CFBT2CBQQIZY","either","3","459","","","","","","","0","1","0","","0.1644702768","0.6","0.4","0.8","0.2","0.3481764155","0.3783189977","0.3773353051","0.1644702768","","","","","","","","","","","","76","L","3","","","212","main_expt"
"","bandit","292","720137","0.0-253.0-0.0","92015137","wem/bandit_either_2","A3CFBT2CBQQIZY","either","3","550","","","","","","","0","0","1","","0.1271660564","0.6","0.4","0.8","0.2","0.3239198888","0.3804187243","0.3448860985","0.1271660564","","","","","","","","","","","","76","L","3","","","213","main_expt"
"","bandit","293","722117","0.0-254.0-0.0","92015137","wem/bandit_either_2","A3CFBT2CBQQIZY","either","3","470","","","","","","","0","0","1","0.1368129038","","0.6","0.4","0.8","0.2","","","","","0.3592643085","0.3964056757","0.3622000499","0.1368129038","","","","","","","","76","L","3","","","214","main_expt"
"","bandit","294","724242","0.0-255.0-0.0","92015137","wem/bandit_either_2","A3CFBT2CBQQIZY","either","3","615","","","","","","","0","0","1","0.3482739819","","0.6","0.4","0.8","0.2","","","","","0.3482739819","0.3939862607","0.3408682726","0.07615368859","","","","","","","","72","H","0","img/none_selected.jpg","","215","main_expt"
"","bandit","295","726045","0.0-256.0-0.0","92015137","wem/bandit_either_2","A3CFBT2CBQQIZY","either","3","290","","","","","","","0","0","1","","0.4062496234","0.6","0.4","0.8","0.2","0.2972527025","0.4062496234","0.328819006","0.07711559412","","","","","","","","","","","","74","J","1","","","216","main_expt"
"","bandit","296","727866","0.0-257.0-0.0","92015137","wem/bandit_either_2","A3CFBT2CBQQIZY","either","3","312","","","","","","","0","0","1","","0.3440498305","0.6","0.4","0.8","0.2","0.2850944341","0.3440498305","0.3229374792","0.07728173513","","","","","","","","","","","","74","J","1","","","217","main_expt"
"","bandit","297","729726","0.0-258.0-0.0","92015137","wem/bandit_either_2","A3CFBT2CBQQIZY","either","3","344","","","","","","","0","0","1","0.3616220652","","0.6","0.4","0.8","0.2","","","","","0.2483413171","0.3198020565","0.3616220652","0.07919919155","","","","","","","","75","K","2","","","218","main_expt"
"","bandit","298","731527","0.0-259.0-0.0","92015137","wem/bandit_either_2","A3CFBT2CBQQIZY","either","3","292","","","","","","","1","0","0","0.3591176528","","0.6","0.4","0.8","0.2","","","","","0.2680513607","0.3078290176","0.3591176528","0.1270410367","","","","","","","","75","K","2","","","219","main_expt"
"","bandit","299","733497","0.0-260.0-0.0","92015137","wem/bandit_either_2","A3CFBT2CBQQIZY","either","3","459","","","","","","","0","0","1","","0.2758994579","0.6","0.4","0.8","0.2","0.304668496","0.2961895162","0.2758994579","0.1117499599","","","","","","","","","","","","75","K","2","","","220","main_expt"
"","bandit","300","735372","0.0-261.0-0.0","92015137","wem/bandit_either_2","A3CFBT2CBQQIZY","either","3","366","","","","","","","0","0","1","0.3119987931","","0.6","0.4","0.8","0.2","","","","","0.2773284289","0.2658603678","0.3119987931","0.1186324211","","","","","","","","75","K","2","","","221","main_expt"
"","bandit","301","737361","0.0-262.0-0.0","92015137","wem/bandit_either_2","A3CFBT2CBQQIZY","either","3","479","","","","","","","0","0","1","","0.1141050397","0.6","0.4","0.8","0.2","0.2152506718","0.274695037","0.3106374463","0.1141050397","","","","","","","","","","","","76","L","3","","","222","main_expt"
"","bandit","302","739187","0.0-263.0-0.0","92015137","wem/bandit_either_2","A3CFBT2CBQQIZY","either","3","315","","","","","","","0","0","1","","0.1007228699","0.6","0.4","0.8","0.2","0.2445797097","0.2210940289","0.3131570504","0.1007228699","","","","","","","","","","","","76","L","3","","","223","main_expt"
"","bandit","303","741070","0.0-264.0-0.0","92015137","wem/bandit_either_2","A3CFBT2CBQQIZY","either","3","375","","","","","","","0","1","0","","0.1380584308","0.6","0.4","0.8","0.2","0.2559263424","0.1843933297","0.3025994915","0.1380584308","","","","","","","","","","","","76","L","3","","","224","main_expt"
"","bandit","304","742983","0.0-265.0-0.0","92015137","wem/bandit_either_2","A3CFBT2CBQQIZY","either","3","388","","","","","","","0","0","1","0.1393521225","","0.6","0.4","0.8","0.2","","","","","0.2702522324","0.212211923","0.2994132709","0.1393521225","","","","","","","","76","L","3","","","225","main_expt"
"","bandit","305","744783","0.0-266.0-0.0","92015137","wem/bandit_either_2","A3CFBT2CBQQIZY","either","3","291","","","","","","","0","0","1","0.2094269877","","0.6","0.4","0.8","0.2","","","","","0.2646860425","0.2315036379","0.2866794375","0.2094269877","","","","","","","","76","L","3","","","226","main_expt"
"","bandit","306","746611","0.0-267.0-0.0","92015137","wem/bandit_either_2","A3CFBT2CBQQIZY","either","3","320","","","","","","","0","0","1","","0.2959232149","0.6","0.4","0.8","0.2","0.269556559","0.2646353212","0.2299222882","0.2959232149","","","","","","","","","","","","76","L","3","","","227","main_expt"
"","bandit","307","748484","0.0-268.0-0.0","92015137","wem/bandit_either_2","A3CFBT2CBQQIZY","either","3","362","","","","","","","1","0","0","0.2498152532","","0.6","0.4","0.8","0.2","","","","","0.2498152532","0.2443517867","0.2991813551","0.374355758","","","","","","","","72","H","0","img/none_selected.jpg","","228","main_expt"
"","bandit","308","750408","0.0-269.0-0.0","92015137","wem/bandit_either_2","A3CFBT2CBQQIZY","either","3","413","","","","","","","0","0","1","0.2495566458","","0.6","0.4","0.8","0.2","","","","","0.2495566458","0.2569692975","0.3295538921","0.3876740502","","","","","","","","72","H","0","img/none_selected.jpg","","229","main_expt"
"","bandit","309","752492","0.0-270.0-0.0","92015137","wem/bandit_either_2","A3CFBT2CBQQIZY","either","3","575","","","","","","","1","0","0","0.2134382902","","0.6","0.4","0.8","0.2","","","","","0.2134382902","0.2490290172","0.2713593359","0.3341674595","","","","","","","","72","H","0","img/none_selected.jpg","","230","main_expt"
"","bandit","310","754569","0.0-271.0-0.0","92015137","wem/bandit_either_2","A3CFBT2CBQQIZY","either","3","566","","","","","","","0","0","1","0.2099205747","","0.6","0.4","0.8","0.2","","","","","0.2099205747","0.2368643707","0.2746975787","0.3558281537","","","","","","","","72","H","0","img/none_selected.jpg","","231","main_expt"
"","bandit","311","756422","0.0-272.0-0.0","92015137","wem/bandit_either_2","A3CFBT2CBQQIZY","either","3","343","","","","","","","0","0","1","0.1598609145","","0.6","0.4","0.8","0.2","","","","","0.1598609145","0.2857324616","0.2817934899","0.3293076861","","","","","","","","72","H","0","img/none_selected.jpg","","232","main_expt"
"","bandit","312","758417","0.0-273.0-0.0","92015137","wem/bandit_either_2","A3CFBT2CBQQIZY","either","3","486","","","","","","","0","0","1","0.1472569172","","0.6","0.4","0.8","0.2","","","","","0.1472569172","0.226619475","0.3139736629","0.3271309306","","","","","","","","72","H","0","img/none_selected.jpg","","233","main_expt"
"","bandit","313","760259","0.0-274.0-0.0","92015137","wem/bandit_either_2","A3CFBT2CBQQIZY","either","3","332","","","","","","","0","0","1","","0.3510228885","0.6","0.4","0.8","0.2","0.1123375355","0.2448251662","0.3332560948","0.3510228885","","","","","","","","","","","","76","L","3","","","234","main_expt"
"","bandit","314","762072","0.0-275.0-0.0","92015137","wem/bandit_either_2","A3CFBT2CBQQIZY","either","3","303","","","","","","","0","1","0","","0.3346663699","0.6","0.4","0.8","0.2","0.1562424728","0.2996798263","0.3475281657","0.3346663699","","","","","","","","","","","","76","L","3","","","235","main_expt"
"","bandit","315","764102","0.0-276.0-0.0","92015137","wem/bandit_either_2","A3CFBT2CBQQIZY","either","3","520","","","","","","","0","0","1","0.332043614","","0.6","0.4","0.8","0.2","","","","","0.1623269298","0.3220329496","0.3170984437","0.332043614","","","","","","","","76","L","3","","","236","main_expt"
"","bandit","316","766041","0.0-277.0-0.0","92015137","wem/bandit_either_2","A3CFBT2CBQQIZY","either","3","429","","","","","","","0","0","1","","0.2780661838","0.6","0.4","0.8","0.2","0.1362759337","0.3672390457","0.3611259067","0.2780661838","","","","","","","","","","","","76","L","3","","","237","main_expt"
"","bandit","317","768188","0.0-278.0-0.0","92015137","wem/bandit_either_2","A3CFBT2CBQQIZY","either","3","635","","","","","","","0","1","0","","0.3071002506","0.6","0.4","0.8","0.2","0.1282223372","0.3702030288","0.3449339383","0.3071002506","","","","","","","","","","","","76","L","3","","","238","main_expt"
"","bandit","318","770459","0.0-279.0-0.0","92015137","wem/bandit_either_2","A3CFBT2CBQQIZY","either","3","759","","","","","","","0","0","1","","0.3101279526","0.6","0.4","0.8","0.2","0.08262393641","0.3486367063","0.3006984684","0.3101279526","","","","","","","","","","","","76","L","3","","","239","main_expt"
"","bandit","319","772419","0.0-280.0-0.0","92015137","wem/bandit_either_2","A3CFBT2CBQQIZY","either","3","451","","","","","","","0","0","1","0.3071576631","","0.6","0.4","0.8","0.2","","","","","0.09366491666","0.3422639114","0.3355390738","0.3071576631","","","","","","","","76","L","3","","","240","main_expt"
"","bandit","320","774314","0.0-281.0-0.0","92015137","wem/bandit_either_2","A3CFBT2CBQQIZY","either","3","385","","","","","","","0","0","1","","0.3703795114","0.6","0.4","0.8","0.2","0.09778426954","0.3703795114","0.3513118525","0.3213727252","","","","","","","","","","","","74","J","1","","","241","main_expt"
"","bandit","321","776146","0.0-282.0-0.0","92015137","wem/bandit_either_2","A3CFBT2CBQQIZY","either","3","320","","","","","","","0","0","1","","0.3362310887","0.6","0.4","0.8","0.2","0.0684580113","0.3362310887","0.2871404103","0.3303042821","","","","","","","","","","","","74","J","1","","","242","main_expt"
"","bandit","322","778083","0.0-283.0-0.0","92015137","wem/bandit_either_2","A3CFBT2CBQQIZY","either","3","426","","","","","","","0","0","1","0.3855302341","","0.6","0.4","0.8","0.2","","","","","0.05756719403","0.3855302341","0.2582353252","0.386578507","","","","","","","","74","J","1","","","243","main_expt"
"","bandit","323","780006","0.0-284.0-0.0","92015137","wem/bandit_either_2","A3CFBT2CBQQIZY","either","3","412","","","","","","","0","0","1","0.2108553612","","0.6","0.4","0.8","0.2","","","","","0.07954378931","0.3504604058","0.2108553612","0.3582196724","","","","","","","","75","K","2","","","244","main_expt"
"","bandit","324","781754","0.0-285.0-0.0","92015137","wem/bandit_either_2","A3CFBT2CBQQIZY","either","3","237","","","","","","","0","0","1","0.190308294","","0.6","0.4","0.8","0.2","","","","","0.07668718344","0.3586275713","0.190308294","0.3626170977","","","","","","","","75","K","2","","","245","main_expt"
"","bandit","325","783722","0.0-286.0-0.0","92015137","wem/bandit_either_2","A3CFBT2CBQQIZY","either","3","458","","","","","","","0","0","1","0.2079876503","","0.6","0.4","0.8","0.2","","","","","0.08627194322","0.3202710015","0.2079876503","0.2778980274","","","","","","","","75","K","2","","","246","main_expt"
"","bandit","326","785678","0.0-287.0-0.0","92015137","wem/bandit_either_2","A3CFBT2CBQQIZY","either","3","447","","","","","","","0","0","1","0.1009858539","","0.6","0.4","0.8","0.2","","","","","0.1009858539","0.2874587678","0.2053262284","0.2864864277","","","","","","","","72","H","0","img/none_selected.jpg","","247","main_expt"
"","bandit","327","787645","0.0-288.0-0.0","92015137","wem/bandit_either_2","A3CFBT2CBQQIZY","either","3","455","","","","","","","0","0","1","0.1044033157","","0.6","0.4","0.8","0.2","","","","","0.1044033157","0.2703076155","0.2699327364","0.2883304048","","","","","","","","72","H","0","img/none_selected.jpg","","248","main_expt"
