"consent","trial_type","trial_index","time_elapsed","internal_node_id","subjID","study","MID","cond","drift","rt","responses","key_press","expt_phase","like","value","connected","gems","bombs","no_reward","GemPrChosen","BombPrChosen","GainOverPainPr_0","GainOverPainPr_1","GainOverPainPr_2","GainOverPainPr_3","LosePr_0","LosePr_1","LosePr_2","LosePr_3","WinPr_0","WinPr_1","WinPr_2","WinPr_3","Q0","Q1","Q2","gender","age","ethnicity","target","respCharCode","respKey","respChoiceNum","respChoice","practice","trial_counter","trial_label"
"INL_behavioral_consent_30min_online.html","consent","0","7268","0.0-0.0","92757622","wem/bandit_either_2","A3AJJHOAV7WIUQ","either","1","","","","","","","","","","","","","","","","","","","","","","","","","","","","","","","","","","","","","",""
"","survey-text","1","12903","0.0-1.0","92757622","wem/bandit_either_2","A3AJJHOAV7WIUQ","either","1","4625","{""Q0"":""A3AJJHOAV7WIUQ""}","","","","","","","","","","","","","","","","","","","","","","","","","","","","","","","","","","","",""
"","text","2","21103","0.0-2.0","92757622","wem/bandit_either_2","A3AJJHOAV7WIUQ","either","1","7191","","32","","","","","","","","","","","","","","","","","","","","","","","","","","","","","","","","","","",""
"","text","3","29935","0.0-3.0","92757622","wem/bandit_either_2","A3AJJHOAV7WIUQ","either","1","8831","","32","","","","","","","","","","","","","","","","","","","","","","","","","","","","","","","","","","",""
"","text","4","54311","0.0-4.0","92757622","wem/bandit_either_2","A3AJJHOAV7WIUQ","either","1","24374","","32","","","","","","","","","","","","","","","","","","","","","","","","","","","","","","","","","","",""
"","text","5","63565","0.0-5.0","92757622","wem/bandit_either_2","A3AJJHOAV7WIUQ","either","1","9253","","32","","","","","","","","","","","","","","","","","","","","","","","","","","","","","","","","","","",""
"","text","6","85477","0.0-6.0","92757622","wem/bandit_either_2","A3AJJHOAV7WIUQ","either","1","21910","","32","","","","","","","","","","","","","","","","","","","","","","","","","","","","","","","","","","",""
"","text","7","88741","0.0-7.0","92757622","wem/bandit_either_2","A3AJJHOAV7WIUQ","either","1","3263","","32","","","","","","","","","","","","","","","","","","","","","","","","","","","","","","","","","","",""
"","text","8","93325","0.0-8.0","92757622","wem/bandit_either_2","A3AJJHOAV7WIUQ","either","1","4583","","32","","","","","","","","","","","","","","","","","","","","","","","","","","","","","","","","","","",""
"","identification","9","100647","0.0-9.0-0.0","92757622","wem/bandit_either_2","A3AJJHOAV7WIUQ","either","1","7294","","","","6","6","6","","","","","","","","","","","","","","","","","","","","","","","","the village of Zur","","","","","","",""
"","identification","10","108646","0.0-9.0-1.0","92757622","wem/bandit_either_2","A3AJJHOAV7WIUQ","either","1","6970","","","","1","2","1","","","","","","","","","","","","","","","","","","","","","","","","the village of Nyx","","","","","","",""
"","text","11","114077","0.0-10.0","92757622","wem/bandit_either_2","A3AJJHOAV7WIUQ","either","1","4424","","32","","","","","","","","","","","","","","","","","","","","","","","","","","","","","","","","","","",""
"","text","12","116956","0.0-11.0","92757622","wem/bandit_either_2","A3AJJHOAV7WIUQ","either","1","2877","","32","","","","","","","","","","","","","","","","","","","","","","","","","","","","","","","","","","",""
"","text","13","118693","0.0-12.0","92757622","wem/bandit_either_2","A3AJJHOAV7WIUQ","either","1","1736","","32","","","","","","","","","","","","","","","","","","","","","","","","","","","","","","","","","","",""
"","text","14","122876","0.0-13.0","92757622","wem/bandit_either_2","A3AJJHOAV7WIUQ","either","1","4181","","32","","","","","","","","","","","","","","","","","","","","","","","","","","","","","","","","","","",""
"","bandit","15","126824","0.0-14.0-0.0","92757622","wem/bandit_either_2","A3AJJHOAV7WIUQ","either","1","2435","","","","","","","0","0","1","0","0","","","","","0","","","","0","","","","","","","","","","","74","J","0","img/none_selected_demo.jpg","true","0",""
"","bandit","16","130231","0.0-15.0-0.0","92757622","wem/bandit_either_2","A3AJJHOAV7WIUQ","either","1","1898","","","","","","","0","0","1","0","0","","","","","0","","","","0","","","","","","","","","","","75","K","0","img/none_selected_demo.jpg","true","0",""
"","text","17","138893","0.0-16.0","92757622","wem/bandit_either_2","A3AJJHOAV7WIUQ","either","1","8659","","32","","","","","","","","","","","","","","","","","","","","","","","","","","","","","","","","","","",""
"","text","18","144572","0.0-17.0","92757622","wem/bandit_either_2","A3AJJHOAV7WIUQ","either","1","5676","","32","","","","","","","","","","","","","","","","","","","","","","","","","","","","","","","","","","",""
"","text","19","148492","0.0-18.0","92757622","wem/bandit_either_2","A3AJJHOAV7WIUQ","either","1","3918","","32","","","","","","","","","","","","","","","","","","","","","","","","","","","","","","","","","","",""
"","text","20","151692","0.0-19.0","92757622","wem/bandit_either_2","A3AJJHOAV7WIUQ","either","1","3198","","32","","","","","","","","","","","","","","","","","","","","","","","","","","","","","","","","","","",""
"","bandit","21","153967","0.0-20.0-0.0","92757622","wem/bandit_either_2","A3AJJHOAV7WIUQ","either","1","764","","","","","","","0","1","0","","0.8","0.5","0.5","","","0.8","0.2","","","","","","","","","","","","","","74","J","0","img/none_selected_demo.jpg","true","0","80_20_practice"
"","bandit","22","156202","0.0-20.0-1.0","92757622","wem/bandit_either_2","A3AJJHOAV7WIUQ","either","1","721","","","","","","","0","1","0","","0.8","0.5","0.5","","","0.8","0.2","","","","","","","","","","","","","","74","J","0","img/none_selected_demo.jpg","true","0","80_20_practice"
"","bandit","23","158541","0.0-20.0-2.0","92757622","wem/bandit_either_2","A3AJJHOAV7WIUQ","either","1","829","","","","","","","1","0","0","0.8","","0.5","0.5","","","","","","","0.8","0.2","","","","","","","","","","74","J","0","img/none_selected_demo.jpg","true","0","80_20_practice"
"","bandit","24","160718","0.0-20.0-3.0","92757622","wem/bandit_either_2","A3AJJHOAV7WIUQ","either","1","666","","","","","","","1","0","0","0.8","","0.5","0.5","","","","","","","0.8","0.2","","","","","","","","","","74","J","0","img/none_selected_demo.jpg","true","0","80_20_practice"
"","bandit","25","162715","0.0-20.0-4.0","92757622","wem/bandit_either_2","A3AJJHOAV7WIUQ","either","1","489","","","","","","","0","1","0","","0.8","0.5","0.5","","","0.8","0.2","","","","","","","","","","","","","","74","J","0","img/none_selected_demo.jpg","true","0","80_20_practice"
"","bandit","26","164822","0.0-20.0-5.0","92757622","wem/bandit_either_2","A3AJJHOAV7WIUQ","either","1","596","","","","","","","1","0","0","0.8","","0.5","0.5","","","","","","","0.8","0.2","","","","","","","","","","74","J","0","img/none_selected_demo.jpg","true","0","80_20_practice"
"","bandit","27","166886","0.0-20.0-6.0","92757622","wem/bandit_either_2","A3AJJHOAV7WIUQ","either","1","553","","","","","","","0","0","1","0.2","","0.5","0.5","","","","","","","0.8","0.2","","","","","","","","","","75","K","1","","true","0","80_20_practice"
"","bandit","28","168810","0.0-20.0-7.0","92757622","wem/bandit_either_2","A3AJJHOAV7WIUQ","either","1","409","","","","","","","0","0","1","","0.2","0.5","0.5","","","0.8","0.2","","","","","","","","","","","","","","75","K","1","","true","0","80_20_practice"
"","bandit","29","170923","0.0-20.0-8.0","92757622","wem/bandit_either_2","A3AJJHOAV7WIUQ","either","1","603","","","","","","","1","0","0","0.2","","0.5","0.5","","","","","","","0.8","0.2","","","","","","","","","","75","K","1","","true","0","80_20_practice"
"","bandit","30","172897","0.0-20.0-9.0","92757622","wem/bandit_either_2","A3AJJHOAV7WIUQ","either","1","460","","","","","","","0","0","1","0.2","","0.5","0.5","","","","","","","0.8","0.2","","","","","","","","","","75","K","1","","true","0","80_20_practice"
"","bandit","31","174702","0.0-20.0-10.0","92757622","wem/bandit_either_2","A3AJJHOAV7WIUQ","either","1","293","","","","","","","0","1","0","","0.8","0.5","0.5","","","0.8","0.2","","","","","","","","","","","","","","74","J","0","img/none_selected_demo.jpg","true","0","80_20_practice"
"","bandit","32","176641","0.0-20.0-11.0","92757622","wem/bandit_either_2","A3AJJHOAV7WIUQ","either","1","426","","","","","","","0","1","0","","0.8","0.5","0.5","","","0.8","0.2","","","","","","","","","","","","","","74","J","0","img/none_selected_demo.jpg","true","0","80_20_practice"
"","bandit","33","178394","0.0-20.0-12.0","92757622","wem/bandit_either_2","A3AJJHOAV7WIUQ","either","1","247","","","","","","","1","0","0","0.8","","0.5","0.5","","","","","","","0.8","0.2","","","","","","","","","","74","J","0","img/none_selected_demo.jpg","true","0","80_20_practice"
"","bandit","34","180228","0.0-20.0-13.0","92757622","wem/bandit_either_2","A3AJJHOAV7WIUQ","either","1","323","","","","","","","0","0","1","0.2","","0.5","0.5","","","","","","","0.8","0.2","","","","","","","","","","75","K","1","","true","0","80_20_practice"
"","bandit","35","182045","0.0-20.0-14.0","92757622","wem/bandit_either_2","A3AJJHOAV7WIUQ","either","1","306","","","","","","","0","1","0","","0.8","0.5","0.5","","","0.8","0.2","","","","","","","","","","","","","","74","J","0","img/none_selected_demo.jpg","true","0","80_20_practice"
"","bandit","36","183868","0.0-20.0-15.0","92757622","wem/bandit_either_2","A3AJJHOAV7WIUQ","either","1","311","","","","","","","0","0","1","","0.8","0.5","0.5","","","0.8","0.2","","","","","","","","","","","","","","74","J","0","img/none_selected_demo.jpg","true","0","80_20_practice"
"","bandit","37","185679","0.0-20.0-16.0","92757622","wem/bandit_either_2","A3AJJHOAV7WIUQ","either","1","298","","","","","","","0","1","0","","0.8","0.5","0.5","","","0.8","0.2","","","","","","","","","","","","","","74","J","0","img/none_selected_demo.jpg","true","0","80_20_practice"
"","bandit","38","187496","0.0-20.0-17.0","92757622","wem/bandit_either_2","A3AJJHOAV7WIUQ","either","1","304","","","","","","","1","0","0","0.8","","0.5","0.5","","","","","","","0.8","0.2","","","","","","","","","","74","J","0","img/none_selected_demo.jpg","true","0","80_20_practice"
"","bandit","39","189237","0.0-20.0-18.0","92757622","wem/bandit_either_2","A3AJJHOAV7WIUQ","either","1","230","","","","","","","0","1","0","","0.8","0.5","0.5","","","0.8","0.2","","","","","","","","","","","","","","74","J","0","img/none_selected_demo.jpg","true","0","80_20_practice"
"","bandit","40","190985","0.0-20.0-19.0","92757622","wem/bandit_either_2","A3AJJHOAV7WIUQ","either","1","233","","","","","","","1","0","0","0.8","","0.5","0.5","","","","","","","0.8","0.2","","","","","","","","","","74","J","0","img/none_selected_demo.jpg","true","0","80_20_practice"
"","text","41","193361","0.0-21.0","92757622","wem/bandit_either_2","A3AJJHOAV7WIUQ","either","1","2374","","32","","","","","","","","","","","","","","","","","","","","","","","","","","","","","","","","","","",""
"","bandit","42","195483","0.0-22.0-0.0","92757622","wem/bandit_either_2","A3AJJHOAV7WIUQ","either","1","614","","","","","","","1","0","0","1","0","","","","","0","1","","","1","0","","","","","","","","","","74","J","0","img/none_selected_demo.jpg","true","0",""
"","text","43","202699","0.0-23.0","92757622","wem/bandit_either_2","A3AJJHOAV7WIUQ","either","1","7213","","32","","","","","","","","","","","","","","","","","","","","","","","","","","","","","","","","","","",""
"","text","44","206698","0.0-24.0","92757622","wem/bandit_either_2","A3AJJHOAV7WIUQ","either","1","3997","","32","","","","","","","","","","","","","","","","","","","","","","","","","","","","","","","","","","",""
"","text","45","210162","0.0-25.0","92757622","wem/bandit_either_2","A3AJJHOAV7WIUQ","either","1","3462","","32","","","","","","","","","","","","","","","","","","","","","","","","","","","","","","","","","","",""
"","text","46","213634","0.0-26.0","92757622","wem/bandit_either_2","A3AJJHOAV7WIUQ","either","1","3470","","32","","","","","","","","","","","","","","","","","","","","","","","","","","","","","","","","","","",""
"","text","47","220570","0.0-27.0","92757622","wem/bandit_either_2","A3AJJHOAV7WIUQ","either","1","6934","","32","","","","","","","","","","","","","","","","","","","","","","","","","","","","","","","","","","",""
"","text","48","223114","0.0-28.0","92757622","wem/bandit_either_2","A3AJJHOAV7WIUQ","either","1","2541","","32","","","","","","","","","","","","","","","","","","","","","","","","","","","","","","","","","","",""
"","text","49","226187","0.0-29.0","92757622","wem/bandit_either_2","A3AJJHOAV7WIUQ","either","1","3071","","32","","","","","","","","","","","","","","","","","","","","","","","","","","","","","","","","","","",""
"","text","50","228961","0.0-30.0","92757622","wem/bandit_either_2","A3AJJHOAV7WIUQ","either","1","2772","","32","","","","","","","","","","","","","","","","","","","","","","","","","","","","","","","","","","",""
"","text","51","231937","0.0-31.0","92757622","wem/bandit_either_2","A3AJJHOAV7WIUQ","either","1","2974","","32","","","","","","","","","","","","","","","","","","","","","","","","","","","","","","","","","","",""
"","text","52","233753","0.0-32.0","92757622","wem/bandit_either_2","A3AJJHOAV7WIUQ","either","1","1813","","32","","","","","","","","","","","","","","","","","","","","","","","","","","","","","","","","","","",""
"","text","53","236314","0.0-33.0","92757622","wem/bandit_either_2","A3AJJHOAV7WIUQ","either","1","2557","","32","","","","","","","","","","","","","","","","","","","","","","","","","","","","","","","","","","",""
"","bandit","54","238470","0.0-34.0-0.0","92757622","wem/bandit_either_2","A3AJJHOAV7WIUQ","either","1","642","","","","","","","1","0","0","0.8","","0.5","0.5","0.5","0.5","","","","","0.8","0.2","0.6","0.2","","","","","","","","72","H","0","img/none_selected.jpg","true","0","full_practice"
"","bandit","55","241127","0.0-34.0-1.0","92757622","wem/bandit_either_2","A3AJJHOAV7WIUQ","either","1","1143","","","","","","","0","0","1","","0.8","0.5","0.5","0.5","0.5","0.8","0.2","0.6","0.2","","","","","","","","","","","","72","H","0","img/none_selected.jpg","true","0","full_practice"
"","bandit","56","243309","0.0-34.0-2.0","92757622","wem/bandit_either_2","A3AJJHOAV7WIUQ","either","1","669","","","","","","","0","0","1","0.8","","0.5","0.5","0.5","0.5","","","","","0.8","0.2","0.6","0.2","","","","","","","","72","H","0","img/none_selected.jpg","true","0","full_practice"
"","bandit","57","245095","0.0-34.0-3.0","92757622","wem/bandit_either_2","A3AJJHOAV7WIUQ","either","1","279","","","","","","","0","0","1","","0.2","0.5","0.5","0.5","0.5","0.8","0.2","0.6","0.2","","","","","","","","","","","","74","J","1","","true","0","full_practice"
"","bandit","58","246944","0.0-34.0-4.0","92757622","wem/bandit_either_2","A3AJJHOAV7WIUQ","either","1","335","","","","","","","1","0","0","0.2","","0.5","0.5","0.5","0.5","","","","","0.8","0.2","0.6","0.2","","","","","","","","74","J","1","","true","0","full_practice"
"","bandit","59","249002","0.0-34.0-5.0","92757622","wem/bandit_either_2","A3AJJHOAV7WIUQ","either","1","550","","","","","","","0","0","1","0.2","","0.5","0.5","0.5","0.5","","","","","0.8","0.2","0.6","0.2","","","","","","","","74","J","1","","true","0","full_practice"
"","bandit","60","250902","0.0-34.0-6.0","92757622","wem/bandit_either_2","A3AJJHOAV7WIUQ","either","1","387","","","","","","","0","0","1","0.6","","0.5","0.5","0.5","0.5","","","","","0.8","0.2","0.6","0.2","","","","","","","","75","K","2","","true","0","full_practice"
"","bandit","61","252859","0.0-34.0-7.0","92757622","wem/bandit_either_2","A3AJJHOAV7WIUQ","either","1","446","","","","","","","0","0","1","0.6","","0.5","0.5","0.5","0.5","","","","","0.8","0.2","0.6","0.2","","","","","","","","75","K","2","","true","0","full_practice"
"","bandit","62","254687","0.0-34.0-8.0","92757622","wem/bandit_either_2","A3AJJHOAV7WIUQ","either","1","314","","","","","","","0","0","1","0.6","","0.5","0.5","0.5","0.5","","","","","0.8","0.2","0.6","0.2","","","","","","","","75","K","2","","true","0","full_practice"
"","bandit","63","256603","0.0-34.0-9.0","92757622","wem/bandit_either_2","A3AJJHOAV7WIUQ","either","1","406","","","","","","","0","1","0","","0.2","0.5","0.5","0.5","0.5","0.8","0.2","0.6","0.2","","","","","","","","","","","","76","L","3","","true","0","full_practice"
"","bandit","64","258757","0.0-34.0-10.0","92757622","wem/bandit_either_2","A3AJJHOAV7WIUQ","either","1","641","","","","","","","0","0","1","","0.2","0.5","0.5","0.5","0.5","0.8","0.2","0.6","0.2","","","","","","","","","","","","76","L","3","","true","0","full_practice"
"","bandit","65","260637","0.0-34.0-11.0","92757622","wem/bandit_either_2","A3AJJHOAV7WIUQ","either","1","368","","","","","","","0","0","1","0.2","","0.5","0.5","0.5","0.5","","","","","0.8","0.2","0.6","0.2","","","","","","","","76","L","3","","true","0","full_practice"
"","bandit","66","262547","0.0-34.0-12.0","92757622","wem/bandit_either_2","A3AJJHOAV7WIUQ","either","1","400","","","","","","","0","0","1","","0.2","0.5","0.5","0.5","0.5","0.8","0.2","0.6","0.2","","","","","","","","","","","","76","L","3","","true","0","full_practice"
"","bandit","67","264385","0.0-34.0-13.0","92757622","wem/bandit_either_2","A3AJJHOAV7WIUQ","either","1","329","","","","","","","1","0","0","0.2","","0.5","0.5","0.5","0.5","","","","","0.8","0.2","0.6","0.2","","","","","","","","76","L","3","","true","0","full_practice"
"","bandit","68","266268","0.0-34.0-14.0","92757622","wem/bandit_either_2","A3AJJHOAV7WIUQ","either","1","371","","","","","","","0","0","1","","0.2","0.5","0.5","0.5","0.5","0.8","0.2","0.6","0.2","","","","","","","","","","","","76","L","3","","true","0","full_practice"
"","bandit","69","268082","0.0-34.0-15.0","92757622","wem/bandit_either_2","A3AJJHOAV7WIUQ","either","1","305","","","","","","","1","0","0","0.6","","0.5","0.5","0.5","0.5","","","","","0.8","0.2","0.6","0.2","","","","","","","","75","K","2","","true","0","full_practice"
"","bandit","70","270087","0.0-34.0-16.0","92757622","wem/bandit_either_2","A3AJJHOAV7WIUQ","either","1","498","","","","","","","0","0","1","0.6","","0.5","0.5","0.5","0.5","","","","","0.8","0.2","0.6","0.2","","","","","","","","75","K","2","","true","0","full_practice"
"","bandit","71","271922","0.0-34.0-17.0","92757622","wem/bandit_either_2","A3AJJHOAV7WIUQ","either","1","325","","","","","","","0","1","0","","0.6","0.5","0.5","0.5","0.5","0.8","0.2","0.6","0.2","","","","","","","","","","","","75","K","2","","true","0","full_practice"
"","bandit","72","274097","0.0-34.0-18.0","92757622","wem/bandit_either_2","A3AJJHOAV7WIUQ","either","1","665","","","","","","","0","0","1","","0.2","0.5","0.5","0.5","0.5","0.8","0.2","0.6","0.2","","","","","","","","","","","","74","J","1","","true","0","full_practice"
"","bandit","73","276078","0.0-34.0-19.0","92757622","wem/bandit_either_2","A3AJJHOAV7WIUQ","either","1","468","","","","","","","0","0","1","0.2","","0.5","0.5","0.5","0.5","","","","","0.8","0.2","0.6","0.2","","","","","","","","74","J","1","","true","0","full_practice"
"","text","74","278784","0.0-35.0","92757622","wem/bandit_either_2","A3AJJHOAV7WIUQ","either","1","2698","","32","","","","","","","","","","","","","","","","","","","","","","","","","","","","","","","","","","",""
"","text","75","289073","0.0-36.0","92757622","wem/bandit_either_2","A3AJJHOAV7WIUQ","either","1","9281","","32","","","","","","","","","","","","","","","","","","","","","","","","","","","","","","","","","","",""
"","text","76","297144","0.0-37.0","92757622","wem/bandit_either_2","A3AJJHOAV7WIUQ","either","1","8068","","32","","","","","","","","","","","","","","","","","","","","","","","","","","","","","","","","","","",""
"","text","77","302161","0.0-38.0","92757622","wem/bandit_either_2","A3AJJHOAV7WIUQ","either","1","5014","","32","","","","","","","","","","","","","","","","","","","","","","","","","","","","","","","","","","",""
"","text","78","306631","0.0-39.0","92757622","wem/bandit_either_2","A3AJJHOAV7WIUQ","either","1","4468","","32","","","","","","","","","","","","","","","","","","","","","","","","","","","","","","","","","","",""
"","text","79","310647","0.0-40.0","92757622","wem/bandit_either_2","A3AJJHOAV7WIUQ","either","1","4013","","32","","","","","","","","","","","","","","","","","","","","","","","","","","","","","","","","","","",""
"","bandit","80","312742","0.0-41.0-0.0","92757622","wem/bandit_either_2","A3AJJHOAV7WIUQ","either","1","580","","","","","","","0","0","1","","0.3592836462","0.8","0.2","0.4","0.6","0.3592836462","0.4269289603","0.02943109976","0.0798457429","","","","","","","","","","","","72","H","0","img/none_selected.jpg","","1","main_expt"
"","bandit","81","314541","0.0-42.0-0.0","92757622","wem/bandit_either_2","A3AJJHOAV7WIUQ","either","1","286","","","","","","","1","0","0","0.3454903542","","0.8","0.2","0.4","0.6","","","","","0.3454903542","0.4660243271","0.06336112212","0.07621336767","","","","","","","","72","H","0","img/none_selected.jpg","","2","main_expt"
"","bandit","82","316364","0.0-43.0-0.0","92757622","wem/bandit_either_2","A3AJJHOAV7WIUQ","either","1","309","","","","","","","0","0","1","0.2941512374","","0.8","0.2","0.4","0.6","","","","","0.2941512374","0.4738503749","0.07335687118","0.07476295528","","","","","","","","72","H","0","img/none_selected.jpg","","3","main_expt"
"","bandit","83","318338","0.0-44.0-0.0","92757622","wem/bandit_either_2","A3AJJHOAV7WIUQ","either","1","461","","","","","","","0","0","1","0.2851241965","","0.8","0.2","0.4","0.6","","","","","0.2851241965","0.4618500418","0.06156305515","0.06526985361","","","","","","","","72","H","0","img/none_selected.jpg","","4","main_expt"
"","bandit","84","320367","0.0-45.0-0.0","92757622","wem/bandit_either_2","A3AJJHOAV7WIUQ","either","1","522","","","","","","","0","1","0","","0.4488935273","0.8","0.2","0.4","0.6","0.3172925843","0.4488935273","0.08141194251","0.05487735528","","","","","","","","","","","","74","J","1","","","5","main_expt"
"","bandit","85","322325","0.0-46.0-0.0","92757622","wem/bandit_either_2","A3AJJHOAV7WIUQ","either","1","443","","","","","","","0","0","1","","0.4437832297","0.8","0.2","0.4","0.6","0.3319153021","0.4437832297","0.1104821702","0.04340015571","","","","","","","","","","","","74","J","1","","","6","main_expt"
"","bandit","86","324189","0.0-47.0-0.0","92757622","wem/bandit_either_2","A3AJJHOAV7WIUQ","either","1","348","","","","","","","0","0","1","","0.4310077805","0.8","0.2","0.4","0.6","0.3553039772","0.4310077805","0.1191408541","0.04575060371","","","","","","","","","","","","74","J","1","","","7","main_expt"
"","bandit","87","326006","0.0-48.0-0.0","92757622","wem/bandit_either_2","A3AJJHOAV7WIUQ","either","1","303","","","","","","","0","1","0","","0.4480386191","0.8","0.2","0.4","0.6","0.3868093767","0.4480386191","0.1517570037","0.06112087539","","","","","","","","","","","","74","J","1","","","8","main_expt"
"","bandit","88","327857","0.0-49.0-0.0","92757622","wem/bandit_either_2","A3AJJHOAV7WIUQ","either","1","340","","","","","","","0","0","1","","0.4460224538","0.8","0.2","0.4","0.6","0.3754406694","0.4460224538","0.1738087075","0.07854191076","","","","","","","","","","","","74","J","1","","","9","main_expt"
"","bandit","89","329802","0.0-50.0-0.0","92757622","wem/bandit_either_2","A3AJJHOAV7WIUQ","either","1","433","","","","","","","0","0","1","","0.2033535465","0.8","0.2","0.4","0.6","0.3537433427","0.3954493452","0.2033535465","0.06865483858","","","","","","","","","","","","75","K","2","","","10","main_expt"
"","bandit","90","331631","0.0-51.0-0.0","92757622","wem/bandit_either_2","A3AJJHOAV7WIUQ","either","1","321","","","","","","","1","0","0","0.1751631116","","0.8","0.2","0.4","0.6","","","","","0.3793358735","0.4064238371","0.1751631116","0.05083805298","","","","","","","","75","K","2","","","11","main_expt"
"","bandit","91","333526","0.0-52.0-0.0","92757622","wem/bandit_either_2","A3AJJHOAV7WIUQ","either","1","388","","","","","","","0","0","1","","0.1787487179","0.8","0.2","0.4","0.6","0.3800428212","0.3800839449","0.1787487179","0.1038792476","","","","","","","","","","","","75","K","2","","","12","main_expt"
"","bandit","92","335299","0.0-53.0-0.0","92757622","wem/bandit_either_2","A3AJJHOAV7WIUQ","either","1","259","","","","","","","0","0","1","0.1794712961","","0.8","0.2","0.4","0.6","","","","","0.3647981021","0.3866628193","0.1794712961","0.1197284353","","","","","","","","75","K","2","","","13","main_expt"
"","bandit","93","337157","0.0-54.0-0.0","92757622","wem/bandit_either_2","A3AJJHOAV7WIUQ","either","1","344","","","","","","","0","0","1","","0.2482140722","0.8","0.2","0.4","0.6","0.3646471907","0.326509825","0.2482140722","0.135681701","","","","","","","","","","","","75","K","2","","","14","main_expt"
"","bandit","94","338974","0.0-55.0-0.0","92757622","wem/bandit_either_2","A3AJJHOAV7WIUQ","either","1","301","","","","","","","0","0","1","","0.125153919","0.8","0.2","0.4","0.6","0.3549291363","0.2428529647","0.2859415589","0.125153919","","","","","","","","","","","","76","L","3","","","15","main_expt"
"","bandit","95","340802","0.0-56.0-0.0","92757622","wem/bandit_either_2","A3AJJHOAV7WIUQ","either","1","317","","","","","","","0","0","1","","0.1096891688","0.8","0.2","0.4","0.6","0.3727350689","0.2332962783","0.26587149","0.1096891688","","","","","","","","","","","","76","L","3","","","16","main_expt"
"","bandit","96","342642","0.0-57.0-0.0","92757622","wem/bandit_either_2","A3AJJHOAV7WIUQ","either","1","329","","","","","","","0","0","1","0.1051581447","","0.8","0.2","0.4","0.6","","","","","0.3112083829","0.2271032234","0.2776265896","0.1051581447","","","","","","","","76","L","3","","","17","main_expt"
"","bandit","97","344386","0.0-58.0-0.0","92757622","wem/bandit_either_2","A3AJJHOAV7WIUQ","either","1","232","","","","","","","0","1","0","","0.1437943492","0.8","0.2","0.4","0.6","0.2403081055","0.1701710303","0.3223387563","0.1437943492","","","","","","","","","","","","76","L","3","","","18","main_expt"
"","bandit","98","346212","0.0-59.0-0.0","92757622","wem/bandit_either_2","A3AJJHOAV7WIUQ","either","1","311","","","","","","","0","0","1","","0.1405615485","0.8","0.2","0.4","0.6","0.2377482675","0.2070198111","0.3192918255","0.1405615485","","","","","","","","","","","","76","L","3","","","19","main_expt"
"","bandit","99","348018","0.0-60.0-0.0","92757622","wem/bandit_either_2","A3AJJHOAV7WIUQ","either","1","295","","","","","","","0","0","1","0.2607530295","","0.8","0.2","0.4","0.6","","","","","0.2607530295","0.2412547966","0.2739159796","0.1063334751","","","","","","","","72","H","0","img/none_selected.jpg","","20","main_expt"
"","bandit","100","349852","0.0-61.0-0.0","92757622","wem/bandit_either_2","A3AJJHOAV7WIUQ","either","1","320","","","","","","","0","0","1","0.2919400674","","0.8","0.2","0.4","0.6","","","","","0.2919400674","0.2184758186","0.2454385858","0.07848250716","","","","","","","","72","H","0","img/none_selected.jpg","","21","main_expt"
"","bandit","101","352029","0.0-62.0-0.0","92757622","wem/bandit_either_2","A3AJJHOAV7WIUQ","either","1","661","","","","","","","0","1","0","","0.1849325376","0.8","0.2","0.4","0.6","0.2995681058","0.1849325376","0.2340842041","0.1005082742","","","","","","","","","","","","74","J","1","","","22","main_expt"
"","bandit","102","353915","0.0-63.0-0.0","92757622","wem/bandit_either_2","A3AJJHOAV7WIUQ","either","1","372","","","","","","","0","0","1","","0.1521197653","0.8","0.2","0.4","0.6","0.292554742","0.1521197653","0.1840173947","0.0792694407","","","","","","","","","","","","74","J","1","","","23","main_expt"
"","bandit","103","355738","0.0-64.0-0.0","92757622","wem/bandit_either_2","A3AJJHOAV7WIUQ","either","1","311","","","","","","","0","0","1","0.1759403195","","0.8","0.2","0.4","0.6","","","","","0.3616894364","0.1759403195","0.1745529383","0.07358699385","","","","","","","","74","J","1","","","24","main_expt"
"","bandit","104","357623","0.0-65.0-0.0","92757622","wem/bandit_either_2","A3AJJHOAV7WIUQ","either","1","375","","","","","","","0","0","1","","0.1756582033","0.8","0.2","0.4","0.6","0.3575757263","0.09479311865","0.1756582033","0.142208116","","","","","","","","","","","","75","K","2","","","25","main_expt"
"","bandit","105","359389","0.0-66.0-0.0","92757622","wem/bandit_either_2","A3AJJHOAV7WIUQ","either","1","250","","","","","","","0","0","1","0.2086365416","","0.8","0.2","0.4","0.6","","","","","0.3635346368","0.08156123497","0.2086365416","0.1245113583","","","","","","","","75","K","2","","","26","main_expt"
"","bandit","106","361137","0.0-67.0-0.0","92757622","wem/bandit_either_2","A3AJJHOAV7WIUQ","either","1","238","","","","","","","0","0","1","","0.2139763749","0.8","0.2","0.4","0.6","0.4109801844","0.1102307873","0.2139763749","0.118364605","","","","","","","","","","","","75","K","2","","","27","main_expt"
"","bandit","107","362938","0.0-68.0-0.0","92757622","wem/bandit_either_2","A3AJJHOAV7WIUQ","either","1","289","","","","","","","0","0","1","","0.1613483267","0.8","0.2","0.4","0.6","0.3772962545","0.08274430796","0.1613483267","0.1105930361","","","","","","","","","","","","75","K","2","","","28","main_expt"
"","bandit","108","364672","0.0-69.0-0.0","92757622","wem/bandit_either_2","A3AJJHOAV7WIUQ","either","1","223","","","","","","","0","0","1","0.1118713044","","0.8","0.2","0.4","0.6","","","","","0.3875745016","0.1086911099","0.1712488152","0.1118713044","","","","","","","","76","L","3","","","29","main_expt"
"","bandit","109","366489","0.0-70.0-0.0","92757622","wem/bandit_either_2","A3AJJHOAV7WIUQ","either","1","305","","","","","","","0","0","1","0.3780019893","","0.8","0.2","0.4","0.6","","","","","0.3780019893","0.1116575632","0.1675524316","0.1914750456","","","","","","","","72","H","0","img/none_selected.jpg","","30","main_expt"
"","bandit","110","368282","0.0-71.0-0.0","92757622","wem/bandit_either_2","A3AJJHOAV7WIUQ","either","1","280","","","","","","","0","1","0","","0.416860241","0.8","0.2","0.4","0.6","0.416860241","0.07828091442","0.140325158","0.2367730164","","","","","","","","","","","","72","H","0","img/none_selected.jpg","","31","main_expt"
"","bandit","111","370123","0.0-72.0-0.0","92757622","wem/bandit_either_2","A3AJJHOAV7WIUQ","either","1","327","","","","","","","1","0","0","0.4242573056","","0.8","0.2","0.4","0.6","","","","","0.4242573056","0.07550395781","0.1553940025","0.2109574779","","","","","","","","72","H","0","img/none_selected.jpg","","32","main_expt"
"","bandit","112","371922","0.0-73.0-0.0","92757622","wem/bandit_either_2","A3AJJHOAV7WIUQ","either","1","285","","","","","","","0","0","1","0.4185546122","","0.8","0.2","0.4","0.6","","","","","0.4185546122","0.1445529326","0.1925614924","0.2005542758","","","","","","","","72","H","0","img/none_selected.jpg","","33","main_expt"
"","bandit","113","373733","0.0-74.0-0.0","92757622","wem/bandit_either_2","A3AJJHOAV7WIUQ","either","1","295","","","","","","","0","0","1","0.4268308419","","0.8","0.2","0.4","0.6","","","","","0.4268308419","0.1091775744","0.2150530123","0.180377021","","","","","","","","72","H","0","img/none_selected.jpg","","34","main_expt"
"","bandit","114","375533","0.0-75.0-0.0","92757622","wem/bandit_either_2","A3AJJHOAV7WIUQ","either","1","284","","","","","","","0","0","1","0.4265642185","","0.8","0.2","0.4","0.6","","","","","0.4265642185","0.1297995116","0.2688968874","0.2111187229","","","","","","","","72","H","0","img/none_selected.jpg","","35","main_expt"
"","bandit","115","377338","0.0-76.0-0.0","92757622","wem/bandit_either_2","A3AJJHOAV7WIUQ","either","1","293","","","","","","","1","0","0","0.4066287969","","0.8","0.2","0.4","0.6","","","","","0.4066287969","0.09468550628","0.2977459964","0.2119332756","","","","","","","","72","H","0","img/none_selected.jpg","","36","main_expt"
"","bandit","116","379296","0.0-77.0-0.0","92757622","wem/bandit_either_2","A3AJJHOAV7WIUQ","either","1","447","","","","","","","0","0","1","0.4611471687","","0.8","0.2","0.4","0.6","","","","","0.4611471687","0.09396978408","0.2684429955","0.2256131965","","","","","","","","72","H","0","img/none_selected.jpg","","37","main_expt"
"","bandit","117","381142","0.0-78.0-0.0","92757622","wem/bandit_either_2","A3AJJHOAV7WIUQ","either","1","329","","","","","","","0","1","0","","0.4482708269","0.8","0.2","0.4","0.6","0.4482708269","0.1062257399","0.2490186117","0.1975147253","","","","","","","","","","","","72","H","0","img/none_selected.jpg","","38","main_expt"
"","bandit","118","383137","0.0-79.0-0.0","92757622","wem/bandit_either_2","A3AJJHOAV7WIUQ","either","1","483","","","","","","","0","1","0","","0.4402774387","0.8","0.2","0.4","0.6","0.4402774387","0.09676453159","0.2548033483","0.1595648847","","","","","","","","","","","","72","H","0","img/none_selected.jpg","","39","main_expt"
"","bandit","119","385023","0.0-80.0-0.0","92757622","wem/bandit_either_2","A3AJJHOAV7WIUQ","either","1","373","","","","","","","0","0","1","0.4385128538","","0.8","0.2","0.4","0.6","","","","","0.4385128538","0.08197179495","0.2688720753","0.1626610004","","","","","","","","72","H","0","img/none_selected.jpg","","40","main_expt"
"","bandit","120","386771","0.0-81.0-0.0","92757622","wem/bandit_either_2","A3AJJHOAV7WIUQ","either","1","234","","","","","","","1","0","0","0.4380640779","","0.8","0.2","0.4","0.6","","","","","0.4380640779","0.14416382","0.297778532","0.1982402655","","","","","","","","72","H","0","img/none_selected.jpg","","41","main_expt"
"","bandit","121","388652","0.0-82.0-0.0","92757622","wem/bandit_either_2","A3AJJHOAV7WIUQ","either","1","365","","","","","","","1","0","0","0.4265224768","","0.8","0.2","0.4","0.6","","","","","0.4265224768","0.1070927036","0.2449207522","0.1863610343","","","","","","","","72","H","0","img/none_selected.jpg","","42","main_expt"
"","bandit","122","390579","0.0-83.0-0.0","92757622","wem/bandit_either_2","A3AJJHOAV7WIUQ","either","1","413","","","","","","","0","1","0","","0.435880106","0.8","0.2","0.4","0.6","0.435880106","0.1214526226","0.2457567503","0.2418389683","","","","","","","","","","","","72","H","0","img/none_selected.jpg","","43","main_expt"
"","bandit","123","392441","0.0-84.0-0.0","92757622","wem/bandit_either_2","A3AJJHOAV7WIUQ","either","1","350","","","","","","","0","0","1","0.4450576882","","0.8","0.2","0.4","0.6","","","","","0.4450576882","0.1450738833","0.2432732657","0.1943491227","","","","","","","","72","H","0","img/none_selected.jpg","","44","main_expt"
"","bandit","124","394233","0.0-85.0-0.0","92757622","wem/bandit_either_2","A3AJJHOAV7WIUQ","either","1","280","","","","","","","0","0","1","0.4382030275","","0.8","0.2","0.4","0.6","","","","","0.4382030275","0.09632230927","0.2656772236","0.1543250971","","","","","","","","72","H","0","img/none_selected.jpg","","45","main_expt"
"","bandit","125","395931","0.0-86.0-0.0","92757622","wem/bandit_either_2","A3AJJHOAV7WIUQ","either","1","182","","","","","","","0","0","1","0.4412369426","","0.8","0.2","0.4","0.6","","","","","0.4412369426","0.103211431","0.2432112423","0.09719433791","","","","","","","","72","H","0","img/none_selected.jpg","","46","main_expt"
"","bandit","126","397690","0.0-87.0-0.0","92757622","wem/bandit_either_2","A3AJJHOAV7WIUQ","either","1","246","","","","","","","1","0","0","0.4588863431","","0.8","0.2","0.4","0.6","","","","","0.4588863431","0.09916324924","0.2992745976","0.1228880329","","","","","","","","72","H","0","img/none_selected.jpg","","47","main_expt"
"","bandit","127","399652","0.0-88.0-0.0","92757622","wem/bandit_either_2","A3AJJHOAV7WIUQ","either","1","446","","","","","","","0","0","1","0.4408788818","","0.8","0.2","0.4","0.6","","","","","0.4408788818","0.1090242341","0.2594611615","0.1068532567","","","","","","","","72","H","0","img/none_selected.jpg","","48","main_expt"
"","bandit","128","401428","0.0-89.0-0.0","92757622","wem/bandit_either_2","A3AJJHOAV7WIUQ","either","1","259","","","","","","","0","0","1","0.4232064109","","0.8","0.2","0.4","0.6","","","","","0.4232064109","0.1265186769","0.2767916858","0.1044048509","","","","","","","","72","H","0","img/none_selected.jpg","","49","main_expt"
"","bandit","129","403268","0.0-90.0-0.0","92757622","wem/bandit_either_2","A3AJJHOAV7WIUQ","either","1","324","","","","","","","0","1","0","","0.4210883962","0.8","0.2","0.4","0.6","0.4210883962","0.1397440907","0.2762534014","0.1072026782","","","","","","","","","","","","72","H","0","img/none_selected.jpg","","50","main_expt"
"","bandit","130","405127","0.0-91.0-0.0","92757622","wem/bandit_either_2","A3AJJHOAV7WIUQ","either","1","346","","","","","","","0","0","1","0.4225635581","","0.8","0.2","0.4","0.6","","","","","0.4225635581","0.153600331","0.3379376541","0.1287882573","","","","","","","","72","H","0","img/none_selected.jpg","","51","main_expt"
"","bandit","131","406931","0.0-92.0-0.0","92757622","wem/bandit_either_2","A3AJJHOAV7WIUQ","either","1","290","","","","","","","0","0","1","0.4146237098","","0.8","0.2","0.4","0.6","","","","","0.4146237098","0.1718407591","0.3395267946","0.1298059469","","","","","","","","72","H","0","img/none_selected.jpg","","52","main_expt"
"","bandit","132","408655","0.0-93.0-0.0","92757622","wem/bandit_either_2","A3AJJHOAV7WIUQ","either","1","210","","","","","","","0","1","0","","0.3763623321","0.8","0.2","0.4","0.6","0.3763623321","0.1945727614","0.29674647","0.07423060895","","","","","","","","","","","","72","H","0","img/none_selected.jpg","","53","main_expt"
"","bandit","133","410553","0.0-94.0-0.0","92757622","wem/bandit_either_2","A3AJJHOAV7WIUQ","either","1","384","","","","","","","1","0","0","0.3289081181","","0.8","0.2","0.4","0.6","","","","","0.3289081181","0.2450542523","0.3372955831","0.08562383645","","","","","","","","72","H","0","img/none_selected.jpg","","54","main_expt"
"","bandit","134","412562","0.0-95.0-0.0","92757622","wem/bandit_either_2","A3AJJHOAV7WIUQ","either","1","494","","","","","","","1","0","0","0.3025984711","","0.8","0.2","0.4","0.6","","","","","0.3025984711","0.2547241938","0.3506099842","0.0757818623","","","","","","","","72","H","0","img/none_selected.jpg","","55","main_expt"
"","bandit","135","414541","0.0-96.0-0.0","92757622","wem/bandit_either_2","A3AJJHOAV7WIUQ","either","1","468","","","","","","","0","0","1","0.2921333137","","0.8","0.2","0.4","0.6","","","","","0.2921333137","0.2595112895","0.3418029788","0.09897923035","","","","","","","","72","H","0","img/none_selected.jpg","","56","main_expt"
"","bandit","136","416312","0.0-97.0-0.0","92757622","wem/bandit_either_2","A3AJJHOAV7WIUQ","either","1","258","","","","","","","0","0","1","0.3317177772","","0.8","0.2","0.4","0.6","","","","","0.3317177772","0.2610276213","0.3162475816","0.1160875525","","","","","","","","72","H","0","img/none_selected.jpg","","57","main_expt"
"","bandit","137","418065","0.0-98.0-0.0","92757622","wem/bandit_either_2","A3AJJHOAV7WIUQ","either","1","239","","","","","","","0","0","1","","0.3240244649","0.8","0.2","0.4","0.6","0.3240244649","0.2354201416","0.3269881105","0.1134641846","","","","","","","","","","","","72","H","0","img/none_selected.jpg","","58","main_expt"
"","bandit","138","419818","0.0-99.0-0.0","92757622","wem/bandit_either_2","A3AJJHOAV7WIUQ","either","1","239","","","","","","","0","1","0","","0.2988076671","0.8","0.2","0.4","0.6","0.2988076671","0.2346370837","0.2901324944","0.1177083384","","","","","","","","","","","","72","H","0","img/none_selected.jpg","","59","main_expt"
"","bandit","139","421646","0.0-100.0-0.0","92757622","wem/bandit_either_2","A3AJJHOAV7WIUQ","either","1","316","","","","","","","0","0","1","0.3096792726","","0.8","0.2","0.4","0.6","","","","","0.3096792726","0.2315637733","0.289588464","0.1125723432","","","","","","","","72","H","0","img/none_selected.jpg","","60","main_expt"
"","bandit","140","423681","0.0-101.0-0.0","92757622","wem/bandit_either_2","A3AJJHOAV7WIUQ","either","1","521","","","","","","","0","0","1","","0.2821336973","0.8","0.2","0.4","0.6","0.2821336973","0.2599537756","0.2782845563","0.09911093426","","","","","","","","","","","","72","H","0","img/none_selected.jpg","","61","main_expt"
"","bandit","141","429212","0.0-102.0-0.0","92757622","wem/bandit_either_2","A3AJJHOAV7WIUQ","either","1","4022","","","","","","","0","0","1","","0.2594941563","0.8","0.2","0.4","0.6","0.2414244345","0.2594941563","0.3165490401","0.09440438105","","","","","","","","","","","","74","J","1","","","62","main_expt"
"","bandit","142","430723","0.0-103.0-0.0","92757622","wem/bandit_either_2","A3AJJHOAV7WIUQ","either","1","1","","","","","","","0","1","0","","0.2660839385","0.8","0.2","0.4","0.6","0.213639373","0.2660839385","0.3034564924","0.1015409351","","","","","","","","","","","","74","J","1","","","63","main_expt"
"","bandit","143","432760","0.0-104.0-0.0","92757622","wem/bandit_either_2","A3AJJHOAV7WIUQ","either","1","523","","","","","","","0","0","1","0.2426585031","","0.8","0.2","0.4","0.6","","","","","0.1876308072","0.2426585031","0.2506654962","0.07049798599","","","","","","","","74","J","1","","","64","main_expt"
"","bandit","144","434658","0.0-105.0-0.0","92757622","wem/bandit_either_2","A3AJJHOAV7WIUQ","either","1","382","","","","","","","0","0","1","","0.2581047566","0.8","0.2","0.4","0.6","0.1841803182","0.2581047566","0.253414466","0.05735603507","","","","","","","","","","","","74","J","1","","","65","main_expt"
"","bandit","145","436544","0.0-106.0-0.0","92757622","wem/bandit_either_2","A3AJJHOAV7WIUQ","either","1","373","","","","","","","0","0","1","","0.2836500186","0.8","0.2","0.4","0.6","0.187417598","0.2872127433","0.2836500186","0.0621258055","","","","","","","","","","","","75","K","2","","","66","main_expt"
"","bandit","146","439667","0.0-107.0-0.0","92757622","wem/bandit_either_2","A3AJJHOAV7WIUQ","either","1","1606","","","","","","","0","0","1","","0.3217852231","0.8","0.2","0.4","0.6","0.1395950637","0.3232337643","0.3217852231","0.06966106928","","","","","","","","","","","","75","K","2","","","67","main_expt"
"","bandit","147","441562","0.0-108.0-0.0","92757622","wem/bandit_either_2","A3AJJHOAV7WIUQ","either","1","380","","","","","","","1","0","0","0.3574581916","","0.8","0.2","0.4","0.6","","","","","0.1363519197","0.3376006622","0.3574581916","0.09965709916","","","","","","","","75","K","2","","","68","main_expt"
"","bandit","148","444288","0.0-109.0-0.0","92757622","wem/bandit_either_2","A3AJJHOAV7WIUQ","either","1","1213","","","","","","","0","1","0","","0.3884563005","0.8","0.2","0.4","0.6","0.1117144852","0.2917609244","0.3884563005","0.1428217854","","","","","","","","","","","","75","K","2","","","69","main_expt"
"","bandit","149","446552","0.0-110.0-0.0","92757622","wem/bandit_either_2","A3AJJHOAV7WIUQ","either","1","750","","","","","","","0","0","1","","0.3920047773","0.8","0.2","0.4","0.6","0.09667493602","0.2218665627","0.3920047773","0.1866845388","","","","","","","","","","","","75","K","2","","","70","main_expt"
"","bandit","150","451075","0.0-111.0-0.0","92757622","wem/bandit_either_2","A3AJJHOAV7WIUQ","either","1","3007","","","","","","","0","0","1","0.4066376731","","0.8","0.2","0.4","0.6","","","","","0.09186933139","0.2409383839","0.4066376731","0.1702545286","","","","","","","","75","K","2","","","71","main_expt"
"","bandit","151","461610","0.0-112.0-0.0","92757622","wem/bandit_either_2","A3AJJHOAV7WIUQ","either","1","9021","","","","","","","0","0","1","0.1836279043","","0.8","0.2","0.4","0.6","","","","","0.09472009463","0.1920783453","0.3443789926","0.1836279043","","","","","","","","76","L","3","","","72","main_expt"
"","bandit","152","463421","0.0-113.0-0.0","92757622","wem/bandit_either_2","A3AJJHOAV7WIUQ","either","1","294","","","","","","","0","0","1","0.1644348242","","0.8","0.2","0.4","0.6","","","","","0.1167805336","0.1905254877","0.3227553012","0.1644348242","","","","","","","","76","L","3","","","73","main_expt"
"","bandit","153","465168","0.0-114.0-0.0","92757622","wem/bandit_either_2","A3AJJHOAV7WIUQ","either","1","235","","","","","","","0","0","1","0.1833421201","","0.8","0.2","0.4","0.6","","","","","0.1465151254","0.184198213","0.3336652139","0.1833421201","","","","","","","","76","L","3","","","74","main_expt"
"","bandit","154","466924","0.0-115.0-0.0","92757622","wem/bandit_either_2","A3AJJHOAV7WIUQ","either","1","239","","","","","","","0","0","1","","0.1519653276","0.8","0.2","0.4","0.6","0.123285719","0.1881920243","0.2890150868","0.1519653276","","","","","","","","","","","","76","L","3","","","75","main_expt"
"","bandit","155","468761","0.0-116.0-0.0","92757622","wem/bandit_either_2","A3AJJHOAV7WIUQ","either","1","324","","","","","","","0","0","1","","0.2673490463","0.8","0.2","0.4","0.6","0.1392606081","0.1988930589","0.2673490463","0.1506622639","","","","","","","","","","","","75","K","2","","","76","main_expt"
"","bandit","156","470375","0.0-117.0-0.0","92757622","wem/bandit_either_2","A3AJJHOAV7WIUQ","either","1","103","","","","","","","1","0","0","0.2858541315","","0.8","0.2","0.4","0.6","","","","","0.099337717","0.2255968657","0.2858541315","0.1860897766","","","","","","","","75","K","2","","","77","main_expt"
"","bandit","157","472186","0.0-118.0-0.0","92757622","wem/bandit_either_2","A3AJJHOAV7WIUQ","either","1","296","","","","","","","0","0","1","","0.2639968829","0.8","0.2","0.4","0.6","0.09666605973","0.1917014014","0.2639968829","0.1618556875","","","","","","","","","","","","75","K","2","","","78","main_expt"
"","bandit","158","474015","0.0-119.0-0.0","92757622","wem/bandit_either_2","A3AJJHOAV7WIUQ","either","1","318","","","","","","","0","0","1","","0.2304888896","0.8","0.2","0.4","0.6","0.09639353985","0.2092129429","0.2304888896","0.1976853889","","","","","","","","","","","","75","K","2","","","79","main_expt"
"","bandit","159","475820","0.0-120.0-0.0","92757622","wem/bandit_either_2","A3AJJHOAV7WIUQ","either","1","288","","","","","","","1","0","0","0.1991809665","","0.8","0.2","0.4","0.6","","","","","0.09566996791","0.1974306726","0.1991809665","0.2198838985","","","","","","","","75","K","2","","","80","main_expt"
"","bandit","160","477863","0.0-121.0-0.0","92757622","wem/bandit_either_2","A3AJJHOAV7WIUQ","either","1","530","","","","","","","1","0","0","0.1627434897","","0.8","0.2","0.4","0.6","","","","","0.07958501382","0.1414754506","0.1627434897","0.2167005254","","","","","","","","75","K","2","","","81","main_expt"
"","bandit","161","479698","0.0-122.0-0.0","92757622","wem/bandit_either_2","A3AJJHOAV7WIUQ","either","1","320","","","","","","","0","0","1","0.1624637972","","0.8","0.2","0.4","0.6","","","","","0.08833774835","0.1422587364","0.1624637972","0.2527486409","","","","","","","","75","K","2","","","82","main_expt"
"","bandit","162","481491","0.0-123.0-0.0","92757622","wem/bandit_either_2","A3AJJHOAV7WIUQ","either","1","278","","","","","","","0","0","1","","0.1900332","0.8","0.2","0.4","0.6","0.09109006352","0.1079415531","0.1900332","0.2569721607","","","","","","","","","","","","75","K","2","","","83","main_expt"
"","bandit","163","483372","0.0-124.0-0.0","92757622","wem/bandit_either_2","A3AJJHOAV7WIUQ","either","1","365","","","","","","","0","0","1","0.1705646391","","0.8","0.2","0.4","0.6","","","","","0.05321730921","0.07696487024","0.1705646391","0.2535394321","","","","","","","","75","K","2","","","84","main_expt"
"","bandit","164","485183","0.0-125.0-0.0","92757622","wem/bandit_either_2","A3AJJHOAV7WIUQ","either","1","299","","","","","","","0","0","1","0.2053302659","","0.8","0.2","0.4","0.6","","","","","0.03321009489","0.08313016423","0.2053302659","0.2255799186","","","","","","","","75","K","2","","","85","main_expt"
"","bandit","165","486913","0.0-126.0-0.0","92757622","wem/bandit_either_2","A3AJJHOAV7WIUQ","either","1","215","","","","","","","1","0","0","0.2128685413","","0.8","0.2","0.4","0.6","","","","","0.04864990798","0.102083396","0.2128685413","0.2197080914","","","","","","","","75","K","2","","","86","main_expt"
"","bandit","166","488730","0.0-127.0-0.0","92757622","wem/bandit_either_2","A3AJJHOAV7WIUQ","either","1","301","","","","","","","0","0","1","","0.213778815","0.8","0.2","0.4","0.6","0.07919268752","0.09067070718","0.213778815","0.2230338057","","","","","","","","","","","","75","K","2","","","87","main_expt"
"","bandit","167","490780","0.0-128.0-0.0","92757622","wem/bandit_either_2","A3AJJHOAV7WIUQ","either","1","534","","","","","","","0","0","1","0.2102340809","","0.8","0.2","0.4","0.6","","","","","0.05835116993","0.1421970704","0.2102340809","0.2484269739","","","","","","","","75","K","2","","","88","main_expt"
"","bandit","168","492575","0.0-129.0-0.0","92757622","wem/bandit_either_2","A3AJJHOAV7WIUQ","either","1","272","","","","","","","0","0","1","","0.1809358483","0.8","0.2","0.4","0.6","0.05115519592","0.219142046","0.1809358483","0.2733562597","","","","","","","","","","","","75","K","2","","","89","main_expt"
"","bandit","169","494355","0.0-130.0-0.0","92757622","wem/bandit_either_2","A3AJJHOAV7WIUQ","either","1","264","","","","","","","0","0","1","0.1293356972","","0.8","0.2","0.4","0.6","","","","","0.07819273649","0.2806923657","0.1293356972","0.2973868449","","","","","","","","75","K","2","","","90","main_expt"
"","bandit","170","496166","0.0-131.0-0.0","92757622","wem/bandit_either_2","A3AJJHOAV7WIUQ","either","1","299","","","","","","","0","0","1","","0.1136224352","0.8","0.2","0.4","0.6","0.05564661524","0.2819660137","0.1136224352","0.3067689268","","","","","","","","","","","","75","K","2","","","91","main_expt"
"","bandit","171","497995","0.0-132.0-0.0","92757622","wem/bandit_either_2","A3AJJHOAV7WIUQ","either","1","313","","","","","","","0","0","1","0.3370305887","","0.8","0.2","0.4","0.6","","","","","0.05914103421","0.3370305887","0.07539152519","0.2719776188","","","","","","","","74","J","1","","","92","main_expt"
"","bandit","172","499794","0.0-133.0-0.0","92757622","wem/bandit_either_2","A3AJJHOAV7WIUQ","either","1","284","","","","","","","0","0","1","","0.3722719914","0.8","0.2","0.4","0.6","0.03944324463","0.3722719914","0.08243558305","0.3081791896","","","","","","","","","","","","74","J","1","","","93","main_expt"
"","bandit","173","501609","0.0-134.0-0.0","92757622","wem/bandit_either_2","A3AJJHOAV7WIUQ","either","1","300","","","","","","","0","1","0","","0.3840030774","0.8","0.2","0.4","0.6","0.05023017475","0.3840030774","0.09807673793","0.356667856","","","","","","","","","","","","74","J","1","","","94","main_expt"
"","bandit","174","503619","0.0-135.0-0.0","92757622","wem/bandit_either_2","A3AJJHOAV7WIUQ","either","1","494","","","","","","","0","0","1","","0.4050844552","0.8","0.2","0.4","0.6","0.07311956304","0.4050844552","0.09746204728","0.3300765204","","","","","","","","","","","","74","J","1","","","95","main_expt"
"","bandit","175","505440","0.0-136.0-0.0","92757622","wem/bandit_either_2","A3AJJHOAV7WIUQ","either","1","309","","","","","","","0","0","1","0.4081076376","","0.8","0.2","0.4","0.6","","","","","0.09573717159","0.4081076376","0.08559835745","0.3642735905","","","","","","","","74","J","1","","","96","main_expt"
"","bandit","176","507336","0.0-137.0-0.0","92757622","wem/bandit_either_2","A3AJJHOAV7WIUQ","either","1","381","","","","","","","0","0","1","","0.4142780263","0.8","0.2","0.4","0.6","0.1235519285","0.4142780263","0.0732645996","0.3885664579","","","","","","","","","","","","74","J","1","","","97","main_expt"
"","bandit","177","509169","0.0-138.0-0.0","92757622","wem/bandit_either_2","A3AJJHOAV7WIUQ","either","1","317","","","","","","","0","1","0","","0.4131193208","0.8","0.2","0.4","0.6","0.1274282425","0.4131193208","0.05343209845","0.4162912028","","","","","","","","","","","","74","J","1","","","98","main_expt"
"","bandit","178","510992","0.0-139.0-0.0","92757622","wem/bandit_either_2","A3AJJHOAV7WIUQ","either","1","310","","","","","","","0","1","0","","0.428944851","0.8","0.2","0.4","0.6","0.1457321849","0.428944851","0.05144299931","0.4074153657","","","","","","","","","","","","74","J","1","","","99","main_expt"
"","bandit","179","512809","0.0-140.0-0.0","92757622","wem/bandit_either_2","A3AJJHOAV7WIUQ","either","1","302","","","","","","","0","0","1","0.4279797645","","0.8","0.2","0.4","0.6","","","","","0.1492128348","0.4279797645","0.03934302155","0.3349137267","","","","","","","","74","J","1","","","100","main_expt"
"","bandit","180","514387","0.0-141.0-0.0","92757622","wem/bandit_either_2","A3AJJHOAV7WIUQ","either","1","62","","","","","","","0","1","0","","0.4189249443","0.8","0.2","0.4","0.6","0.125019219","0.4189249443","0.05783306622","0.2732947861","","","","","","","","","","","","74","J","1","","","101","main_expt"
"","bandit","181","516112","0.0-142.0-0.0","92757622","wem/bandit_either_2","A3AJJHOAV7WIUQ","either","1","214","","","","","","","0","1","0","","0.4279241466","0.8","0.2","0.4","0.6","0.1008510245","0.4279241466","0.06484492547","0.2584454073","","","","","","","","","","","","74","J","1","","","102","main_expt"
"","bandit","182","517760","0.0-143.0-0.0","92757622","wem/bandit_either_2","A3AJJHOAV7WIUQ","either","1","135","","","","","","","0","1","0","","0.419390052","0.8","0.2","0.4","0.6","0.1087281004","0.419390052","0.0701259157","0.2143891894","","","","","","","","","","","","74","J","1","","","103","main_expt"
"","bandit","183","519838","0.0-144.0-0.0","92757622","wem/bandit_either_2","A3AJJHOAV7WIUQ","either","1","565","","","","","","","0","0","1","","0.3761202226","0.8","0.2","0.4","0.6","0.143855427","0.3761202226","0.06922647753","0.1354346047","","","","","","","","","","","","74","J","1","","","104","main_expt"
"","bandit","184","521702","0.0-145.0-0.0","92757622","wem/bandit_either_2","A3AJJHOAV7WIUQ","either","1","351","","","","","","","0","0","1","","0.4229881466","0.8","0.2","0.4","0.6","0.1606853024","0.4229881466","0.07802312096","0.1615963473","","","","","","","","","","","","74","J","1","","","105","main_expt"
"","bandit","185","523490","0.0-146.0-0.0","92757622","wem/bandit_either_2","A3AJJHOAV7WIUQ","either","1","273","","","","","","","0","1","0","","0.4110558218","0.8","0.2","0.4","0.6","0.1612939645","0.4110558218","0.08930313369","0.1738621023","","","","","","","","","","","","74","J","1","","","106","main_expt"
"","bandit","186","525254","0.0-147.0-0.0","92757622","wem/bandit_either_2","A3AJJHOAV7WIUQ","either","1","253","","","","","","","0","1","0","","0.4176599015","0.8","0.2","0.4","0.6","0.1778053335","0.4176599015","0.1397733654","0.1799671425","","","","","","","","","","","","74","J","1","","","107","main_expt"
"","bandit","187","526874","0.0-148.0-0.0","92757622","wem/bandit_either_2","A3AJJHOAV7WIUQ","either","1","105","","","","","","","0","0","1","","0.4210396584","0.8","0.2","0.4","0.6","0.1826465361","0.4210396584","0.1505899732","0.1844274074","","","","","","","","","","","","74","J","1","","","108","main_expt"
"","bandit","188","529771","0.0-149.0-0.0","92757622","wem/bandit_either_2","A3AJJHOAV7WIUQ","either","1","1379","","","","","","","0","0","1","","0.4328015469","0.8","0.2","0.4","0.6","0.1737022726","0.4328015469","0.1162436109","0.1702708828","","","","","","","","","","","","74","J","1","","","109","main_expt"
"","bandit","189","531792","0.0-150.0-0.0","92757622","wem/bandit_either_2","A3AJJHOAV7WIUQ","either","1","507","","","","","","","0","1","0","","0.4495585744","0.8","0.2","0.4","0.6","0.1658344406","0.4495585744","0.08267976014","0.1964407335","","","","","","","","","","","","74","J","1","","","110","main_expt"
"","bandit","190","533727","0.0-151.0-0.0","92757622","wem/bandit_either_2","A3AJJHOAV7WIUQ","either","1","423","","","","","","","0","0","1","","0.4237631325","0.8","0.2","0.4","0.6","0.240619448","0.4237631325","0.09389793805","0.1777579569","","","","","","","","","","","","74","J","1","","","111","main_expt"
"","bandit","191","535848","0.0-152.0-0.0","92757622","wem/bandit_either_2","A3AJJHOAV7WIUQ","either","1","607","","","","","","","0","1","0","","0.4521571561","0.8","0.2","0.4","0.6","0.1927397719","0.4521571561","0.07903418564","0.1395994444","","","","","","","","","","","","74","J","1","","","112","main_expt"
"","bandit","192","537897","0.0-153.0-0.0","92757622","wem/bandit_either_2","A3AJJHOAV7WIUQ","either","1","533","","","","","","","0","0","1","","0.4350762846","0.8","0.2","0.4","0.6","0.234725565","0.4350762846","0.05501139052","0.1205999431","","","","","","","","","","","","74","J","1","","","113","main_expt"
"","bandit","193","539558","0.0-154.0-0.0","92757622","wem/bandit_either_2","A3AJJHOAV7WIUQ","either","1","148","","","","","","","0","0","1","","0.4315824664","0.8","0.2","0.4","0.6","0.1950215869","0.4315824664","0.07627702456","0.09123355482","","","","","","","","","","","","74","J","1","","","114","main_expt"
"","bandit","194","541083","0.0-155.0-0.0","92757622","wem/bandit_either_2","A3AJJHOAV7WIUQ","either","1","15","","","","","","","0","0","1","","0.4127349624","0.8","0.2","0.4","0.6","0.2575833325","0.4127349624","0.03985247356","0.09554471192","","","","","","","","","","","","74","J","1","","","115","main_expt"
"","bandit","195","542998","0.0-156.0-0.0","92757622","wem/bandit_either_2","A3AJJHOAV7WIUQ","either","1","402","","","","","","","0","1","0","","0.4468356006","0.8","0.2","0.4","0.6","0.2296468005","0.4468356006","0.0683792979","0.1942182492","","","","","","","","","","","","74","J","1","","","116","main_expt"
"","bandit","196","544573","0.0-157.0-0.0","92757622","wem/bandit_either_2","A3AJJHOAV7WIUQ","either","1","62","","","","","","","0","0","1","0.4458703805","","0.8","0.2","0.4","0.6","","","","","0.2816483341","0.4458703805","0.03956212276","0.2208250117","","","","","","","","74","J","1","","","117","main_expt"
"","bandit","197","546824","0.0-158.0-0.0","92757622","wem/bandit_either_2","A3AJJHOAV7WIUQ","either","1","735","","","","","","","0","0","1","","0.4500370674","0.8","0.2","0.4","0.6","0.2626769985","0.4500370674","0.04459229253","0.1687975443","","","","","","","","","","","","74","J","1","","","118","main_expt"
"","bandit","198","548706","0.0-159.0-0.0","92757622","wem/bandit_either_2","A3AJJHOAV7WIUQ","either","1","366","","","","","","","0","1","0","","0.4704359259","0.8","0.2","0.4","0.6","0.2418090277","0.4704359259","0.03386957434","0.1546105485","","","","","","","","","","","","74","J","1","","","119","main_expt"
"","bandit","199","550593","0.0-160.0-0.0","92757622","wem/bandit_either_2","A3AJJHOAV7WIUQ","either","1","371","","","","","","","1","0","0","0.4578798539","","0.8","0.2","0.4","0.6","","","","","0.2603236095","0.4578798539","0.03305427522","0.143668411","","","","","","","","74","J","1","","","120","main_expt"
"","bandit","200","552688","0.0-161.0-0.0","92757622","wem/bandit_either_2","A3AJJHOAV7WIUQ","either","1","580","","","","","","","0","1","0","","0.4591190262","0.8","0.2","0.4","0.6","0.2381785671","0.4591190262","0.03146098963","0.1098317425","","","","","","","","","","","","74","J","1","","","121","main_expt"
"","bandit","201","554586","0.0-162.0-0.0","92757622","wem/bandit_either_2","A3AJJHOAV7WIUQ","either","1","382","","","","","","","0","1","0","","0.4643737298","0.8","0.2","0.4","0.6","0.2388462554","0.4643737298","0.02311797033","0.1097832873","","","","","","","","","","","","74","J","1","","","122","main_expt"
"","bandit","202","556438","0.0-163.0-0.0","92757622","wem/bandit_either_2","A3AJJHOAV7WIUQ","either","1","338","","","","","","","0","1","0","","0.451586091","0.8","0.2","0.4","0.6","0.2079929623","0.451586091","0.0171261738","0.1145900252","","","","","","","","","","","","74","J","1","","","123","main_expt"
"","bandit","203","558279","0.0-164.0-0.0","92757622","wem/bandit_either_2","A3AJJHOAV7WIUQ","either","1","327","","","","","","","0","0","1","0.4456906556","","0.8","0.2","0.4","0.6","","","","","0.2148400852","0.4456906556","0.03468299263","0.1137783892","","","","","","","","74","J","1","","","124","main_expt"
"","bandit","204","560043","0.0-165.0-0.0","92757622","wem/bandit_either_2","A3AJJHOAV7WIUQ","either","1","247","","","","","","","1","0","0","0.4240876494","","0.8","0.2","0.4","0.6","","","","","0.2185056602","0.4240876494","0.02544516396","0.145605256","","","","","","","","74","J","1","","","125","main_expt"
"","bandit","205","561808","0.0-166.0-0.0","92757622","wem/bandit_either_2","A3AJJHOAV7WIUQ","either","1","249","","","","","","","0","0","1","","0.4008501573","0.8","0.2","0.4","0.6","0.2152323899","0.4008501573","0.03059506073","0.1443839055","","","","","","","","","","","","74","J","1","","","126","main_expt"
"","bandit","206","563450","0.0-167.0-0.0","92757622","wem/bandit_either_2","A3AJJHOAV7WIUQ","either","1","125","","","","","","","0","1","0","","0.4066073101","0.8","0.2","0.4","0.6","0.1699446714","0.4066073101","0.0339638967","0.1434222382","","","","","","","","","","","","74","J","1","","","127","main_expt"
"","bandit","207","565134","0.0-168.0-0.0","92757622","wem/bandit_either_2","A3AJJHOAV7WIUQ","either","1","171","","","","","","","0","1","0","","0.4270302575","0.8","0.2","0.4","0.6","0.1299446217","0.4270302575","0.02632978063","0.1412168693","","","","","","","","","","","","74","J","1","","","128","main_expt"
"","bandit","208","566747","0.0-169.0-0.0","92757622","wem/bandit_either_2","A3AJJHOAV7WIUQ","either","1","101","","","","","","","0","1","0","","0.4401824822","0.8","0.2","0.4","0.6","0.1299487573","0.4401824822","0.02640977482","0.1086871361","","","","","","","","","","","","74","J","1","","","129","main_expt"
"","bandit","209","568311","0.0-170.0-0.0","92757622","wem/bandit_either_2","A3AJJHOAV7WIUQ","either","1","50","","","","","","","1","0","0","0.4160959849","","0.8","0.2","0.4","0.6","","","","","0.1172580566","0.4160959849","0.03646961518","0.1672766288","","","","","","","","74","J","1","","","130","main_expt"
"","bandit","210","569969","0.0-171.0-0.0","92757622","wem/bandit_either_2","A3AJJHOAV7WIUQ","either","1","143","","","","","","","0","0","1","0.4374535298","","0.8","0.2","0.4","0.6","","","","","0.1289979545","0.4374535298","0.02171712127","0.157110596","","","","","","","","74","J","1","","","131","main_expt"
"","bandit","211","571493","0.0-172.0-0.0","92757622","wem/bandit_either_2","A3AJJHOAV7WIUQ","either","1","11","","","","","","","0","0","1","0.4382483821","","0.8","0.2","0.4","0.6","","","","","0.1243754988","0.4382483821","0.01004766493","0.1338697581","","","","","","","","74","J","1","","","132","main_expt"
"","bandit","212","573678","0.0-173.0-0.0","92757622","wem/bandit_either_2","A3AJJHOAV7WIUQ","either","1","671","","","","","","","0","0","1","0.3913946914","","0.8","0.2","0.4","0.6","","","","","0.1189203389","0.3913946914","0.005153708139","0.1101669797","","","","","","","","74","J","1","","","133","main_expt"
"","bandit","213","575495","0.0-174.0-0.0","92757622","wem/bandit_either_2","A3AJJHOAV7WIUQ","either","1","301","","","","","","","0","0","1","","0.4280120537","0.8","0.2","0.4","0.6","0.07075860378","0.4280120537","0.01308543257","0.060775537","","","","","","","","","","","","74","J","1","","","134","main_expt"
"","bandit","214","577101","0.0-175.0-0.0","92757622","wem/bandit_either_2","A3AJJHOAV7WIUQ","either","1","93","","","","","","","0","1","0","","0.4385213509","0.8","0.2","0.4","0.6","0.1073185777","0.4385213509","0.02634180281","0.0714416082","","","","","","","","","","","","74","J","1","","","135","main_expt"
"","bandit","215","578920","0.0-176.0-0.0","92757622","wem/bandit_either_2","A3AJJHOAV7WIUQ","either","1","301","","","","","","","1","0","0","0.4605212521","","0.8","0.2","0.4","0.6","","","","","0.1001442491","0.4605212521","0.04122629063","0.1115096907","","","","","","","","74","J","1","","","136","main_expt"
"","bandit","216","580581","0.0-177.0-0.0","92757622","wem/bandit_either_2","A3AJJHOAV7WIUQ","either","1","147","","","","","","","0","1","0","","0.4729500637","0.8","0.2","0.4","0.6","0.1736681681","0.4729500637","0.05517648788","0.1307091067","","","","","","","","","","","","74","J","1","","","137","main_expt"
"","bandit","217","582438","0.0-178.0-0.0","92757622","wem/bandit_either_2","A3AJJHOAV7WIUQ","either","1","343","","","","","","","0","1","0","","0.4705425907","0.8","0.2","0.4","0.6","0.1839908368","0.4705425907","0.05929415862","0.1289533412","","","","","","","","","","","","74","J","1","","","138","main_expt"
"","bandit","218","584075","0.0-179.0-0.0","92757622","wem/bandit_either_2","A3AJJHOAV7WIUQ","either","1","127","","","","","","","1","0","0","0.465423541","","0.8","0.2","0.4","0.6","","","","","0.1500833973","0.465423541","0.05470710098","0.1215972271","","","","","","","","74","J","1","","","139","main_expt"
"","bandit","219","585875","0.0-180.0-0.0","92757622","wem/bandit_either_2","A3AJJHOAV7WIUQ","either","1","281","","","","","","","0","1","0","","0.4486857012","0.8","0.2","0.4","0.6","0.1718879457","0.4486857012","0.06062538604","0.1158179575","","","","","","","","","","","","74","J","1","","","140","main_expt"
"","bandit","220","587689","0.0-181.0-0.0","92757622","wem/bandit_either_2","A3AJJHOAV7WIUQ","either","1","297","","","","","","","0","1","0","","0.4053061298","0.8","0.2","0.4","0.6","0.2025036279","0.4053061298","0.05819772386","0.08691297649","","","","","","","","","","","","74","J","1","","","141","main_expt"
"","bandit","221","589651","0.0-182.0-0.0","92757622","wem/bandit_either_2","A3AJJHOAV7WIUQ","either","1","450","","","","","","","0","1","0","","0.3989731656","0.8","0.2","0.4","0.6","0.1872564568","0.3989731656","0.05329701838","0.1425267255","","","","","","","","","","","","74","J","1","","","142","main_expt"
"","bandit","222","591488","0.0-183.0-0.0","92757622","wem/bandit_either_2","A3AJJHOAV7WIUQ","either","1","321","","","","","","","0","1","0","","0.3783570596","0.8","0.2","0.4","0.6","0.1676641842","0.3783570596","0.06209903385","0.1425141192","","","","","","","","","","","","74","J","1","","","143","main_expt"
"","bandit","223","593084","0.0-184.0-0.0","92757622","wem/bandit_either_2","A3AJJHOAV7WIUQ","either","1","83","","","","","","","0","0","1","","0.3485663762","0.8","0.2","0.4","0.6","0.1502987652","0.3485663762","0.06954729647","0.1362652721","","","","","","","","","","","","74","J","1","","","144","main_expt"
"","bandit","224","594697","0.0-185.0-0.0","92757622","wem/bandit_either_2","A3AJJHOAV7WIUQ","either","1","96","","","","","","","0","0","1","0.3534190037","","0.8","0.2","0.4","0.6","","","","","0.1050568962","0.3534190037","0.062760129","0.1335650053","","","","","","","","74","J","1","","","145","main_expt"
"","bandit","225","596294","0.0-186.0-0.0","92757622","wem/bandit_either_2","A3AJJHOAV7WIUQ","either","1","80","","","","","","","0","1","0","","0.342282706","0.8","0.2","0.4","0.6","0.1266784727","0.342282706","0.05014677947","0.1392461982","","","","","","","","","","","","74","J","1","","","146","main_expt"
"","bandit","226","597949","0.0-187.0-0.0","92757622","wem/bandit_either_2","A3AJJHOAV7WIUQ","either","1","143","","","","","","","0","0","1","","0.3497384939","0.8","0.2","0.4","0.6","0.1121887101","0.3497384939","0.04801868921","0.1060810453","","","","","","","","","","","","74","J","1","","","147","main_expt"
"","bandit","227","600456","0.0-188.0-0.0","92757622","wem/bandit_either_2","A3AJJHOAV7WIUQ","either","1","989","","","","","","","0","0","1","","0.3507348305","0.8","0.2","0.4","0.6","0.1050077765","0.3507348305","0.05298179562","0.1076054289","","","","","","","","","","","","74","J","1","","","148","main_expt"
"","bandit","228","602381","0.0-189.0-0.0","92757622","wem/bandit_either_2","A3AJJHOAV7WIUQ","either","1","411","","","","","","","0","0","1","","0.306786392","0.8","0.2","0.4","0.6","0.08725679698","0.306786392","0.05271587927","0.09143227578","","","","","","","","","","","","74","J","1","","","149","main_expt"
"","bandit","229","604026","0.0-190.0-0.0","92757622","wem/bandit_either_2","A3AJJHOAV7WIUQ","either","1","128","","","","","","","0","0","1","","0.3289077467","0.8","0.2","0.4","0.6","0.04813781364","0.3289077467","0.06153260368","0.08361181256","","","","","","","","","","","","74","J","1","","","150","main_expt"
"","bandit","230","605599","0.0-191.0-0.0","92757622","wem/bandit_either_2","A3AJJHOAV7WIUQ","either","1","58","","","","","","","0","0","1","","0.2844912386","0.8","0.2","0.4","0.6","0.04690393958","0.2844912386","0.07716317934","0.1038450747","","","","","","","","","","","","74","J","1","","","151","main_expt"
"","bandit","231","607446","0.0-192.0-0.0","92757622","wem/bandit_either_2","A3AJJHOAV7WIUQ","either","1","331","","","","","","","0","1","0","","0.3221551402","0.8","0.2","0.4","0.6","0.05051779207","0.3221551402","0.08370894892","0.1311897928","","","","","","","","","","","","74","J","1","","","152","main_expt"
"","bandit","232","609234","0.0-193.0-0.0","92757622","wem/bandit_either_2","A3AJJHOAV7WIUQ","either","1","278","","","","","","","0","0","1","","0.288581716","0.8","0.2","0.4","0.6","0.0417019452","0.288581716","0.06235129306","0.1106636196","","","","","","","","","","","","74","J","1","","","153","main_expt"
"","bandit","233","610818","0.0-194.0-0.0","92757622","wem/bandit_either_2","A3AJJHOAV7WIUQ","either","1","64","","","","","","","0","1","0","","0.3674714493","0.8","0.2","0.4","0.6","0.04565059468","0.3674714493","0.08808261531","0.08044616817","","","","","","","","","","","","74","J","1","","","154","main_expt"
"","bandit","234","612496","0.0-195.0-0.0","92757622","wem/bandit_either_2","A3AJJHOAV7WIUQ","either","1","162","","","","","","","0","0","1","","0.3836765626","0.8","0.2","0.4","0.6","0.0249337719","0.3836765626","0.08415746701","0.09849608375","","","","","","","","","","","","74","J","1","","","155","main_expt"
"","bandit","235","614057","0.0-196.0-0.0","92757622","wem/bandit_either_2","A3AJJHOAV7WIUQ","either","1","44","","","","","","","0","0","1","","0.3499766022","0.8","0.2","0.4","0.6","0.0207568711","0.3499766022","0.1363215429","0.0679626842","","","","","","","","","","","","74","J","1","","","156","main_expt"
"","bandit","236","615636","0.0-197.0-0.0","92757622","wem/bandit_either_2","A3AJJHOAV7WIUQ","either","1","65","","","","","","","0","1","0","","0.3083455354","0.8","0.2","0.4","0.6","0.01044871803","0.3083455354","0.176329139","0.06316877849","","","","","","","","","","","","74","J","1","","","157","main_expt"
"","bandit","237","617226","0.0-198.0-0.0","92757622","wem/bandit_either_2","A3AJJHOAV7WIUQ","either","1","69","","","","","","","0","1","0","","0.2780985587","0.8","0.2","0.4","0.6","0.008486032171","0.2780985587","0.2239815039","0.06381796224","","","","","","","","","","","","74","J","1","","","158","main_expt"
"","bandit","238","619061","0.0-199.0-0.0","92757622","wem/bandit_either_2","A3AJJHOAV7WIUQ","either","1","321","","","","","","","0","0","1","","0.2721424699","0.8","0.2","0.4","0.6","0.006770001311","0.2721424699","0.1754735631","0.09986374221","","","","","","","","","","","","74","J","1","","","159","main_expt"
"","bandit","239","621069","0.0-200.0-0.0","92757622","wem/bandit_either_2","A3AJJHOAV7WIUQ","either","1","494","","","","","","","0","0","1","","0.3005636977","0.8","0.2","0.4","0.6","0.005009972043","0.3005636977","0.1820859676","0.08334790929","","","","","","","","","","","","74","J","1","","","160","main_expt"
"","bandit","240","623240","0.0-201.0-0.0","92757622","wem/bandit_either_2","A3AJJHOAV7WIUQ","either","1","653","","","","","","","0","1","0","","0.2481613967","0.8","0.2","0.4","0.6","0.003825417776","0.2481613967","0.1771527669","0.1094566723","","","","","","","","","","","","74","J","1","","","161","main_expt"
"","bandit","241","625274","0.0-202.0-0.0","92757622","wem/bandit_either_2","A3AJJHOAV7WIUQ","either","1","514","","","","","","","0","0","1","","0.2040880477","0.8","0.2","0.4","0.6","0.006458278423","0.2040880477","0.209245514","0.1287108975","","","","","","","","","","","","74","J","1","","","162","main_expt"
"","bandit","242","626978","0.0-203.0-0.0","92757622","wem/bandit_either_2","A3AJJHOAV7WIUQ","either","1","185","","","","","","","0","0","1","0.256608811","","0.8","0.2","0.4","0.6","","","","","0.01344146107","0.256608811","0.1864252411","0.1811808859","","","","","","","","74","J","1","","","163","main_expt"
"","bandit","243","628976","0.0-204.0-0.0","92757622","wem/bandit_either_2","A3AJJHOAV7WIUQ","either","1","480","","","","","","","0","0","1","","0.2798468236","0.8","0.2","0.4","0.6","0.004940614731","0.2798468236","0.1662237337","0.1374611454","","","","","","","","","","","","74","J","1","","","164","main_expt"
"","bandit","244","630944","0.0-205.0-0.0","92757622","wem/bandit_either_2","A3AJJHOAV7WIUQ","either","1","451","","","","","","","1","0","0","0.2689568899","","0.8","0.2","0.4","0.6","","","","","0.007349038951","0.2689568899","0.1375661656","0.1640313333","","","","","","","","74","J","1","","","165","main_expt"
"","bandit","245","632557","0.0-206.0-0.0","92757622","wem/bandit_either_2","A3AJJHOAV7WIUQ","either","1","98","","","","","","","0","1","0","","0.2786045926","0.8","0.2","0.4","0.6","0.005679103294","0.2786045926","0.1416727521","0.20052236","","","","","","","","","","","","74","J","1","","","166","main_expt"
"","bandit","246","634206","0.0-207.0-0.0","92757622","wem/bandit_either_2","A3AJJHOAV7WIUQ","either","1","133","","","","","","","0","1","0","","0.2507583434","0.8","0.2","0.4","0.6","0.004037182679","0.2507583434","0.1497541138","0.1945206589","","","","","","","","","","","","74","J","1","","","167","main_expt"
"","bandit","247","635936","0.0-208.0-0.0","92757622","wem/bandit_either_2","A3AJJHOAV7WIUQ","either","1","211","","","","","","","0","0","1","0.1827624484","","0.8","0.2","0.4","0.6","","","","","0.007111326723","0.1827624484","0.1761460581","0.1902154162","","","","","","","","74","J","1","","","168","main_expt"
"","bandit","248","637631","0.0-209.0-0.0","92757622","wem/bandit_either_2","A3AJJHOAV7WIUQ","either","1","178","","","","","","","0","1","0","","0.1558723634","0.8","0.2","0.4","0.6","0.01708305062","0.1558723634","0.2248215173","0.1931964682","","","","","","","","","","","","74","J","1","","","169","main_expt"
"","bandit","249","639296","0.0-210.0-0.0","92757622","wem/bandit_either_2","A3AJJHOAV7WIUQ","either","1","147","","","","","","","0","0","1","","0.1757164868","0.8","0.2","0.4","0.6","0.02105388628","0.1757164868","0.2503105048","0.236179436","","","","","","","","","","","","74","J","1","","","170","main_expt"
"","bandit","250","641189","0.0-211.0-0.0","92757622","wem/bandit_either_2","A3AJJHOAV7WIUQ","either","1","378","","","","","","","0","0","1","","0.1985597056","0.8","0.2","0.4","0.6","0.01477187034","0.1985597056","0.2515708499","0.2229285478","","","","","","","","","","","","74","J","1","","","171","main_expt"
"","bandit","251","642762","0.0-212.0-0.0","92757622","wem/bandit_either_2","A3AJJHOAV7WIUQ","either","1","59","","","","","","","0","1","0","","0.1725269859","0.8","0.2","0.4","0.6","0.00639283578","0.1725269859","0.2601117771","0.1805811295","","","","","","","","","","","","74","J","1","","","172","main_expt"
"","bandit","252","644410","0.0-213.0-0.0","92757622","wem/bandit_either_2","A3AJJHOAV7WIUQ","either","1","136","","","","","","","0","0","1","","0.1955807132","0.8","0.2","0.4","0.6","0.008503536177","0.1955807132","0.2277859889","0.2203049146","","","","","","","","","","","","74","J","1","","","173","main_expt"
"","bandit","253","646162","0.0-214.0-0.0","92757622","wem/bandit_either_2","A3AJJHOAV7WIUQ","either","1","239","","","","","","","0","1","0","","0.1712969398","0.8","0.2","0.4","0.6","0.01512836446","0.1712969398","0.204090619","0.2079245196","","","","","","","","","","","","74","J","1","","","174","main_expt"
"","bandit","254","648170","0.0-215.0-0.0","92757622","wem/bandit_either_2","A3AJJHOAV7WIUQ","either","1","496","","","","","","","0","1","0","","0.2145566876","0.8","0.2","0.4","0.6","0.034550241","0.2145566876","0.2264282848","0.1904909119","","","","","","","","","","","","74","J","1","","","175","main_expt"
"","bandit","255","649949","0.0-216.0-0.0","92757622","wem/bandit_either_2","A3AJJHOAV7WIUQ","either","1","263","","","","","","","0","0","1","","0.1987050603","0.8","0.2","0.4","0.6","0.01969997198","0.1987050603","0.2263436383","0.1611975006","","","","","","","","","","","","74","J","1","","","176","main_expt"
"","bandit","256","651684","0.0-217.0-0.0","92757622","wem/bandit_either_2","A3AJJHOAV7WIUQ","either","1","220","","","","","","","0","0","1","","0.2161967517","0.8","0.2","0.4","0.6","0.02558747067","0.2161967517","0.2449632337","0.1747210449","","","","","","","","","","","","74","J","1","","","177","main_expt"
"","bandit","257","653449","0.0-218.0-0.0","92757622","wem/bandit_either_2","A3AJJHOAV7WIUQ","either","1","245","","","","","","","0","0","1","","0.1790488899","0.8","0.2","0.4","0.6","0.02865462312","0.1790488899","0.1923885174","0.1667690144","","","","","","","","","","","","74","J","1","","","178","main_expt"
"","bandit","258","655301","0.0-219.0-0.0","92757622","wem/bandit_either_2","A3AJJHOAV7WIUQ","either","1","336","","","","","","","0","0","1","","0.1254539317","0.8","0.2","0.4","0.6","0.05873937836","0.1254539317","0.1791230597","0.248539666","","","","","","","","","","","","74","J","1","","","179","main_expt"
"","bandit","259","657094","0.0-220.0-0.0","92757622","wem/bandit_either_2","A3AJJHOAV7WIUQ","either","1","276","","","","","","","0","1","0","","0.1761702366","0.8","0.2","0.4","0.6","0.04996702027","0.1761702366","0.1641305094","0.2393284063","","","","","","","","","","","","74","J","1","","","180","main_expt"
"","bandit","260","658859","0.0-221.0-0.0","92757622","wem/bandit_either_2","A3AJJHOAV7WIUQ","either","1","252","","","","","","","0","0","1","0.2307221343","","0.8","0.2","0.4","0.6","","","","","0.06192223509","0.2307221343","0.1567194189","0.2450765022","","","","","","","","74","J","1","","","181","main_expt"
"","bandit","261","660664","0.0-222.0-0.0","92757622","wem/bandit_either_2","A3AJJHOAV7WIUQ","either","1","285","","","","","","","0","0","1","","0.1656926355","0.8","0.2","0.4","0.6","0.07865608963","0.1656926355","0.1805899487","0.2898963007","","","","","","","","","","","","74","J","1","","","182","main_expt"
"","bandit","262","662551","0.0-223.0-0.0","92757622","wem/bandit_either_2","A3AJJHOAV7WIUQ","either","1","369","","","","","","","0","0","1","","0.1997223474","0.8","0.2","0.4","0.6","0.0695036973","0.1997223474","0.1381226487","0.337419987","","","","","","","","","","","","74","J","1","","","183","main_expt"
"","bandit","263","664506","0.0-224.0-0.0","92757622","wem/bandit_either_2","A3AJJHOAV7WIUQ","either","1","443","","","","","","","0","0","1","0.1936006223","","0.8","0.2","0.4","0.6","","","","","0.09883674892","0.1936006223","0.1157029232","0.3334404967","","","","","","","","74","J","1","","","184","main_expt"
"","bandit","264","666555","0.0-225.0-0.0","92757622","wem/bandit_either_2","A3AJJHOAV7WIUQ","either","1","536","","","","","","","0","1","0","","0.1794548994","0.8","0.2","0.4","0.6","0.1344132801","0.1794548994","0.09007466759","0.3049781316","","","","","","","","","","","","74","J","1","","","185","main_expt"
"","bandit","265","668168","0.0-226.0-0.0","92757622","wem/bandit_either_2","A3AJJHOAV7WIUQ","either","1","93","","","","","","","0","0","1","","0.1679588243","0.8","0.2","0.4","0.6","0.1194183803","0.1679588243","0.07784091677","0.322039184","","","","","","","","","","","","74","J","1","","","186","main_expt"
"","bandit","266","669810","0.0-227.0-0.0","92757622","wem/bandit_either_2","A3AJJHOAV7WIUQ","either","1","129","","","","","","","0","1","0","","0.1692259204","0.8","0.2","0.4","0.6","0.1456002269","0.1692259204","0.1332261693","0.2898485093","","","","","","","","","","","","74","J","1","","","187","main_expt"
"","bandit","267","671482","0.0-228.0-0.0","92757622","wem/bandit_either_2","A3AJJHOAV7WIUQ","either","1","158","","","","","","","0","0","1","","0.1796926114","0.8","0.2","0.4","0.6","0.1008589119","0.1796926114","0.1302169342","0.3046836684","","","","","","","","","","","","74","J","1","","","188","main_expt"
"","bandit","268","673470","0.0-229.0-0.0","92757622","wem/bandit_either_2","A3AJJHOAV7WIUQ","either","1","471","","","","","","","0","1","0","","0.1463090895","0.8","0.2","0.4","0.6","0.09109327247","0.1463090895","0.1459867673","0.3437642557","","","","","","","","","","","","74","J","1","","","189","main_expt"
"","bandit","269","675029","0.0-230.0-0.0","92757622","wem/bandit_either_2","A3AJJHOAV7WIUQ","either","1","42","","","","","","","0","0","1","","0.1670442817","0.8","0.2","0.4","0.6","0.133333279","0.1670442817","0.1930387326","0.3685715368","","","","","","","","","","","","74","J","1","","","190","main_expt"
"","bandit","270","676970","0.0-231.0-0.0","92757622","wem/bandit_either_2","A3AJJHOAV7WIUQ","either","1","428","","","","","","","0","0","1","","0.2148667481","0.8","0.2","0.4","0.6","0.1253338948","0.2148667481","0.1447045196","0.4063368095","","","","","","","","","","","","74","J","1","","","191","main_expt"
"","bandit","271","678976","0.0-232.0-0.0","92757622","wem/bandit_either_2","A3AJJHOAV7WIUQ","either","1","495","","","","","","","0","0","1","","0.1891029698","0.8","0.2","0.4","0.6","0.1371372983","0.1891029698","0.1521301445","0.4194789623","","","","","","","","","","","","74","J","1","","","192","main_expt"
"","bandit","272","680941","0.0-233.0-0.0","92757622","wem/bandit_either_2","A3AJJHOAV7WIUQ","either","1","448","","","","","","","0","0","1","","0.1818436489","0.8","0.2","0.4","0.6","0.1269519223","0.1818436489","0.1216552598","0.3914453041","","","","","","","","","","","","74","J","1","","","193","main_expt"
"","bandit","273","682989","0.0-234.0-0.0","92757622","wem/bandit_either_2","A3AJJHOAV7WIUQ","either","1","532","","","","","","","0","0","1","","0.2036833838","0.8","0.2","0.4","0.6","0.1253972088","0.2036833838","0.07681554104","0.3988429791","","","","","","","","","","","","74","J","1","","","194","main_expt"
"","bandit","274","685155","0.0-235.0-0.0","92757622","wem/bandit_either_2","A3AJJHOAV7WIUQ","either","1","652","","","","","","","0","0","1","0.1231557279","","0.8","0.2","0.4","0.6","","","","","0.1231557279","0.2189502041","0.07468822185","0.4212514022","","","","","","","","72","H","0","img/none_selected.jpg","","195","main_expt"
"","bandit","275","687013","0.0-236.0-0.0","92757622","wem/bandit_either_2","A3AJJHOAV7WIUQ","either","1","342","","","","","","","0","0","1","0.2304226507","","0.8","0.2","0.4","0.6","","","","","0.2304226507","0.2011136523","0.07634526252","0.4128950903","","","","","","","","72","H","0","img/none_selected.jpg","","196","main_expt"
"","bandit","276","688812","0.0-237.0-0.0","92757622","wem/bandit_either_2","A3AJJHOAV7WIUQ","either","1","284","","","","","","","0","0","1","","0.3102822931","0.8","0.2","0.4","0.6","0.3102822931","0.2295646827","0.06680697181","0.3979973083","","","","","","","","","","","","72","H","0","img/none_selected.jpg","","197","main_expt"
"","bandit","277","690792","0.0-238.0-0.0","92757622","wem/bandit_either_2","A3AJJHOAV7WIUQ","either","1","461","","","","","","","0","0","1","0.3222054514","","0.8","0.2","0.4","0.6","","","","","0.3222054514","0.2570874699","0.05107679344","0.3153467244","","","","","","","","72","H","0","img/none_selected.jpg","","198","main_expt"
"","bandit","278","692841","0.0-239.0-0.0","92757622","wem/bandit_either_2","A3AJJHOAV7WIUQ","either","1","535","","","","","","","0","0","1","0.3416159467","","0.8","0.2","0.4","0.6","","","","","0.3416159467","0.2215013189","0.06140804873","0.3121882746","","","","","","","","72","H","0","img/none_selected.jpg","","199","main_expt"
"","bandit","279","694903","0.0-240.0-0.0","92757622","wem/bandit_either_2","A3AJJHOAV7WIUQ","either","1","542","","","","","","","0","0","1","0.3826655938","","0.8","0.2","0.4","0.6","","","","","0.3826655938","0.1681318695","0.05697288244","0.3789620948","","","","","","","","72","H","0","img/none_selected.jpg","","200","main_expt"
"","bandit","280","696463","0.0-241.0-0.0","92757622","wem/bandit_either_2","A3AJJHOAV7WIUQ","either","1","40","","","","","","","0","1","0","","0.3575696279","0.8","0.2","0.4","0.6","0.4117435103","0.1787039029","0.04802221103","0.3575696279","","","","","","","","","","","","76","L","3","","","201","main_expt"
"","bandit","281","698366","0.0-242.0-0.0","92757622","wem/bandit_either_2","A3AJJHOAV7WIUQ","either","1","387","","","","","","","1","0","0","0.3937046418","","0.8","0.2","0.4","0.6","","","","","0.4023622846","0.2180442152","0.04583536071","0.3937046418","","","","","","","","76","L","3","","","202","main_expt"
"","bandit","282","700230","0.0-243.0-0.0","92757622","wem/bandit_either_2","A3AJJHOAV7WIUQ","either","1","345","","","","","","","0","0","1","0.3901943722","","0.8","0.2","0.4","0.6","","","","","0.4225273878","0.262784421","0.03655969434","0.3901943722","","","","","","","","76","L","3","","","203","main_expt"
"","bandit","283","702012","0.0-244.0-0.0","92757622","wem/bandit_either_2","A3AJJHOAV7WIUQ","either","1","267","","","","","","","0","0","1","0.4099131859","","0.8","0.2","0.4","0.6","","","","","0.4151046429","0.2843732649","0.05773518339","0.4099131859","","","","","","","","76","L","3","","","204","main_expt"
"","bandit","284","703980","0.0-245.0-0.0","92757622","wem/bandit_either_2","A3AJJHOAV7WIUQ","either","1","453","","","","","","","1","0","0","0.4238238901","","0.8","0.2","0.4","0.6","","","","","0.4288165897","0.2549063301","0.06616346658","0.4238238901","","","","","","","","76","L","3","","","205","main_expt"
"","bandit","285","705861","0.0-246.0-0.0","92757622","wem/bandit_either_2","A3AJJHOAV7WIUQ","either","1","365","","","","","","","0","0","1","","0.4139837541","0.8","0.2","0.4","0.6","0.436745712","0.2982701688","0.09055598832","0.4139837541","","","","","","","","","","","","76","L","3","","","206","main_expt"
"","bandit","286","707376","0.0-247.0-0.0","92757622","wem/bandit_either_2","A3AJJHOAV7WIUQ","either","1","2","","","","","","","0","0","1","0.3544894801","","0.8","0.2","0.4","0.6","","","","","0.4484652972","0.3423773839","0.07583085731","0.3544894801","","","","","","","","76","L","3","","","207","main_expt"
"","bandit","287","708909","0.0-248.0-0.0","92757622","wem/bandit_either_2","A3AJJHOAV7WIUQ","either","1","18","","","","","","","0","0","1","0.3703609936","","0.8","0.2","0.4","0.6","","","","","0.4516947584","0.3321535101","0.09768014643","0.3703609936","","","","","","","","76","L","3","","","208","main_expt"
"","bandit","288","711101","0.0-249.0-0.0","92757622","wem/bandit_either_2","A3AJJHOAV7WIUQ","either","1","676","","","","","","","0","0","1","0.3590511704","","0.8","0.2","0.4","0.6","","","","","0.4590139285","0.3467721984","0.08389795445","0.3590511704","","","","","","","","76","L","3","","","209","main_expt"
"","bandit","289","712867","0.0-250.0-0.0","92757622","wem/bandit_either_2","A3AJJHOAV7WIUQ","either","1","251","","","","","","","0","0","1","0.3781523972","","0.8","0.2","0.4","0.6","","","","","0.4378910613","0.3513447539","0.07846525543","0.3781523972","","","","","","","","76","L","3","","","210","main_expt"
"","bandit","290","714435","0.0-251.0-0.0","92757622","wem/bandit_either_2","A3AJJHOAV7WIUQ","either","1","52","","","","","","","0","0","1","0.3895188655","","0.8","0.2","0.4","0.6","","","","","0.4139384991","0.4003692624","0.05906932722","0.3895188655","","","","","","","","76","L","3","","","211","main_expt"
"","bandit","291","716237","0.0-252.0-0.0","92757622","wem/bandit_either_2","A3AJJHOAV7WIUQ","either","1","286","","","","","","","0","1","0","","0.4075098947","0.8","0.2","0.4","0.6","0.3659234609","0.3949660502","0.04754192311","0.4075098947","","","","","","","","","","","","76","L","3","","","212","main_expt"
"","bandit","292","717958","0.0-253.0-0.0","92757622","wem/bandit_either_2","A3AJJHOAV7WIUQ","either","1","203","","","","","","","0","0","1","","0.4191075236","0.8","0.2","0.4","0.6","0.3180572988","0.4233479157","0.05481920189","0.4191075236","","","","","","","","","","","","76","L","3","","","213","main_expt"
"","bandit","293","719984","0.0-254.0-0.0","92757622","wem/bandit_either_2","A3AJJHOAV7WIUQ","either","1","505","","","","","","","1","0","0","0.3799529118","","0.8","0.2","0.4","0.6","","","","","0.2611162072","0.4182751871","0.07954578011","0.3799529118","","","","","","","","76","L","3","","","214","main_expt"
"","bandit","294","721505","0.0-255.0-0.0","92757622","wem/bandit_either_2","A3AJJHOAV7WIUQ","either","1","7","","","","","","","0","1","0","","0.3924699069","0.8","0.2","0.4","0.6","0.2331309726","0.3745823719","0.1078137614","0.3924699069","","","","","","","","","","","","76","L","3","","","215","main_expt"
"","bandit","295","723299","0.0-256.0-0.0","92757622","wem/bandit_either_2","A3AJJHOAV7WIUQ","either","1","277","","","","","","","0","0","1","","0.3556657658","0.8","0.2","0.4","0.6","0.2428402293","0.3809837923","0.1269525553","0.3556657658","","","","","","","","","","","","76","L","3","","","216","main_expt"
"","bandit","296","725258","0.0-257.0-0.0","92757622","wem/bandit_either_2","A3AJJHOAV7WIUQ","either","1","443","","","","","","","0","0","1","","0.3870416945","0.8","0.2","0.4","0.6","0.2317762644","0.4144294186","0.1849794572","0.3870416945","","","","","","","","","","","","76","L","3","","","217","main_expt"
"","bandit","297","727340","0.0-258.0-0.0","92757622","wem/bandit_either_2","A3AJJHOAV7WIUQ","either","1","563","","","","","","","0","0","1","0.3944581396","","0.8","0.2","0.4","0.6","","","","","0.204309912","0.4090742927","0.1903787706","0.3944581396","","","","","","","","76","L","3","","","218","main_expt"
"","bandit","298","729450","0.0-259.0-0.0","92757622","wem/bandit_either_2","A3AJJHOAV7WIUQ","either","1","596","","","","","","","0","0","1","","0.4256173987","0.8","0.2","0.4","0.6","0.1685596251","0.3869695378","0.1768508397","0.4256173987","","","","","","","","","","","","76","L","3","","","219","main_expt"
"","bandit","299","731539","0.0-260.0-0.0","92757622","wem/bandit_either_2","A3AJJHOAV7WIUQ","either","1","574","","","","","","","1","0","0","0.4240862242","","0.8","0.2","0.4","0.6","","","","","0.2488487331","0.3814250035","0.2176561852","0.4240862242","","","","","","","","76","L","3","","","220","main_expt"
"","bandit","300","733138","0.0-261.0-0.0","92757622","wem/bandit_either_2","A3AJJHOAV7WIUQ","either","1","85","","","","","","","0","0","1","0.4364702466","","0.8","0.2","0.4","0.6","","","","","0.2789816034","0.3560431311","0.2075488201","0.4364702466","","","","","","","","76","L","3","","","221","main_expt"
"","bandit","301","734777","0.0-262.0-0.0","92757622","wem/bandit_either_2","A3AJJHOAV7WIUQ","either","1","123","","","","","","","0","0","1","","0.4512924842","0.8","0.2","0.4","0.6","0.242729834","0.3424215647","0.2260831429","0.4512924842","","","","","","","","","","","","76","L","3","","","222","main_expt"
"","bandit","302","736969","0.0-263.0-0.0","92757622","wem/bandit_either_2","A3AJJHOAV7WIUQ","either","1","678","","","","","","","1","0","0","0.4649948574","","0.8","0.2","0.4","0.6","","","","","0.196538567","0.3118962833","0.2512075751","0.4649948574","","","","","","","","76","L","3","","","223","main_expt"
"","bandit","303","738856","0.0-264.0-0.0","92757622","wem/bandit_either_2","A3AJJHOAV7WIUQ","either","1","373","","","","","","","0","0","1","0.4692106987","","0.8","0.2","0.4","0.6","","","","","0.2189223785","0.261290028","0.3072691987","0.4692106987","","","","","","","","76","L","3","","","224","main_expt"
"","bandit","304","740371","0.0-265.0-0.0","92757622","wem/bandit_either_2","A3AJJHOAV7WIUQ","either","1","1","","","","","","","0","0","1","0.4772226815","","0.8","0.2","0.4","0.6","","","","","0.2131207899","0.2748104332","0.3358063032","0.4772226815","","","","","","","","76","L","3","","","225","main_expt"
"","bandit","305","742037","0.0-266.0-0.0","92757622","wem/bandit_either_2","A3AJJHOAV7WIUQ","either","1","148","","","","","","","1","0","0","0.4828013869","","0.8","0.2","0.4","0.6","","","","","0.187439681","0.2112523614","0.2994610032","0.4828013869","","","","","","","","76","L","3","","","226","main_expt"
"","bandit","306","743627","0.0-267.0-0.0","92757622","wem/bandit_either_2","A3AJJHOAV7WIUQ","either","1","72","","","","","","","1","0","0","0.4805292857","","0.8","0.2","0.4","0.6","","","","","0.1522087394","0.1879164098","0.2719992041","0.4805292857","","","","","","","","76","L","3","","","227","main_expt"
"","bandit","307","745162","0.0-268.0-0.0","92757622","wem/bandit_either_2","A3AJJHOAV7WIUQ","either","1","17","","","","","","","0","0","1","0.4770879938","","0.8","0.2","0.4","0.6","","","","","0.1975586059","0.1857646906","0.2601066631","0.4770879938","","","","","","","","76","L","3","","","228","main_expt"
"","bandit","308","746681","0.0-269.0-0.0","92757622","wem/bandit_either_2","A3AJJHOAV7WIUQ","either","1","3","","","","","","","1","0","0","0.4830225504","","0.8","0.2","0.4","0.6","","","","","0.2280604414","0.1608888173","0.2333982712","0.4830225504","","","","","","","","76","L","3","","","229","main_expt"
"","bandit","309","748292","0.0-270.0-0.0","92757622","wem/bandit_either_2","A3AJJHOAV7WIUQ","either","1","93","","","","","","","0","0","1","","0.4827210916","0.8","0.2","0.4","0.6","0.2120359748","0.1139945837","0.2179366985","0.4827210916","","","","","","","","","","","","76","L","3","","","230","main_expt"
"","bandit","310","750610","0.0-271.0-0.0","92757622","wem/bandit_either_2","A3AJJHOAV7WIUQ","either","1","801","","","","","","","0","0","1","0.4764813513","","0.8","0.2","0.4","0.6","","","","","0.2260377558","0.1071229599","0.210335649","0.4764813513","","","","","","","","76","L","3","","","231","main_expt"
"","bandit","311","752770","0.0-272.0-0.0","92757622","wem/bandit_either_2","A3AJJHOAV7WIUQ","either","1","644","","","","","","","0","0","1","0.4794978353","","0.8","0.2","0.4","0.6","","","","","0.2810037348","0.1250262501","0.2154905401","0.4794978353","","","","","","","","76","L","3","","","232","main_expt"
"","bandit","312","754837","0.0-273.0-0.0","92757622","wem/bandit_either_2","A3AJJHOAV7WIUQ","either","1","548","","","","","","","0","0","1","","0.4717583679","0.8","0.2","0.4","0.6","0.3371590923","0.1262657767","0.2199054097","0.4717583679","","","","","","","","","","","","76","L","3","","","233","main_expt"
"","bandit","313","756820","0.0-274.0-0.0","92757622","wem/bandit_either_2","A3AJJHOAV7WIUQ","either","1","464","","","","","","","0","0","1","0.4801470087","","0.8","0.2","0.4","0.6","","","","","0.2614597929","0.1436583916","0.2116885818","0.4801470087","","","","","","","","76","L","3","","","234","main_expt"
"","bandit","314","759016","0.0-275.0-0.0","92757622","wem/bandit_either_2","A3AJJHOAV7WIUQ","either","1","682","","","","","","","0","1","0","","0.4698449305","0.8","0.2","0.4","0.6","0.2855471023","0.1776605917","0.2037112673","0.4698449305","","","","","","","","","","","","76","L","3","","","235","main_expt"
"","bandit","315","760549","0.0-276.0-0.0","92757622","wem/bandit_either_2","A3AJJHOAV7WIUQ","either","1","12","","","","","","","0","0","1","0.4750890902","","0.8","0.2","0.4","0.6","","","","","0.2806831757","0.2039581082","0.2295670059","0.4750890902","","","","","","","","76","L","3","","","236","main_expt"
"","bandit","316","762340","0.0-277.0-0.0","92757622","wem/bandit_either_2","A3AJJHOAV7WIUQ","either","1","273","","","","","","","0","1","0","","0.490873849","0.8","0.2","0.4","0.6","0.3314479917","0.1898025468","0.2602584061","0.490873849","","","","","","","","","","","","76","L","3","","","237","main_expt"
"","bandit","317","763934","0.0-278.0-0.0","92757622","wem/bandit_either_2","A3AJJHOAV7WIUQ","either","1","74","","","","","","","1","0","0","0.4658125052","","0.8","0.2","0.4","0.6","","","","","0.3495093658","0.20274426","0.2505035884","0.4658125052","","","","","","","","76","L","3","","","238","main_expt"
"","bandit","318","765645","0.0-279.0-0.0","92757622","wem/bandit_either_2","A3AJJHOAV7WIUQ","either","1","189","","","","","","","0","0","1","0.4717810478","","0.8","0.2","0.4","0.6","","","","","0.3413466471","0.2051086292","0.209031891","0.4717810478","","","","","","","","76","L","3","","","239","main_expt"
"","bandit","319","767495","0.0-280.0-0.0","92757622","wem/bandit_either_2","A3AJJHOAV7WIUQ","either","1","335","","","","","","","0","0","1","0.4751676635","","0.8","0.2","0.4","0.6","","","","","0.3848911707","0.1823871945","0.2203826704","0.4751676635","","","","","","","","76","L","3","","","240","main_expt"
"","bandit","320","769096","0.0-281.0-0.0","92757622","wem/bandit_either_2","A3AJJHOAV7WIUQ","either","1","86","","","","","","","1","0","0","0.4782176083","","0.8","0.2","0.4","0.6","","","","","0.3352713547","0.2206124516","0.2502218434","0.4782176083","","","","","","","","76","L","3","","","241","main_expt"
"","bandit","321","770614","0.0-282.0-0.0","92757622","wem/bandit_either_2","A3AJJHOAV7WIUQ","either","1","2","","","","","","","1","0","0","0.4842593171","","0.8","0.2","0.4","0.6","","","","","0.3898112853","0.1822231347","0.2465850657","0.4842593171","","","","","","","","76","L","3","","","242","main_expt"
"","bandit","322","772228","0.0-283.0-0.0","92757622","wem/bandit_either_2","A3AJJHOAV7WIUQ","either","1","95","","","","","","","1","0","0","0.4877308522","","0.8","0.2","0.4","0.6","","","","","0.3746092993","0.1782216913","0.2768687636","0.4877308522","","","","","","","","76","L","3","","","243","main_expt"
"","bandit","323","774286","0.0-284.0-0.0","92757622","wem/bandit_either_2","A3AJJHOAV7WIUQ","either","1","547","","","","","","","1","0","0","0.4867000748","","0.8","0.2","0.4","0.6","","","","","0.3551642001","0.1683297066","0.3318130554","0.4867000748","","","","","","","","76","L","3","","","244","main_expt"
"","bandit","324","777011","0.0-285.0-0.0","92757622","wem/bandit_either_2","A3AJJHOAV7WIUQ","either","1","1206","","","","","","","0","1","0","","0.4779689664","0.8","0.2","0.4","0.6","0.3556023966","0.2394915997","0.3549389872","0.4779689664","","","","","","","","","","","","76","L","3","","","245","main_expt"
"","bandit","325","778677","0.0-286.0-0.0","92757622","wem/bandit_either_2","A3AJJHOAV7WIUQ","either","1","146","","","","","","","0","0","1","","0.4691428495","0.8","0.2","0.4","0.6","0.3265039954","0.2279590519","0.333301522","0.4691428495","","","","","","","","","","","","76","L","3","","","246","main_expt"
"","bandit","326","780254","0.0-287.0-0.0","92757622","wem/bandit_either_2","A3AJJHOAV7WIUQ","either","1","56","","","","","","","0","0","1","0.4726686318","","0.8","0.2","0.4","0.6","","","","","0.2868106963","0.2464238951","0.3514606933","0.4726686318","","","","","","","","76","L","3","","","247","main_expt"
"","bandit","327","782284","0.0-288.0-0.0","92757622","wem/bandit_either_2","A3AJJHOAV7WIUQ","either","1","511","","","","","","","0","0","1","0.4803067915","","0.8","0.2","0.4","0.6","","","","","0.3185934195","0.2743013104","0.3714826816","0.4803067915","","","","","","","","76","L","3","","","248","main_expt"
"","bandit","328","784301","0.0-289.0-0.0","92757622","wem/bandit_either_2","A3AJJHOAV7WIUQ","either","1","497","","","","","","","0","0","1","0.4711679289","","0.8","0.2","0.4","0.6","","","","","0.358181829","0.265015958","0.386783615","0.4711679289","","","","","","","","76","L","3","","","249","main_expt"