"consent","trial_type","trial_index","time_elapsed","internal_node_id","subjID","study","MID","cond","drift","rt","responses","key_press","expt_phase","like","value","connected","gems","bombs","no_reward","GemPrChosen","BombPrChosen","GainOverPainPr_0","GainOverPainPr_1","GainOverPainPr_2","GainOverPainPr_3","LosePr_0","LosePr_1","LosePr_2","LosePr_3","WinPr_0","WinPr_1","WinPr_2","WinPr_3","Q0","Q1","Q2","gender","age","ethnicity","target","respCharCode","respKey","respChoiceNum","respChoice","practice","trial_counter","trial_label"
"INL_behavioral_consent_30min_online.html","consent","0","22258","0.0-0.0","95922792","wem/bandit_either_2","A2QUQ0S2F6K3QJ","either","1","","","","","","","","","","","","","","","","","","","","","","","","","","","","","","","","","","","","","",""
"","survey-text","1","30416","0.0-1.0","95922792","wem/bandit_either_2","A2QUQ0S2F6K3QJ","either","1","7150","{""Q0"":""A2QUQ0S2F6K3QJ""}","","","","","","","","","","","","","","","","","","","","","","","","","","","","","","","","","","","",""
"","text","2","40882","0.0-2.0","95922792","wem/bandit_either_2","A2QUQ0S2F6K3QJ","either","1","9463","","32","","","","","","","","","","","","","","","","","","","","","","","","","","","","","","","","","","",""
"","text","3","63859","0.0-3.0","95922792","wem/bandit_either_2","A2QUQ0S2F6K3QJ","either","1","22975","","32","","","","","","","","","","","","","","","","","","","","","","","","","","","","","","","","","","",""
"","text","4","91067","0.0-4.0","95922792","wem/bandit_either_2","A2QUQ0S2F6K3QJ","either","1","27207","","32","","","","","","","","","","","","","","","","","","","","","","","","","","","","","","","","","","",""
"","text","5","108076","0.0-5.0","95922792","wem/bandit_either_2","A2QUQ0S2F6K3QJ","either","1","17008","","32","","","","","","","","","","","","","","","","","","","","","","","","","","","","","","","","","","",""
"","text","6","122476","0.0-6.0","95922792","wem/bandit_either_2","A2QUQ0S2F6K3QJ","either","1","14399","","32","","","","","","","","","","","","","","","","","","","","","","","","","","","","","","","","","","",""
"","text","7","129036","0.0-7.0","95922792","wem/bandit_either_2","A2QUQ0S2F6K3QJ","either","1","6558","","32","","","","","","","","","","","","","","","","","","","","","","","","","","","","","","","","","","",""
"","text","8","135668","0.0-8.0","95922792","wem/bandit_either_2","A2QUQ0S2F6K3QJ","either","1","6631","","32","","","","","","","","","","","","","","","","","","","","","","","","","","","","","","","","","","",""
"","identification","9","144913","0.0-9.0-0.0","95922792","wem/bandit_either_2","A2QUQ0S2F6K3QJ","either","1","9230","","","","3","3","2","","","","","","","","","","","","","","","","","","","","","","","","the village of Zur","","","","","","",""
"","identification","10","151992","0.0-9.0-1.0","95922792","wem/bandit_either_2","A2QUQ0S2F6K3QJ","either","1","6065","","","","1","1","2","","","","","","","","","","","","","","","","","","","","","","","","the village of Nyx","","","","","","",""
"","text","11","158468","0.0-10.0","95922792","wem/bandit_either_2","A2QUQ0S2F6K3QJ","either","1","5474","","32","","","","","","","","","","","","","","","","","","","","","","","","","","","","","","","","","","",""
"","text","12","161268","0.0-11.0","95922792","wem/bandit_either_2","A2QUQ0S2F6K3QJ","either","1","2799","","32","","","","","","","","","","","","","","","","","","","","","","","","","","","","","","","","","","",""
"","text","13","164852","0.0-12.0","95922792","wem/bandit_either_2","A2QUQ0S2F6K3QJ","either","1","3583","","32","","","","","","","","","","","","","","","","","","","","","","","","","","","","","","","","","","",""
"","text","14","169620","0.0-13.0","95922792","wem/bandit_either_2","A2QUQ0S2F6K3QJ","either","1","4767","","32","","","","","","","","","","","","","","","","","","","","","","","","","","","","","","","","","","",""
"","bandit","15","174204","0.0-14.0-0.0","95922792","wem/bandit_either_2","A2QUQ0S2F6K3QJ","either","1","3077","","","","","","","0","0","1","0","0","","","","","0","","","","0","","","","","","","","","","","74","J","0","img/none_selected_demo.jpg","true","0",""
"","bandit","16","178218","0.0-15.0-0.0","95922792","wem/bandit_either_2","A2QUQ0S2F6K3QJ","either","1","2510","","","","","","","0","0","1","0","0","","","","","0","","","","0","","","","","","","","","","","75","K","0","img/none_selected_demo.jpg","true","0",""
"","text","17","192342","0.0-16.0","95922792","wem/bandit_either_2","A2QUQ0S2F6K3QJ","either","1","14123","","32","","","","","","","","","","","","","","","","","","","","","","","","","","","","","","","","","","",""
"","text","18","215880","0.0-17.0","95922792","wem/bandit_either_2","A2QUQ0S2F6K3QJ","either","1","23536","","32","","","","","","","","","","","","","","","","","","","","","","","","","","","","","","","","","","",""
"","text","19","223615","0.0-18.0","95922792","wem/bandit_either_2","A2QUQ0S2F6K3QJ","either","1","7732","","32","","","","","","","","","","","","","","","","","","","","","","","","","","","","","","","","","","",""
"","text","20","227495","0.0-19.0","95922792","wem/bandit_either_2","A2QUQ0S2F6K3QJ","either","1","3879","","32","","","","","","","","","","","","","","","","","","","","","","","","","","","","","","","","","","",""
"","bandit","21","231077","0.0-20.0-0.0","95922792","wem/bandit_either_2","A2QUQ0S2F6K3QJ","either","1","2077","","","","","","","0","1","0","","0.8","0.5","0.5","","","0.8","0.2","","","","","","","","","","","","","","74","J","0","img/none_selected_demo.jpg","true","0","80_20_practice"
"","bandit","22","233509","0.0-20.0-1.0","95922792","wem/bandit_either_2","A2QUQ0S2F6K3QJ","either","1","928","","","","","","","1","0","0","0.8","","0.5","0.5","","","","","","","0.8","0.2","","","","","","","","","","74","J","0","img/none_selected_demo.jpg","true","0","80_20_practice"
"","bandit","23","235358","0.0-20.0-2.0","95922792","wem/bandit_either_2","A2QUQ0S2F6K3QJ","either","1","344","","","","","","","1","0","0","0.8","","0.5","0.5","","","","","","","0.8","0.2","","","","","","","","","","74","J","0","img/none_selected_demo.jpg","true","0","80_20_practice"
"","bandit","24","237606","0.0-20.0-3.0","95922792","wem/bandit_either_2","A2QUQ0S2F6K3QJ","either","1","743","","","","","","","1","0","0","0.8","","0.5","0.5","","","","","","","0.8","0.2","","","","","","","","","","74","J","0","img/none_selected_demo.jpg","true","0","80_20_practice"
"","bandit","25","239670","0.0-20.0-4.0","95922792","wem/bandit_either_2","A2QUQ0S2F6K3QJ","either","1","559","","","","","","","1","0","0","0.8","","0.5","0.5","","","","","","","0.8","0.2","","","","","","","","","","74","J","0","img/none_selected_demo.jpg","true","0","80_20_practice"
"","bandit","26","241381","0.0-20.0-5.0","95922792","wem/bandit_either_2","A2QUQ0S2F6K3QJ","either","1","207","","","","","","","0","0","1","0.2","","0.5","0.5","","","","","","","0.8","0.2","","","","","","","","","","75","K","1","","true","0","80_20_practice"
"","bandit","27","243173","0.0-20.0-6.0","95922792","wem/bandit_either_2","A2QUQ0S2F6K3QJ","either","1","288","","","","","","","0","0","1","","0.2","0.5","0.5","","","0.8","0.2","","","","","","","","","","","","","","75","K","1","","true","0","80_20_practice"
"","bandit","28","244973","0.0-20.0-7.0","95922792","wem/bandit_either_2","A2QUQ0S2F6K3QJ","either","1","296","","","","","","","0","1","0","","0.8","0.5","0.5","","","0.8","0.2","","","","","","","","","","","","","","74","J","0","img/none_selected_demo.jpg","true","0","80_20_practice"
"","bandit","29","246701","0.0-20.0-8.0","95922792","wem/bandit_either_2","A2QUQ0S2F6K3QJ","either","1","222","","","","","","","1","0","0","0.8","","0.5","0.5","","","","","","","0.8","0.2","","","","","","","","","","74","J","0","img/none_selected_demo.jpg","true","0","80_20_practice"
"","bandit","30","248381","0.0-20.0-9.0","95922792","wem/bandit_either_2","A2QUQ0S2F6K3QJ","either","1","176","","","","","","","0","1","0","","0.8","0.5","0.5","","","0.8","0.2","","","","","","","","","","","","","","74","J","0","img/none_selected_demo.jpg","true","0","80_20_practice"
"","bandit","31","250103","0.0-20.0-10.0","95922792","wem/bandit_either_2","A2QUQ0S2F6K3QJ","either","1","216","","","","","","","0","0","1","0.2","","0.5","0.5","","","","","","","0.8","0.2","","","","","","","","","","75","K","1","","true","0","80_20_practice"
"","bandit","32","251950","0.0-20.0-11.0","95922792","wem/bandit_either_2","A2QUQ0S2F6K3QJ","either","1","342","","","","","","","1","0","0","0.8","","0.5","0.5","","","","","","","0.8","0.2","","","","","","","","","","74","J","0","img/none_selected_demo.jpg","true","0","80_20_practice"
"","bandit","33","254006","0.0-20.0-12.0","95922792","wem/bandit_either_2","A2QUQ0S2F6K3QJ","either","1","551","","","","","","","1","0","0","0.8","","0.5","0.5","","","","","","","0.8","0.2","","","","","","","","","","74","J","0","img/none_selected_demo.jpg","true","0","80_20_practice"
"","bandit","34","256598","0.0-20.0-13.0","95922792","wem/bandit_either_2","A2QUQ0S2F6K3QJ","either","1","1086","","","","","","","0","0","1","","0.8","0.5","0.5","","","0.8","0.2","","","","","","","","","","","","","","74","J","0","img/none_selected_demo.jpg","true","0","80_20_practice"
"","bandit","35","258702","0.0-20.0-14.0","95922792","wem/bandit_either_2","A2QUQ0S2F6K3QJ","either","1","598","","","","","","","0","0","1","","0.2","0.5","0.5","","","0.8","0.2","","","","","","","","","","","","","","75","K","1","","true","0","80_20_practice"
"","bandit","36","260400","0.0-20.0-15.0","95922792","wem/bandit_either_2","A2QUQ0S2F6K3QJ","either","1","190","","","","","","","0","1","0","","0.8","0.5","0.5","","","0.8","0.2","","","","","","","","","","","","","","74","J","0","img/none_selected_demo.jpg","true","0","80_20_practice"
"","bandit","37","262190","0.0-20.0-16.0","95922792","wem/bandit_either_2","A2QUQ0S2F6K3QJ","either","1","285","","","","","","","0","1","0","","0.8","0.5","0.5","","","0.8","0.2","","","","","","","","","","","","","","74","J","0","img/none_selected_demo.jpg","true","0","80_20_practice"
"","bandit","38","263926","0.0-20.0-17.0","95922792","wem/bandit_either_2","A2QUQ0S2F6K3QJ","either","1","230","","","","","","","0","1","0","","0.8","0.5","0.5","","","0.8","0.2","","","","","","","","","","","","","","74","J","0","img/none_selected_demo.jpg","true","0","80_20_practice"
"","bandit","39","265782","0.0-20.0-18.0","95922792","wem/bandit_either_2","A2QUQ0S2F6K3QJ","either","1","351","","","","","","","0","1","0","","0.8","0.5","0.5","","","0.8","0.2","","","","","","","","","","","","","","74","J","0","img/none_selected_demo.jpg","true","0","80_20_practice"
"","bandit","40","267599","0.0-20.0-19.0","95922792","wem/bandit_either_2","A2QUQ0S2F6K3QJ","either","1","311","","","","","","","0","1","0","","0.8","0.5","0.5","","","0.8","0.2","","","","","","","","","","","","","","74","J","0","img/none_selected_demo.jpg","true","0","80_20_practice"
"","text","41","271281","0.0-21.0","95922792","wem/bandit_either_2","A2QUQ0S2F6K3QJ","either","1","3680","","32","","","","","","","","","","","","","","","","","","","","","","","","","","","","","","","","","","",""
"","bandit","42","273454","0.0-22.0-0.0","95922792","wem/bandit_either_2","A2QUQ0S2F6K3QJ","either","1","669","","","","","","","1","0","0","1","0","","","","","0","1","","","1","0","","","","","","","","","","74","J","0","img/none_selected_demo.jpg","true","0",""
"","text","43","281160","0.0-23.0","95922792","wem/bandit_either_2","A2QUQ0S2F6K3QJ","either","1","7704","","32","","","","","","","","","","","","","","","","","","","","","","","","","","","","","","","","","","",""
"","text","44","284418","0.0-24.0","95922792","wem/bandit_either_2","A2QUQ0S2F6K3QJ","either","1","3256","","32","","","","","","","","","","","","","","","","","","","","","","","","","","","","","","","","","","",""
"","text","45","286449","0.0-25.0","95922792","wem/bandit_either_2","A2QUQ0S2F6K3QJ","either","1","2030","","32","","","","","","","","","","","","","","","","","","","","","","","","","","","","","","","","","","",""
"","text","46","289713","0.0-26.0","95922792","wem/bandit_either_2","A2QUQ0S2F6K3QJ","either","1","3263","","32","","","","","","","","","","","","","","","","","","","","","","","","","","","","","","","","","","",""
"","text","47","293145","0.0-27.0","95922792","wem/bandit_either_2","A2QUQ0S2F6K3QJ","either","1","3431","","32","","","","","","","","","","","","","","","","","","","","","","","","","","","","","","","","","","",""
"","text","48","297194","0.0-28.0","95922792","wem/bandit_either_2","A2QUQ0S2F6K3QJ","either","1","4047","","32","","","","","","","","","","","","","","","","","","","","","","","","","","","","","","","","","","",""
"","text","49","300953","0.0-29.0","95922792","wem/bandit_either_2","A2QUQ0S2F6K3QJ","either","1","3757","","32","","","","","","","","","","","","","","","","","","","","","","","","","","","","","","","","","","",""
"","text","50","304154","0.0-30.0","95922792","wem/bandit_either_2","A2QUQ0S2F6K3QJ","either","1","3199","","32","","","","","","","","","","","","","","","","","","","","","","","","","","","","","","","","","","",""
"","text","51","306762","0.0-31.0","95922792","wem/bandit_either_2","A2QUQ0S2F6K3QJ","either","1","2606","","32","","","","","","","","","","","","","","","","","","","","","","","","","","","","","","","","","","",""
"","text","52","307834","0.0-32.0","95922792","wem/bandit_either_2","A2QUQ0S2F6K3QJ","either","1","1071","","32","","","","","","","","","","","","","","","","","","","","","","","","","","","","","","","","","","",""
"","text","53","312610","0.0-33.0","95922792","wem/bandit_either_2","A2QUQ0S2F6K3QJ","either","1","4773","","32","","","","","","","","","","","","","","","","","","","","","","","","","","","","","","","","","","",""
"","bandit","54","314969","0.0-34.0-0.0","95922792","wem/bandit_either_2","A2QUQ0S2F6K3QJ","either","1","853","","","","","","","0","1","0","","0.8","0.5","0.5","0.5","0.5","0.8","0.2","0.6","0.2","","","","","","","","","","","","72","H","0","img/none_selected.jpg","true","0","full_practice"
"","bandit","55","316679","0.0-34.0-1.0","95922792","wem/bandit_either_2","A2QUQ0S2F6K3QJ","either","1","205","","","","","","","1","0","0","0.8","","0.5","0.5","0.5","0.5","","","","","0.8","0.2","0.6","0.2","","","","","","","","72","H","0","img/none_selected.jpg","true","0","full_practice"
"","bandit","56","318407","0.0-34.0-2.0","95922792","wem/bandit_either_2","A2QUQ0S2F6K3QJ","either","1","223","","","","","","","0","1","0","","0.8","0.5","0.5","0.5","0.5","0.8","0.2","0.6","0.2","","","","","","","","","","","","72","H","0","img/none_selected.jpg","true","0","full_practice"
"","bandit","57","320145","0.0-34.0-3.0","95922792","wem/bandit_either_2","A2QUQ0S2F6K3QJ","either","1","231","","","","","","","0","1","0","","0.8","0.5","0.5","0.5","0.5","0.8","0.2","0.6","0.2","","","","","","","","","","","","72","H","0","img/none_selected.jpg","true","0","full_practice"
"","bandit","58","321928","0.0-34.0-4.0","95922792","wem/bandit_either_2","A2QUQ0S2F6K3QJ","either","1","278","","","","","","","0","0","1","","0.8","0.5","0.5","0.5","0.5","0.8","0.2","0.6","0.2","","","","","","","","","","","","72","H","0","img/none_selected.jpg","true","0","full_practice"
"","bandit","59","323440","0.0-34.0-5.0","95922792","wem/bandit_either_2","A2QUQ0S2F6K3QJ","either","1","7","","","","","","","1","0","0","0.2","","0.5","0.5","0.5","0.5","","","","","0.8","0.2","0.6","0.2","","","","","","","","74","J","1","","true","0","full_practice"
"","bandit","60","324976","0.0-34.0-6.0","95922792","wem/bandit_either_2","A2QUQ0S2F6K3QJ","either","1","31","","","","","","","0","0","1","0.2","","0.5","0.5","0.5","0.5","","","","","0.8","0.2","0.6","0.2","","","","","","","","74","J","1","","true","0","full_practice"
"","bandit","61","326498","0.0-34.0-7.0","95922792","wem/bandit_either_2","A2QUQ0S2F6K3QJ","either","1","15","","","","","","","0","0","1","","0.6","0.5","0.5","0.5","0.5","0.8","0.2","0.6","0.2","","","","","","","","","","","","75","K","2","","true","0","full_practice"
"","bandit","62","328088","0.0-34.0-8.0","95922792","wem/bandit_either_2","A2QUQ0S2F6K3QJ","either","1","85","","","","","","","1","0","0","0.6","","0.5","0.5","0.5","0.5","","","","","0.8","0.2","0.6","0.2","","","","","","","","75","K","2","","true","0","full_practice"
"","bandit","63","329841","0.0-34.0-9.0","95922792","wem/bandit_either_2","A2QUQ0S2F6K3QJ","either","1","247","","","","","","","0","1","0","","0.6","0.5","0.5","0.5","0.5","0.8","0.2","0.6","0.2","","","","","","","","","","","","75","K","2","","true","0","full_practice"
"","bandit","64","331601","0.0-34.0-10.0","95922792","wem/bandit_either_2","A2QUQ0S2F6K3QJ","either","1","255","","","","","","","1","0","0","0.6","","0.5","0.5","0.5","0.5","","","","","0.8","0.2","0.6","0.2","","","","","","","","75","K","2","","true","0","full_practice"
"","bandit","65","333968","0.0-34.0-11.0","95922792","wem/bandit_either_2","A2QUQ0S2F6K3QJ","either","1","861","","","","","","","0","0","1","0.6","","0.5","0.5","0.5","0.5","","","","","0.8","0.2","0.6","0.2","","","","","","","","75","K","2","","true","0","full_practice"
"","bandit","66","337201","0.0-34.0-12.0","95922792","wem/bandit_either_2","A2QUQ0S2F6K3QJ","either","1","1726","","","","","","","0","0","1","0.2","","0.5","0.5","0.5","0.5","","","","","0.8","0.2","0.6","0.2","","","","","","","","76","L","3","","true","0","full_practice"
"","bandit","67","339025","0.0-34.0-13.0","95922792","wem/bandit_either_2","A2QUQ0S2F6K3QJ","either","1","317","","","","","","","0","0","1","","0.2","0.5","0.5","0.5","0.5","0.8","0.2","0.6","0.2","","","","","","","","","","","","76","L","3","","true","0","full_practice"
"","bandit","68","340746","0.0-34.0-14.0","95922792","wem/bandit_either_2","A2QUQ0S2F6K3QJ","either","1","214","","","","","","","0","0","1","0.2","","0.5","0.5","0.5","0.5","","","","","0.8","0.2","0.6","0.2","","","","","","","","76","L","3","","true","0","full_practice"
"","bandit","69","342721","0.0-34.0-15.0","95922792","wem/bandit_either_2","A2QUQ0S2F6K3QJ","either","1","470","","","","","","","0","0","1","","0.2","0.5","0.5","0.5","0.5","0.8","0.2","0.6","0.2","","","","","","","","","","","","76","L","3","","true","0","full_practice"
"","bandit","70","344433","0.0-34.0-16.0","95922792","wem/bandit_either_2","A2QUQ0S2F6K3QJ","either","1","206","","","","","","","1","0","0","0.8","","0.5","0.5","0.5","0.5","","","","","0.8","0.2","0.6","0.2","","","","","","","","72","H","0","img/none_selected.jpg","true","0","full_practice"
"","bandit","71","346161","0.0-34.0-17.0","95922792","wem/bandit_either_2","A2QUQ0S2F6K3QJ","either","1","222","","","","","","","0","0","1","0.8","","0.5","0.5","0.5","0.5","","","","","0.8","0.2","0.6","0.2","","","","","","","","72","H","0","img/none_selected.jpg","true","0","full_practice"
"","bandit","72","348049","0.0-34.0-18.0","95922792","wem/bandit_either_2","A2QUQ0S2F6K3QJ","either","1","381","","","","","","","0","0","1","0.8","","0.5","0.5","0.5","0.5","","","","","0.8","0.2","0.6","0.2","","","","","","","","72","H","0","img/none_selected.jpg","true","0","full_practice"
"","bandit","73","350288","0.0-34.0-19.0","95922792","wem/bandit_either_2","A2QUQ0S2F6K3QJ","either","1","734","","","","","","","1","0","0","0.8","","0.5","0.5","0.5","0.5","","","","","0.8","0.2","0.6","0.2","","","","","","","","72","H","0","img/none_selected.jpg","true","0","full_practice"
"","text","74","373812","0.0-35.0","95922792","wem/bandit_either_2","A2QUQ0S2F6K3QJ","either","1","23518","","32","","","","","","","","","","","","","","","","","","","","","","","","","","","","","","","","","","",""
"","text","75","384515","0.0-36.0","95922792","wem/bandit_either_2","A2QUQ0S2F6K3QJ","either","1","9701","","32","","","","","","","","","","","","","","","","","","","","","","","","","","","","","","","","","","",""
"","text","76","385011","0.0-37.0","95922792","wem/bandit_either_2","A2QUQ0S2F6K3QJ","either","1","493","","32","","","","","","","","","","","","","","","","","","","","","","","","","","","","","","","","","","",""
"","text","77","385923","0.0-38.0","95922792","wem/bandit_either_2","A2QUQ0S2F6K3QJ","either","1","910","","32","","","","","","","","","","","","","","","","","","","","","","","","","","","","","","","","","","",""
"","text","78","386763","0.0-39.0","95922792","wem/bandit_either_2","A2QUQ0S2F6K3QJ","either","1","837","","32","","","","","","","","","","","","","","","","","","","","","","","","","","","","","","","","","","",""
"","text","79","489696","0.0-40.0","95922792","wem/bandit_either_2","A2QUQ0S2F6K3QJ","either","1","102931","","32","","","","","","","","","","","","","","","","","","","","","","","","","","","","","","","","","","",""
"","bandit","80","498254","0.0-41.0-0.0","95922792","wem/bandit_either_2","A2QUQ0S2F6K3QJ","either","1","7052","","","","","","","0","0","1","","0.3592836462","0.6","0.4","0.2","0.8","0.3592836462","0.0798457429","0.02943109976","0.4269289603","","","","","","","","","","","","72","H","0","img/none_selected.jpg","","1","main_expt"
"","bandit","81","500046","0.0-42.0-0.0","95922792","wem/bandit_either_2","A2QUQ0S2F6K3QJ","either","1","286","","","","","","","0","0","1","","0.3454903542","0.6","0.4","0.2","0.8","0.3454903542","0.07621336767","0.06336112212","0.4660243271","","","","","","","","","","","","72","H","0","img/none_selected.jpg","","2","main_expt"
"","bandit","82","501966","0.0-43.0-0.0","95922792","wem/bandit_either_2","A2QUQ0S2F6K3QJ","either","1","414","","","","","","","0","0","1","0.2941512374","","0.6","0.4","0.2","0.8","","","","","0.2941512374","0.07476295528","0.07335687118","0.4738503749","","","","","","","","72","H","0","img/none_selected.jpg","","3","main_expt"
"","bandit","83","503958","0.0-44.0-0.0","95922792","wem/bandit_either_2","A2QUQ0S2F6K3QJ","either","1","486","","","","","","","0","0","1","","0.06526985361","0.6","0.4","0.2","0.8","0.2851241965","0.06526985361","0.06156305515","0.4618500418","","","","","","","","","","","","74","J","1","","","4","main_expt"
"","bandit","84","505798","0.0-45.0-0.0","95922792","wem/bandit_either_2","A2QUQ0S2F6K3QJ","either","1","334","","","","","","","1","0","0","0.08141194251","","0.6","0.4","0.2","0.8","","","","","0.3172925843","0.05487735528","0.08141194251","0.4488935273","","","","","","","","75","K","2","","","5","main_expt"
"","bandit","85","507534","0.0-46.0-0.0","95922792","wem/bandit_either_2","A2QUQ0S2F6K3QJ","either","1","230","","","","","","","0","0","1","0.1104821702","","0.6","0.4","0.2","0.8","","","","","0.3319153021","0.04340015571","0.1104821702","0.4437832297","","","","","","","","75","K","2","","","6","main_expt"
"","bandit","86","509278","0.0-47.0-0.0","95922792","wem/bandit_either_2","A2QUQ0S2F6K3QJ","either","1","237","","","","","","","0","0","1","","0.1191408541","0.6","0.4","0.2","0.8","0.3553039772","0.04575060371","0.1191408541","0.4310077805","","","","","","","","","","","","75","K","2","","","7","main_expt"
"","bandit","87","511053","0.0-48.0-0.0","95922792","wem/bandit_either_2","A2QUQ0S2F6K3QJ","either","1","270","","","","","","","0","0","1","0.4480386191","","0.6","0.4","0.2","0.8","","","","","0.3868093767","0.06112087539","0.1517570037","0.4480386191","","","","","","","","76","L","3","","","8","main_expt"
"","bandit","88","512759","0.0-49.0-0.0","95922792","wem/bandit_either_2","A2QUQ0S2F6K3QJ","either","1","200","","","","","","","1","0","0","0.4460224538","","0.6","0.4","0.2","0.8","","","","","0.3754406694","0.07854191076","0.1738087075","0.4460224538","","","","","","","","76","L","3","","","9","main_expt"
"","bandit","89","514534","0.0-50.0-0.0","95922792","wem/bandit_either_2","A2QUQ0S2F6K3QJ","either","1","269","","","","","","","0","0","1","0.3954493452","","0.6","0.4","0.2","0.8","","","","","0.3537433427","0.06865483858","0.2033535465","0.3954493452","","","","","","","","76","L","3","","","10","main_expt"
"","bandit","90","516286","0.0-51.0-0.0","95922792","wem/bandit_either_2","A2QUQ0S2F6K3QJ","either","1","247","","","","","","","1","0","0","0.4064238371","","0.6","0.4","0.2","0.8","","","","","0.3793358735","0.05083805298","0.1751631116","0.4064238371","","","","","","","","76","L","3","","","11","main_expt"
"","bandit","91","518438","0.0-52.0-0.0","95922792","wem/bandit_either_2","A2QUQ0S2F6K3QJ","either","1","646","","","","","","","0","0","1","0.3800839449","","0.6","0.4","0.2","0.8","","","","","0.3800428212","0.1038792476","0.1787487179","0.3800839449","","","","","","","","76","L","3","","","12","main_expt"
"","bandit","92","520247","0.0-53.0-0.0","95922792","wem/bandit_either_2","A2QUQ0S2F6K3QJ","either","1","302","","","","","","","0","0","1","0.3866628193","","0.6","0.4","0.2","0.8","","","","","0.3647981021","0.1197284353","0.1794712961","0.3866628193","","","","","","","","76","L","3","","","13","main_expt"
"","bandit","93","522326","0.0-54.0-0.0","95922792","wem/bandit_either_2","A2QUQ0S2F6K3QJ","either","1","573","","","","","","","0","0","1","","0.2482140722","0.6","0.4","0.2","0.8","0.3646471907","0.135681701","0.2482140722","0.326509825","","","","","","","","","","","","75","K","2","","","14","main_expt"
"","bandit","94","524087","0.0-55.0-0.0","95922792","wem/bandit_either_2","A2QUQ0S2F6K3QJ","either","1","255","","","","","","","0","0","1","","0.2859415589","0.6","0.4","0.2","0.8","0.3549291363","0.125153919","0.2859415589","0.2428529647","","","","","","","","","","","","75","K","2","","","15","main_expt"
"","bandit","95","525790","0.0-56.0-0.0","95922792","wem/bandit_either_2","A2QUQ0S2F6K3QJ","either","1","198","","","","","","","0","0","1","","0.1096891688","0.6","0.4","0.2","0.8","0.3727350689","0.1096891688","0.26587149","0.2332962783","","","","","","","","","","","","74","J","1","","","16","main_expt"
"","bandit","96","527438","0.0-57.0-0.0","95922792","wem/bandit_either_2","A2QUQ0S2F6K3QJ","either","1","142","","","","","","","0","0","1","0.3112083829","","0.6","0.4","0.2","0.8","","","","","0.3112083829","0.1051581447","0.2776265896","0.2271032234","","","","","","","","72","H","0","img/none_selected.jpg","","17","main_expt"
"","bandit","97","529143","0.0-58.0-0.0","95922792","wem/bandit_either_2","A2QUQ0S2F6K3QJ","either","1","198","","","","","","","0","0","1","","0.1701710303","0.6","0.4","0.2","0.8","0.2403081055","0.1437943492","0.3223387563","0.1701710303","","","","","","","","","","","","76","L","3","","","18","main_expt"
"","bandit","98","530927","0.0-59.0-0.0","95922792","wem/bandit_either_2","A2QUQ0S2F6K3QJ","either","1","279","","","","","","","0","0","1","0.2070198111","","0.6","0.4","0.2","0.8","","","","","0.2377482675","0.1405615485","0.3192918255","0.2070198111","","","","","","","","76","L","3","","","19","main_expt"
"","bandit","99","532751","0.0-60.0-0.0","95922792","wem/bandit_either_2","A2QUQ0S2F6K3QJ","either","1","317","","","","","","","0","0","1","","0.2739159796","0.6","0.4","0.2","0.8","0.2607530295","0.1063334751","0.2739159796","0.2412547966","","","","","","","","","","","","75","K","2","","","20","main_expt"
"","bandit","100","534528","0.0-61.0-0.0","95922792","wem/bandit_either_2","A2QUQ0S2F6K3QJ","either","1","271","","","","","","","0","0","1","0.2184758186","","0.6","0.4","0.2","0.8","","","","","0.2919400674","0.07848250716","0.2454385858","0.2184758186","","","","","","","","76","L","3","","","21","main_expt"
"","bandit","101","536279","0.0-62.0-0.0","95922792","wem/bandit_either_2","A2QUQ0S2F6K3QJ","either","1","245","","","","","","","0","0","1","","0.2340842041","0.6","0.4","0.2","0.8","0.2995681058","0.1005082742","0.2340842041","0.1849325376","","","","","","","","","","","","75","K","2","","","22","main_expt"
"","bandit","102","538319","0.0-63.0-0.0","95922792","wem/bandit_either_2","A2QUQ0S2F6K3QJ","either","1","533","","","","","","","0","0","1","","0.1840173947","0.6","0.4","0.2","0.8","0.292554742","0.0792694407","0.1840173947","0.1521197653","","","","","","","","","","","","75","K","2","","","23","main_expt"
"","bandit","103","540143","0.0-64.0-0.0","95922792","wem/bandit_either_2","A2QUQ0S2F6K3QJ","either","1","317","","","","","","","0","1","0","","0.1745529383","0.6","0.4","0.2","0.8","0.3616894364","0.07358699385","0.1745529383","0.1759403195","","","","","","","","","","","","75","K","2","","","24","main_expt"
"","bandit","104","541879","0.0-65.0-0.0","95922792","wem/bandit_either_2","A2QUQ0S2F6K3QJ","either","1","229","","","","","","","0","0","1","","0.1756582033","0.6","0.4","0.2","0.8","0.3575757263","0.142208116","0.1756582033","0.09479311865","","","","","","","","","","","","75","K","2","","","25","main_expt"
"","bandit","105","543671","0.0-66.0-0.0","95922792","wem/bandit_either_2","A2QUQ0S2F6K3QJ","either","1","285","","","","","","","0","0","1","0.08156123497","","0.6","0.4","0.2","0.8","","","","","0.3635346368","0.1245113583","0.2086365416","0.08156123497","","","","","","","","76","L","3","","","26","main_expt"
"","bandit","106","545431","0.0-67.0-0.0","95922792","wem/bandit_either_2","A2QUQ0S2F6K3QJ","either","1","255","","","","","","","0","0","1","0.1102307873","","0.6","0.4","0.2","0.8","","","","","0.4109801844","0.118364605","0.2139763749","0.1102307873","","","","","","","","76","L","3","","","27","main_expt"
"","bandit","107","547496","0.0-68.0-0.0","95922792","wem/bandit_either_2","A2QUQ0S2F6K3QJ","either","1","557","","","","","","","0","0","1","0.1105930361","","0.6","0.4","0.2","0.8","","","","","0.3772962545","0.1105930361","0.1613483267","0.08274430796","","","","","","","","74","J","1","","","28","main_expt"
"","bandit","108","549120","0.0-69.0-0.0","95922792","wem/bandit_either_2","A2QUQ0S2F6K3QJ","either","1","116","","","","","","","0","1","0","","0.3875745016","0.6","0.4","0.2","0.8","0.3875745016","0.1118713044","0.1712488152","0.1086911099","","","","","","","","","","","","72","H","0","img/none_selected.jpg","","29","main_expt"
"","bandit","109","550847","0.0-70.0-0.0","95922792","wem/bandit_either_2","A2QUQ0S2F6K3QJ","either","1","221","","","","","","","0","0","1","0.3780019893","","0.6","0.4","0.2","0.8","","","","","0.3780019893","0.1914750456","0.1675524316","0.1116575632","","","","","","","","72","H","0","img/none_selected.jpg","","30","main_expt"
"","bandit","110","552639","0.0-71.0-0.0","95922792","wem/bandit_either_2","A2QUQ0S2F6K3QJ","either","1","286","","","","","","","0","1","0","","0.416860241","0.6","0.4","0.2","0.8","0.416860241","0.2367730164","0.140325158","0.07828091442","","","","","","","","","","","","72","H","0","img/none_selected.jpg","","31","main_expt"
"","bandit","111","554407","0.0-72.0-0.0","95922792","wem/bandit_either_2","A2QUQ0S2F6K3QJ","either","1","262","","","","","","","1","0","0","0.4242573056","","0.6","0.4","0.2","0.8","","","","","0.4242573056","0.2109574779","0.1553940025","0.07550395781","","","","","","","","72","H","0","img/none_selected.jpg","","32","main_expt"
"","bandit","112","556487","0.0-73.0-0.0","95922792","wem/bandit_either_2","A2QUQ0S2F6K3QJ","either","1","574","","","","","","","0","1","0","","0.4185546122","0.6","0.4","0.2","0.8","0.4185546122","0.2005542758","0.1925614924","0.1445529326","","","","","","","","","","","","72","H","0","img/none_selected.jpg","","33","main_expt"
"","bandit","113","558256","0.0-74.0-0.0","95922792","wem/bandit_either_2","A2QUQ0S2F6K3QJ","either","1","262","","","","","","","0","0","1","0.4268308419","","0.6","0.4","0.2","0.8","","","","","0.4268308419","0.180377021","0.2150530123","0.1091775744","","","","","","","","72","H","0","img/none_selected.jpg","","34","main_expt"
"","bandit","114","559983","0.0-75.0-0.0","95922792","wem/bandit_either_2","A2QUQ0S2F6K3QJ","either","1","221","","","","","","","0","0","1","0.1297995116","","0.6","0.4","0.2","0.8","","","","","0.4265642185","0.2111187229","0.2688968874","0.1297995116","","","","","","","","76","L","3","","","35","main_expt"
"","bandit","115","561679","0.0-76.0-0.0","95922792","wem/bandit_either_2","A2QUQ0S2F6K3QJ","either","1","190","","","","","","","0","0","1","","0.4066287969","0.6","0.4","0.2","0.8","0.4066287969","0.2119332756","0.2977459964","0.09468550628","","","","","","","","","","","","72","H","0","img/none_selected.jpg","","36","main_expt"
"","bandit","116","563383","0.0-77.0-0.0","95922792","wem/bandit_either_2","A2QUQ0S2F6K3QJ","either","1","197","","","","","","","0","0","1","","0.2256131965","0.6","0.4","0.2","0.8","0.4611471687","0.2256131965","0.2684429955","0.09396978408","","","","","","","","","","","","74","J","1","","","37","main_expt"
"","bandit","117","565144","0.0-78.0-0.0","95922792","wem/bandit_either_2","A2QUQ0S2F6K3QJ","either","1","255","","","","","","","0","0","1","0.2490186117","","0.6","0.4","0.2","0.8","","","","","0.4482708269","0.1975147253","0.2490186117","0.1062257399","","","","","","","","75","K","2","","","38","main_expt"
"","bandit","118","566929","0.0-79.0-0.0","95922792","wem/bandit_either_2","A2QUQ0S2F6K3QJ","either","1","278","","","","","","","1","0","0","0.4402774387","","0.6","0.4","0.2","0.8","","","","","0.4402774387","0.1595648847","0.2548033483","0.09676453159","","","","","","","","72","H","0","img/none_selected.jpg","","39","main_expt"
"","bandit","119","568712","0.0-80.0-0.0","95922792","wem/bandit_either_2","A2QUQ0S2F6K3QJ","either","1","276","","","","","","","0","0","1","","0.4385128538","0.6","0.4","0.2","0.8","0.4385128538","0.1626610004","0.2688720753","0.08197179495","","","","","","","","","","","","72","H","0","img/none_selected.jpg","","40","main_expt"
"","bandit","120","570536","0.0-81.0-0.0","95922792","wem/bandit_either_2","A2QUQ0S2F6K3QJ","either","1","318","","","","","","","0","0","1","0.14416382","","0.6","0.4","0.2","0.8","","","","","0.4380640779","0.1982402655","0.297778532","0.14416382","","","","","","","","76","L","3","","","41","main_expt"
"","bandit","121","572328","0.0-82.0-0.0","95922792","wem/bandit_either_2","A2QUQ0S2F6K3QJ","either","1","286","","","","","","","0","0","1","0.4265224768","","0.6","0.4","0.2","0.8","","","","","0.4265224768","0.1863610343","0.2449207522","0.1070927036","","","","","","","","72","H","0","img/none_selected.jpg","","42","main_expt"
"","bandit","122","574312","0.0-83.0-0.0","95922792","wem/bandit_either_2","A2QUQ0S2F6K3QJ","either","1","477","","","","","","","0","0","1","0.2418389683","","0.6","0.4","0.2","0.8","","","","","0.435880106","0.2418389683","0.2457567503","0.1214526226","","","","","","","","74","J","1","","","43","main_expt"
"","bandit","123","576272","0.0-84.0-0.0","95922792","wem/bandit_either_2","A2QUQ0S2F6K3QJ","either","1","453","","","","","","","0","0","1","","0.2432732657","0.6","0.4","0.2","0.8","0.4450576882","0.1943491227","0.2432732657","0.1450738833","","","","","","","","","","","","75","K","2","","","44","main_expt"
"","bandit","124","578072","0.0-85.0-0.0","95922792","wem/bandit_either_2","A2QUQ0S2F6K3QJ","either","1","294","","","","","","","0","0","1","","0.4382030275","0.6","0.4","0.2","0.8","0.4382030275","0.1543250971","0.2656772236","0.09632230927","","","","","","","","","","","","72","H","0","img/none_selected.jpg","","45","main_expt"
"","bandit","125","579832","0.0-86.0-0.0","95922792","wem/bandit_either_2","A2QUQ0S2F6K3QJ","either","1","253","","","","","","","0","0","1","0.4412369426","","0.6","0.4","0.2","0.8","","","","","0.4412369426","0.09719433791","0.2432112423","0.103211431","","","","","","","","72","H","0","img/none_selected.jpg","","46","main_expt"
"","bandit","126","581625","0.0-87.0-0.0","95922792","wem/bandit_either_2","A2QUQ0S2F6K3QJ","either","1","284","","","","","","","0","0","1","0.09916324924","","0.6","0.4","0.2","0.8","","","","","0.4588863431","0.1228880329","0.2992745976","0.09916324924","","","","","","","","76","L","3","","","47","main_expt"
"","bandit","127","583457","0.0-88.0-0.0","95922792","wem/bandit_either_2","A2QUQ0S2F6K3QJ","either","1","325","","","","","","","1","0","0","0.1090242341","","0.6","0.4","0.2","0.8","","","","","0.4408788818","0.1068532567","0.2594611615","0.1090242341","","","","","","","","76","L","3","","","48","main_expt"
"","bandit","128","585489","0.0-89.0-0.0","95922792","wem/bandit_either_2","A2QUQ0S2F6K3QJ","either","1","525","","","","","","","0","0","1","0.1265186769","","0.6","0.4","0.2","0.8","","","","","0.4232064109","0.1044048509","0.2767916858","0.1265186769","","","","","","","","76","L","3","","","49","main_expt"
"","bandit","129","587705","0.0-90.0-0.0","95922792","wem/bandit_either_2","A2QUQ0S2F6K3QJ","either","1","709","","","","","","","0","1","0","","0.4210883962","0.6","0.4","0.2","0.8","0.4210883962","0.1072026782","0.2762534014","0.1397440907","","","","","","","","","","","","72","H","0","img/none_selected.jpg","","50","main_expt"
"","bandit","130","589785","0.0-91.0-0.0","95922792","wem/bandit_either_2","A2QUQ0S2F6K3QJ","either","1","574","","","","","","","0","0","1","0.4225635581","","0.6","0.4","0.2","0.8","","","","","0.4225635581","0.1287882573","0.3379376541","0.153600331","","","","","","","","72","H","0","img/none_selected.jpg","","51","main_expt"
"","bandit","131","591936","0.0-92.0-0.0","95922792","wem/bandit_either_2","A2QUQ0S2F6K3QJ","either","1","645","","","","","","","0","1","0","","0.1298059469","0.6","0.4","0.2","0.8","0.4146237098","0.1298059469","0.3395267946","0.1718407591","","","","","","","","","","","","74","J","1","","","52","main_expt"
"","bandit","132","595176","0.0-93.0-0.0","95922792","wem/bandit_either_2","A2QUQ0S2F6K3QJ","either","1","1733","","","","","","","0","0","1","","0.07423060895","0.6","0.4","0.2","0.8","0.3763623321","0.07423060895","0.29674647","0.1945727614","","","","","","","","","","","","74","J","1","","","53","main_expt"
"","bandit","133","598945","0.0-94.0-0.0","95922792","wem/bandit_either_2","A2QUQ0S2F6K3QJ","either","1","2262","","","","","","","0","0","1","","0.3372955831","0.6","0.4","0.2","0.8","0.3289081181","0.08562383645","0.3372955831","0.2450542523","","","","","","","","","","","","75","K","2","","","54","main_expt"
"","bandit","134","600793","0.0-95.0-0.0","95922792","wem/bandit_either_2","A2QUQ0S2F6K3QJ","either","1","342","","","","","","","0","0","1","","0.2547241938","0.6","0.4","0.2","0.8","0.3025984711","0.0757818623","0.3506099842","0.2547241938","","","","","","","","","","","","76","L","3","","","55","main_expt"
"","bandit","135","602361","0.0-96.0-0.0","95922792","wem/bandit_either_2","A2QUQ0S2F6K3QJ","either","1","60","","","","","","","0","0","1","0.2921333137","","0.6","0.4","0.2","0.8","","","","","0.2921333137","0.09897923035","0.3418029788","0.2595112895","","","","","","","","72","H","0","img/none_selected.jpg","","56","main_expt"
"","bandit","136","604160","0.0-97.0-0.0","95922792","wem/bandit_either_2","A2QUQ0S2F6K3QJ","either","1","292","","","","","","","1","0","0","0.3317177772","","0.6","0.4","0.2","0.8","","","","","0.3317177772","0.1160875525","0.3162475816","0.2610276213","","","","","","","","72","H","0","img/none_selected.jpg","","57","main_expt"
"","bandit","137","606112","0.0-98.0-0.0","95922792","wem/bandit_either_2","A2QUQ0S2F6K3QJ","either","1","446","","","","","","","1","0","0","0.3240244649","","0.6","0.4","0.2","0.8","","","","","0.3240244649","0.1134641846","0.3269881105","0.2354201416","","","","","","","","72","H","0","img/none_selected.jpg","","58","main_expt"
"","bandit","138","608120","0.0-99.0-0.0","95922792","wem/bandit_either_2","A2QUQ0S2F6K3QJ","either","1","502","","","","","","","1","0","0","0.2988076671","","0.6","0.4","0.2","0.8","","","","","0.2988076671","0.1177083384","0.2901324944","0.2346370837","","","","","","","","72","H","0","img/none_selected.jpg","","59","main_expt"
"","bandit","139","610040","0.0-100.0-0.0","95922792","wem/bandit_either_2","A2QUQ0S2F6K3QJ","either","1","414","","","","","","","0","0","1","","0.3096792726","0.6","0.4","0.2","0.8","0.3096792726","0.1125723432","0.289588464","0.2315637733","","","","","","","","","","","","72","H","0","img/none_selected.jpg","","60","main_expt"
"","bandit","140","611929","0.0-101.0-0.0","95922792","wem/bandit_either_2","A2QUQ0S2F6K3QJ","either","1","381","","","","","","","0","1","0","","0.09911093426","0.6","0.4","0.2","0.8","0.2821336973","0.09911093426","0.2782845563","0.2599537756","","","","","","","","","","","","74","J","1","","","61","main_expt"
"","bandit","141","613888","0.0-102.0-0.0","95922792","wem/bandit_either_2","A2QUQ0S2F6K3QJ","either","1","453","","","","","","","0","0","1","0.09440438105","","0.6","0.4","0.2","0.8","","","","","0.2414244345","0.09440438105","0.3165490401","0.2594941563","","","","","","","","74","J","1","","","62","main_expt"
"","bandit","142","615672","0.0-103.0-0.0","95922792","wem/bandit_either_2","A2QUQ0S2F6K3QJ","either","1","277","","","","","","","0","0","1","","0.213639373","0.6","0.4","0.2","0.8","0.213639373","0.1015409351","0.3034564924","0.2660839385","","","","","","","","","","","","72","H","0","img/none_selected.jpg","","63","main_expt"
"","bandit","143","617513","0.0-104.0-0.0","95922792","wem/bandit_either_2","A2QUQ0S2F6K3QJ","either","1","333","","","","","","","1","0","0","0.1876308072","","0.6","0.4","0.2","0.8","","","","","0.1876308072","0.07049798599","0.2506654962","0.2426585031","","","","","","","","72","H","0","img/none_selected.jpg","","64","main_expt"
"","bandit","144","619834","0.0-105.0-0.0","95922792","wem/bandit_either_2","A2QUQ0S2F6K3QJ","either","1","811","","","","","","","0","0","1","","0.1841803182","0.6","0.4","0.2","0.8","0.1841803182","0.05735603507","0.253414466","0.2581047566","","","","","","","","","","","","72","H","0","img/none_selected.jpg","","65","main_expt"
"","bandit","145","621585","0.0-106.0-0.0","95922792","wem/bandit_either_2","A2QUQ0S2F6K3QJ","either","1","244","","","","","","","0","0","1","","0.0621258055","0.6","0.4","0.2","0.8","0.187417598","0.0621258055","0.2836500186","0.2872127433","","","","","","","","","","","","74","J","1","","","66","main_expt"
"","bandit","146","623321","0.0-107.0-0.0","95922792","wem/bandit_either_2","A2QUQ0S2F6K3QJ","either","1","229","","","","","","","0","1","0","","0.3217852231","0.6","0.4","0.2","0.8","0.1395950637","0.06966106928","0.3217852231","0.3232337643","","","","","","","","","","","","75","K","2","","","67","main_expt"
"","bandit","147","625201","0.0-108.0-0.0","95922792","wem/bandit_either_2","A2QUQ0S2F6K3QJ","either","1","373","","","","","","","0","1","0","","0.3574581916","0.6","0.4","0.2","0.8","0.1363519197","0.09965709916","0.3574581916","0.3376006622","","","","","","","","","","","","75","K","2","","","68","main_expt"
"","bandit","148","626993","0.0-109.0-0.0","95922792","wem/bandit_either_2","A2QUQ0S2F6K3QJ","either","1","284","","","","","","","0","0","1","","0.3884563005","0.6","0.4","0.2","0.8","0.1117144852","0.1428217854","0.3884563005","0.2917609244","","","","","","","","","","","","75","K","2","","","69","main_expt"
"","bandit","149","628784","0.0-110.0-0.0","95922792","wem/bandit_either_2","A2QUQ0S2F6K3QJ","either","1","285","","","","","","","0","0","1","0.09667493602","","0.6","0.4","0.2","0.8","","","","","0.09667493602","0.1866845388","0.3920047773","0.2218665627","","","","","","","","72","H","0","img/none_selected.jpg","","70","main_expt"
"","bandit","150","630568","0.0-111.0-0.0","95922792","wem/bandit_either_2","A2QUQ0S2F6K3QJ","either","1","277","","","","","","","0","0","1","0.2409383839","","0.6","0.4","0.2","0.8","","","","","0.09186933139","0.1702545286","0.4066376731","0.2409383839","","","","","","","","76","L","3","","","71","main_expt"
"","bandit","151","632576","0.0-112.0-0.0","95922792","wem/bandit_either_2","A2QUQ0S2F6K3QJ","either","1","501","","","","","","","0","0","1","","0.09472009463","0.6","0.4","0.2","0.8","0.09472009463","0.1836279043","0.3443789926","0.1920783453","","","","","","","","","","","","72","H","0","img/none_selected.jpg","","72","main_expt"
"","bandit","152","634394","0.0-113.0-0.0","95922792","wem/bandit_either_2","A2QUQ0S2F6K3QJ","either","1","310","","","","","","","0","0","1","0.1167805336","","0.6","0.4","0.2","0.8","","","","","0.1167805336","0.1644348242","0.3227553012","0.1905254877","","","","","","","","72","H","0","img/none_selected.jpg","","73","main_expt"
"","bandit","153","636705","0.0-114.0-0.0","95922792","wem/bandit_either_2","A2QUQ0S2F6K3QJ","either","1","804","","","","","","","0","0","1","0.1833421201","","0.6","0.4","0.2","0.8","","","","","0.1465151254","0.1833421201","0.3336652139","0.184198213","","","","","","","","74","J","1","","","74","main_expt"
"","bandit","154","638553","0.0-115.0-0.0","95922792","wem/bandit_either_2","A2QUQ0S2F6K3QJ","either","1","341","","","","","","","0","0","1","","0.2890150868","0.6","0.4","0.2","0.8","0.123285719","0.1519653276","0.2890150868","0.1881920243","","","","","","","","","","","","75","K","2","","","75","main_expt"
"","bandit","155","640321","0.0-116.0-0.0","95922792","wem/bandit_either_2","A2QUQ0S2F6K3QJ","either","1","262","","","","","","","0","0","1","","0.1988930589","0.6","0.4","0.2","0.8","0.1392606081","0.1506622639","0.2673490463","0.1988930589","","","","","","","","","","","","76","L","3","","","76","main_expt"
"","bandit","156","642137","0.0-117.0-0.0","95922792","wem/bandit_either_2","A2QUQ0S2F6K3QJ","either","1","309","","","","","","","0","0","1","","0.099337717","0.6","0.4","0.2","0.8","0.099337717","0.1860897766","0.2858541315","0.2255968657","","","","","","","","","","","","72","H","0","img/none_selected.jpg","","77","main_expt"
"","bandit","157","643937","0.0-118.0-0.0","95922792","wem/bandit_either_2","A2QUQ0S2F6K3QJ","either","1","294","","","","","","","0","0","1","0.1618556875","","0.6","0.4","0.2","0.8","","","","","0.09666605973","0.1618556875","0.2639968829","0.1917014014","","","","","","","","74","J","1","","","78","main_expt"
"","bandit","158","645818","0.0-119.0-0.0","95922792","wem/bandit_either_2","A2QUQ0S2F6K3QJ","either","1","373","","","","","","","1","0","0","0.2304888896","","0.6","0.4","0.2","0.8","","","","","0.09639353985","0.1976853889","0.2304888896","0.2092129429","","","","","","","","75","K","2","","","79","main_expt"
"","bandit","159","647561","0.0-120.0-0.0","95922792","wem/bandit_either_2","A2QUQ0S2F6K3QJ","either","1","236","","","","","","","0","1","0","","0.1991809665","0.6","0.4","0.2","0.8","0.09566996791","0.2198838985","0.1991809665","0.1974306726","","","","","","","","","","","","75","K","2","","","80","main_expt"
"","bandit","160","649553","0.0-121.0-0.0","95922792","wem/bandit_either_2","A2QUQ0S2F6K3QJ","either","1","485","","","","","","","0","1","0","","0.1627434897","0.6","0.4","0.2","0.8","0.07958501382","0.2167005254","0.1627434897","0.1414754506","","","","","","","","","","","","75","K","2","","","81","main_expt"
"","bandit","161","651346","0.0-122.0-0.0","95922792","wem/bandit_either_2","A2QUQ0S2F6K3QJ","either","1","285","","","","","","","0","0","1","0.08833774835","","0.6","0.4","0.2","0.8","","","","","0.08833774835","0.2527486409","0.1624637972","0.1422587364","","","","","","","","72","H","0","img/none_selected.jpg","","82","main_expt"
"","bandit","162","653122","0.0-123.0-0.0","95922792","wem/bandit_either_2","A2QUQ0S2F6K3QJ","either","1","269","","","","","","","0","0","1","0.1900332","","0.6","0.4","0.2","0.8","","","","","0.09109006352","0.2569721607","0.1900332","0.1079415531","","","","","","","","75","K","2","","","83","main_expt"
"","bandit","163","654970","0.0-124.0-0.0","95922792","wem/bandit_either_2","A2QUQ0S2F6K3QJ","either","1","340","","","","","","","0","0","1","0.07696487024","","0.6","0.4","0.2","0.8","","","","","0.05321730921","0.2535394321","0.1705646391","0.07696487024","","","","","","","","76","L","3","","","84","main_expt"
"","bandit","164","656738","0.0-125.0-0.0","95922792","wem/bandit_either_2","A2QUQ0S2F6K3QJ","either","1","261","","","","","","","0","0","1","","0.03321009489","0.6","0.4","0.2","0.8","0.03321009489","0.2255799186","0.2053302659","0.08313016423","","","","","","","","","","","","72","H","0","img/none_selected.jpg","","85","main_expt"
"","bandit","165","658882","0.0-126.0-0.0","95922792","wem/bandit_either_2","A2QUQ0S2F6K3QJ","either","1","636","","","","","","","0","0","1","0.2197080914","","0.6","0.4","0.2","0.8","","","","","0.04864990798","0.2197080914","0.2128685413","0.102083396","","","","","","","","74","J","1","","","86","main_expt"
"","bandit","166","660562","0.0-127.0-0.0","95922792","wem/bandit_either_2","A2QUQ0S2F6K3QJ","either","1","172","","","","","","","0","0","1","","0.213778815","0.6","0.4","0.2","0.8","0.07919268752","0.2230338057","0.213778815","0.09067070718","","","","","","","","","","","","75","K","2","","","87","main_expt"
"","bandit","167","662396","0.0-128.0-0.0","95922792","wem/bandit_either_2","A2QUQ0S2F6K3QJ","either","1","325","","","","","","","0","0","1","0.1421970704","","0.6","0.4","0.2","0.8","","","","","0.05835116993","0.2484269739","0.2102340809","0.1421970704","","","","","","","","76","L","3","","","88","main_expt"
"","bandit","168","665123","0.0-129.0-0.0","95922792","wem/bandit_either_2","A2QUQ0S2F6K3QJ","either","1","1219","","","","","","","0","0","1","0.05115519592","","0.6","0.4","0.2","0.8","","","","","0.05115519592","0.2733562597","0.1809358483","0.219142046","","","","","","","","72","H","0","img/none_selected.jpg","","89","main_expt"
"","bandit","169","666915","0.0-130.0-0.0","95922792","wem/bandit_either_2","A2QUQ0S2F6K3QJ","either","1","284","","","","","","","1","0","0","0.2973868449","","0.6","0.4","0.2","0.8","","","","","0.07819273649","0.2973868449","0.1293356972","0.2806923657","","","","","","","","74","J","1","","","90","main_expt"
"","bandit","170","668620","0.0-131.0-0.0","95922792","wem/bandit_either_2","A2QUQ0S2F6K3QJ","either","1","196","","","","","","","0","0","1","","0.3067689268","0.6","0.4","0.2","0.8","0.05564661524","0.3067689268","0.1136224352","0.2819660137","","","","","","","","","","","","74","J","1","","","91","main_expt"
"","bandit","171","670436","0.0-132.0-0.0","95922792","wem/bandit_either_2","A2QUQ0S2F6K3QJ","either","1","308","","","","","","","0","0","1","0.07539152519","","0.6","0.4","0.2","0.8","","","","","0.05914103421","0.2719776188","0.07539152519","0.3370305887","","","","","","","","75","K","2","","","92","main_expt"
"","bandit","172","672404","0.0-133.0-0.0","95922792","wem/bandit_either_2","A2QUQ0S2F6K3QJ","either","1","460","","","","","","","0","0","1","0.3722719914","","0.6","0.4","0.2","0.8","","","","","0.03944324463","0.3081791896","0.08243558305","0.3722719914","","","","","","","","76","L","3","","","93","main_expt"
"","bandit","173","690925","0.0-134.0-0.0","95922792","wem/bandit_either_2","A2QUQ0S2F6K3QJ","either","1","17013","","","","","","","0","0","1","0.05023017475","","0.6","0.4","0.2","0.8","","","","","0.05023017475","0.356667856","0.09807673793","0.3840030774","","","","","","","","72","H","0","img/none_selected.jpg","","94","main_expt"
"","bandit","174","692740","0.0-135.0-0.0","95922792","wem/bandit_either_2","A2QUQ0S2F6K3QJ","either","1","305","","","","","","","0","0","1","","0.3300765204","0.6","0.4","0.2","0.8","0.07311956304","0.3300765204","0.09746204728","0.4050844552","","","","","","","","","","","","74","J","1","","","95","main_expt"
"","bandit","175","694580","0.0-136.0-0.0","95922792","wem/bandit_either_2","A2QUQ0S2F6K3QJ","either","1","332","","","","","","","0","0","1","","0.08559835745","0.6","0.4","0.2","0.8","0.09573717159","0.3642735905","0.08559835745","0.4081076376","","","","","","","","","","","","75","K","2","","","96","main_expt"
"","bandit","176","696452","0.0-137.0-0.0","95922792","wem/bandit_either_2","A2QUQ0S2F6K3QJ","either","1","364","","","","","","","0","0","1","0.4142780263","","0.6","0.4","0.2","0.8","","","","","0.1235519285","0.3885664579","0.0732645996","0.4142780263","","","","","","","","76","L","3","","","97","main_expt"
"","bandit","177","698284","0.0-138.0-0.0","95922792","wem/bandit_either_2","A2QUQ0S2F6K3QJ","either","1","324","","","","","","","0","0","1","0.1274282425","","0.6","0.4","0.2","0.8","","","","","0.1274282425","0.4162912028","0.05343209845","0.4131193208","","","","","","","","72","H","0","img/none_selected.jpg","","98","main_expt"
"","bandit","178","700028","0.0-139.0-0.0","95922792","wem/bandit_either_2","A2QUQ0S2F6K3QJ","either","1","236","","","","","","","0","0","1","","0.4074153657","0.6","0.4","0.2","0.8","0.1457321849","0.4074153657","0.05144299931","0.428944851","","","","","","","","","","","","74","J","1","","","99","main_expt"
"","bandit","179","701764","0.0-140.0-0.0","95922792","wem/bandit_either_2","A2QUQ0S2F6K3QJ","either","1","228","","","","","","","0","0","1","","0.03934302155","0.6","0.4","0.2","0.8","0.1492128348","0.3349137267","0.03934302155","0.4279797645","","","","","","","","","","","","75","K","2","","","100","main_expt"
"","bandit","180","703733","0.0-141.0-0.0","95922792","wem/bandit_either_2","A2QUQ0S2F6K3QJ","either","1","460","","","","","","","1","0","0","0.4189249443","","0.6","0.4","0.2","0.8","","","","","0.125019219","0.2732947861","0.05783306622","0.4189249443","","","","","","","","76","L","3","","","101","main_expt"
"","bandit","181","705477","0.0-142.0-0.0","95922792","wem/bandit_either_2","A2QUQ0S2F6K3QJ","either","1","236","","","","","","","0","0","1","0.4279241466","","0.6","0.4","0.2","0.8","","","","","0.1008510245","0.2584454073","0.06484492547","0.4279241466","","","","","","","","76","L","3","","","102","main_expt"
"","bandit","182","707517","0.0-143.0-0.0","95922792","wem/bandit_either_2","A2QUQ0S2F6K3QJ","either","1","532","","","","","","","0","0","1","0.1087281004","","0.6","0.4","0.2","0.8","","","","","0.1087281004","0.2143891894","0.0701259157","0.419390052","","","","","","","","72","H","0","img/none_selected.jpg","","103","main_expt"
"","bandit","183","709373","0.0-144.0-0.0","95922792","wem/bandit_either_2","A2QUQ0S2F6K3QJ","either","1","347","","","","","","","0","0","1","","0.1354346047","0.6","0.4","0.2","0.8","0.143855427","0.1354346047","0.06922647753","0.3761202226","","","","","","","","","","","","74","J","1","","","104","main_expt"
"","bandit","184","711221","0.0-145.0-0.0","95922792","wem/bandit_either_2","A2QUQ0S2F6K3QJ","either","1","340","","","","","","","0","0","1","","0.07802312096","0.6","0.4","0.2","0.8","0.1606853024","0.1615963473","0.07802312096","0.4229881466","","","","","","","","","","","","75","K","2","","","105","main_expt"
"","bandit","185","712765","0.0-146.0-0.0","95922792","wem/bandit_either_2","A2QUQ0S2F6K3QJ","either","1","37","","","","","","","1","0","0","0.1612939645","","0.6","0.4","0.2","0.8","","","","","0.1612939645","0.1738621023","0.08930313369","0.4110558218","","","","","","","","72","H","0","img/none_selected.jpg","","106","main_expt"
"","bandit","186","714636","0.0-147.0-0.0","95922792","wem/bandit_either_2","A2QUQ0S2F6K3QJ","either","1","364","","","","","","","0","0","1","0.1778053335","","0.6","0.4","0.2","0.8","","","","","0.1778053335","0.1799671425","0.1397733654","0.4176599015","","","","","","","","72","H","0","img/none_selected.jpg","","107","main_expt"
"","bandit","187","716700","0.0-148.0-0.0","95922792","wem/bandit_either_2","A2QUQ0S2F6K3QJ","either","1","556","","","","","","","0","0","1","0.1844274074","","0.6","0.4","0.2","0.8","","","","","0.1826465361","0.1844274074","0.1505899732","0.4210396584","","","","","","","","74","J","1","","","108","main_expt"
"","bandit","188","718684","0.0-149.0-0.0","95922792","wem/bandit_either_2","A2QUQ0S2F6K3QJ","either","1","476","","","","","","","1","0","0","0.1737022726","","0.6","0.4","0.2","0.8","","","","","0.1737022726","0.1702708828","0.1162436109","0.4328015469","","","","","","","","72","H","0","img/none_selected.jpg","","109","main_expt"
"","bandit","189","720724","0.0-150.0-0.0","95922792","wem/bandit_either_2","A2QUQ0S2F6K3QJ","either","1","533","","","","","","","0","0","1","","0.1658344406","0.6","0.4","0.2","0.8","0.1658344406","0.1964407335","0.08267976014","0.4495585744","","","","","","","","","","","","72","H","0","img/none_selected.jpg","","110","main_expt"
"","bandit","190","722348","0.0-151.0-0.0","95922792","wem/bandit_either_2","A2QUQ0S2F6K3QJ","either","1","116","","","","","","","0","0","1","0.4237631325","","0.6","0.4","0.2","0.8","","","","","0.240619448","0.1777579569","0.09389793805","0.4237631325","","","","","","","","76","L","3","","","111","main_expt"
"","bandit","191","724117","0.0-152.0-0.0","95922792","wem/bandit_either_2","A2QUQ0S2F6K3QJ","either","1","260","","","","","","","0","0","1","","0.1395994444","0.6","0.4","0.2","0.8","0.1927397719","0.1395994444","0.07903418564","0.4521571561","","","","","","","","","","","","74","J","1","","","112","main_expt"
"","bandit","192","725924","0.0-153.0-0.0","95922792","wem/bandit_either_2","A2QUQ0S2F6K3QJ","either","1","300","","","","","","","0","0","1","0.05501139052","","0.6","0.4","0.2","0.8","","","","","0.234725565","0.1205999431","0.05501139052","0.4350762846","","","","","","","","75","K","2","","","113","main_expt"
"","bandit","193","727828","0.0-154.0-0.0","95922792","wem/bandit_either_2","A2QUQ0S2F6K3QJ","either","1","395","","","","","","","0","0","1","0.1950215869","","0.6","0.4","0.2","0.8","","","","","0.1950215869","0.09123355482","0.07627702456","0.4315824664","","","","","","","","72","H","0","img/none_selected.jpg","","114","main_expt"
"","bandit","194","729716","0.0-155.0-0.0","95922792","wem/bandit_either_2","A2QUQ0S2F6K3QJ","either","1","380","","","","","","","0","0","1","0.4127349624","","0.6","0.4","0.2","0.8","","","","","0.2575833325","0.09554471192","0.03985247356","0.4127349624","","","","","","","","76","L","3","","","115","main_expt"
"","bandit","195","731508","0.0-156.0-0.0","95922792","wem/bandit_either_2","A2QUQ0S2F6K3QJ","either","1","285","","","","","","","0","0","1","","0.2296468005","0.6","0.4","0.2","0.8","0.2296468005","0.1942182492","0.0683792979","0.4468356006","","","","","","","","","","","","72","H","0","img/none_selected.jpg","","116","main_expt"
"","bandit","196","733244","0.0-157.0-0.0","95922792","wem/bandit_either_2","A2QUQ0S2F6K3QJ","either","1","227","","","","","","","0","0","1","0.2208250117","","0.6","0.4","0.2","0.8","","","","","0.2816483341","0.2208250117","0.03956212276","0.4458703805","","","","","","","","74","J","1","","","117","main_expt"
"","bandit","197","735244","0.0-158.0-0.0","95922792","wem/bandit_either_2","A2QUQ0S2F6K3QJ","either","1","492","","","","","","","0","0","1","","0.04459229253","0.6","0.4","0.2","0.8","0.2626769985","0.1687975443","0.04459229253","0.4500370674","","","","","","","","","","","","75","K","2","","","118","main_expt"
"","bandit","198","737004","0.0-159.0-0.0","95922792","wem/bandit_either_2","A2QUQ0S2F6K3QJ","either","1","251","","","","","","","1","0","0","0.4704359259","","0.6","0.4","0.2","0.8","","","","","0.2418090277","0.1546105485","0.03386957434","0.4704359259","","","","","","","","76","L","3","","","119","main_expt"
"","bandit","199","738773","0.0-160.0-0.0","95922792","wem/bandit_either_2","A2QUQ0S2F6K3QJ","either","1","258","","","","","","","1","0","0","0.4578798539","","0.6","0.4","0.2","0.8","","","","","0.2603236095","0.143668411","0.03305427522","0.4578798539","","","","","","","","76","L","3","","","120","main_expt"
"","bandit","200","740597","0.0-161.0-0.0","95922792","wem/bandit_either_2","A2QUQ0S2F6K3QJ","either","1","315","","","","","","","0","0","1","0.4591190262","","0.6","0.4","0.2","0.8","","","","","0.2381785671","0.1098317425","0.03146098963","0.4591190262","","","","","","","","76","L","3","","","121","main_expt"
"","bandit","201","742461","0.0-162.0-0.0","95922792","wem/bandit_either_2","A2QUQ0S2F6K3QJ","either","1","356","","","","","","","0","0","1","0.2388462554","","0.6","0.4","0.2","0.8","","","","","0.2388462554","0.1097832873","0.02311797033","0.4643737298","","","","","","","","72","H","0","img/none_selected.jpg","","122","main_expt"
"","bandit","202","744205","0.0-163.0-0.0","95922792","wem/bandit_either_2","A2QUQ0S2F6K3QJ","either","1","235","","","","","","","0","1","0","","0.1145900252","0.6","0.4","0.2","0.8","0.2079929623","0.1145900252","0.0171261738","0.451586091","","","","","","","","","","","","74","J","1","","","123","main_expt"
"","bandit","203","746230","0.0-164.0-0.0","95922792","wem/bandit_either_2","A2QUQ0S2F6K3QJ","either","1","516","","","","","","","0","0","1","0.1137783892","","0.6","0.4","0.2","0.8","","","","","0.2148400852","0.1137783892","0.03468299263","0.4456906556","","","","","","","","74","J","1","","","124","main_expt"
"","bandit","204","748061","0.0-165.0-0.0","95922792","wem/bandit_either_2","A2QUQ0S2F6K3QJ","either","1","322","","","","","","","0","0","1","","0.02544516396","0.6","0.4","0.2","0.8","0.2185056602","0.145605256","0.02544516396","0.4240876494","","","","","","","","","","","","75","K","2","","","125","main_expt"
"","bandit","205","750076","0.0-166.0-0.0","95922792","wem/bandit_either_2","A2QUQ0S2F6K3QJ","either","1","507","","","","","","","1","0","0","0.4008501573","","0.6","0.4","0.2","0.8","","","","","0.2152323899","0.1443839055","0.03059506073","0.4008501573","","","","","","","","76","L","3","","","126","main_expt"
"","bandit","206","751829","0.0-167.0-0.0","95922792","wem/bandit_either_2","A2QUQ0S2F6K3QJ","either","1","244","","","","","","","0","0","1","0.4066073101","","0.6","0.4","0.2","0.8","","","","","0.1699446714","0.1434222382","0.0339638967","0.4066073101","","","","","","","","76","L","3","","","127","main_expt"
"","bandit","207","753820","0.0-168.0-0.0","95922792","wem/bandit_either_2","A2QUQ0S2F6K3QJ","either","1","483","","","","","","","1","0","0","0.4270302575","","0.6","0.4","0.2","0.8","","","","","0.1299446217","0.1412168693","0.02632978063","0.4270302575","","","","","","","","76","L","3","","","128","main_expt"
"","bandit","208","756061","0.0-169.0-0.0","95922792","wem/bandit_either_2","A2QUQ0S2F6K3QJ","either","1","732","","","","","","","0","0","1","","0.4401824822","0.6","0.4","0.2","0.8","0.1299487573","0.1086871361","0.02640977482","0.4401824822","","","","","","","","","","","","76","L","3","","","129","main_expt"
"","bandit","209","757678","0.0-170.0-0.0","95922792","wem/bandit_either_2","A2QUQ0S2F6K3QJ","either","1","109","","","","","","","1","0","0","0.1172580566","","0.6","0.4","0.2","0.8","","","","","0.1172580566","0.1672766288","0.03646961518","0.4160959849","","","","","","","","72","H","0","img/none_selected.jpg","","130","main_expt"
"","bandit","210","759493","0.0-171.0-0.0","95922792","wem/bandit_either_2","A2QUQ0S2F6K3QJ","either","1","307","","","","","","","0","0","1","","0.1289979545","0.6","0.4","0.2","0.8","0.1289979545","0.157110596","0.02171712127","0.4374535298","","","","","","","","","","","","72","H","0","img/none_selected.jpg","","131","main_expt"
"","bandit","211","761189","0.0-172.0-0.0","95922792","wem/bandit_either_2","A2QUQ0S2F6K3QJ","either","1","188","","","","","","","0","0","1","0.1338697581","","0.6","0.4","0.2","0.8","","","","","0.1243754988","0.1338697581","0.01004766493","0.4382483821","","","","","","","","74","J","1","","","132","main_expt"
"","bandit","212","763077","0.0-173.0-0.0","95922792","wem/bandit_either_2","A2QUQ0S2F6K3QJ","either","1","380","","","","","","","0","0","1","","0.005153708139","0.6","0.4","0.2","0.8","0.1189203389","0.1101669797","0.005153708139","0.3913946914","","","","","","","","","","","","75","K","2","","","133","main_expt"
"","bandit","213","764821","0.0-174.0-0.0","95922792","wem/bandit_either_2","A2QUQ0S2F6K3QJ","either","1","236","","","","","","","1","0","0","0.4280120537","","0.6","0.4","0.2","0.8","","","","","0.07075860378","0.060775537","0.01308543257","0.4280120537","","","","","","","","76","L","3","","","134","main_expt"
"","bandit","214","766573","0.0-175.0-0.0","95922792","wem/bandit_either_2","A2QUQ0S2F6K3QJ","either","1","243","","","","","","","0","0","1","0.4385213509","","0.6","0.4","0.2","0.8","","","","","0.1073185777","0.0714416082","0.02634180281","0.4385213509","","","","","","","","76","L","3","","","135","main_expt"
"","bandit","215","768414","0.0-176.0-0.0","95922792","wem/bandit_either_2","A2QUQ0S2F6K3QJ","either","1","332","","","","","","","0","0","1","","0.1001442491","0.6","0.4","0.2","0.8","0.1001442491","0.1115096907","0.04122629063","0.4605212521","","","","","","","","","","","","72","H","0","img/none_selected.jpg","","136","main_expt"
"","bandit","216","770237","0.0-177.0-0.0","95922792","wem/bandit_either_2","A2QUQ0S2F6K3QJ","either","1","315","","","","","","","1","0","0","0.4729500637","","0.6","0.4","0.2","0.8","","","","","0.1736681681","0.1307091067","0.05517648788","0.4729500637","","","","","","","","76","L","3","","","137","main_expt"
"","bandit","217","772301","0.0-178.0-0.0","95922792","wem/bandit_either_2","A2QUQ0S2F6K3QJ","either","1","556","","","","","","","0","0","1","0.4705425907","","0.6","0.4","0.2","0.8","","","","","0.1839908368","0.1289533412","0.05929415862","0.4705425907","","","","","","","","76","L","3","","","138","main_expt"
"","bandit","218","774102","0.0-179.0-0.0","95922792","wem/bandit_either_2","A2QUQ0S2F6K3QJ","either","1","291","","","","","","","0","0","1","","0.1500833973","0.6","0.4","0.2","0.8","0.1500833973","0.1215972271","0.05470710098","0.465423541","","","","","","","","","","","","72","H","0","img/none_selected.jpg","","139","main_expt"
"","bandit","219","776094","0.0-180.0-0.0","95922792","wem/bandit_either_2","A2QUQ0S2F6K3QJ","either","1","483","","","","","","","1","0","0","0.4486857012","","0.6","0.4","0.2","0.8","","","","","0.1718879457","0.1158179575","0.06062538604","0.4486857012","","","","","","","","76","L","3","","","140","main_expt"
"","bandit","220","778222","0.0-181.0-0.0","95922792","wem/bandit_either_2","A2QUQ0S2F6K3QJ","either","1","618","","","","","","","0","0","1","0.4053061298","","0.6","0.4","0.2","0.8","","","","","0.2025036279","0.08691297649","0.05819772386","0.4053061298","","","","","","","","76","L","3","","","141","main_expt"
"","bandit","221","779966","0.0-182.0-0.0","95922792","wem/bandit_either_2","A2QUQ0S2F6K3QJ","either","1","236","","","","","","","1","0","0","0.1872564568","","0.6","0.4","0.2","0.8","","","","","0.1872564568","0.1425267255","0.05329701838","0.3989731656","","","","","","","","72","H","0","img/none_selected.jpg","","142","main_expt"
"","bandit","222","781958","0.0-183.0-0.0","95922792","wem/bandit_either_2","A2QUQ0S2F6K3QJ","either","1","482","","","","","","","0","1","0","","0.1676641842","0.6","0.4","0.2","0.8","0.1676641842","0.1425141192","0.06209903385","0.3783570596","","","","","","","","","","","","72","H","0","img/none_selected.jpg","","143","main_expt"
"","bandit","223","784119","0.0-184.0-0.0","95922792","wem/bandit_either_2","A2QUQ0S2F6K3QJ","either","1","651","","","","","","","0","0","1","0.1502987652","","0.6","0.4","0.2","0.8","","","","","0.1502987652","0.1362652721","0.06954729647","0.3485663762","","","","","","","","72","H","0","img/none_selected.jpg","","144","main_expt"
"","bandit","224","785927","0.0-185.0-0.0","95922792","wem/bandit_either_2","A2QUQ0S2F6K3QJ","either","1","299","","","","","","","0","1","0","","0.3534190037","0.6","0.4","0.2","0.8","0.1050568962","0.1335650053","0.062760129","0.3534190037","","","","","","","","","","","","76","L","3","","","145","main_expt"
"","bandit","225","788032","0.0-186.0-0.0","95922792","wem/bandit_either_2","A2QUQ0S2F6K3QJ","either","1","594","","","","","","","0","0","1","","0.342282706","0.6","0.4","0.2","0.8","0.1266784727","0.1392461982","0.05014677947","0.342282706","","","","","","","","","","","","76","L","3","","","146","main_expt"
"","bandit","226","789823","0.0-187.0-0.0","95922792","wem/bandit_either_2","A2QUQ0S2F6K3QJ","either","1","282","","","","","","","0","0","1","0.1121887101","","0.6","0.4","0.2","0.8","","","","","0.1121887101","0.1060810453","0.04801868921","0.3497384939","","","","","","","","72","H","0","img/none_selected.jpg","","147","main_expt"
"","bandit","227","791784","0.0-188.0-0.0","95922792","wem/bandit_either_2","A2QUQ0S2F6K3QJ","either","1","451","","","","","","","1","0","0","0.3507348305","","0.6","0.4","0.2","0.8","","","","","0.1050077765","0.1076054289","0.05298179562","0.3507348305","","","","","","","","76","L","3","","","148","main_expt"
"","bandit","228","793439","0.0-189.0-0.0","95922792","wem/bandit_either_2","A2QUQ0S2F6K3QJ","either","1","146","","","","","","","0","0","1","0.306786392","","0.6","0.4","0.2","0.8","","","","","0.08725679698","0.09143227578","0.05271587927","0.306786392","","","","","","","","76","L","3","","","149","main_expt"
"","bandit","229","794952","0.0-190.0-0.0","95922792","wem/bandit_either_2","A2QUQ0S2F6K3QJ","either","1","3","","","","","","","0","0","1","0.04813781364","","0.6","0.4","0.2","0.8","","","","","0.04813781364","0.08361181256","0.06153260368","0.3289077467","","","","","","","","72","H","0","img/none_selected.jpg","","150","main_expt"
"","bandit","230","797031","0.0-191.0-0.0","95922792","wem/bandit_either_2","A2QUQ0S2F6K3QJ","either","1","569","","","","","","","0","0","1","0.2844912386","","0.6","0.4","0.2","0.8","","","","","0.04690393958","0.1038450747","0.07716317934","0.2844912386","","","","","","","","76","L","3","","","151","main_expt"
"","bandit","231","799191","0.0-192.0-0.0","95922792","wem/bandit_either_2","A2QUQ0S2F6K3QJ","either","1","650","","","","","","","0","0","1","0.1311897928","","0.6","0.4","0.2","0.8","","","","","0.05051779207","0.1311897928","0.08370894892","0.3221551402","","","","","","","","74","J","1","","","152","main_expt"
"","bandit","232","801047","0.0-193.0-0.0","95922792","wem/bandit_either_2","A2QUQ0S2F6K3QJ","either","1","347","","","","","","","0","0","1","","0.06235129306","0.6","0.4","0.2","0.8","0.0417019452","0.1106636196","0.06235129306","0.288581716","","","","","","","","","","","","75","K","2","","","153","main_expt"
"","bandit","233","802912","0.0-194.0-0.0","95922792","wem/bandit_either_2","A2QUQ0S2F6K3QJ","either","1","355","","","","","","","0","0","1","0.3674714493","","0.6","0.4","0.2","0.8","","","","","0.04565059468","0.08044616817","0.08808261531","0.3674714493","","","","","","","","76","L","3","","","154","main_expt"
"","bandit","234","804991","0.0-195.0-0.0","95922792","wem/bandit_either_2","A2QUQ0S2F6K3QJ","either","1","570","","","","","","","0","0","1","","0.0249337719","0.6","0.4","0.2","0.8","0.0249337719","0.09849608375","0.08415746701","0.3836765626","","","","","","","","","","","","72","H","0","img/none_selected.jpg","","155","main_expt"
"","bandit","235","806895","0.0-196.0-0.0","95922792","wem/bandit_either_2","A2QUQ0S2F6K3QJ","either","1","395","","","","","","","0","0","1","0.0207568711","","0.6","0.4","0.2","0.8","","","","","0.0207568711","0.0679626842","0.1363215429","0.3499766022","","","","","","","","72","H","0","img/none_selected.jpg","","156","main_expt"
"","bandit","236","808512","0.0-197.0-0.0","95922792","wem/bandit_either_2","A2QUQ0S2F6K3QJ","either","1","108","","","","","","","0","0","1","0.06316877849","","0.6","0.4","0.2","0.8","","","","","0.01044871803","0.06316877849","0.176329139","0.3083455354","","","","","","","","74","J","1","","","157","main_expt"
"","bandit","237","810120","0.0-198.0-0.0","95922792","wem/bandit_either_2","A2QUQ0S2F6K3QJ","either","1","99","","","","","","","0","0","1","","0.2239815039","0.6","0.4","0.2","0.8","0.008486032171","0.06381796224","0.2239815039","0.2780985587","","","","","","","","","","","","75","K","2","","","158","main_expt"
"","bandit","238","811897","0.0-199.0-0.0","95922792","wem/bandit_either_2","A2QUQ0S2F6K3QJ","either","1","267","","","","","","","0","0","1","0.2721424699","","0.6","0.4","0.2","0.8","","","","","0.006770001311","0.09986374221","0.1754735631","0.2721424699","","","","","","","","76","L","3","","","159","main_expt"
"","bandit","239","813656","0.0-200.0-0.0","95922792","wem/bandit_either_2","A2QUQ0S2F6K3QJ","either","1","251","","","","","","","0","0","1","0.005009972043","","0.6","0.4","0.2","0.8","","","","","0.005009972043","0.08334790929","0.1820859676","0.3005636977","","","","","","","","72","H","0","img/none_selected.jpg","","160","main_expt"
"","bandit","240","815504","0.0-201.0-0.0","95922792","wem/bandit_either_2","A2QUQ0S2F6K3QJ","either","1","338","","","","","","","0","0","1","","0.1094566723","0.6","0.4","0.2","0.8","0.003825417776","0.1094566723","0.1771527669","0.2481613967","","","","","","","","","","","","74","J","1","","","161","main_expt"
"","bandit","241","817296","0.0-202.0-0.0","95922792","wem/bandit_either_2","A2QUQ0S2F6K3QJ","either","1","283","","","","","","","0","0","1","0.2040880477","","0.6","0.4","0.2","0.8","","","","","0.006458278423","0.1287108975","0.209245514","0.2040880477","","","","","","","","76","L","3","","","162","main_expt"
"","bandit","242","819080","0.0-203.0-0.0","95922792","wem/bandit_either_2","A2QUQ0S2F6K3QJ","either","1","274","","","","","","","0","0","1","0.01344146107","","0.6","0.4","0.2","0.8","","","","","0.01344146107","0.1811808859","0.1864252411","0.256608811","","","","","","","","72","H","0","img/none_selected.jpg","","163","main_expt"
"","bandit","243","820872","0.0-204.0-0.0","95922792","wem/bandit_either_2","A2QUQ0S2F6K3QJ","either","1","282","","","","","","","0","0","1","","0.1374611454","0.6","0.4","0.2","0.8","0.004940614731","0.1374611454","0.1662237337","0.2798468236","","","","","","","","","","","","74","J","1","","","164","main_expt"
"","bandit","244","822680","0.0-205.0-0.0","95922792","wem/bandit_either_2","A2QUQ0S2F6K3QJ","either","1","298","","","","","","","0","0","1","","0.1375661656","0.6","0.4","0.2","0.8","0.007349038951","0.1640313333","0.1375661656","0.2689568899","","","","","","","","","","","","75","K","2","","","165","main_expt"
"","bandit","245","824328","0.0-206.0-0.0","95922792","wem/bandit_either_2","A2QUQ0S2F6K3QJ","either","1","139","","","","","","","0","0","1","","0.2786045926","0.6","0.4","0.2","0.8","0.005679103294","0.20052236","0.1416727521","0.2786045926","","","","","","","","","","","","76","L","3","","","166","main_expt"
"","bandit","246","826009","0.0-207.0-0.0","95922792","wem/bandit_either_2","A2QUQ0S2F6K3QJ","either","1","170","","","","","","","0","0","1","0.004037182679","","0.6","0.4","0.2","0.8","","","","","0.004037182679","0.1945206589","0.1497541138","0.2507583434","","","","","","","","72","H","0","img/none_selected.jpg","","167","main_expt"
"","bandit","247","827793","0.0-208.0-0.0","95922792","wem/bandit_either_2","A2QUQ0S2F6K3QJ","either","1","274","","","","","","","0","0","1","0.1902154162","","0.6","0.4","0.2","0.8","","","","","0.007111326723","0.1902154162","0.1761460581","0.1827624484","","","","","","","","74","J","1","","","168","main_expt"
"","bandit","248","829345","0.0-209.0-0.0","95922792","wem/bandit_either_2","A2QUQ0S2F6K3QJ","either","1","42","","","","","","","0","1","0","","0.1931964682","0.6","0.4","0.2","0.8","0.01708305062","0.1931964682","0.2248215173","0.1558723634","","","","","","","","","","","","74","J","1","","","169","main_expt"
"","bandit","249","831057","0.0-210.0-0.0","95922792","wem/bandit_either_2","A2QUQ0S2F6K3QJ","either","1","202","","","","","","","0","0","1","0.236179436","","0.6","0.4","0.2","0.8","","","","","0.02105388628","0.236179436","0.2503105048","0.1757164868","","","","","","","","74","J","1","","","170","main_expt"
"","bandit","250","832945","0.0-211.0-0.0","95922792","wem/bandit_either_2","A2QUQ0S2F6K3QJ","either","1","378","","","","","","","0","0","1","0.2229285478","","0.6","0.4","0.2","0.8","","","","","0.01477187034","0.2229285478","0.2515708499","0.1985597056","","","","","","","","74","J","1","","","171","main_expt"
"","bandit","251","834649","0.0-212.0-0.0","95922792","wem/bandit_either_2","A2QUQ0S2F6K3QJ","either","1","196","","","","","","","0","0","1","","0.2601117771","0.6","0.4","0.2","0.8","0.00639283578","0.1805811295","0.2601117771","0.1725269859","","","","","","","","","","","","75","K","2","","","172","main_expt"
"","bandit","252","836416","0.0-213.0-0.0","95922792","wem/bandit_either_2","A2QUQ0S2F6K3QJ","either","1","258","","","","","","","0","0","1","","0.2277859889","0.6","0.4","0.2","0.8","0.008503536177","0.2203049146","0.2277859889","0.1955807132","","","","","","","","","","","","75","K","2","","","173","main_expt"
"","bandit","253","838368","0.0-214.0-0.0","95922792","wem/bandit_either_2","A2QUQ0S2F6K3QJ","either","1","443","","","","","","","1","0","0","0.204090619","","0.6","0.4","0.2","0.8","","","","","0.01512836446","0.2079245196","0.204090619","0.1712969398","","","","","","","","75","K","2","","","174","main_expt"
"","bandit","254","840144","0.0-215.0-0.0","95922792","wem/bandit_either_2","A2QUQ0S2F6K3QJ","either","1","267","","","","","","","0","1","0","","0.2264282848","0.6","0.4","0.2","0.8","0.034550241","0.1904909119","0.2264282848","0.2145566876","","","","","","","","","","","","75","K","2","","","175","main_expt"
"","bandit","255","841912","0.0-216.0-0.0","95922792","wem/bandit_either_2","A2QUQ0S2F6K3QJ","either","1","259","","","","","","","0","0","1","","0.2263436383","0.6","0.4","0.2","0.8","0.01969997198","0.1611975006","0.2263436383","0.1987050603","","","","","","","","","","","","75","K","2","","","176","main_expt"
"","bandit","256","843760","0.0-217.0-0.0","95922792","wem/bandit_either_2","A2QUQ0S2F6K3QJ","either","1","339","","","","","","","0","0","1","0.2449632337","","0.6","0.4","0.2","0.8","","","","","0.02558747067","0.1747210449","0.2449632337","0.2161967517","","","","","","","","75","K","2","","","177","main_expt"
"","bandit","257","845497","0.0-218.0-0.0","95922792","wem/bandit_either_2","A2QUQ0S2F6K3QJ","either","1","227","","","","","","","0","0","1","","0.1923885174","0.6","0.4","0.2","0.8","0.02865462312","0.1667690144","0.1923885174","0.1790488899","","","","","","","","","","","","75","K","2","","","178","main_expt"
"","bandit","258","847328","0.0-219.0-0.0","95922792","wem/bandit_either_2","A2QUQ0S2F6K3QJ","either","1","322","","","","","","","0","0","1","","0.1254539317","0.6","0.4","0.2","0.8","0.05873937836","0.248539666","0.1791230597","0.1254539317","","","","","","","","","","","","76","L","3","","","179","main_expt"
"","bandit","259","849104","0.0-220.0-0.0","95922792","wem/bandit_either_2","A2QUQ0S2F6K3QJ","either","1","267","","","","","","","0","0","1","0.1761702366","","0.6","0.4","0.2","0.8","","","","","0.04996702027","0.2393284063","0.1641305094","0.1761702366","","","","","","","","76","L","3","","","180","main_expt"
"","bandit","260","850936","0.0-221.0-0.0","95922792","wem/bandit_either_2","A2QUQ0S2F6K3QJ","either","1","323","","","","","","","0","0","1","0.2307221343","","0.6","0.4","0.2","0.8","","","","","0.06192223509","0.2450765022","0.1567194189","0.2307221343","","","","","","","","76","L","3","","","181","main_expt"
"","bandit","261","852704","0.0-222.0-0.0","95922792","wem/bandit_either_2","A2QUQ0S2F6K3QJ","either","1","259","","","","","","","0","0","1","","0.1656926355","0.6","0.4","0.2","0.8","0.07865608963","0.2898963007","0.1805899487","0.1656926355","","","","","","","","","","","","76","L","3","","","182","main_expt"
"","bandit","262","854448","0.0-223.0-0.0","95922792","wem/bandit_either_2","A2QUQ0S2F6K3QJ","either","1","234","","","","","","","0","0","1","0.0695036973","","0.6","0.4","0.2","0.8","","","","","0.0695036973","0.337419987","0.1381226487","0.1997223474","","","","","","","","72","H","0","img/none_selected.jpg","","183","main_expt"
"","bandit","263","856288","0.0-224.0-0.0","95922792","wem/bandit_either_2","A2QUQ0S2F6K3QJ","either","1","330","","","","","","","0","0","1","","0.09883674892","0.6","0.4","0.2","0.8","0.09883674892","0.3334404967","0.1157029232","0.1936006223","","","","","","","","","","","","72","H","0","img/none_selected.jpg","","184","main_expt"
"","bandit","264","858104","0.0-225.0-0.0","95922792","wem/bandit_either_2","A2QUQ0S2F6K3QJ","either","1","306","","","","","","","0","0","1","","0.1344132801","0.6","0.4","0.2","0.8","0.1344132801","0.3049781316","0.09007466759","0.1794548994","","","","","","","","","","","","72","H","0","img/none_selected.jpg","","185","main_expt"
"","bandit","265","860072","0.0-226.0-0.0","95922792","wem/bandit_either_2","A2QUQ0S2F6K3QJ","either","1","458","","","","","","","0","0","1","0.1194183803","","0.6","0.4","0.2","0.8","","","","","0.1194183803","0.322039184","0.07784091677","0.1679588243","","","","","","","","72","H","0","img/none_selected.jpg","","186","main_expt"
"","bandit","266","861617","0.0-227.0-0.0","95922792","wem/bandit_either_2","A2QUQ0S2F6K3QJ","either","1","34","","","","","","","1","0","0","0.2898485093","","0.6","0.4","0.2","0.8","","","","","0.1456002269","0.2898485093","0.1332261693","0.1692259204","","","","","","","","74","J","1","","","187","main_expt"
"","bandit","267","863417","0.0-228.0-0.0","95922792","wem/bandit_either_2","A2QUQ0S2F6K3QJ","either","1","290","","","","","","","0","0","1","","0.3046836684","0.6","0.4","0.2","0.8","0.1008589119","0.3046836684","0.1302169342","0.1796926114","","","","","","","","","","","","74","J","1","","","188","main_expt"
"","bandit","268","865033","0.0-229.0-0.0","95922792","wem/bandit_either_2","A2QUQ0S2F6K3QJ","either","1","105","","","","","","","0","0","1","0.1459867673","","0.6","0.4","0.2","0.8","","","","","0.09109327247","0.3437642557","0.1459867673","0.1463090895","","","","","","","","75","K","2","","","189","main_expt"
"","bandit","269","866793","0.0-230.0-0.0","95922792","wem/bandit_either_2","A2QUQ0S2F6K3QJ","either","1","250","","","","","","","0","0","1","0.1670442817","","0.6","0.4","0.2","0.8","","","","","0.133333279","0.3685715368","0.1930387326","0.1670442817","","","","","","","","76","L","3","","","190","main_expt"
"","bandit","270","868665","0.0-231.0-0.0","95922792","wem/bandit_either_2","A2QUQ0S2F6K3QJ","either","1","361","","","","","","","0","0","1","0.1253338948","","0.6","0.4","0.2","0.8","","","","","0.1253338948","0.4063368095","0.1447045196","0.2148667481","","","","","","","","72","H","0","img/none_selected.jpg","","191","main_expt"
"","bandit","271","870417","0.0-232.0-0.0","95922792","wem/bandit_either_2","A2QUQ0S2F6K3QJ","either","1","242","","","","","","","0","1","0","","0.4194789623","0.6","0.4","0.2","0.8","0.1371372983","0.4194789623","0.1521301445","0.1891029698","","","","","","","","","","","","74","J","1","","","192","main_expt"
"","bandit","272","872184","0.0-233.0-0.0","95922792","wem/bandit_either_2","A2QUQ0S2F6K3QJ","either","1","258","","","","","","","0","0","1","","0.3914453041","0.6","0.4","0.2","0.8","0.1269519223","0.3914453041","0.1216552598","0.1818436489","","","","","","","","","","","","74","J","1","","","193","main_expt"
"","bandit","273","874184","0.0-234.0-0.0","95922792","wem/bandit_either_2","A2QUQ0S2F6K3QJ","either","1","491","","","","","","","0","0","1","","0.07681554104","0.6","0.4","0.2","0.8","0.1253972088","0.3988429791","0.07681554104","0.2036833838","","","","","","","","","","","","75","K","2","","","194","main_expt"
"","bandit","274","875952","0.0-235.0-0.0","95922792","wem/bandit_either_2","A2QUQ0S2F6K3QJ","either","1","259","","","","","","","0","0","1","0.4212514022","","0.6","0.4","0.2","0.8","","","","","0.1231557279","0.4212514022","0.07468822185","0.2189502041","","","","","","","","74","J","1","","","195","main_expt"
"","bandit","275","877937","0.0-236.0-0.0","95922792","wem/bandit_either_2","A2QUQ0S2F6K3QJ","either","1","476","","","","","","","0","0","1","0.07634526252","","0.6","0.4","0.2","0.8","","","","","0.2304226507","0.4128950903","0.07634526252","0.2011136523","","","","","","","","75","K","2","","","196","main_expt"
"","bandit","276","879521","0.0-237.0-0.0","95922792","wem/bandit_either_2","A2QUQ0S2F6K3QJ","either","1","73","","","","","","","0","0","1","0.2295646827","","0.6","0.4","0.2","0.8","","","","","0.3102822931","0.3979973083","0.06680697181","0.2295646827","","","","","","","","76","L","3","","","197","main_expt"
"","bandit","277","881345","0.0-238.0-0.0","95922792","wem/bandit_either_2","A2QUQ0S2F6K3QJ","either","1","315","","","","","","","0","0","1","0.3222054514","","0.6","0.4","0.2","0.8","","","","","0.3222054514","0.3153467244","0.05107679344","0.2570874699","","","","","","","","72","H","0","img/none_selected.jpg","","198","main_expt"
"","bandit","278","883121","0.0-239.0-0.0","95922792","wem/bandit_either_2","A2QUQ0S2F6K3QJ","either","1","267","","","","","","","0","0","1","","0.3121882746","0.6","0.4","0.2","0.8","0.3416159467","0.3121882746","0.06140804873","0.2215013189","","","","","","","","","","","","74","J","1","","","199","main_expt"
"","bandit","279","884905","0.0-240.0-0.0","95922792","wem/bandit_either_2","A2QUQ0S2F6K3QJ","either","1","275","","","","","","","0","0","1","","0.05697288244","0.6","0.4","0.2","0.8","0.3826655938","0.3789620948","0.05697288244","0.1681318695","","","","","","","","","","","","75","K","2","","","200","main_expt"
"","bandit","280","886729","0.0-241.0-0.0","95922792","wem/bandit_either_2","A2QUQ0S2F6K3QJ","either","1","314","","","","","","","0","0","1","","0.04802221103","0.6","0.4","0.2","0.8","0.4117435103","0.3575696279","0.04802221103","0.1787039029","","","","","","","","","","","","75","K","2","","","201","main_expt"
"","bandit","281","888386","0.0-242.0-0.0","95922792","wem/bandit_either_2","A2QUQ0S2F6K3QJ","either","1","147","","","","","","","0","0","1","","0.4023622846","0.6","0.4","0.2","0.8","0.4023622846","0.3937046418","0.04583536071","0.2180442152","","","","","","","","","","","","72","H","0","img/none_selected.jpg","","202","main_expt"
"","bandit","282","890145","0.0-243.0-0.0","95922792","wem/bandit_either_2","A2QUQ0S2F6K3QJ","either","1","249","","","","","","","0","0","1","","0.4225273878","0.6","0.4","0.2","0.8","0.4225273878","0.3901943722","0.03655969434","0.262784421","","","","","","","","","","","","72","H","0","img/none_selected.jpg","","203","main_expt"
"","bandit","283","891753","0.0-244.0-0.0","95922792","wem/bandit_either_2","A2QUQ0S2F6K3QJ","either","1","99","","","","","","","1","0","0","0.4099131859","","0.6","0.4","0.2","0.8","","","","","0.4151046429","0.4099131859","0.05773518339","0.2843732649","","","","","","","","74","J","1","","","204","main_expt"
"","bandit","284","893513","0.0-245.0-0.0","95922792","wem/bandit_either_2","A2QUQ0S2F6K3QJ","either","1","250","","","","","","","1","0","0","0.4238238901","","0.6","0.4","0.2","0.8","","","","","0.4288165897","0.4238238901","0.06616346658","0.2549063301","","","","","","","","74","J","1","","","205","main_expt"
"","bandit","285","895297","0.0-246.0-0.0","95922792","wem/bandit_either_2","A2QUQ0S2F6K3QJ","either","1","275","","","","","","","0","0","1","","0.4139837541","0.6","0.4","0.2","0.8","0.436745712","0.4139837541","0.09055598832","0.2982701688","","","","","","","","","","","","74","J","1","","","206","main_expt"
"","bandit","286","897050","0.0-247.0-0.0","95922792","wem/bandit_either_2","A2QUQ0S2F6K3QJ","either","1","241","","","","","","","0","0","1","0.3423773839","","0.6","0.4","0.2","0.8","","","","","0.4484652972","0.3544894801","0.07583085731","0.3423773839","","","","","","","","76","L","3","","","207","main_expt"
"","bandit","287","898962","0.0-248.0-0.0","95922792","wem/bandit_either_2","A2QUQ0S2F6K3QJ","either","1","402","","","","","","","1","0","0","0.3321535101","","0.6","0.4","0.2","0.8","","","","","0.4516947584","0.3703609936","0.09768014643","0.3321535101","","","","","","","","76","L","3","","","208","main_expt"
"","bandit","288","900762","0.0-249.0-0.0","95922792","wem/bandit_either_2","A2QUQ0S2F6K3QJ","either","1","289","","","","","","","0","0","1","0.3467721984","","0.6","0.4","0.2","0.8","","","","","0.4590139285","0.3590511704","0.08389795445","0.3467721984","","","","","","","","76","L","3","","","209","main_expt"
"","bandit","289","902612","0.0-250.0-0.0","95922792","wem/bandit_either_2","A2QUQ0S2F6K3QJ","either","1","338","","","","","","","1","0","0","0.4378910613","","0.6","0.4","0.2","0.8","","","","","0.4378910613","0.3781523972","0.07846525543","0.3513447539","","","","","","","","72","H","0","img/none_selected.jpg","","210","main_expt"
"","bandit","290","904235","0.0-251.0-0.0","95922792","wem/bandit_either_2","A2QUQ0S2F6K3QJ","either","1","112","","","","","","","0","0","1","0.4139384991","","0.6","0.4","0.2","0.8","","","","","0.4139384991","0.3895188655","0.05906932722","0.4003692624","","","","","","","","72","H","0","img/none_selected.jpg","","211","main_expt"
"","bandit","291","905979","0.0-252.0-0.0","95922792","wem/bandit_either_2","A2QUQ0S2F6K3QJ","either","1","233","","","","","","","0","0","1","0.3949660502","","0.6","0.4","0.2","0.8","","","","","0.3659234609","0.4075098947","0.04754192311","0.3949660502","","","","","","","","76","L","3","","","212","main_expt"
"","bandit","292","907771","0.0-253.0-0.0","95922792","wem/bandit_either_2","A2QUQ0S2F6K3QJ","either","1","281","","","","","","","0","0","1","0.4233479157","","0.6","0.4","0.2","0.8","","","","","0.3180572988","0.4191075236","0.05481920189","0.4233479157","","","","","","","","76","L","3","","","213","main_expt"
"","bandit","293","909371","0.0-254.0-0.0","95922792","wem/bandit_either_2","A2QUQ0S2F6K3QJ","either","1","91","","","","","","","0","0","1","","0.2611162072","0.6","0.4","0.2","0.8","0.2611162072","0.3799529118","0.07954578011","0.4182751871","","","","","","","","","","","","72","H","0","img/none_selected.jpg","","214","main_expt"
"","bandit","294","911067","0.0-255.0-0.0","95922792","wem/bandit_either_2","A2QUQ0S2F6K3QJ","either","1","185","","","","","","","0","0","1","","0.2331309726","0.6","0.4","0.2","0.8","0.2331309726","0.3924699069","0.1078137614","0.3745823719","","","","","","","","","","","","72","H","0","img/none_selected.jpg","","215","main_expt"
"","bandit","295","912850","0.0-256.0-0.0","95922792","wem/bandit_either_2","A2QUQ0S2F6K3QJ","either","1","273","","","","","","","0","0","1","0.3809837923","","0.6","0.4","0.2","0.8","","","","","0.2428402293","0.3556657658","0.1269525553","0.3809837923","","","","","","","","76","L","3","","","216","main_expt"
"","bandit","296","914987","0.0-257.0-0.0","95922792","wem/bandit_either_2","A2QUQ0S2F6K3QJ","either","1","627","","","","","","","0","1","0","","0.3870416945","0.6","0.4","0.2","0.8","0.2317762644","0.3870416945","0.1849794572","0.4144294186","","","","","","","","","","","","74","J","1","","","217","main_expt"
"","bandit","297","916716","0.0-258.0-0.0","95922792","wem/bandit_either_2","A2QUQ0S2F6K3QJ","either","1","218","","","","","","","1","0","0","0.3944581396","","0.6","0.4","0.2","0.8","","","","","0.204309912","0.3944581396","0.1903787706","0.4090742927","","","","","","","","74","J","1","","","218","main_expt"
"","bandit","298","918579","0.0-259.0-0.0","95922792","wem/bandit_either_2","A2QUQ0S2F6K3QJ","either","1","354","","","","","","","0","0","1","0.4256173987","","0.6","0.4","0.2","0.8","","","","","0.1685596251","0.4256173987","0.1768508397","0.3869695378","","","","","","","","74","J","1","","","219","main_expt"
"","bandit","299","920404","0.0-260.0-0.0","95922792","wem/bandit_either_2","A2QUQ0S2F6K3QJ","either","1","316","","","","","","","0","0","1","0.3814250035","","0.6","0.4","0.2","0.8","","","","","0.2488487331","0.4240862242","0.2176561852","0.3814250035","","","","","","","","76","L","3","","","220","main_expt"
"","bandit","300","922028","0.0-261.0-0.0","95922792","wem/bandit_either_2","A2QUQ0S2F6K3QJ","either","1","113","","","","","","","0","0","1","","0.2789816034","0.6","0.4","0.2","0.8","0.2789816034","0.4364702466","0.2075488201","0.3560431311","","","","","","","","","","","","72","H","0","img/none_selected.jpg","","221","main_expt"
"","bandit","301","923899","0.0-262.0-0.0","95922792","wem/bandit_either_2","A2QUQ0S2F6K3QJ","either","1","362","","","","","","","0","0","1","","0.242729834","0.6","0.4","0.2","0.8","0.242729834","0.4512924842","0.2260831429","0.3424215647","","","","","","","","","","","","72","H","0","img/none_selected.jpg","","222","main_expt"
"","bandit","302","925876","0.0-263.0-0.0","95922792","wem/bandit_either_2","A2QUQ0S2F6K3QJ","either","1","466","","","","","","","0","0","1","0.3118962833","","0.6","0.4","0.2","0.8","","","","","0.196538567","0.4649948574","0.2512075751","0.3118962833","","","","","","","","76","L","3","","","223","main_expt"
"","bandit","303","927652","0.0-264.0-0.0","95922792","wem/bandit_either_2","A2QUQ0S2F6K3QJ","either","1","265","","","","","","","0","0","1","0.261290028","","0.6","0.4","0.2","0.8","","","","","0.2189223785","0.4692106987","0.3072691987","0.261290028","","","","","","","","76","L","3","","","224","main_expt"
"","bandit","304","929451","0.0-265.0-0.0","95922792","wem/bandit_either_2","A2QUQ0S2F6K3QJ","either","1","288","","","","","","","0","0","1","","0.2131207899","0.6","0.4","0.2","0.8","0.2131207899","0.4772226815","0.3358063032","0.2748104332","","","","","","","","","","","","72","H","0","img/none_selected.jpg","","225","main_expt"
"","bandit","305","931277","0.0-266.0-0.0","95922792","wem/bandit_either_2","A2QUQ0S2F6K3QJ","either","1","314","","","","","","","0","1","0","","0.4828013869","0.6","0.4","0.2","0.8","0.187439681","0.4828013869","0.2994610032","0.2112523614","","","","","","","","","","","","74","J","1","","","226","main_expt"
"","bandit","306","932988","0.0-267.0-0.0","95922792","wem/bandit_either_2","A2QUQ0S2F6K3QJ","either","1","201","","","","","","","0","0","1","","0.4805292857","0.6","0.4","0.2","0.8","0.1522087394","0.4805292857","0.2719992041","0.1879164098","","","","","","","","","","","","74","J","1","","","227","main_expt"
"","bandit","307","934588","0.0-268.0-0.0","95922792","wem/bandit_either_2","A2QUQ0S2F6K3QJ","either","1","90","","","","","","","1","0","0","0.2601066631","","0.6","0.4","0.2","0.8","","","","","0.1975586059","0.4770879938","0.2601066631","0.1857646906","","","","","","","","75","K","2","","","228","main_expt"
"","bandit","308","936324","0.0-269.0-0.0","95922792","wem/bandit_either_2","A2QUQ0S2F6K3QJ","either","1","224","","","","","","","0","0","1","","0.2333982712","0.6","0.4","0.2","0.8","0.2280604414","0.4830225504","0.2333982712","0.1608888173","","","","","","","","","","","","75","K","2","","","229","main_expt"
"","bandit","309","938084","0.0-270.0-0.0","95922792","wem/bandit_either_2","A2QUQ0S2F6K3QJ","either","1","249","","","","","","","0","0","1","0.1139945837","","0.6","0.4","0.2","0.8","","","","","0.2120359748","0.4827210916","0.2179366985","0.1139945837","","","","","","","","76","L","3","","","230","main_expt"
"","bandit","310","939660","0.0-271.0-0.0","95922792","wem/bandit_either_2","A2QUQ0S2F6K3QJ","either","1","64","","","","","","","1","0","0","0.2260377558","","0.6","0.4","0.2","0.8","","","","","0.2260377558","0.4764813513","0.210335649","0.1071229599","","","","","","","","72","H","0","img/none_selected.jpg","","231","main_expt"
"","bandit","311","941548","0.0-272.0-0.0","95922792","wem/bandit_either_2","A2QUQ0S2F6K3QJ","either","1","378","","","","","","","1","0","0","0.2810037348","","0.6","0.4","0.2","0.8","","","","","0.2810037348","0.4794978353","0.2154905401","0.1250262501","","","","","","","","72","H","0","img/none_selected.jpg","","232","main_expt"
"","bandit","312","943404","0.0-273.0-0.0","95922792","wem/bandit_either_2","A2QUQ0S2F6K3QJ","either","1","345","","","","","","","0","0","1","","0.3371590923","0.6","0.4","0.2","0.8","0.3371590923","0.4717583679","0.2199054097","0.1262657767","","","","","","","","","","","","72","H","0","img/none_selected.jpg","","233","main_expt"
"","bandit","313","945188","0.0-274.0-0.0","95922792","wem/bandit_either_2","A2QUQ0S2F6K3QJ","either","1","273","","","","","","","0","1","0","","0.4801470087","0.6","0.4","0.2","0.8","0.2614597929","0.4801470087","0.2116885818","0.1436583916","","","","","","","","","","","","74","J","1","","","234","main_expt"
"","bandit","314","947428","0.0-275.0-0.0","95922792","wem/bandit_either_2","A2QUQ0S2F6K3QJ","either","1","728","","","","","","","0","1","0","","0.4698449305","0.6","0.4","0.2","0.8","0.2855471023","0.4698449305","0.2037112673","0.1776605917","","","","","","","","","","","","74","J","1","","","235","main_expt"
"","bandit","315","949597","0.0-276.0-0.0","95922792","wem/bandit_either_2","A2QUQ0S2F6K3QJ","either","1","657","","","","","","","0","0","1","","0.2295670059","0.6","0.4","0.2","0.8","0.2806831757","0.4750890902","0.2295670059","0.2039581082","","","","","","","","","","","","75","K","2","","","236","main_expt"
"","bandit","316","951445","0.0-277.0-0.0","95922792","wem/bandit_either_2","A2QUQ0S2F6K3QJ","either","1","336","","","","","","","0","0","1","0.1898025468","","0.6","0.4","0.2","0.8","","","","","0.3314479917","0.490873849","0.2602584061","0.1898025468","","","","","","","","76","L","3","","","237","main_expt"
"","bandit","317","953165","0.0-278.0-0.0","95922792","wem/bandit_either_2","A2QUQ0S2F6K3QJ","either","1","208","","","","","","","1","0","0","0.3495093658","","0.6","0.4","0.2","0.8","","","","","0.3495093658","0.4658125052","0.2505035884","0.20274426","","","","","","","","72","H","0","img/none_selected.jpg","","238","main_expt"
"","bandit","318","955020","0.0-279.0-0.0","95922792","wem/bandit_either_2","A2QUQ0S2F6K3QJ","either","1","343","","","","","","","0","1","0","","0.3413466471","0.6","0.4","0.2","0.8","0.3413466471","0.4717810478","0.209031891","0.2051086292","","","","","","","","","","","","72","H","0","img/none_selected.jpg","","239","main_expt"
"","bandit","319","956892","0.0-280.0-0.0","95922792","wem/bandit_either_2","A2QUQ0S2F6K3QJ","either","1","361","","","","","","","0","0","1","0.3848911707","","0.6","0.4","0.2","0.8","","","","","0.3848911707","0.4751676635","0.2203826704","0.1823871945","","","","","","","","72","H","0","img/none_selected.jpg","","240","main_expt"
"","bandit","320","958732","0.0-281.0-0.0","95922792","wem/bandit_either_2","A2QUQ0S2F6K3QJ","either","1","329","","","","","","","1","0","0","0.4782176083","","0.6","0.4","0.2","0.8","","","","","0.3352713547","0.4782176083","0.2502218434","0.2206124516","","","","","","","","74","J","1","","","241","main_expt"
"","bandit","321","960540","0.0-282.0-0.0","95922792","wem/bandit_either_2","A2QUQ0S2F6K3QJ","either","1","297","","","","","","","1","0","0","0.4842593171","","0.6","0.4","0.2","0.8","","","","","0.3898112853","0.4842593171","0.2465850657","0.1822231347","","","","","","","","74","J","1","","","242","main_expt"
"","bandit","322","962348","0.0-283.0-0.0","95922792","wem/bandit_either_2","A2QUQ0S2F6K3QJ","either","1","297","","","","","","","0","0","1","","0.4877308522","0.6","0.4","0.2","0.8","0.3746092993","0.4877308522","0.2768687636","0.1782216913","","","","","","","","","","","","74","J","1","","","243","main_expt"
"","bandit","323","964212","0.0-284.0-0.0","95922792","wem/bandit_either_2","A2QUQ0S2F6K3QJ","either","1","353","","","","","","","0","0","1","","0.3318130554","0.6","0.4","0.2","0.8","0.3551642001","0.4867000748","0.3318130554","0.1683297066","","","","","","","","","","","","75","K","2","","","244","main_expt"
"","bandit","324","966765","0.0-285.0-0.0","95922792","wem/bandit_either_2","A2QUQ0S2F6K3QJ","either","1","1041","","","","","","","0","0","1","","0.2394915997","0.6","0.4","0.2","0.8","0.3556023966","0.4779689664","0.3549389872","0.2394915997","","","","","","","","","","","","76","L","3","","","245","main_expt"
