"consent","trial_type","trial_index","time_elapsed","internal_node_id","subjID","study","MID","cond","drift","rt","responses","key_press","expt_phase","like","value","connected","gems","bombs","no_reward","GemPrChosen","BombPrChosen","GainOverPainPr_0","GainOverPainPr_1","GainOverPainPr_2","GainOverPainPr_3","LosePr_0","LosePr_1","LosePr_2","LosePr_3","WinPr_0","WinPr_1","WinPr_2","WinPr_3","Q0","Q1","Q2","gender","age","ethnicity","target","respCharCode","respKey","respChoiceNum","respChoice","practice","trial_counter","trial_label"
"INL_behavioral_consent_30min_online.html","consent","0","20806","0.0-0.0","97167275","wem/bandit_either_2","ANPCXN619ACW9","either","6","","","","","","","","","","","","","","","","","","","","","","","","","","","","","","","","","","","","","",""
"","survey-text","1","26423","0.0-1.0","97167275","wem/bandit_either_2","ANPCXN619ACW9","either","6","4609","{""Q0"":""ANPCXN619ACW9""}","","","","","","","","","","","","","","","","","","","","","","","","","","","","","","","","","","","",""
"","text","2","34357","0.0-2.0","97167275","wem/bandit_either_2","ANPCXN619ACW9","either","6","6925","","32","","","","","","","","","","","","","","","","","","","","","","","","","","","","","","","","","","",""
"","text","3","41087","0.0-3.0","97167275","wem/bandit_either_2","ANPCXN619ACW9","either","6","6728","","32","","","","","","","","","","","","","","","","","","","","","","","","","","","","","","","","","","",""
"","text","4","59661","0.0-4.0","97167275","wem/bandit_either_2","ANPCXN619ACW9","either","6","18572","","32","","","","","","","","","","","","","","","","","","","","","","","","","","","","","","","","","","",""
"","text","5","69525","0.0-5.0","97167275","wem/bandit_either_2","ANPCXN619ACW9","either","6","9862","","32","","","","","","","","","","","","","","","","","","","","","","","","","","","","","","","","","","",""
"","text","6","80916","0.0-6.0","97167275","wem/bandit_either_2","ANPCXN619ACW9","either","6","11389","","32","","","","","","","","","","","","","","","","","","","","","","","","","","","","","","","","","","",""
"","text","7","86009","0.0-7.0","97167275","wem/bandit_either_2","ANPCXN619ACW9","either","6","5089","","32","","","","","","","","","","","","","","","","","","","","","","","","","","","","","","","","","","",""
"","text","8","88843","0.0-8.0","97167275","wem/bandit_either_2","ANPCXN619ACW9","either","6","2831","","32","","","","","","","","","","","","","","","","","","","","","","","","","","","","","","","","","","",""
"","identification","9","94726","0.0-9.0-0.0","97167275","wem/bandit_either_2","ANPCXN619ACW9","either","6","5865","","","","5","5","5","","","","","","","","","","","","","","","","","","","","","","","","the village of Zur","","","","","","",""
"","identification","10","98276","0.0-9.0-1.0","97167275","wem/bandit_either_2","ANPCXN619ACW9","either","6","2521","","","","2","1","1","","","","","","","","","","","","","","","","","","","","","","","","the village of Nyx","","","","","","",""
"","text","11","103426","0.0-10.0","97167275","wem/bandit_either_2","ANPCXN619ACW9","either","6","4133","","32","","","","","","","","","","","","","","","","","","","","","","","","","","","","","","","","","","",""
"","text","12","105425","0.0-11.0","97167275","wem/bandit_either_2","ANPCXN619ACW9","either","6","1997","","32","","","","","","","","","","","","","","","","","","","","","","","","","","","","","","","","","","",""
"","text","13","108023","0.0-12.0","97167275","wem/bandit_either_2","ANPCXN619ACW9","either","6","2597","","32","","","","","","","","","","","","","","","","","","","","","","","","","","","","","","","","","","",""
"","text","14","113100","0.0-13.0","97167275","wem/bandit_either_2","ANPCXN619ACW9","either","6","5075","","32","","","","","","","","","","","","","","","","","","","","","","","","","","","","","","","","","","",""
"","bandit","15","116464","0.0-14.0-0.0","97167275","wem/bandit_either_2","ANPCXN619ACW9","either","6","1834","","","","","","","0","0","1","0","0","","","","","0","","","","0","","","","","","","","","","","74","J","0","img/none_selected_demo.jpg","true","0",""
"","bandit","16","119111","0.0-15.0-0.0","97167275","wem/bandit_either_2","ANPCXN619ACW9","either","6","1140","","","","","","","0","0","1","0","0","","","","","0","","","","0","","","","","","","","","","","75","K","0","img/none_selected_demo.jpg","true","0",""
"","text","17","125878","0.0-16.0","97167275","wem/bandit_either_2","ANPCXN619ACW9","either","6","6763","","32","","","","","","","","","","","","","","","","","","","","","","","","","","","","","","","","","","",""
"","text","18","132386","0.0-17.0","97167275","wem/bandit_either_2","ANPCXN619ACW9","either","6","6505","","32","","","","","","","","","","","","","","","","","","","","","","","","","","","","","","","","","","",""
"","text","19","137175","0.0-18.0","97167275","wem/bandit_either_2","ANPCXN619ACW9","either","6","4786","","32","","","","","","","","","","","","","","","","","","","","","","","","","","","","","","","","","","",""
"","text","20","140294","0.0-19.0","97167275","wem/bandit_either_2","ANPCXN619ACW9","either","6","3116","","32","","","","","","","","","","","","","","","","","","","","","","","","","","","","","","","","","","",""
"","bandit","21","142821","0.0-20.0-0.0","97167275","wem/bandit_either_2","ANPCXN619ACW9","either","6","1005","","","","","","","0","0","1","","0.2","0.5","0.5","","","0.8","0.2","","","","","","","","","","","","","","75","K","1","","true","0","80_20_practice"
"","bandit","22","144813","0.0-20.0-1.0","97167275","wem/bandit_either_2","ANPCXN619ACW9","either","6","474","","","","","","","0","0","1","0.2","","0.5","0.5","","","","","","","0.8","0.2","","","","","","","","","","75","K","1","","true","0","80_20_practice"
"","bandit","23","146650","0.0-20.0-2.0","97167275","wem/bandit_either_2","ANPCXN619ACW9","either","6","315","","","","","","","1","0","0","0.8","","0.5","0.5","","","","","","","0.8","0.2","","","","","","","","","","74","J","0","img/none_selected_demo.jpg","true","0","80_20_practice"
"","bandit","24","148458","0.0-20.0-3.0","97167275","wem/bandit_either_2","ANPCXN619ACW9","either","6","296","","","","","","","0","0","1","0.8","","0.5","0.5","","","","","","","0.8","0.2","","","","","","","","","","74","J","0","img/none_selected_demo.jpg","true","0","80_20_practice"
"","bandit","25","150246","0.0-20.0-4.0","97167275","wem/bandit_either_2","ANPCXN619ACW9","either","6","261","","","","","","","0","0","1","0.8","","0.5","0.5","","","","","","","0.8","0.2","","","","","","","","","","74","J","0","img/none_selected_demo.jpg","true","0","80_20_practice"
"","bandit","26","151993","0.0-20.0-5.0","97167275","wem/bandit_either_2","ANPCXN619ACW9","either","6","213","","","","","","","1","0","0","0.8","","0.5","0.5","","","","","","","0.8","0.2","","","","","","","","","","74","J","0","img/none_selected_demo.jpg","true","0","80_20_practice"
"","bandit","27","153785","0.0-20.0-6.0","97167275","wem/bandit_either_2","ANPCXN619ACW9","either","6","270","","","","","","","0","0","1","","0.2","0.5","0.5","","","0.8","0.2","","","","","","","","","","","","","","75","K","1","","true","0","80_20_practice"
"","bandit","28","155428","0.0-20.0-7.0","97167275","wem/bandit_either_2","ANPCXN619ACW9","either","6","122","","","","","","","0","0","1","0.2","","0.5","0.5","","","","","","","0.8","0.2","","","","","","","","","","75","K","1","","true","0","80_20_practice"
"","bandit","29","157085","0.0-20.0-8.0","97167275","wem/bandit_either_2","ANPCXN619ACW9","either","6","144","","","","","","","1","0","0","0.8","","0.5","0.5","","","","","","","0.8","0.2","","","","","","","","","","74","J","0","img/none_selected_demo.jpg","true","0","80_20_practice"
"","bandit","30","158636","0.0-20.0-9.0","97167275","wem/bandit_either_2","ANPCXN619ACW9","either","6","41","","","","","","","0","0","1","","0.8","0.5","0.5","","","0.8","0.2","","","","","","","","","","","","","","74","J","0","img/none_selected_demo.jpg","true","0","80_20_practice"
"","bandit","31","160380","0.0-20.0-10.0","97167275","wem/bandit_either_2","ANPCXN619ACW9","either","6","214","","","","","","","0","1","0","","0.8","0.5","0.5","","","0.8","0.2","","","","","","","","","","","","","","74","J","0","img/none_selected_demo.jpg","true","0","80_20_practice"
"","bandit","32","162131","0.0-20.0-11.0","97167275","wem/bandit_either_2","ANPCXN619ACW9","either","6","234","","","","","","","0","0","1","0.2","","0.5","0.5","","","","","","","0.8","0.2","","","","","","","","","","75","K","1","","true","0","80_20_practice"
"","bandit","33","163761","0.0-20.0-12.0","97167275","wem/bandit_either_2","ANPCXN619ACW9","either","6","116","","","","","","","1","0","0","0.8","","0.5","0.5","","","","","","","0.8","0.2","","","","","","","","","","74","J","0","img/none_selected_demo.jpg","true","0","80_20_practice"
"","bandit","34","165591","0.0-20.0-13.0","97167275","wem/bandit_either_2","ANPCXN619ACW9","either","6","320","","","","","","","0","1","0","","0.8","0.5","0.5","","","0.8","0.2","","","","","","","","","","","","","","74","J","0","img/none_selected_demo.jpg","true","0","80_20_practice"
"","bandit","35","167397","0.0-20.0-14.0","97167275","wem/bandit_either_2","ANPCXN619ACW9","either","6","270","","","","","","","0","1","0","","0.8","0.5","0.5","","","0.8","0.2","","","","","","","","","","","","","","74","J","0","img/none_selected_demo.jpg","true","0","80_20_practice"
"","bandit","36","169067","0.0-20.0-15.0","97167275","wem/bandit_either_2","ANPCXN619ACW9","either","6","164","","","","","","","0","0","1","","0.2","0.5","0.5","","","0.8","0.2","","","","","","","","","","","","","","75","K","1","","true","0","80_20_practice"
"","bandit","37","170912","0.0-20.0-16.0","97167275","wem/bandit_either_2","ANPCXN619ACW9","either","6","327","","","","","","","0","0","1","0.2","","0.5","0.5","","","","","","","0.8","0.2","","","","","","","","","","75","K","1","","true","0","80_20_practice"
"","bandit","38","172448","0.0-20.0-17.0","97167275","wem/bandit_either_2","ANPCXN619ACW9","either","6","19","","","","","","","1","0","0","0.8","","0.5","0.5","","","","","","","0.8","0.2","","","","","","","","","","74","J","0","img/none_selected_demo.jpg","true","0","80_20_practice"
"","bandit","39","174376","0.0-20.0-18.0","97167275","wem/bandit_either_2","ANPCXN619ACW9","either","6","393","","","","","","","0","1","0","","0.8","0.5","0.5","","","0.8","0.2","","","","","","","","","","","","","","74","J","0","img/none_selected_demo.jpg","true","0","80_20_practice"
"","bandit","40","176289","0.0-20.0-19.0","97167275","wem/bandit_either_2","ANPCXN619ACW9","either","6","389","","","","","","","1","0","0","0.8","","0.5","0.5","","","","","","","0.8","0.2","","","","","","","","","","74","J","0","img/none_selected_demo.jpg","true","0","80_20_practice"
"","text","41","179502","0.0-21.0","97167275","wem/bandit_either_2","ANPCXN619ACW9","either","6","3203","","32","","","","","","","","","","","","","","","","","","","","","","","","","","","","","","","","","","",""
"","bandit","42","182048","0.0-22.0-0.0","97167275","wem/bandit_either_2","ANPCXN619ACW9","either","6","1017","","","","","","","1","0","0","1","0","","","","","0","1","","","1","0","","","","","","","","","","74","J","0","img/none_selected_demo.jpg","true","0",""
"","text","43","187522","0.0-23.0","97167275","wem/bandit_either_2","ANPCXN619ACW9","either","6","5470","","32","","","","","","","","","","","","","","","","","","","","","","","","","","","","","","","","","","",""
"","text","44","189973","0.0-24.0","97167275","wem/bandit_either_2","ANPCXN619ACW9","either","6","2448","","32","","","","","","","","","","","","","","","","","","","","","","","","","","","","","","","","","","",""
"","text","45","192463","0.0-25.0","97167275","wem/bandit_either_2","ANPCXN619ACW9","either","6","2488","","32","","","","","","","","","","","","","","","","","","","","","","","","","","","","","","","","","","",""
"","text","46","195101","0.0-26.0","97167275","wem/bandit_either_2","ANPCXN619ACW9","either","6","2635","","32","","","","","","","","","","","","","","","","","","","","","","","","","","","","","","","","","","",""
"","text","47","200971","0.0-27.0","97167275","wem/bandit_either_2","ANPCXN619ACW9","either","6","5868","","32","","","","","","","","","","","","","","","","","","","","","","","","","","","","","","","","","","",""
"","text","48","204554","0.0-28.0","97167275","wem/bandit_either_2","ANPCXN619ACW9","either","6","3579","","32","","","","","","","","","","","","","","","","","","","","","","","","","","","","","","","","","","",""
"","text","49","208260","0.0-29.0","97167275","wem/bandit_either_2","ANPCXN619ACW9","either","6","3702","","32","","","","","","","","","","","","","","","","","","","","","","","","","","","","","","","","","","",""
"","text","50","212340","0.0-30.0","97167275","wem/bandit_either_2","ANPCXN619ACW9","either","6","4075","","32","","","","","","","","","","","","","","","","","","","","","","","","","","","","","","","","","","",""
"","text","51","215871","0.0-31.0","97167275","wem/bandit_either_2","ANPCXN619ACW9","either","6","3524","","32","","","","","","","","","","","","","","","","","","","","","","","","","","","","","","","","","","",""
"","text","52","218183","0.0-32.0","97167275","wem/bandit_either_2","ANPCXN619ACW9","either","6","2308","","32","","","","","","","","","","","","","","","","","","","","","","","","","","","","","","","","","","",""
"","text","53","223441","0.0-33.0","97167275","wem/bandit_either_2","ANPCXN619ACW9","either","6","5255","","32","","","","","","","","","","","","","","","","","","","","","","","","","","","","","","","","","","",""
"","bandit","54","225529","0.0-34.0-0.0","97167275","wem/bandit_either_2","ANPCXN619ACW9","either","6","579","","","","","","","1","0","0","0.8","","0.5","0.5","0.5","0.5","","","","","0.8","0.2","0.6","0.2","","","","","","","","72","H","0","img/none_selected.jpg","true","0","full_practice"
"","bandit","55","227394","0.0-34.0-1.0","97167275","wem/bandit_either_2","ANPCXN619ACW9","either","6","342","","","","","","","1","0","0","0.8","","0.5","0.5","0.5","0.5","","","","","0.8","0.2","0.6","0.2","","","","","","","","72","H","0","img/none_selected.jpg","true","0","full_practice"
"","bandit","56","229328","0.0-34.0-2.0","97167275","wem/bandit_either_2","ANPCXN619ACW9","either","6","419","","","","","","","1","0","0","0.8","","0.5","0.5","0.5","0.5","","","","","0.8","0.2","0.6","0.2","","","","","","","","72","H","0","img/none_selected.jpg","true","0","full_practice"
"","bandit","57","231123","0.0-34.0-3.0","97167275","wem/bandit_either_2","ANPCXN619ACW9","either","6","268","","","","","","","1","0","0","0.8","","0.5","0.5","0.5","0.5","","","","","0.8","0.2","0.6","0.2","","","","","","","","72","H","0","img/none_selected.jpg","true","0","full_practice"
"","bandit","58","232748","0.0-34.0-4.0","97167275","wem/bandit_either_2","ANPCXN619ACW9","either","6","102","","","","","","","0","0","1","0.2","","0.5","0.5","0.5","0.5","","","","","0.8","0.2","0.6","0.2","","","","","","","","74","J","1","","true","0","full_practice"
"","bandit","59","234525","0.0-34.0-5.0","97167275","wem/bandit_either_2","ANPCXN619ACW9","either","6","264","","","","","","","1","0","0","0.8","","0.5","0.5","0.5","0.5","","","","","0.8","0.2","0.6","0.2","","","","","","","","72","H","0","img/none_selected.jpg","true","0","full_practice"
"","bandit","60","236302","0.0-34.0-6.0","97167275","wem/bandit_either_2","ANPCXN619ACW9","either","6","261","","","","","","","1","0","0","0.8","","0.5","0.5","0.5","0.5","","","","","0.8","0.2","0.6","0.2","","","","","","","","72","H","0","img/none_selected.jpg","true","0","full_practice"
"","bandit","61","237935","0.0-34.0-7.0","97167275","wem/bandit_either_2","ANPCXN619ACW9","either","6","97","","","","","","","0","1","0","","0.6","0.5","0.5","0.5","0.5","0.8","0.2","0.6","0.2","","","","","","","","","","","","75","K","2","","true","0","full_practice"
"","bandit","62","239699","0.0-34.0-8.0","97167275","wem/bandit_either_2","ANPCXN619ACW9","either","6","241","","","","","","","1","0","0","0.8","","0.5","0.5","0.5","0.5","","","","","0.8","0.2","0.6","0.2","","","","","","","","72","H","0","img/none_selected.jpg","true","0","full_practice"
"","bandit","63","241476","0.0-34.0-9.0","97167275","wem/bandit_either_2","ANPCXN619ACW9","either","6","260","","","","","","","0","0","1","","0.2","0.5","0.5","0.5","0.5","0.8","0.2","0.6","0.2","","","","","","","","","","","","76","L","3","","true","0","full_practice"
"","bandit","64","243158","0.0-34.0-10.0","97167275","wem/bandit_either_2","ANPCXN619ACW9","either","6","156","","","","","","","0","0","1","0.8","","0.5","0.5","0.5","0.5","","","","","0.8","0.2","0.6","0.2","","","","","","","","72","H","0","img/none_selected.jpg","true","0","full_practice"
"","bandit","65","244814","0.0-34.0-11.0","97167275","wem/bandit_either_2","ANPCXN619ACW9","either","6","147","","","","","","","1","0","0","0.8","","0.5","0.5","0.5","0.5","","","","","0.8","0.2","0.6","0.2","","","","","","","","72","H","0","img/none_selected.jpg","true","0","full_practice"
"","bandit","66","246601","0.0-34.0-12.0","97167275","wem/bandit_either_2","ANPCXN619ACW9","either","6","271","","","","","","","1","0","0","0.8","","0.5","0.5","0.5","0.5","","","","","0.8","0.2","0.6","0.2","","","","","","","","72","H","0","img/none_selected.jpg","true","0","full_practice"
"","bandit","67","248417","0.0-34.0-13.0","97167275","wem/bandit_either_2","ANPCXN619ACW9","either","6","307","","","","","","","1","0","0","0.8","","0.5","0.5","0.5","0.5","","","","","0.8","0.2","0.6","0.2","","","","","","","","72","H","0","img/none_selected.jpg","true","0","full_practice"
"","bandit","68","250034","0.0-34.0-14.0","97167275","wem/bandit_either_2","ANPCXN619ACW9","either","6","85","","","","","","","0","1","0","","0.8","0.5","0.5","0.5","0.5","0.8","0.2","0.6","0.2","","","","","","","","","","","","72","H","0","img/none_selected.jpg","true","0","full_practice"
"","bandit","69","251921","0.0-34.0-15.0","97167275","wem/bandit_either_2","ANPCXN619ACW9","either","6","363","","","","","","","1","0","0","0.2","","0.5","0.5","0.5","0.5","","","","","0.8","0.2","0.6","0.2","","","","","","","","74","J","1","","true","0","full_practice"
"","bandit","70","253544","0.0-34.0-16.0","97167275","wem/bandit_either_2","ANPCXN619ACW9","either","6","112","","","","","","","0","0","1","0.2","","0.5","0.5","0.5","0.5","","","","","0.8","0.2","0.6","0.2","","","","","","","","74","J","1","","true","0","full_practice"
"","bandit","71","255449","0.0-34.0-17.0","97167275","wem/bandit_either_2","ANPCXN619ACW9","either","6","388","","","","","","","0","0","1","0.8","","0.5","0.5","0.5","0.5","","","","","0.8","0.2","0.6","0.2","","","","","","","","72","H","0","img/none_selected.jpg","true","0","full_practice"
"","bandit","72","257009","0.0-34.0-18.0","97167275","wem/bandit_either_2","ANPCXN619ACW9","either","6","37","","","","","","","0","0","1","0.6","","0.5","0.5","0.5","0.5","","","","","0.8","0.2","0.6","0.2","","","","","","","","75","K","2","","true","0","full_practice"
"","bandit","73","258641","0.0-34.0-19.0","97167275","wem/bandit_either_2","ANPCXN619ACW9","either","6","107","","","","","","","1","0","0","0.2","","0.5","0.5","0.5","0.5","","","","","0.8","0.2","0.6","0.2","","","","","","","","74","J","1","","true","0","full_practice"
"","text","74","261570","0.0-35.0","97167275","wem/bandit_either_2","ANPCXN619ACW9","either","6","2921","","32","","","","","","","","","","","","","","","","","","","","","","","","","","","","","","","","","","",""
"","text","75","271763","0.0-36.0","97167275","wem/bandit_either_2","ANPCXN619ACW9","either","6","9190","","32","","","","","","","","","","","","","","","","","","","","","","","","","","","","","","","","","","",""
"","text","76","280176","0.0-37.0","97167275","wem/bandit_either_2","ANPCXN619ACW9","either","6","8411","","32","","","","","","","","","","","","","","","","","","","","","","","","","","","","","","","","","","",""
"","text","77","284885","0.0-38.0","97167275","wem/bandit_either_2","ANPCXN619ACW9","either","6","4703","","32","","","","","","","","","","","","","","","","","","","","","","","","","","","","","","","","","","",""
"","text","78","288592","0.0-39.0","97167275","wem/bandit_either_2","ANPCXN619ACW9","either","6","3705","","32","","","","","","","","","","","","","","","","","","","","","","","","","","","","","","","","","","",""
"","text","79","292176","0.0-40.0","97167275","wem/bandit_either_2","ANPCXN619ACW9","either","6","3582","","32","","","","","","","","","","","","","","","","","","","","","","","","","","","","","","","","","","",""
"","bandit","80","294983","0.0-41.0-0.0","97167275","wem/bandit_either_2","ANPCXN619ACW9","either","6","1287","","","","","","","1","0","0","0.4656478179","","0.4","0.2","0.8","0.6","","","","","0.1734470434","0.06094066238","0.1720655487","0.4656478179","","","","","","","","76","L","3","","","1","main_expt"
"","bandit","81","296796","0.0-42.0-0.0","97167275","wem/bandit_either_2","ANPCXN619ACW9","either","6","280","","","","","","","0","0","1","","0.4661883906","0.4","0.2","0.8","0.6","0.1582158198","0.04941180107","0.1607886358","0.4661883906","","","","","","","","","","","","76","L","3","","","2","main_expt"
"","bandit","82","298804","0.0-43.0-0.0","97167275","wem/bandit_either_2","ANPCXN619ACW9","either","6","472","","","","","","","0","0","1","0.4608397999","","0.4","0.2","0.8","0.6","","","","","0.1264016625","0.09066711981","0.1825924006","0.4608397999","","","","","","","","76","L","3","","","3","main_expt"
"","bandit","83","300526","0.0-44.0-0.0","97167275","wem/bandit_either_2","ANPCXN619ACW9","either","6","207","","","","","","","0","0","1","0.1572982515","","0.4","0.2","0.8","0.6","","","","","0.1212924903","0.07815644495","0.1572982515","0.4568511376","","","","","","","","75","K","2","","","4","main_expt"
"","bandit","84","302494","0.0-45.0-0.0","97167275","wem/bandit_either_2","ANPCXN619ACW9","either","6","431","","","","","","","0","0","1","","0.1603104869","0.4","0.2","0.8","0.6","0.1603104869","0.06547040057","0.1873501432","0.4576747282","","","","","","","","","","","","72","H","0","img/none_selected.jpg","","5","main_expt"
"","bandit","85","304788","0.0-46.0-0.0","97167275","wem/bandit_either_2","ANPCXN619ACW9","either","6","766","","","","","","","0","0","1","0.09500806419","","0.4","0.2","0.8","0.6","","","","","0.1916070739","0.09500806419","0.1484719509","0.4673201091","","","","","","","","74","J","1","","","6","main_expt"
"","bandit","86","307869","0.0-47.0-0.0","97167275","wem/bandit_either_2","ANPCXN619ACW9","either","6","1555","","","","","","","0","0","1","","0.4671816856","0.4","0.2","0.8","0.6","0.1624213819","0.1156714339","0.1368680622","0.4671816856","","","","","","","","","","","","76","L","3","","","7","main_expt"
"","bandit","87","309941","0.0-48.0-0.0","97167275","wem/bandit_either_2","ANPCXN619ACW9","either","6","552","","","","","","","0","0","1","","0.1529627983","0.4","0.2","0.8","0.6","0.1529627983","0.08939878806","0.1412197478","0.4577650209","","","","","","","","","","","","72","H","0","img/none_selected.jpg","","8","main_expt"
"","bandit","88","311692","0.0-49.0-0.0","97167275","wem/bandit_either_2","ANPCXN619ACW9","either","6","225","","","","","","","0","0","1","0.1285241668","","0.4","0.2","0.8","0.6","","","","","0.1638779","0.1379609943","0.1285241668","0.4538037209","","","","","","","","75","K","2","","","9","main_expt"
"","bandit","89","313729","0.0-50.0-0.0","97167275","wem/bandit_either_2","ANPCXN619ACW9","either","6","521","","","","","","","0","0","1","","0.08892925829","0.4","0.2","0.8","0.6","0.1682184418","0.08892925829","0.1137500729","0.4567906288","","","","","","","","","","","","74","J","1","","","10","main_expt"
"","bandit","90","315366","0.0-51.0-0.0","97167275","wem/bandit_either_2","ANPCXN619ACW9","either","6","121","","","","","","","0","0","1","0.4707556997","","0.4","0.2","0.8","0.6","","","","","0.1511948373","0.1053961985","0.1134058804","0.4707556997","","","","","","","","76","L","3","","","11","main_expt"
"","bandit","91","317186","0.0-52.0-0.0","97167275","wem/bandit_either_2","ANPCXN619ACW9","either","6","297","","","","","","","0","0","1","0.2144966391","","0.4","0.2","0.8","0.6","","","","","0.2144966391","0.1267534428","0.1358134986","0.4534589675","","","","","","","","72","H","0","img/none_selected.jpg","","12","main_expt"
"","bandit","92","318852","0.0-53.0-0.0","97167275","wem/bandit_either_2","ANPCXN619ACW9","either","6","142","","","","","","","0","0","1","0.1443049275","","0.4","0.2","0.8","0.6","","","","","0.1443049275","0.1179877152","0.1105925571","0.4474824422","","","","","","","","72","H","0","img/none_selected.jpg","","13","main_expt"
"","bandit","93","320564","0.0-54.0-0.0","97167275","wem/bandit_either_2","ANPCXN619ACW9","either","6","191","","","","","","","0","0","1","","0.1300626215","0.4","0.2","0.8","0.6","0.149160688","0.1300626215","0.09057326494","0.4125602811","","","","","","","","","","","","74","J","1","","","14","main_expt"
"","bandit","94","322254","0.0-55.0-0.0","97167275","wem/bandit_either_2","ANPCXN619ACW9","either","6","162","","","","","","","0","0","1","0.05963436345","","0.4","0.2","0.8","0.6","","","","","0.1525333278","0.1129073675","0.05963436345","0.3715785473","","","","","","","","75","K","2","","","15","main_expt"
"","bandit","95","323999","0.0-56.0-0.0","97167275","wem/bandit_either_2","ANPCXN619ACW9","either","6","218","","","","","","","0","0","1","","0.3670357029","0.4","0.2","0.8","0.6","0.1437253933","0.1132840383","0.03970917029","0.3670357029","","","","","","","","","","","","76","L","3","","","16","main_expt"
"","bandit","96","325566","0.0-57.0-0.0","97167275","wem/bandit_either_2","ANPCXN619ACW9","either","6","52","","","","","","","1","0","0","0.1191274054","","0.4","0.2","0.8","0.6","","","","","0.1191274054","0.1530786807","0.03301664506","0.333794799","","","","","","","","72","H","0","img/none_selected.jpg","","17","main_expt"
"","bandit","97","327459","0.0-58.0-0.0","97167275","wem/bandit_either_2","ANPCXN619ACW9","either","6","357","","","","","","","0","0","1","","0.1231388663","0.4","0.2","0.8","0.6","0.1231388663","0.1367655081","0.0325619","0.3720862831","","","","","","","","","","","","72","H","0","img/none_selected.jpg","","18","main_expt"
"","bandit","98","329278","0.0-59.0-0.0","97167275","wem/bandit_either_2","ANPCXN619ACW9","either","6","295","","","","","","","0","1","0","","0.1014962652","0.4","0.2","0.8","0.6","0.1014962652","0.1519969922","0.05136562407","0.3940248177","","","","","","","","","","","","72","H","0","img/none_selected.jpg","","19","main_expt"
"","bandit","99","331086","0.0-60.0-0.0","97167275","wem/bandit_either_2","ANPCXN619ACW9","either","6","299","","","","","","","0","0","1","","0.2344823222","0.4","0.2","0.8","0.6","0.1184271466","0.2344823222","0.05620034239","0.3980303587","","","","","","","","","","","","74","J","1","","","20","main_expt"
"","bandit","100","332822","0.0-61.0-0.0","97167275","wem/bandit_either_2","ANPCXN619ACW9","either","6","207","","","","","","","0","0","1","0.04865895453","","0.4","0.2","0.8","0.6","","","","","0.1434190777","0.2227593861","0.04865895453","0.405953395","","","","","","","","75","K","2","","","21","main_expt"
"","bandit","101","334564","0.0-62.0-0.0","97167275","wem/bandit_either_2","ANPCXN619ACW9","either","6","226","","","","","","","0","0","1","","0.1323354157","0.4","0.2","0.8","0.6","0.1323354157","0.1831098024","0.05276066643","0.37898799","","","","","","","","","","","","72","H","0","img/none_selected.jpg","","22","main_expt"
"","bandit","102","336442","0.0-63.0-0.0","97167275","wem/bandit_either_2","ANPCXN619ACW9","either","6","348","","","","","","","0","0","1","","0.3661255489","0.4","0.2","0.8","0.6","0.1384191998","0.1660310818","0.05284133488","0.3661255489","","","","","","","","","","","","76","L","3","","","23","main_expt"
"","bandit","103","338127","0.0-64.0-0.0","97167275","wem/bandit_either_2","ANPCXN619ACW9","either","6","171","","","","","","","0","0","1","0.3576379461","","0.4","0.2","0.8","0.6","","","","","0.1395593146","0.1400827643","0.0333904923","0.3576379461","","","","","","","","76","L","3","","","24","main_expt"
"","bandit","104","339815","0.0-65.0-0.0","97167275","wem/bandit_either_2","ANPCXN619ACW9","either","6","170","","","","","","","0","0","1","","0.1696236693","0.4","0.2","0.8","0.6","0.1696236693","0.2022937807","0.04666446392","0.3346121782","","","","","","","","","","","","72","H","0","img/none_selected.jpg","","25","main_expt"
"","bandit","105","341589","0.0-66.0-0.0","97167275","wem/bandit_either_2","ANPCXN619ACW9","either","6","260","","","","","","","0","0","1","0.04067930801","","0.4","0.2","0.8","0.6","","","","","0.1754084838","0.1725383963","0.04067930801","0.3790434843","","","","","","","","75","K","2","","","26","main_expt"
"","bandit","106","343429","0.0-67.0-0.0","97167275","wem/bandit_either_2","ANPCXN619ACW9","either","6","308","","","","","","","0","0","1","","0.1735642386","0.4","0.2","0.8","0.6","0.118483546","0.1735642386","0.03070036018","0.3744762435","","","","","","","","","","","","74","J","1","","","27","main_expt"
"","bandit","107","345317","0.0-68.0-0.0","97167275","wem/bandit_either_2","ANPCXN619ACW9","either","6","374","","","","","","","0","0","1","0.02292460278","","0.4","0.2","0.8","0.6","","","","","0.1259847853","0.149532802","0.02292460278","0.3650769418","","","","","","","","75","K","2","","","28","main_expt"
"","bandit","108","347125","0.0-69.0-0.0","97167275","wem/bandit_either_2","ANPCXN619ACW9","either","6","289","","","","","","","0","0","1","","0.1072727049","0.4","0.2","0.8","0.6","0.1072727049","0.1597785082","0.03476379039","0.3299345172","","","","","","","","","","","","72","H","0","img/none_selected.jpg","","29","main_expt"
"","bandit","109","348952","0.0-70.0-0.0","97167275","wem/bandit_either_2","ANPCXN619ACW9","either","6","290","","","","","","","1","0","0","0.3010095271","","0.4","0.2","0.8","0.6","","","","","0.07952930744","0.1978771271","0.04211589453","0.3010095271","","","","","","","","76","L","3","","","30","main_expt"
"","bandit","110","350777","0.0-71.0-0.0","97167275","wem/bandit_either_2","ANPCXN619ACW9","either","6","306","","","","","","","1","0","0","0.331530841","","0.4","0.2","0.8","0.6","","","","","0.09691030242","0.1928768267","0.04495483672","0.331530841","","","","","","","","76","L","3","","","31","main_expt"
"","bandit","111","352673","0.0-72.0-0.0","97167275","wem/bandit_either_2","ANPCXN619ACW9","either","6","357","","","","","","","0","0","1","0.3469043085","","0.4","0.2","0.8","0.6","","","","","0.1338720944","0.1511047494","0.04126869591","0.3469043085","","","","","","","","76","L","3","","","32","main_expt"
"","bandit","112","354418","0.0-73.0-0.0","97167275","wem/bandit_either_2","ANPCXN619ACW9","either","6","215","","","","","","","0","0","1","0.1428203538","","0.4","0.2","0.8","0.6","","","","","0.1428203538","0.09247049486","0.02396570111","0.2778139242","","","","","","","","72","H","0","img/none_selected.jpg","","33","main_expt"
"","bandit","113","356164","0.0-74.0-0.0","97167275","wem/bandit_either_2","ANPCXN619ACW9","either","6","213","","","","","","","0","0","1","0.03561151332","","0.4","0.2","0.8","0.6","","","","","0.1258169527","0.1127946788","0.03561151332","0.236883459","","","","","","","","75","K","2","","","34","main_expt"
"","bandit","114","357883","0.0-75.0-0.0","97167275","wem/bandit_either_2","ANPCXN619ACW9","either","6","198","","","","","","","0","0","1","0.1279928094","","0.4","0.2","0.8","0.6","","","","","0.1652362889","0.1279928094","0.04565222073","0.2656196476","","","","","","","","74","J","1","","","35","main_expt"
"","bandit","115","359781","0.0-76.0-0.0","97167275","wem/bandit_either_2","ANPCXN619ACW9","either","6","372","","","","","","","0","0","1","0.05036449293","","0.4","0.2","0.8","0.6","","","","","0.1472348388","0.09285608896","0.05036449293","0.2309028503","","","","","","","","75","K","2","","","36","main_expt"
"","bandit","116","361601","0.0-77.0-0.0","97167275","wem/bandit_either_2","ANPCXN619ACW9","either","6","306","","","","","","","0","1","0","","0.20581188","0.4","0.2","0.8","0.6","0.20581188","0.1251507517","0.04764774511","0.1961267878","","","","","","","","","","","","72","H","0","img/none_selected.jpg","","37","main_expt"
"","bandit","117","363459","0.0-78.0-0.0","97167275","wem/bandit_either_2","ANPCXN619ACW9","either","6","324","","","","","","","0","0","1","0.2197692452","","0.4","0.2","0.8","0.6","","","","","0.2096070571","0.1248439258","0.04692466818","0.2197692452","","","","","","","","76","L","3","","","38","main_expt"
"","bandit","118","365209","0.0-79.0-0.0","97167275","wem/bandit_either_2","ANPCXN619ACW9","either","6","225","","","","","","","0","0","1","0.1888903691","","0.4","0.2","0.8","0.6","","","","","0.1888903691","0.1192858938","0.06150360576","0.1783178102","","","","","","","","72","H","0","img/none_selected.jpg","","39","main_expt"
"","bandit","119","366899","0.0-80.0-0.0","97167275","wem/bandit_either_2","ANPCXN619ACW9","either","6","176","","","","","","","0","1","0","","0.1457630933","0.4","0.2","0.8","0.6","0.1769314034","0.1457630933","0.1025324214","0.1354267005","","","","","","","","","","","","74","J","1","","","40","main_expt"
"","bandit","120","368640","0.0-81.0-0.0","97167275","wem/bandit_either_2","ANPCXN619ACW9","either","6","211","","","","","","","0","0","1","","0.1278282258","0.4","0.2","0.8","0.6","0.1764673912","0.1788887836","0.1278282258","0.1307301687","","","","","","","","","","","","75","K","2","","","41","main_expt"
"","bandit","121","370293","0.0-82.0-0.0","97167275","wem/bandit_either_2","ANPCXN619ACW9","either","6","136","","","","","","","0","0","1","0.1164002711","","0.4","0.2","0.8","0.6","","","","","0.1164002711","0.1550439797","0.1144783829","0.1002459791","","","","","","","","72","H","0","img/none_selected.jpg","","42","main_expt"
"","bandit","122","372064","0.0-83.0-0.0","97167275","wem/bandit_either_2","ANPCXN619ACW9","either","6","255","","","","","","","0","0","1","0.148274456","","0.4","0.2","0.8","0.6","","","","","0.1248357276","0.1624336935","0.148274456","0.06131682752","","","","","","","","75","K","2","","","43","main_expt"
"","bandit","123","373737","0.0-84.0-0.0","97167275","wem/bandit_either_2","ANPCXN619ACW9","either","6","146","","","","","","","0","0","1","0.05757194937","","0.4","0.2","0.8","0.6","","","","","0.1801883524","0.2610419313","0.1733993608","0.05757194937","","","","","","","","76","L","3","","","44","main_expt"
"","bandit","124","375581","0.0-85.0-0.0","97167275","wem/bandit_either_2","ANPCXN619ACW9","either","6","305","","","","","","","0","0","1","0.06317169253","","0.4","0.2","0.8","0.6","","","","","0.1536252234","0.2547096211","0.1731137141","0.06317169253","","","","","","","","76","L","3","","","45","main_expt"
"","bandit","125","377323","0.0-86.0-0.0","97167275","wem/bandit_either_2","ANPCXN619ACW9","either","6","233","","","","","","","0","0","1","","0.1453657368","0.4","0.2","0.8","0.6","0.1453657368","0.2690630982","0.2577534017","0.08604650327","","","","","","","","","","","","72","H","0","img/none_selected.jpg","","46","main_expt"
"","bandit","126","379144","0.0-87.0-0.0","97167275","wem/bandit_either_2","ANPCXN619ACW9","either","6","310","","","","","","","0","0","1","","0.2613787364","0.4","0.2","0.8","0.6","0.1163474927","0.2613787364","0.2436059896","0.07503215105","","","","","","","","","","","","74","J","1","","","47","main_expt"
"","bandit","127","380826","0.0-88.0-0.0","97167275","wem/bandit_either_2","ANPCXN619ACW9","either","6","148","","","","","","","0","0","1","0.2764851171","","0.4","0.2","0.8","0.6","","","","","0.1187671899","0.2764851171","0.261356988","0.09661626413","","","","","","","","74","J","1","","","48","main_expt"
"","bandit","128","382583","0.0-89.0-0.0","97167275","wem/bandit_either_2","ANPCXN619ACW9","either","6","243","","","","","","","0","0","1","","0.2628846066","0.4","0.2","0.8","0.6","0.1321787199","0.2628846066","0.2707362224","0.141419135","","","","","","","","","","","","74","J","1","","","49","main_expt"
"","bandit","129","384391","0.0-90.0-0.0","97167275","wem/bandit_either_2","ANPCXN619ACW9","either","6","284","","","","","","","0","0","1","0.1310663867","","0.4","0.2","0.8","0.6","","","","","0.1310663867","0.3634831931","0.2733601765","0.1341637883","","","","","","","","72","H","0","img/none_selected.jpg","","50","main_expt"
"","bandit","130","386085","0.0-91.0-0.0","97167275","wem/bandit_either_2","ANPCXN619ACW9","either","6","184","","","","","","","1","0","0","0.1225974466","","0.4","0.2","0.8","0.6","","","","","0.1450472339","0.3771608335","0.2590969561","0.1225974466","","","","","","","","76","L","3","","","51","main_expt"
"","bandit","131","387890","0.0-92.0-0.0","97167275","wem/bandit_either_2","ANPCXN619ACW9","either","6","282","","","","","","","0","0","1","0.1145468474","","0.4","0.2","0.8","0.6","","","","","0.1731775471","0.3093307572","0.2515646212","0.1145468474","","","","","","","","76","L","3","","","52","main_expt"
"","bandit","132","389552","0.0-93.0-0.0","97167275","wem/bandit_either_2","ANPCXN619ACW9","either","6","146","","","","","","","0","0","1","0.1059564611","","0.4","0.2","0.8","0.6","","","","","0.2258016315","0.2990929044","0.2257746054","0.1059564611","","","","","","","","76","L","3","","","53","main_expt"
"","bandit","133","391296","0.0-94.0-0.0","97167275","wem/bandit_either_2","ANPCXN619ACW9","either","6","232","","","","","","","0","0","1","","0.1090017536","0.4","0.2","0.8","0.6","0.2172527187","0.2221679908","0.2750925763","0.1090017536","","","","","","","","","","","","76","L","3","","","54","main_expt"
"","bandit","134","393063","0.0-95.0-0.0","97167275","wem/bandit_either_2","ANPCXN619ACW9","either","6","242","","","","","","","0","0","1","0.1249444004","","0.4","0.2","0.8","0.6","","","","","0.1652356872","0.1886471815","0.3608357377","0.1249444004","","","","","","","","76","L","3","","","55","main_expt"
"","bandit","135","394811","0.0-96.0-0.0","97167275","wem/bandit_either_2","ANPCXN619ACW9","either","6","230","","","","","","","0","0","1","0.09043885587","","0.4","0.2","0.8","0.6","","","","","0.1576418272","0.1973213641","0.4022545085","0.09043885587","","","","","","","","76","L","3","","","56","main_expt"
"","bandit","136","396507","0.0-97.0-0.0","97167275","wem/bandit_either_2","ANPCXN619ACW9","either","6","182","","","","","","","0","0","1","","0.180776926","0.4","0.2","0.8","0.6","0.180776926","0.2207101474","0.3867568464","0.07448640425","","","","","","","","","","","","72","H","0","img/none_selected.jpg","","57","main_expt"
"","bandit","137","398299","0.0-98.0-0.0","97167275","wem/bandit_either_2","ANPCXN619ACW9","either","6","276","","","","","","","1","0","0","0.3840355114","","0.4","0.2","0.8","0.6","","","","","0.1489081552","0.2480089655","0.3840355114","0.09808879237","","","","","","","","75","K","2","","","58","main_expt"
"","bandit","138","400100","0.0-99.0-0.0","97167275","wem/bandit_either_2","ANPCXN619ACW9","either","6","289","","","","","","","1","0","0","0.3617876187","","0.4","0.2","0.8","0.6","","","","","0.125555473","0.2667579505","0.3617876187","0.0721355853","","","","","","","","75","K","2","","","59","main_expt"
"","bandit","139","401897","0.0-100.0-0.0","97167275","wem/bandit_either_2","ANPCXN619ACW9","either","6","273","","","","","","","1","0","0","0.3018070945","","0.4","0.2","0.8","0.6","","","","","0.1228814318","0.2637313595","0.3018070945","0.08871326978","","","","","","","","75","K","2","","","60","main_expt"
"","bandit","140","403707","0.0-101.0-0.0","97167275","wem/bandit_either_2","ANPCXN619ACW9","either","6","266","","","","","","","0","0","1","0.2687465691","","0.4","0.2","0.8","0.6","","","","","0.195834737","0.2400462537","0.2687465691","0.1472383223","","","","","","","","75","K","2","","","61","main_expt"
"","bandit","141","405528","0.0-102.0-0.0","97167275","wem/bandit_either_2","ANPCXN619ACW9","either","6","306","","","","","","","1","0","0","0.287622952","","0.4","0.2","0.8","0.6","","","","","0.1952904108","0.2396546157","0.287622952","0.1625866577","","","","","","","","75","K","2","","","62","main_expt"
"","bandit","142","407344","0.0-103.0-0.0","97167275","wem/bandit_either_2","ANPCXN619ACW9","either","6","282","","","","","","","1","0","0","0.2060093557","","0.4","0.2","0.8","0.6","","","","","0.187392073","0.2558687718","0.2060093557","0.1196153378","","","","","","","","75","K","2","","","63","main_expt"
"","bandit","143","409170","0.0-104.0-0.0","97167275","wem/bandit_either_2","ANPCXN619ACW9","either","6","292","","","","","","","0","0","1","0.1865830226","","0.4","0.2","0.8","0.6","","","","","0.1774517964","0.1789331692","0.1865830226","0.1025290435","","","","","","","","75","K","2","","","64","main_expt"
"","bandit","144","410837","0.0-105.0-0.0","97167275","wem/bandit_either_2","ANPCXN619ACW9","either","6","151","","","","","","","0","0","1","0.2242960511","","0.4","0.2","0.8","0.6","","","","","0.1956590225","0.2041721298","0.2242960511","0.06637487434","","","","","","","","75","K","2","","","65","main_expt"
"","bandit","145","412458","0.0-106.0-0.0","97167275","wem/bandit_either_2","ANPCXN619ACW9","either","6","105","","","","","","","0","0","1","0.213739571","","0.4","0.2","0.8","0.6","","","","","0.1559932489","0.1083731131","0.213739571","0.09888809835","","","","","","","","75","K","2","","","66","main_expt"
"","bandit","146","414167","0.0-107.0-0.0","97167275","wem/bandit_either_2","ANPCXN619ACW9","either","6","171","","","","","","","0","0","1","0.2463093088","","0.4","0.2","0.8","0.6","","","","","0.1327283285","0.08148965902","0.2463093088","0.08542348091","","","","","","","","75","K","2","","","67","main_expt"
"","bandit","147","415789","0.0-108.0-0.0","97167275","wem/bandit_either_2","ANPCXN619ACW9","either","6","95","","","","","","","0","0","1","","0.115871946","0.4","0.2","0.8","0.6","0.1646421129","0.115871946","0.1863602012","0.05648132023","","","","","","","","","","","","74","J","1","","","68","main_expt"
"","bandit","148","417445","0.0-109.0-0.0","97167275","wem/bandit_either_2","ANPCXN619ACW9","either","6","123","","","","","","","0","0","1","0.07427448495","","0.4","0.2","0.8","0.6","","","","","0.1879918005","0.1049465522","0.1481768435","0.07427448495","","","","","","","","76","L","3","","","69","main_expt"
"","bandit","149","419422","0.0-110.0-0.0","97167275","wem/bandit_either_2","ANPCXN619ACW9","either","6","444","","","","","","","0","1","0","","0.1708527721","0.4","0.2","0.8","0.6","0.1708527721","0.1224614501","0.2062415021","0.1052870039","","","","","","","","","","","","72","H","0","img/none_selected.jpg","","70","main_expt"
"","bandit","150","421045","0.0-111.0-0.0","97167275","wem/bandit_either_2","ANPCXN619ACW9","either","6","107","","","","","","","0","0","1","","0.1687358413","0.4","0.2","0.8","0.6","0.1930923514","0.1687358413","0.2175562698","0.1114501371","","","","","","","","","","","","74","J","1","","","71","main_expt"
"","bandit","151","422787","0.0-112.0-0.0","97167275","wem/bandit_either_2","ANPCXN619ACW9","either","6","210","","","","","","","0","0","1","0.2182173038","","0.4","0.2","0.8","0.6","","","","","0.2289396243","0.1902964731","0.2182173038","0.1282799478","","","","","","","","75","K","2","","","72","main_expt"
"","bandit","152","424533","0.0-113.0-0.0","97167275","wem/bandit_either_2","ANPCXN619ACW9","either","6","230","","","","","","","0","1","0","","0.1764690901","0.4","0.2","0.8","0.6","0.2223781067","0.1764690901","0.1629952044","0.1113050996","","","","","","","","","","","","74","J","1","","","73","main_expt"
"","bandit","153","426283","0.0-114.0-0.0","97167275","wem/bandit_either_2","ANPCXN619ACW9","either","6","228","","","","","","","0","0","1","0.1573287606","","0.4","0.2","0.8","0.6","","","","","0.1664819569","0.1720288853","0.2291178652","0.1573287606","","","","","","","","76","L","3","","","74","main_expt"
"","bandit","154","427924","0.0-115.0-0.0","97167275","wem/bandit_either_2","ANPCXN619ACW9","either","6","113","","","","","","","0","0","1","","0.1157276324","0.4","0.2","0.8","0.6","0.1157276324","0.098780463","0.2087405931","0.168318459","","","","","","","","","","","","72","H","0","img/none_selected.jpg","","75","main_expt"
"","bandit","155","429726","0.0-116.0-0.0","97167275","wem/bandit_either_2","ANPCXN619ACW9","either","6","262","","","","","","","0","1","0","","0.06912044911","0.4","0.2","0.8","0.6","0.06912044911","0.08192786134","0.1981976751","0.131742089","","","","","","","","","","","","72","H","0","img/none_selected.jpg","","76","main_expt"
"","bandit","156","431509","0.0-117.0-0.0","97167275","wem/bandit_either_2","ANPCXN619ACW9","either","6","266","","","","","","","0","0","1","0.03620126105","","0.4","0.2","0.8","0.6","","","","","0.06151132513","0.03620126105","0.2302368041","0.1382621175","","","","","","","","74","J","1","","","77","main_expt"
"","bandit","157","433323","0.0-118.0-0.0","97167275","wem/bandit_either_2","ANPCXN619ACW9","either","6","293","","","","","","","0","0","1","0.03362754592","","0.4","0.2","0.8","0.6","","","","","0.08824794056","0.03362754592","0.2538269909","0.1351161864","","","","","","","","74","J","1","","","78","main_expt"
"","bandit","158","435061","0.0-119.0-0.0","97167275","wem/bandit_either_2","ANPCXN619ACW9","either","6","220","","","","","","","0","0","1","","0.03917851348","0.4","0.2","0.8","0.6","0.08425003046","0.03917851348","0.221492582","0.1125986002","","","","","","","","","","","","74","J","1","","","79","main_expt"
"","bandit","159","436789","0.0-120.0-0.0","97167275","wem/bandit_either_2","ANPCXN619ACW9","either","6","202","","","","","","","0","0","1","","0.1071358869","0.4","0.2","0.8","0.6","0.1059393704","0.06916691586","0.2126184008","0.1071358869","","","","","","","","","","","","76","L","3","","","80","main_expt"
"","bandit","160","438566","0.0-121.0-0.0","97167275","wem/bandit_either_2","ANPCXN619ACW9","either","6","252","","","","","","","0","0","1","","0.114990546","0.4","0.2","0.8","0.6","0.114990546","0.1110223174","0.1803612399","0.1410751298","","","","","","","","","","","","72","H","0","img/none_selected.jpg","","81","main_expt"
"","bandit","161","440315","0.0-122.0-0.0","97167275","wem/bandit_either_2","ANPCXN619ACW9","either","6","236","","","","","","","0","0","1","0.1246300745","","0.4","0.2","0.8","0.6","","","","","0.1246300745","0.08899533144","0.1883980103","0.1518454263","","","","","","","","72","H","0","img/none_selected.jpg","","82","main_expt"
"","bandit","162","442093","0.0-123.0-0.0","97167275","wem/bandit_either_2","ANPCXN619ACW9","either","6","268","","","","","","","0","0","1","0.1285150734","","0.4","0.2","0.8","0.6","","","","","0.1523433176","0.1383499545","0.2099895667","0.1285150734","","","","","","","","76","L","3","","","83","main_expt"
"","bandit","163","443887","0.0-124.0-0.0","97167275","wem/bandit_either_2","ANPCXN619ACW9","either","6","272","","","","","","","0","0","1","","0.1083679187","0.4","0.2","0.8","0.6","0.1230513595","0.1815119679","0.1760666055","0.1083679187","","","","","","","","","","","","76","L","3","","","84","main_expt"
"","bandit","164","445738","0.0-125.0-0.0","97167275","wem/bandit_either_2","ANPCXN619ACW9","either","6","313","","","","","","","0","0","1","","0.1460595132","0.4","0.2","0.8","0.6","0.1460595132","0.2121304898","0.2077415988","0.08985983991","","","","","","","","","","","","72","H","0","img/none_selected.jpg","","85","main_expt"
"","bandit","165","447298","0.0-126.0-0.0","97167275","wem/bandit_either_2","ANPCXN619ACW9","either","6","31","","","","","","","0","0","1","","0.1940704576","0.4","0.2","0.8","0.6","0.1578730034","0.1931166697","0.1940704576","0.08377758623","","","","","","","","","","","","75","K","2","","","86","main_expt"
"","bandit","166","449082","0.0-127.0-0.0","97167275","wem/bandit_either_2","ANPCXN619ACW9","either","6","268","","","","","","","0","0","1","0.08340742779","","0.4","0.2","0.8","0.6","","","","","0.1329566931","0.1908876969","0.1920524506","0.08340742779","","","","","","","","76","L","3","","","87","main_expt"
"","bandit","167","450812","0.0-128.0-0.0","97167275","wem/bandit_either_2","ANPCXN619ACW9","either","6","201","","","","","","","0","0","1","0.1156353122","","0.4","0.2","0.8","0.6","","","","","0.1156353122","0.1727332377","0.2525081946","0.06937011617","","","","","","","","72","H","0","img/none_selected.jpg","","88","main_expt"
"","bandit","168","452574","0.0-129.0-0.0","97167275","wem/bandit_either_2","ANPCXN619ACW9","either","6","231","","","","","","","0","0","1","0.1747664758","","0.4","0.2","0.8","0.6","","","","","0.1169245856","0.1747664758","0.2476280913","0.08556693901","","","","","","","","74","J","1","","","89","main_expt"
"","bandit","169","454407","0.0-130.0-0.0","97167275","wem/bandit_either_2","ANPCXN619ACW9","either","6","299","","","","","","","0","0","1","0.2476417222","","0.4","0.2","0.8","0.6","","","","","0.1276927611","0.1302891894","0.2476417222","0.1013294801","","","","","","","","75","K","2","","","90","main_expt"
"","bandit","170","456107","0.0-131.0-0.0","97167275","wem/bandit_either_2","ANPCXN619ACW9","either","6","176","","","","","","","0","0","1","","0.1633868825","0.4","0.2","0.8","0.6","0.1633868825","0.1143331172","0.1875867431","0.1567130635","","","","","","","","","","","","72","H","0","img/none_selected.jpg","","91","main_expt"
"","bandit","171","457887","0.0-132.0-0.0","97167275","wem/bandit_either_2","ANPCXN619ACW9","either","6","260","","","","","","","1","0","0","0.1214255195","","0.4","0.2","0.8","0.6","","","","","0.2172033847","0.1674068059","0.1804963823","0.1214255195","","","","","","","","76","L","3","","","92","main_expt"
"","bandit","172","459679","0.0-133.0-0.0","97167275","wem/bandit_either_2","ANPCXN619ACW9","either","6","263","","","","","","","0","0","1","0.1317465968","","0.4","0.2","0.8","0.6","","","","","0.2178255547","0.1405005834","0.1468121695","0.1317465968","","","","","","","","76","L","3","","","93","main_expt"
"","bandit","173","461514","0.0-134.0-0.0","97167275","wem/bandit_either_2","ANPCXN619ACW9","either","6","303","","","","","","","0","0","1","","0.1810196293","0.4","0.2","0.8","0.6","0.2058786334","0.1338278818","0.1270151289","0.1810196293","","","","","","","","","","","","76","L","3","","","94","main_expt"
"","bandit","174","463304","0.0-135.0-0.0","97167275","wem/bandit_either_2","ANPCXN619ACW9","either","6","277","","","","","","","0","0","1","0.1537803575","","0.4","0.2","0.8","0.6","","","","","0.2009860572","0.16416917","0.1049494322","0.1537803575","","","","","","","","76","L","3","","","95","main_expt"
"","bandit","175","465075","0.0-136.0-0.0","97167275","wem/bandit_either_2","ANPCXN619ACW9","either","6","258","","","","","","","0","0","1","","0.2255368078","0.4","0.2","0.8","0.6","0.2792576191","0.1075549125","0.1242023773","0.2255368078","","","","","","","","","","","","76","L","3","","","96","main_expt"
"","bandit","176","466695","0.0-137.0-0.0","97167275","wem/bandit_either_2","ANPCXN619ACW9","either","6","93","","","","","","","0","0","1","0.291042229","","0.4","0.2","0.8","0.6","","","","","0.291042229","0.07285617598","0.101802889","0.1881791955","","","","","","","","72","H","0","img/none_selected.jpg","","97","main_expt"
"","bandit","177","468457","0.0-138.0-0.0","97167275","wem/bandit_either_2","ANPCXN619ACW9","either","6","224","","","","","","","0","0","1","","0.08559904752","0.4","0.2","0.8","0.6","0.2919937097","0.1128802937","0.08559904752","0.1722186849","","","","","","","","","","","","75","K","2","","","98","main_expt"
"","bandit","178","470242","0.0-139.0-0.0","97167275","wem/bandit_either_2","ANPCXN619ACW9","either","6","259","","","","","","","0","0","1","0.04480153982","","0.4","0.2","0.8","0.6","","","","","0.338066437","0.07338875894","0.04480153982","0.2581810796","","","","","","","","75","K","2","","","99","main_expt"
"","bandit","179","472065","0.0-140.0-0.0","97167275","wem/bandit_either_2","ANPCXN619ACW9","either","6","295","","","","","","","0","0","1","","0.06256672301","0.4","0.2","0.8","0.6","0.3466775547","0.06256672301","0.03694367041","0.3094702251","","","","","","","","","","","","74","J","1","","","100","main_expt"
"","bandit","180","473910","0.0-141.0-0.0","97167275","wem/bandit_either_2","ANPCXN619ACW9","either","6","317","","","","","","","0","0","1","","0.06765033746","0.4","0.2","0.8","0.6","0.3776837944","0.06765033746","0.02534596886","0.3217449289","","","","","","","","","","","","74","J","1","","","101","main_expt"
"","bandit","181","475912","0.0-142.0-0.0","97167275","wem/bandit_either_2","ANPCXN619ACW9","either","6","472","","","","","","","1","0","0","0.3656493725","","0.4","0.2","0.8","0.6","","","","","0.3988278911","0.08460413752","0.03456503798","0.3656493725","","","","","","","","76","L","3","","","102","main_expt"
"","bandit","182","477737","0.0-143.0-0.0","97167275","wem/bandit_either_2","ANPCXN619ACW9","either","6","289","","","","","","","1","0","0","0.4097417878","","0.4","0.2","0.8","0.6","","","","","0.3642388176","0.1149622558","0.03116272615","0.4097417878","","","","","","","","76","L","3","","","103","main_expt"
"","bandit","183","479746","0.0-144.0-0.0","97167275","wem/bandit_either_2","ANPCXN619ACW9","either","6","478","","","","","","","1","0","0","0.4005896235","","0.4","0.2","0.8","0.6","","","","","0.3059376685","0.1223821921","0.04034009898","0.4005896235","","","","","","","","76","L","3","","","104","main_expt"
"","bandit","184","481714","0.0-145.0-0.0","97167275","wem/bandit_either_2","ANPCXN619ACW9","either","6","440","","","","","","","0","1","0","","0.3967946647","0.4","0.2","0.8","0.6","0.2658022239","0.1302837569","0.06132200156","0.3967946647","","","","","","","","","","","","76","L","3","","","105","main_expt"
"","bandit","185","483566","0.0-146.0-0.0","97167275","wem/bandit_either_2","ANPCXN619ACW9","either","6","327","","","","","","","0","0","1","","0.3920329447","0.4","0.2","0.8","0.6","0.2583534607","0.1405927316","0.03171667797","0.3920329447","","","","","","","","","","","","76","L","3","","","106","main_expt"
"","bandit","186","485365","0.0-147.0-0.0","97167275","wem/bandit_either_2","ANPCXN619ACW9","either","6","272","","","","","","","0","0","1","0.3973329777","","0.4","0.2","0.8","0.6","","","","","0.2402432731","0.1835021143","0.06603394544","0.3973329777","","","","","","","","76","L","3","","","107","main_expt"
"","bandit","187","487262","0.0-148.0-0.0","97167275","wem/bandit_either_2","ANPCXN619ACW9","either","6","378","","","","","","","0","1","0","","0.2364509509","0.4","0.2","0.8","0.6","0.2364509509","0.2124513917","0.08137973005","0.3839010997","","","","","","","","","","","","72","H","0","img/none_selected.jpg","","108","main_expt"
"","bandit","188","489019","0.0-149.0-0.0","97167275","wem/bandit_either_2","ANPCXN619ACW9","either","6","229","","","","","","","0","0","1","0.2164051194","","0.4","0.2","0.8","0.6","","","","","0.2164051194","0.218007314","0.04765661509","0.3879107289","","","","","","","","72","H","0","img/none_selected.jpg","","109","main_expt"
"","bandit","189","490905","0.0-150.0-0.0","97167275","wem/bandit_either_2","ANPCXN619ACW9","either","6","357","","","","","","","1","0","0","0.06789381979","","0.4","0.2","0.8","0.6","","","","","0.1611838666","0.229469423","0.06789381979","0.3989855113","","","","","","","","75","K","2","","","110","main_expt"
"","bandit","190","492960","0.0-151.0-0.0","97167275","wem/bandit_either_2","ANPCXN619ACW9","either","6","536","","","","","","","0","0","1","0.08972795074","","0.4","0.2","0.8","0.6","","","","","0.2042622235","0.2923436213","0.08972795074","0.3959495959","","","","","","","","75","K","2","","","111","main_expt"
"","bandit","191","494916","0.0-152.0-0.0","97167275","wem/bandit_either_2","ANPCXN619ACW9","either","6","445","","","","","","","0","0","1","0.1176683061","","0.4","0.2","0.8","0.6","","","","","0.2113733305","0.2778802509","0.1176683061","0.335596647","","","","","","","","75","K","2","","","112","main_expt"
"","bandit","192","496863","0.0-153.0-0.0","97167275","wem/bandit_either_2","ANPCXN619ACW9","either","6","422","","","","","","","0","0","1","0.1973953549","","0.4","0.2","0.8","0.6","","","","","0.220236308","0.2852166322","0.1973953549","0.2876347753","","","","","","","","75","K","2","","","113","main_expt"
"","bandit","193","498659","0.0-154.0-0.0","97167275","wem/bandit_either_2","ANPCXN619ACW9","either","6","257","","","","","","","0","0","1","","0.3222351196","0.4","0.2","0.8","0.6","0.2453392608","0.3222351196","0.200840576","0.2811359795","","","","","","","","","","","","74","J","1","","","114","main_expt"
"","bandit","194","500571","0.0-155.0-0.0","97167275","wem/bandit_either_2","ANPCXN619ACW9","either","6","401","","","","","","","0","0","1","0.2056035349","","0.4","0.2","0.8","0.6","","","","","0.2311931225","0.2865303103","0.2544006126","0.2056035349","","","","","","","","76","L","3","","","115","main_expt"
"","bandit","195","502322","0.0-156.0-0.0","97167275","wem/bandit_either_2","ANPCXN619ACW9","either","6","234","","","","","","","0","0","1","","0.2290532582","0.4","0.2","0.8","0.6","0.2290532582","0.1901772154","0.2264812366","0.2435386161","","","","","","","","","","","","72","H","0","img/none_selected.jpg","","116","main_expt"
"","bandit","196","504166","0.0-157.0-0.0","97167275","wem/bandit_either_2","ANPCXN619ACW9","either","6","310","","","","","","","0","0","1","","0.1854727963","0.4","0.2","0.8","0.6","0.2610634121","0.1854727963","0.2535822563","0.2523066444","","","","","","","","","","","","74","J","1","","","117","main_expt"
"","bandit","197","505910","0.0-158.0-0.0","97167275","wem/bandit_either_2","ANPCXN619ACW9","either","6","199","","","","","","","0","0","1","","0.223078523","0.4","0.2","0.8","0.6","0.2915584027","0.223078523","0.288462609","0.258758296","","","","","","","","","","","","74","J","1","","","118","main_expt"
"","bandit","198","507608","0.0-159.0-0.0","97167275","wem/bandit_either_2","ANPCXN619ACW9","either","6","183","","","","","","","0","0","1","","0.3240034744","0.4","0.2","0.8","0.6","0.3240034744","0.2157898803","0.3077733757","0.2513882557","","","","","","","","","","","","72","H","0","img/none_selected.jpg","","119","main_expt"
"","bandit","199","509652","0.0-160.0-0.0","97167275","wem/bandit_either_2","ANPCXN619ACW9","either","6","508","","","","","","","0","0","1","0.3470363664","","0.4","0.2","0.8","0.6","","","","","0.3584552205","0.2055853597","0.3470363664","0.2178230887","","","","","","","","75","K","2","","","120","main_expt"
"","bandit","200","511444","0.0-161.0-0.0","97167275","wem/bandit_either_2","ANPCXN619ACW9","either","6","262","","","","","","","0","0","1","0.36369082","","0.4","0.2","0.8","0.6","","","","","0.3392259721","0.2308362602","0.36369082","0.2249913612","","","","","","","","75","K","2","","","121","main_expt"
"","bandit","201","513268","0.0-162.0-0.0","97167275","wem/bandit_either_2","ANPCXN619ACW9","either","6","285","","","","","","","0","0","1","0.3740977319","","0.4","0.2","0.8","0.6","","","","","0.3211990091","0.1858821776","0.3740977319","0.2135386538","","","","","","","","75","K","2","","","122","main_expt"
"","bandit","202","515060","0.0-163.0-0.0","97167275","wem/bandit_either_2","ANPCXN619ACW9","either","6","267","","","","","","","0","0","1","0.2742148462","","0.4","0.2","0.8","0.6","","","","","0.3082515077","0.1948645322","0.3617230251","0.2742148462","","","","","","","","76","L","3","","","123","main_expt"
"","bandit","203","516830","0.0-164.0-0.0","97167275","wem/bandit_either_2","ANPCXN619ACW9","either","6","243","","","","","","","0","0","1","0.3337980485","","0.4","0.2","0.8","0.6","","","","","0.3337980485","0.1875433284","0.3189133642","0.3092488957","","","","","","","","72","H","0","img/none_selected.jpg","","124","main_expt"
"","bandit","204","518573","0.0-165.0-0.0","97167275","wem/bandit_either_2","ANPCXN619ACW9","either","6","224","","","","","","","1","0","0","0.2832498899","","0.4","0.2","0.8","0.6","","","","","0.2815584253","0.1805360773","0.3134342975","0.2832498899","","","","","","","","76","L","3","","","125","main_expt"
"","bandit","205","520382","0.0-166.0-0.0","97167275","wem/bandit_either_2","ANPCXN619ACW9","either","6","280","","","","","","","1","0","0","0.321902755","","0.4","0.2","0.8","0.6","","","","","0.2544389989","0.2199741614","0.2889117865","0.321902755","","","","","","","","76","L","3","","","126","main_expt"
"","bandit","206","522173","0.0-167.0-0.0","97167275","wem/bandit_either_2","ANPCXN619ACW9","either","6","259","","","","","","","0","0","1","","0.3163630435","0.4","0.2","0.8","0.6","0.217883989","0.212963778","0.3101500906","0.3163630435","","","","","","","","","","","","76","L","3","","","127","main_expt"
"","bandit","207","523886","0.0-168.0-0.0","97167275","wem/bandit_either_2","ANPCXN619ACW9","either","6","180","","","","","","","0","1","0","","0.1941215274","0.4","0.2","0.8","0.6","0.1941215274","0.1853882534","0.3257933697","0.3242789072","","","","","","","","","","","","72","H","0","img/none_selected.jpg","","128","main_expt"
"","bandit","208","525597","0.0-169.0-0.0","97167275","wem/bandit_either_2","ANPCXN619ACW9","either","6","191","","","","","","","0","0","1","","0.1486900389","0.4","0.2","0.8","0.6","0.2093197904","0.1486900389","0.2767822115","0.3430844202","","","","","","","","","","","","74","J","1","","","129","main_expt"
"","bandit","209","527456","0.0-170.0-0.0","97167275","wem/bandit_either_2","ANPCXN619ACW9","either","6","327","","","","","","","0","0","1","","0.1581202816","0.4","0.2","0.8","0.6","0.2325895014","0.1581202816","0.3389859305","0.3487272729","","","","","","","","","","","","74","J","1","","","130","main_expt"
"","bandit","210","529205","0.0-171.0-0.0","97167275","wem/bandit_either_2","ANPCXN619ACW9","either","6","213","","","","","","","0","0","1","","0.2807576759","0.4","0.2","0.8","0.6","0.2680880231","0.1189605486","0.2807576759","0.3850752379","","","","","","","","","","","","75","K","2","","","131","main_expt"
"","bandit","211","531265","0.0-172.0-0.0","97167275","wem/bandit_either_2","ANPCXN619ACW9","either","6","535","","","","","","","0","0","1","","0.2053564998","0.4","0.2","0.8","0.6","0.2053564998","0.08638656351","0.2044414959","0.3547422913","","","","","","","","","","","","72","H","0","img/none_selected.jpg","","132","main_expt"
"","bandit","212","532978","0.0-173.0-0.0","97167275","wem/bandit_either_2","ANPCXN619ACW9","either","6","190","","","","","","","0","0","1","","0.3256782816","0.4","0.2","0.8","0.6","0.2102644512","0.104542274","0.2352631215","0.3256782816","","","","","","","","","","","","76","L","3","","","133","main_expt"
"","bandit","213","534737","0.0-174.0-0.0","97167275","wem/bandit_either_2","ANPCXN619ACW9","either","6","235","","","","","","","0","0","1","0.1401790922","","0.4","0.2","0.8","0.6","","","","","0.2028105977","0.1401790922","0.2808822736","0.2479378245","","","","","","","","74","J","1","","","134","main_expt"
"","bandit","214","536702","0.0-175.0-0.0","97167275","wem/bandit_either_2","ANPCXN619ACW9","either","6","438","","","","","","","1","0","0","0.3053704558","","0.4","0.2","0.8","0.6","","","","","0.1556880781","0.1818128853","0.3053704558","0.24301602","","","","","","","","75","K","2","","","135","main_expt"
"","bandit","215","538516","0.0-176.0-0.0","97167275","wem/bandit_either_2","ANPCXN619ACW9","either","6","284","","","","","","","0","0","1","0.3140058771","","0.4","0.2","0.8","0.6","","","","","0.1428421262","0.1583738081","0.3140058771","0.2630427063","","","","","","","","75","K","2","","","136","main_expt"
"","bandit","216","540303","0.0-177.0-0.0","97167275","wem/bandit_either_2","ANPCXN619ACW9","either","6","273","","","","","","","0","0","1","","0.323699752","0.4","0.2","0.8","0.6","0.1039390038","0.1497920091","0.323699752","0.3053425806","","","","","","","","","","","","75","K","2","","","137","main_expt"
"","bandit","217","542102","0.0-178.0-0.0","97167275","wem/bandit_either_2","ANPCXN619ACW9","either","6","286","","","","","","","0","0","1","0.1128601551","","0.4","0.2","0.8","0.6","","","","","0.07132433681","0.1128601551","0.3435108126","0.3588623722","","","","","","","","74","J","1","","","138","main_expt"
"","bandit","218","544048","0.0-179.0-0.0","97167275","wem/bandit_either_2","ANPCXN619ACW9","either","6","409","","","","","","","0","0","1","","0.3505637202","0.4","0.2","0.8","0.6","0.1047165976","0.1073604677","0.3505637202","0.2762704672","","","","","","","","","","","","75","K","2","","","139","main_expt"
"","bandit","219","545838","0.0-180.0-0.0","97167275","wem/bandit_either_2","ANPCXN619ACW9","either","6","274","","","","","","","0","0","1","","0.2475753012","0.4","0.2","0.8","0.6","0.09043849554","0.1376710563","0.4185251601","0.2475753012","","","","","","","","","","","","76","L","3","","","140","main_expt"
"","bandit","220","547664","0.0-181.0-0.0","97167275","wem/bandit_either_2","ANPCXN619ACW9","either","6","302","","","","","","","0","0","1","0.1412662962","","0.4","0.2","0.8","0.6","","","","","0.05096505815","0.1412662962","0.4225289085","0.2436306075","","","","","","","","74","J","1","","","141","main_expt"
"","bandit","221","549474","0.0-182.0-0.0","97167275","wem/bandit_either_2","ANPCXN619ACW9","either","6","274","","","","","","","0","1","0","","0.455259632","0.4","0.2","0.8","0.6","0.02973759478","0.1543424817","0.455259632","0.1998899021","","","","","","","","","","","","75","K","2","","","142","main_expt"
"","bandit","222","551235","0.0-183.0-0.0","97167275","wem/bandit_either_2","ANPCXN619ACW9","either","6","229","","","","","","","0","0","1","0.04457260366","","0.4","0.2","0.8","0.6","","","","","0.04457260366","0.1552636118","0.4287003803","0.2568100034","","","","","","","","72","H","0","img/none_selected.jpg","","143","main_expt"
"","bandit","223","553022","0.0-184.0-0.0","97167275","wem/bandit_either_2","ANPCXN619ACW9","either","6","260","","","","","","","1","0","0","0.2859833531","","0.4","0.2","0.8","0.6","","","","","0.04060115041","0.2241753426","0.4260506414","0.2859833531","","","","","","","","76","L","3","","","144","main_expt"
"","bandit","224","554650","0.0-185.0-0.0","97167275","wem/bandit_either_2","ANPCXN619ACW9","either","6","95","","","","","","","0","1","0","","0.2080640158","0.4","0.2","0.8","0.6","0.06712401514","0.2484131349","0.4202170594","0.2080640158","","","","","","","","","","","","76","L","3","","","145","main_expt"
"","bandit","225","556466","0.0-186.0-0.0","97167275","wem/bandit_either_2","ANPCXN619ACW9","either","6","289","","","","","","","1","0","0","0.2469639643","","0.4","0.2","0.8","0.6","","","","","0.08780921534","0.2905032103","0.4333226383","0.2469639643","","","","","","","","76","L","3","","","146","main_expt"
"","bandit","226","558273","0.0-187.0-0.0","97167275","wem/bandit_either_2","ANPCXN619ACW9","either","6","278","","","","","","","0","0","1","0.2169279296","","0.4","0.2","0.8","0.6","","","","","0.1333368233","0.2846703457","0.4340954059","0.2169279296","","","","","","","","76","L","3","","","147","main_expt"
"","bandit","227","559882","0.0-188.0-0.0","97167275","wem/bandit_either_2","ANPCXN619ACW9","either","6","71","","","","","","","0","0","1","","0.1248284812","0.4","0.2","0.8","0.6","0.09264147873","0.3010433131","0.3903754431","0.1248284812","","","","","","","","","","","","76","L","3","","","148","main_expt"
"","bandit","228","561636","0.0-189.0-0.0","97167275","wem/bandit_either_2","ANPCXN619ACW9","either","6","219","","","","","","","0","0","1","","0.3421268102","0.4","0.2","0.8","0.6","0.123708687","0.3421268102","0.4161192262","0.1498862571","","","","","","","","","","","","74","J","1","","","149","main_expt"
"","bandit","229","563425","0.0-190.0-0.0","97167275","wem/bandit_either_2","ANPCXN619ACW9","either","6","247","","","","","","","1","0","0","0.4545257836","","0.4","0.2","0.8","0.6","","","","","0.1087811601","0.3382865341","0.4545257836","0.2044632824","","","","","","","","75","K","2","","","150","main_expt"
"","bandit","230","565183","0.0-191.0-0.0","97167275","wem/bandit_either_2","ANPCXN619ACW9","either","6","234","","","","","","","0","0","1","0.4553704948","","0.4","0.2","0.8","0.6","","","","","0.1640336927","0.3031951358","0.4553704948","0.1630699797","","","","","","","","75","K","2","","","151","main_expt"
"","bandit","231","566900","0.0-192.0-0.0","97167275","wem/bandit_either_2","ANPCXN619ACW9","either","6","182","","","","","","","1","0","0","0.4692720684","","0.4","0.2","0.8","0.6","","","","","0.1474195158","0.3163498213","0.4692720684","0.1534962237","","","","","","","","75","K","2","","","152","main_expt"
"","bandit","232","568681","0.0-193.0-0.0","97167275","wem/bandit_either_2","ANPCXN619ACW9","either","6","256","","","","","","","1","0","0","0.4794448159","","0.4","0.2","0.8","0.6","","","","","0.1200421148","0.3205280093","0.4794448159","0.1506701345","","","","","","","","75","K","2","","","153","main_expt"
"","bandit","233","570446","0.0-194.0-0.0","97167275","wem/bandit_either_2","ANPCXN619ACW9","either","6","241","","","","","","","1","0","0","0.4762011242","","0.4","0.2","0.8","0.6","","","","","0.1295208369","0.2780981807","0.4762011242","0.1810992197","","","","","","","","75","K","2","","","154","main_expt"
"","bandit","234","572236","0.0-195.0-0.0","97167275","wem/bandit_either_2","ANPCXN619ACW9","either","6","253","","","","","","","0","1","0","","0.4797315341","0.4","0.2","0.8","0.6","0.1189574303","0.2543788853","0.4797315341","0.2574031695","","","","","","","","","","","","75","K","2","","","155","main_expt"
"","bandit","235","573953","0.0-196.0-0.0","97167275","wem/bandit_either_2","ANPCXN619ACW9","either","6","190","","","","","","","1","0","0","0.4815153028","","0.4","0.2","0.8","0.6","","","","","0.1511338071","0.2601772157","0.4815153028","0.1838662476","","","","","","","","75","K","2","","","156","main_expt"
"","bandit","236","575768","0.0-197.0-0.0","97167275","wem/bandit_either_2","ANPCXN619ACW9","either","6","285","","","","","","","0","0","1","0.4769669351","","0.4","0.2","0.8","0.6","","","","","0.1494559257","0.27050514","0.4769669351","0.1951262555","","","","","","","","75","K","2","","","157","main_expt"
"","bandit","237","577333","0.0-198.0-0.0","97167275","wem/bandit_either_2","ANPCXN619ACW9","either","6","45","","","","","","","1","0","0","0.4819637572","","0.4","0.2","0.8","0.6","","","","","0.1398300683","0.2912044809","0.4819637572","0.1711173681","","","","","","","","75","K","2","","","158","main_expt"
"","bandit","238","579081","0.0-199.0-0.0","97167275","wem/bandit_either_2","ANPCXN619ACW9","either","6","234","","","","","","","0","0","1","0.4802617926","","0.4","0.2","0.8","0.6","","","","","0.1482700517","0.2863852675","0.4802617926","0.1262927185","","","","","","","","75","K","2","","","159","main_expt"
"","bandit","239","580842","0.0-200.0-0.0","97167275","wem/bandit_either_2","ANPCXN619ACW9","either","6","246","","","","","","","0","0","1","0.4834703177","","0.4","0.2","0.8","0.6","","","","","0.1327856751","0.3188379944","0.4834703177","0.1289005464","","","","","","","","75","K","2","","","160","main_expt"
"","bandit","240","582565","0.0-201.0-0.0","97167275","wem/bandit_either_2","ANPCXN619ACW9","either","6","206","","","","","","","1","0","0","0.4783639554","","0.4","0.2","0.8","0.6","","","","","0.1936248495","0.3918259889","0.4783639554","0.07062595825","","","","","","","","75","K","2","","","161","main_expt"
"","bandit","241","584405","0.0-202.0-0.0","97167275","wem/bandit_either_2","ANPCXN619ACW9","either","6","305","","","","","","","1","0","0","0.4702379588","","0.4","0.2","0.8","0.6","","","","","0.1917288119","0.3825352776","0.4702379588","0.08554885259","","","","","","","","75","K","2","","","162","main_expt"
"","bandit","242","586182","0.0-203.0-0.0","97167275","wem/bandit_either_2","ANPCXN619ACW9","either","6","262","","","","","","","0","1","0","","0.4761999765","0.4","0.2","0.8","0.6","0.2410074379","0.3500114378","0.4761999765","0.05790820845","","","","","","","","","","","","75","K","2","","","163","main_expt"
"","bandit","243","587958","0.0-204.0-0.0","97167275","wem/bandit_either_2","ANPCXN619ACW9","either","6","250","","","","","","","1","0","0","0.4683988395","","0.4","0.2","0.8","0.6","","","","","0.2717164652","0.3138306729","0.4683988395","0.04744410613","","","","","","","","75","K","2","","","164","main_expt"
"","bandit","244","589988","0.0-205.0-0.0","97167275","wem/bandit_either_2","ANPCXN619ACW9","either","6","501","","","","","","","0","0","1","0.4594806004","","0.4","0.2","0.8","0.6","","","","","0.3360488911","0.3066591237","0.4594806004","0.07721988326","","","","","","","","75","K","2","","","165","main_expt"
"","bandit","245","591662","0.0-206.0-0.0","97167275","wem/bandit_either_2","ANPCXN619ACW9","either","6","134","","","","","","","1","0","0","0.4769271284","","0.4","0.2","0.8","0.6","","","","","0.3288768439","0.359337808","0.4769271284","0.09276645858","","","","","","","","75","K","2","","","166","main_expt"
"","bandit","246","593501","0.0-207.0-0.0","97167275","wem/bandit_either_2","ANPCXN619ACW9","either","6","320","","","","","","","0","1","0","","0.4824675089","0.4","0.2","0.8","0.6","0.341079324","0.3888119778","0.4824675089","0.1092251717","","","","","","","","","","","","75","K","2","","","167","main_expt"
"","bandit","247","595428","0.0-208.0-0.0","97167275","wem/bandit_either_2","ANPCXN619ACW9","either","6","395","","","","","","","0","0","1","0.4731218304","","0.4","0.2","0.8","0.6","","","","","0.2972081376","0.3188253523","0.4731218304","0.09704797424","","","","","","","","75","K","2","","","168","main_expt"
"","bandit","248","597225","0.0-209.0-0.0","97167275","wem/bandit_either_2","ANPCXN619ACW9","either","6","278","","","","","","","0","0","1","0.4558692975","","0.4","0.2","0.8","0.6","","","","","0.2716537329","0.3035082617","0.4558692975","0.1131958007","","","","","","","","75","K","2","","","169","main_expt"
"","bandit","249","598825","0.0-210.0-0.0","97167275","wem/bandit_either_2","ANPCXN619ACW9","either","6","85","","","","","","","0","0","1","0.424927817","","0.4","0.2","0.8","0.6","","","","","0.3705489528","0.3540810543","0.424927817","0.1636150477","","","","","","","","75","K","2","","","170","main_expt"
"","bandit","250","600819","0.0-211.0-0.0","97167275","wem/bandit_either_2","ANPCXN619ACW9","either","6","478","","","","","","","0","0","1","","0.2912941695","0.4","0.2","0.8","0.6","0.3259531709","0.2912941695","0.4254050478","0.1889182236","","","","","","","","","","","","74","J","1","","","171","main_expt"
"","bandit","251","602556","0.0-212.0-0.0","97167275","wem/bandit_either_2","ANPCXN619ACW9","either","6","217","","","","","","","0","1","0","","0.2964718019","0.4","0.2","0.8","0.6","0.3253578443","0.2964718019","0.4319935488","0.1494540944","","","","","","","","","","","","74","J","1","","","172","main_expt"
"","bandit","252","604273","0.0-213.0-0.0","97167275","wem/bandit_either_2","ANPCXN619ACW9","either","6","198","","","","","","","0","0","1","","0.1700291406","0.4","0.2","0.8","0.6","0.3133285256","0.2411205861","0.4157756128","0.1700291406","","","","","","","","","","","","76","L","3","","","173","main_expt"
"","bandit","253","606141","0.0-214.0-0.0","97167275","wem/bandit_either_2","ANPCXN619ACW9","either","6","345","","","","","","","0","0","1","","0.3470844982","0.4","0.2","0.8","0.6","0.3470844982","0.2132737127","0.3650518631","0.2007600912","","","","","","","","","","","","72","H","0","img/none_selected.jpg","","174","main_expt"
"","bandit","254","607910","0.0-215.0-0.0","97167275","wem/bandit_either_2","ANPCXN619ACW9","either","6","239","","","","","","","0","0","1","","0.3615725976","0.4","0.2","0.8","0.6","0.3615725976","0.2722172758","0.3583375904","0.1613291475","","","","","","","","","","","","72","H","0","img/none_selected.jpg","","175","main_expt"
"","bandit","255","609641","0.0-216.0-0.0","97167275","wem/bandit_either_2","ANPCXN619ACW9","either","6","198","","","","","","","0","0","1","0.1618540135","","0.4","0.2","0.8","0.6","","","","","0.3592449917","0.3158297255","0.3849487833","0.1618540135","","","","","","","","76","L","3","","","176","main_expt"
"","bandit","256","611388","0.0-217.0-0.0","97167275","wem/bandit_either_2","ANPCXN619ACW9","either","6","209","","","","","","","0","0","1","0.1337509382","","0.4","0.2","0.8","0.6","","","","","0.3614776984","0.3033070912","0.3741193846","0.1337509382","","","","","","","","76","L","3","","","177","main_expt"
"","bandit","257","613083","0.0-218.0-0.0","97167275","wem/bandit_either_2","ANPCXN619ACW9","either","6","176","","","","","","","0","0","1","0.3704436283","","0.4","0.2","0.8","0.6","","","","","0.4042649322","0.3070990366","0.3704436283","0.172909152","","","","","","","","75","K","2","","","178","main_expt"
"","bandit","258","614878","0.0-219.0-0.0","97167275","wem/bandit_either_2","ANPCXN619ACW9","either","6","268","","","","","","","0","1","0","","0.349206168","0.4","0.2","0.8","0.6","0.3626499081","0.349206168","0.3718647044","0.2306318455","","","","","","","","","","","","74","J","1","","","179","main_expt"
"","bandit","259","616503","0.0-220.0-0.0","97167275","wem/bandit_either_2","ANPCXN619ACW9","either","6","100","","","","","","","0","1","0","","0.3533593609","0.4","0.2","0.8","0.6","0.365831292","0.3533593609","0.3144845341","0.2531752843","","","","","","","","","","","","74","J","1","","","180","main_expt"
"","bandit","260","618294","0.0-221.0-0.0","97167275","wem/bandit_either_2","ANPCXN619ACW9","either","6","271","","","","","","","0","0","1","","0.3792633926","0.4","0.2","0.8","0.6","0.3720079561","0.3792633926","0.3328992573","0.2995137733","","","","","","","","","","","","74","J","1","","","181","main_expt"
"","bandit","261","619992","0.0-222.0-0.0","97167275","wem/bandit_either_2","ANPCXN619ACW9","either","6","152","","","","","","","0","0","1","","0.3747751333","0.4","0.2","0.8","0.6","0.3747751333","0.4170401524","0.3443004049","0.2818604164","","","","","","","","","","","","72","H","0","img/none_selected.jpg","","182","main_expt"
"","bandit","262","621842","0.0-223.0-0.0","97167275","wem/bandit_either_2","ANPCXN619ACW9","either","6","335","","","","","","","0","1","0","","0.3772869326","0.4","0.2","0.8","0.6","0.3772869326","0.4349898381","0.3572445505","0.2706787236","","","","","","","","","","","","72","H","0","img/none_selected.jpg","","183","main_expt"
"","bandit","263","623595","0.0-224.0-0.0","97167275","wem/bandit_either_2","ANPCXN619ACW9","either","6","239","","","","","","","0","0","1","0.358140682","","0.4","0.2","0.8","0.6","","","","","0.3719200221","0.4355724899","0.358140682","0.2788381055","","","","","","","","75","K","2","","","184","main_expt"
"","bandit","264","625288","0.0-225.0-0.0","97167275","wem/bandit_either_2","ANPCXN619ACW9","either","6","169","","","","","","","0","0","1","","0.2591604306","0.4","0.2","0.8","0.6","0.3759280431","0.443517249","0.2938856532","0.2591604306","","","","","","","","","","","","76","L","3","","","185","main_expt"
"","bandit","265","627047","0.0-226.0-0.0","97167275","wem/bandit_either_2","ANPCXN619ACW9","either","6","224","","","","","","","0","0","1","0.1717283936","","0.4","0.2","0.8","0.6","","","","","0.3686405037","0.4185550765","0.2570442146","0.1717283936","","","","","","","","76","L","3","","","186","main_expt"
"","bandit","266","628820","0.0-227.0-0.0","97167275","wem/bandit_either_2","ANPCXN619ACW9","either","6","246","","","","","","","0","0","1","","0.4582246802","0.4","0.2","0.8","0.6","0.3693778387","0.4582246802","0.2781151114","0.1399016055","","","","","","","","","","","","74","J","1","","","187","main_expt"
"","bandit","267","630558","0.0-228.0-0.0","97167275","wem/bandit_either_2","ANPCXN619ACW9","either","6","206","","","","","","","0","0","1","0.2510368257","","0.4","0.2","0.8","0.6","","","","","0.3858781765","0.4499637214","0.2510368257","0.116743447","","","","","","","","75","K","2","","","188","main_expt"
"","bandit","268","632403","0.0-229.0-0.0","97167275","wem/bandit_either_2","ANPCXN619ACW9","either","6","294","","","","","","","0","0","1","","0.4681283031","0.4","0.2","0.8","0.6","0.353665234","0.4681283031","0.2299291889","0.09810356538","","","","","","","","","","","","74","J","1","","","189","main_expt"
"","bandit","269","634182","0.0-230.0-0.0","97167275","wem/bandit_either_2","ANPCXN619ACW9","either","6","252","","","","","","","0","1","0","","0.3702546744","0.4","0.2","0.8","0.6","0.3702546744","0.4672384316","0.2957770397","0.1333212727","","","","","","","","","","","","72","H","0","img/none_selected.jpg","","190","main_expt"
"","bandit","270","635952","0.0-231.0-0.0","97167275","wem/bandit_either_2","ANPCXN619ACW9","either","6","230","","","","","","","1","0","0","0.3373283559","","0.4","0.2","0.8","0.6","","","","","0.3373283559","0.4633056668","0.2806998676","0.07289491444","","","","","","","","72","H","0","img/none_selected.jpg","","191","main_expt"
"","bandit","271","637796","0.0-232.0-0.0","97167275","wem/bandit_either_2","ANPCXN619ACW9","either","6","304","","","","","","","0","0","1","","0.3717228864","0.4","0.2","0.8","0.6","0.3717228864","0.4701423021","0.2578649702","0.09060717316","","","","","","","","","","","","72","H","0","img/none_selected.jpg","","192","main_expt"
"","bandit","272","639517","0.0-233.0-0.0","97167275","wem/bandit_either_2","ANPCXN619ACW9","either","6","205","","","","","","","1","0","0","0.3861484819","","0.4","0.2","0.8","0.6","","","","","0.3861484819","0.4625827917","0.3019093773","0.1038106097","","","","","","","","72","H","0","img/none_selected.jpg","","193","main_expt"
"","bandit","273","641342","0.0-234.0-0.0","97167275","wem/bandit_either_2","ANPCXN619ACW9","either","6","298","","","","","","","0","1","0","","0.3884838939","0.4","0.2","0.8","0.6","0.3884838939","0.4480064119","0.3028603149","0.1222204007","","","","","","","","","","","","72","H","0","img/none_selected.jpg","","194","main_expt"
"","bandit","274","643132","0.0-235.0-0.0","97167275","wem/bandit_either_2","ANPCXN619ACW9","either","6","271","","","","","","","0","1","0","","0.4058549971","0.4","0.2","0.8","0.6","0.4058549971","0.4263193963","0.2933095063","0.1230179676","","","","","","","","","","","","72","H","0","img/none_selected.jpg","","195","main_expt"
"","bandit","275","644980","0.0-236.0-0.0","97167275","wem/bandit_either_2","ANPCXN619ACW9","either","6","320","","","","","","","0","0","1","0.3894648227","","0.4","0.2","0.8","0.6","","","","","0.3894648227","0.4399191733","0.3333663608","0.1972068901","","","","","","","","72","H","0","img/none_selected.jpg","","196","main_expt"
"","bandit","276","646654","0.0-237.0-0.0","97167275","wem/bandit_either_2","ANPCXN619ACW9","either","6","140","","","","","","","0","0","1","0.3452919481","","0.4","0.2","0.8","0.6","","","","","0.3452919481","0.4303685687","0.3472763543","0.2091218652","","","","","","","","72","H","0","img/none_selected.jpg","","197","main_expt"
"","bandit","277","648387","0.0-238.0-0.0","97167275","wem/bandit_either_2","ANPCXN619ACW9","either","6","193","","","","","","","0","0","1","","0.3571156804","0.4","0.2","0.8","0.6","0.3571156804","0.4166638701","0.3420385624","0.2316117542","","","","","","","","","","","","72","H","0","img/none_selected.jpg","","198","main_expt"
"","bandit","278","650023","0.0-239.0-0.0","97167275","wem/bandit_either_2","ANPCXN619ACW9","either","6","97","","","","","","","0","1","0","","0.4166192342","0.4","0.2","0.8","0.6","0.3761278261","0.4166192342","0.3009927129","0.1983173389","","","","","","","","","","","","74","J","1","","","199","main_expt"
"","bandit","279","651754","0.0-240.0-0.0","97167275","wem/bandit_either_2","ANPCXN619ACW9","either","6","199","","","","","","","0","0","1","0.4065109498","","0.4","0.2","0.8","0.6","","","","","0.3623939384","0.4065109498","0.2834367318","0.2275108597","","","","","","","","74","J","1","","","200","main_expt"
"","bandit","280","653309","0.0-241.0-0.0","97167275","wem/bandit_either_2","ANPCXN619ACW9","either","6","31","","","","","","","0","0","1","","0.4210367682","0.4","0.2","0.8","0.6","0.3470966653","0.4210367682","0.2305195973","0.2753755663","","","","","","","","","","","","74","J","1","","","201","main_expt"
"","bandit","281","655138","0.0-242.0-0.0","97167275","wem/bandit_either_2","ANPCXN619ACW9","either","6","289","","","","","","","0","1","0","","0.2867984519","0.4","0.2","0.8","0.6","0.3738670455","0.4059774394","0.236439039","0.2867984519","","","","","","","","","","","","76","L","3","","","202","main_expt"
"","bandit","282","656793","0.0-243.0-0.0","97167275","wem/bandit_either_2","ANPCXN619ACW9","either","6","130","","","","","","","1","0","0","0.227681123","","0.4","0.2","0.8","0.6","","","","","0.4434414113","0.4217634448","0.207292508","0.227681123","","","","","","","","76","L","3","","","203","main_expt"
"","bandit","283","658660","0.0-244.0-0.0","97167275","wem/bandit_either_2","ANPCXN619ACW9","either","6","335","","","","","","","0","0","1","0.2421814767","","0.4","0.2","0.8","0.6","","","","","0.4363530878","0.417590799","0.2706274655","0.2421814767","","","","","","","","76","L","3","","","204","main_expt"
"","bandit","284","660454","0.0-245.0-0.0","97167275","wem/bandit_either_2","ANPCXN619ACW9","either","6","260","","","","","","","0","0","1","","0.2250127273","0.4","0.2","0.8","0.6","0.4390009565","0.3892328218","0.2688171721","0.2250127273","","","","","","","","","","","","76","L","3","","","205","main_expt"
"","bandit","285","662238","0.0-246.0-0.0","97167275","wem/bandit_either_2","ANPCXN619ACW9","either","6","243","","","","","","","1","0","0","0.2774640617","","0.4","0.2","0.8","0.6","","","","","0.4606838579","0.3877758809","0.2774640617","0.2148063869","","","","","","","","75","K","2","","","206","main_expt"
"","bandit","286","664008","0.0-247.0-0.0","97167275","wem/bandit_either_2","ANPCXN619ACW9","either","6","235","","","","","","","1","0","0","0.31303597","","0.4","0.2","0.8","0.6","","","","","0.4679198071","0.3344078408","0.31303597","0.2370073307","","","","","","","","75","K","2","","","207","main_expt"
"","bandit","287","665850","0.0-248.0-0.0","97167275","wem/bandit_either_2","ANPCXN619ACW9","either","6","315","","","","","","","0","0","1","0.3187850143","","0.4","0.2","0.8","0.6","","","","","0.4731710197","0.3285414067","0.3187850143","0.1736764344","","","","","","","","75","K","2","","","208","main_expt"
"","bandit","288","667624","0.0-249.0-0.0","97167275","wem/bandit_either_2","ANPCXN619ACW9","either","6","262","","","","","","","0","0","1","0.3031297305","","0.4","0.2","0.8","0.6","","","","","0.472507437","0.337659841","0.3031297305","0.2033963155","","","","","","","","75","K","2","","","209","main_expt"
"","bandit","289","669331","0.0-250.0-0.0","97167275","wem/bandit_either_2","ANPCXN619ACW9","either","6","194","","","","","","","1","0","0","0.3593083662","","0.4","0.2","0.8","0.6","","","","","0.4759946166","0.322880172","0.3593083662","0.1849029676","","","","","","","","75","K","2","","","210","main_expt"
"","bandit","290","671148","0.0-251.0-0.0","97167275","wem/bandit_either_2","ANPCXN619ACW9","either","6","283","","","","","","","0","1","0","","0.3758292662","0.4","0.2","0.8","0.6","0.4838002785","0.3440981268","0.3758292662","0.08033524441","","","","","","","","","","","","75","K","2","","","211","main_expt"
"","bandit","291","672895","0.0-252.0-0.0","97167275","wem/bandit_either_2","ANPCXN619ACW9","either","6","223","","","","","","","0","0","1","","0.3771764803","0.4","0.2","0.8","0.6","0.4871609062","0.3135232579","0.3771764803","0.1024936548","","","","","","","","","","","","75","K","2","","","212","main_expt"
"","bandit","292","674611","0.0-253.0-0.0","97167275","wem/bandit_either_2","ANPCXN619ACW9","either","6","194","","","","","","","0","0","1","0.3935517348","","0.4","0.2","0.8","0.6","","","","","0.4829725273","0.328558382","0.3935517348","0.1380366818","","","","","","","","75","K","2","","","213","main_expt"
"","bandit","293","676315","0.0-254.0-0.0","97167275","wem/bandit_either_2","ANPCXN619ACW9","either","6","191","","","","","","","0","0","1","0.3792377037","","0.4","0.2","0.8","0.6","","","","","0.4742933803","0.3024402918","0.3792377037","0.1206441992","","","","","","","","75","K","2","","","214","main_expt"
"","bandit","294","678070","0.0-255.0-0.0","97167275","wem/bandit_either_2","ANPCXN619ACW9","either","6","235","","","","","","","0","0","1","","0.3024001881","0.4","0.2","0.8","0.6","0.4754417465","0.3024001881","0.3364308411","0.1320715796","","","","","","","","","","","","74","J","1","","","215","main_expt"
"","bandit","295","679754","0.0-256.0-0.0","97167275","wem/bandit_either_2","ANPCXN619ACW9","either","6","150","","","","","","","0","0","1","0.1152906885","","0.4","0.2","0.8","0.6","","","","","0.4764866221","0.2975117226","0.3348871659","0.1152906885","","","","","","","","76","L","3","","","216","main_expt"
"","bandit","296","681471","0.0-257.0-0.0","97167275","wem/bandit_either_2","ANPCXN619ACW9","either","6","188","","","","","","","0","1","0","","0.4727866334","0.4","0.2","0.8","0.6","0.4727866334","0.3331298207","0.321293363","0.1191406027","","","","","","","","","","","","72","H","0","img/none_selected.jpg","","217","main_expt"
"","bandit","297","683172","0.0-258.0-0.0","97167275","wem/bandit_either_2","ANPCXN619ACW9","either","6","165","","","","","","","0","1","0","","0.4664653133","0.4","0.2","0.8","0.6","0.4664653133","0.2905667849","0.3530973922","0.1177717736","","","","","","","","","","","","72","H","0","img/none_selected.jpg","","218","main_expt"
"","bandit","298","684870","0.0-259.0-0.0","97167275","wem/bandit_either_2","ANPCXN619ACW9","either","6","173","","","","","","","0","1","0","","0.4636837267","0.4","0.2","0.8","0.6","0.4636837267","0.2701708387","0.3837093308","0.1178729669","","","","","","","","","","","","72","H","0","img/none_selected.jpg","","219","main_expt"
"","bandit","299","686603","0.0-260.0-0.0","97167275","wem/bandit_either_2","ANPCXN619ACW9","either","6","220","","","","","","","0","0","1","0.4599900571","","0.4","0.2","0.8","0.6","","","","","0.4599900571","0.2395453957","0.3651541458","0.1284790336","","","","","","","","72","H","0","img/none_selected.jpg","","220","main_expt"
"","bandit","300","688373","0.0-261.0-0.0","97167275","wem/bandit_either_2","ANPCXN619ACW9","either","6","244","","","","","","","0","0","1","0.2770622605","","0.4","0.2","0.8","0.6","","","","","0.4490722186","0.2770622605","0.254085412","0.147465279","","","","","","","","74","J","1","","","221","main_expt"
"","bandit","301","690205","0.0-262.0-0.0","97167275","wem/bandit_either_2","ANPCXN619ACW9","either","6","290","","","","","","","0","0","1","0.4253353094","","0.4","0.2","0.8","0.6","","","","","0.4253353094","0.3390746663","0.2590796483","0.1441925756","","","","","","","","72","H","0","img/none_selected.jpg","","222","main_expt"
"","bandit","302","691920","0.0-263.0-0.0","97167275","wem/bandit_either_2","ANPCXN619ACW9","either","6","192","","","","","","","0","0","1","","0.2640852941","0.4","0.2","0.8","0.6","0.4559825987","0.384843876","0.2640852941","0.1731110736","","","","","","","","","","","","75","K","2","","","223","main_expt"
"","bandit","303","693525","0.0-264.0-0.0","97167275","wem/bandit_either_2","ANPCXN619ACW9","either","6","90","","","","","","","0","1","0","","0.4367619307","0.4","0.2","0.8","0.6","0.464560515","0.4367619307","0.2636590797","0.1124600034","","","","","","","","","","","","74","J","1","","","224","main_expt"
"","bandit","304","695309","0.0-265.0-0.0","97167275","wem/bandit_either_2","ANPCXN619ACW9","either","6","246","","","","","","","0","1","0","","0.42055701","0.4","0.2","0.8","0.6","0.4528378766","0.42055701","0.3110444069","0.1174510337","","","","","","","","","","","","74","J","1","","","225","main_expt"
"","bandit","305","697093","0.0-266.0-0.0","97167275","wem/bandit_either_2","ANPCXN619ACW9","either","6","266","","","","","","","0","0","1","0.1494320736","","0.4","0.2","0.8","0.6","","","","","0.4585160156","0.4282593698","0.3268768972","0.1494320736","","","","","","","","76","L","3","","","226","main_expt"
"","bandit","306","698900","0.0-267.0-0.0","97167275","wem/bandit_either_2","ANPCXN619ACW9","either","6","266","","","","","","","1","0","0","0.1655037845","","0.4","0.2","0.8","0.6","","","","","0.4525914875","0.4213985596","0.3112991039","0.1655037845","","","","","","","","76","L","3","","","227","main_expt"
"","bandit","307","700730","0.0-268.0-0.0","97167275","wem/bandit_either_2","ANPCXN619ACW9","either","6","307","","","","","","","0","0","1","0.1595877114","","0.4","0.2","0.8","0.6","","","","","0.4618810074","0.4115599459","0.3481066565","0.1595877114","","","","","","","","76","L","3","","","228","main_expt"
"","bandit","308","702521","0.0-269.0-0.0","97167275","wem/bandit_either_2","ANPCXN619ACW9","either","6","275","","","","","","","0","0","1","0.1811982871","","0.4","0.2","0.8","0.6","","","","","0.4661541784","0.375967734","0.3267856819","0.1811982871","","","","","","","","76","L","3","","","229","main_expt"
"","bandit","309","704312","0.0-270.0-0.0","97167275","wem/bandit_either_2","ANPCXN619ACW9","either","6","267","","","","","","","0","0","1","0.2088208598","","0.4","0.2","0.8","0.6","","","","","0.4681373403","0.4172813036","0.3043034776","0.2088208598","","","","","","","","76","L","3","","","230","main_expt"
"","bandit","310","706064","0.0-271.0-0.0","97167275","wem/bandit_either_2","ANPCXN619ACW9","either","6","228","","","","","","","0","0","1","","0.2062946352","0.4","0.2","0.8","0.6","0.4733838814","0.3871641603","0.3127123154","0.2062946352","","","","","","","","","","","","76","L","3","","","231","main_expt"
"","bandit","311","707617","0.0-272.0-0.0","97167275","wem/bandit_either_2","ANPCXN619ACW9","either","6","39","","","","","","","0","0","1","0.3039198066","","0.4","0.2","0.8","0.6","","","","","0.455942125","0.3381606844","0.3039198066","0.1448621505","","","","","","","","75","K","2","","","232","main_expt"
"","bandit","312","709356","0.0-273.0-0.0","97167275","wem/bandit_either_2","ANPCXN619ACW9","either","6","219","","","","","","","0","0","1","","0.4523014459","0.4","0.2","0.8","0.6","0.4523014459","0.2918198365","0.2846072758","0.1096360744","","","","","","","","","","","","72","H","0","img/none_selected.jpg","","233","main_expt"
"","bandit","313","711061","0.0-274.0-0.0","97167275","wem/bandit_either_2","ANPCXN619ACW9","either","6","164","","","","","","","0","0","1","","0.3016980071","0.4","0.2","0.8","0.6","0.4715877437","0.3016980071","0.2430061478","0.1102272527","","","","","","","","","","","","74","J","1","","","234","main_expt"
"","bandit","314","712771","0.0-275.0-0.0","97167275","wem/bandit_either_2","ANPCXN619ACW9","either","6","171","","","","","","","0","1","0","","0.4667146267","0.4","0.2","0.8","0.6","0.4667146267","0.2940059945","0.263037213","0.1428859574","","","","","","","","","","","","72","H","0","img/none_selected.jpg","","235","main_expt"
"","bandit","315","714343","0.0-276.0-0.0","97167275","wem/bandit_either_2","ANPCXN619ACW9","either","6","52","","","","","","","0","0","1","0.1659437887","","0.4","0.2","0.8","0.6","","","","","0.4638430617","0.2926833733","0.2976510001","0.1659437887","","","","","","","","76","L","3","","","236","main_expt"
"","bandit","316","715891","0.0-277.0-0.0","97167275","wem/bandit_either_2","ANPCXN619ACW9","either","6","32","","","","","","","0","0","1","","0.278351659","0.4","0.2","0.8","0.6","0.4584702359","0.278351659","0.2789990486","0.1948695303","","","","","","","","","","","","74","J","1","","","237","main_expt"
"","bandit","317","717643","0.0-278.0-0.0","97167275","wem/bandit_either_2","ANPCXN619ACW9","either","6","237","","","","","","","0","0","1","0.2760904485","","0.4","0.2","0.8","0.6","","","","","0.4297714473","0.2475781625","0.2760904485","0.2231382717","","","","","","","","75","K","2","","","238","main_expt"
"","bandit","318","719394","0.0-279.0-0.0","97167275","wem/bandit_either_2","ANPCXN619ACW9","either","6","215","","","","","","","0","0","1","0.2679201555","","0.4","0.2","0.8","0.6","","","","","0.4225482751","0.2476463542","0.2679201555","0.2118273477","","","","","","","","75","K","2","","","239","main_expt"
"","bandit","319","721270","0.0-280.0-0.0","97167275","wem/bandit_either_2","ANPCXN619ACW9","either","6","349","","","","","","","0","0","1","","0.175879666","0.4","0.2","0.8","0.6","0.3911766626","0.2691810592","0.1815101208","0.175879666","","","","","","","","","","","","76","L","3","","","240","main_expt"
"","bandit","320","723455","0.0-281.0-0.0","97167275","wem/bandit_either_2","ANPCXN619ACW9","either","6","650","","","","","","","0","0","1","","0.2600118225","0.4","0.2","0.8","0.6","0.3576719612","0.2600118225","0.2107278188","0.2619723004","","","","","","","","","","","","74","J","1","","","241","main_expt"
"","bandit","321","725159","0.0-282.0-0.0","97167275","wem/bandit_either_2","ANPCXN619ACW9","either","6","167","","","","","","","0","1","0","","0.2585740571","0.4","0.2","0.8","0.6","0.3649942216","0.2585740571","0.1890457695","0.253357122","","","","","","","","","","","","74","J","1","","","242","main_expt"
"","bandit","322","726967","0.0-283.0-0.0","97167275","wem/bandit_either_2","ANPCXN619ACW9","either","6","282","","","","","","","0","0","1","0.1983598585","","0.4","0.2","0.8","0.6","","","","","0.3462843793","0.1943885749","0.1983598585","0.2937411872","","","","","","","","75","K","2","","","243","main_expt"
"","bandit","323","728571","0.0-284.0-0.0","97167275","wem/bandit_either_2","ANPCXN619ACW9","either","6","69","","","","","","","0","0","1","","0.3520149162","0.4","0.2","0.8","0.6","0.3520149162","0.1861062248","0.2165838592","0.2743784529","","","","","","","","","","","","72","H","0","img/none_selected.jpg","","244","main_expt"
"","bandit","324","730309","0.0-285.0-0.0","97167275","wem/bandit_either_2","ANPCXN619ACW9","either","6","222","","","","","","","0","0","1","0.2734657034","","0.4","0.2","0.8","0.6","","","","","0.3483485742","0.1398782291","0.1823109088","0.2734657034","","","","","","","","76","L","3","","","245","main_expt"
"","bandit","325","731977","0.0-286.0-0.0","97167275","wem/bandit_either_2","ANPCXN619ACW9","either","6","148","","","","","","","0","0","1","","0.1392076576","0.4","0.2","0.8","0.6","0.3814570076","0.1392076576","0.172760958","0.2285423815","","","","","","","","","","","","74","J","1","","","246","main_expt"
"","bandit","326","733890","0.0-287.0-0.0","97167275","wem/bandit_either_2","ANPCXN619ACW9","either","6","369","","","","","","","1","0","0","0.1955602127","","0.4","0.2","0.8","0.6","","","","","0.3871035364","0.2028121248","0.1955602127","0.269943793","","","","","","","","75","K","2","","","247","main_expt"
"","bandit","327","735606","0.0-288.0-0.0","97167275","wem/bandit_either_2","ANPCXN619ACW9","either","6","201","","","","","","","0","0","1","0.1770790361","","0.4","0.2","0.8","0.6","","","","","0.3746835134","0.2522392451","0.1770790361","0.2974302923","","","","","","","","75","K","2","","","248","main_expt"
"","bandit","328","737339","0.0-289.0-0.0","97167275","wem/bandit_either_2","ANPCXN619ACW9","either","6","220","","","","","","","1","0","0","0.1884848562","","0.4","0.2","0.8","0.6","","","","","0.3787028279","0.234975876","0.1884848562","0.2667415426","","","","","","","","75","K","2","","","249","main_expt"
