"consent","trial_type","trial_index","time_elapsed","internal_node_id","subjID","study","MID","cond","drift","rt","responses","key_press","expt_phase","like","value","connected","gems","bombs","no_reward","GemPrChosen","BombPrChosen","GainOverPainPr_0","GainOverPainPr_1","GainOverPainPr_2","GainOverPainPr_3","LosePr_0","LosePr_1","LosePr_2","LosePr_3","WinPr_0","WinPr_1","WinPr_2","WinPr_3","Q0","Q1","Q2","gender","age","ethnicity","target","respCharCode","respKey","respChoiceNum","respChoice","practice","trial_counter","trial_label"
"INL_behavioral_consent_30min_online.html","consent","0","10813","0.0-0.0","97197002","wem/bandit_either_2","A3ACUGH5N9VQO2","either","5","","","","","","","","","","","","","","","","","","","","","","","","","","","","","","","","","","","","","",""
"","survey-text","1","19579","0.0-1.0","97197002","wem/bandit_either_2","A3ACUGH5N9VQO2","either","5","7759","{""Q0"":""A3ACUGH5N9VQO2""}","","","","","","","","","","","","","","","","","","","","","","","","","","","","","","","","","","","",""
"","text","2","41339","0.0-2.0","97197002","wem/bandit_either_2","A3ACUGH5N9VQO2","either","5","20756","","32","","","","","","","","","","","","","","","","","","","","","","","","","","","","","","","","","","",""
"","text","3","47511","0.0-3.0","97197002","wem/bandit_either_2","A3ACUGH5N9VQO2","either","5","6171","","32","","","","","","","","","","","","","","","","","","","","","","","","","","","","","","","","","","",""
"","text","4","62009","0.0-4.0","97197002","wem/bandit_either_2","A3ACUGH5N9VQO2","either","5","14496","","32","","","","","","","","","","","","","","","","","","","","","","","","","","","","","","","","","","",""
"","text","5","71585","0.0-5.0","97197002","wem/bandit_either_2","A3ACUGH5N9VQO2","either","5","9575","","32","","","","","","","","","","","","","","","","","","","","","","","","","","","","","","","","","","",""
"","text","6","84091","0.0-6.0","97197002","wem/bandit_either_2","A3ACUGH5N9VQO2","either","5","12505","","32","","","","","","","","","","","","","","","","","","","","","","","","","","","","","","","","","","",""
"","text","7","89177","0.0-7.0","97197002","wem/bandit_either_2","A3ACUGH5N9VQO2","either","5","5085","","32","","","","","","","","","","","","","","","","","","","","","","","","","","","","","","","","","","",""
"","text","8","93507","0.0-8.0","97197002","wem/bandit_either_2","A3ACUGH5N9VQO2","either","5","4329","","32","","","","","","","","","","","","","","","","","","","","","","","","","","","","","","","","","","",""
"","identification","9","108885","0.0-9.0-0.0","97197002","wem/bandit_either_2","A3ACUGH5N9VQO2","either","5","15358","","","","3","3","3","","","","","","","","","","","","","","","","","","","","","","","","the village of Zur","","","","","","",""
"","identification","10","163833","0.0-9.0-1.0","97197002","wem/bandit_either_2","A3ACUGH5N9VQO2","either","5","53937","","","","2","2","2","","","","","","","","","","","","","","","","","","","","","","","","the village of Nyx","","","","","","",""
"","text","11","171037","0.0-10.0","97197002","wem/bandit_either_2","A3ACUGH5N9VQO2","either","5","6202","","32","","","","","","","","","","","","","","","","","","","","","","","","","","","","","","","","","","",""
"","text","12","175885","0.0-11.0","97197002","wem/bandit_either_2","A3ACUGH5N9VQO2","either","5","4847","","32","","","","","","","","","","","","","","","","","","","","","","","","","","","","","","","","","","",""
"","text","13","178637","0.0-12.0","97197002","wem/bandit_either_2","A3ACUGH5N9VQO2","either","5","2750","","32","","","","","","","","","","","","","","","","","","","","","","","","","","","","","","","","","","",""
"","text","14","181515","0.0-13.0","97197002","wem/bandit_either_2","A3ACUGH5N9VQO2","either","5","2877","","32","","","","","","","","","","","","","","","","","","","","","","","","","","","","","","","","","","",""
"","bandit","15","186142","0.0-14.0-0.0","97197002","wem/bandit_either_2","A3ACUGH5N9VQO2","either","5","3115","","","","","","","0","0","1","0","0","","","","","0","","","","0","","","","","","","","","","","74","J","0","img/none_selected_demo.jpg","true","0",""
"","bandit","16","189102","0.0-15.0-0.0","97197002","wem/bandit_either_2","A3ACUGH5N9VQO2","either","5","1452","","","","","","","0","0","1","0","0","","","","","0","","","","0","","","","","","","","","","","75","K","0","img/none_selected_demo.jpg","true","0",""
"","text","17","197846","0.0-16.0","97197002","wem/bandit_either_2","A3ACUGH5N9VQO2","either","5","8743","","32","","","","","","","","","","","","","","","","","","","","","","","","","","","","","","","","","","",""
"","text","18","226240","0.0-17.0","97197002","wem/bandit_either_2","A3ACUGH5N9VQO2","either","5","28393","","32","","","","","","","","","","","","","","","","","","","","","","","","","","","","","","","","","","",""
"","text","19","232808","0.0-18.0","97197002","wem/bandit_either_2","A3ACUGH5N9VQO2","either","5","6563","","32","","","","","","","","","","","","","","","","","","","","","","","","","","","","","","","","","","",""
"","text","20","237504","0.0-19.0","97197002","wem/bandit_either_2","A3ACUGH5N9VQO2","either","5","4695","","32","","","","","","","","","","","","","","","","","","","","","","","","","","","","","","","","","","",""
"","bandit","21","240734","0.0-20.0-0.0","97197002","wem/bandit_either_2","A3ACUGH5N9VQO2","either","5","1725","","","","","","","0","0","1","","0.8","0.5","0.5","","","0.8","0.2","","","","","","","","","","","","","","74","J","0","img/none_selected_demo.jpg","true","0","80_20_practice"
"","bandit","22","242750","0.0-20.0-1.0","97197002","wem/bandit_either_2","A3ACUGH5N9VQO2","either","5","510","","","","","","","0","0","1","","0.2","0.5","0.5","","","0.8","0.2","","","","","","","","","","","","","","75","K","1","","true","0","80_20_practice"
"","bandit","23","246111","0.0-20.0-2.0","97197002","wem/bandit_either_2","A3ACUGH5N9VQO2","either","5","1854","","","","","","","0","1","0","","0.8","0.5","0.5","","","0.8","0.2","","","","","","","","","","","","","","74","J","0","img/none_selected_demo.jpg","true","0","80_20_practice"
"","bandit","24","248616","0.0-20.0-3.0","97197002","wem/bandit_either_2","A3ACUGH5N9VQO2","either","5","999","","","","","","","0","1","0","","0.8","0.5","0.5","","","0.8","0.2","","","","","","","","","","","","","","74","J","0","img/none_selected_demo.jpg","true","0","80_20_practice"
"","bandit","25","250784","0.0-20.0-4.0","97197002","wem/bandit_either_2","A3ACUGH5N9VQO2","either","5","662","","","","","","","0","1","0","","0.8","0.5","0.5","","","0.8","0.2","","","","","","","","","","","","","","74","J","0","img/none_selected_demo.jpg","true","0","80_20_practice"
"","bandit","26","252784","0.0-20.0-5.0","97197002","wem/bandit_either_2","A3ACUGH5N9VQO2","either","5","493","","","","","","","0","1","0","","0.8","0.5","0.5","","","0.8","0.2","","","","","","","","","","","","","","74","J","0","img/none_selected_demo.jpg","true","0","80_20_practice"
"","bandit","27","257816","0.0-20.0-6.0","97197002","wem/bandit_either_2","A3ACUGH5N9VQO2","either","5","3526","","","","","","","0","0","1","0.2","","0.5","0.5","","","","","","","0.8","0.2","","","","","","","","","","75","K","1","","true","0","80_20_practice"
"","bandit","28","259681","0.0-20.0-7.0","97197002","wem/bandit_either_2","A3ACUGH5N9VQO2","either","5","359","","","","","","","0","0","1","0.2","","0.5","0.5","","","","","","","0.8","0.2","","","","","","","","","","75","K","1","","true","0","80_20_practice"
"","bandit","29","261656","0.0-20.0-8.0","97197002","wem/bandit_either_2","A3ACUGH5N9VQO2","either","5","468","","","","","","","1","0","0","0.8","","0.5","0.5","","","","","","","0.8","0.2","","","","","","","","","","74","J","0","img/none_selected_demo.jpg","true","0","80_20_practice"
"","bandit","30","263481","0.0-20.0-9.0","97197002","wem/bandit_either_2","A3ACUGH5N9VQO2","either","5","317","","","","","","","0","1","0","","0.8","0.5","0.5","","","0.8","0.2","","","","","","","","","","","","","","74","J","0","img/none_selected_demo.jpg","true","0","80_20_practice"
"","bandit","31","265287","0.0-20.0-10.0","97197002","wem/bandit_either_2","A3ACUGH5N9VQO2","either","5","301","","","","","","","1","0","0","0.8","","0.5","0.5","","","","","","","0.8","0.2","","","","","","","","","","74","J","0","img/none_selected_demo.jpg","true","0","80_20_practice"
"","bandit","32","267095","0.0-20.0-11.0","97197002","wem/bandit_either_2","A3ACUGH5N9VQO2","either","5","302","","","","","","","0","1","0","","0.8","0.5","0.5","","","0.8","0.2","","","","","","","","","","","","","","74","J","0","img/none_selected_demo.jpg","true","0","80_20_practice"
"","bandit","33","268840","0.0-20.0-12.0","97197002","wem/bandit_either_2","A3ACUGH5N9VQO2","either","5","239","","","","","","","1","0","0","0.8","","0.5","0.5","","","","","","","0.8","0.2","","","","","","","","","","74","J","0","img/none_selected_demo.jpg","true","0","80_20_practice"
"","bandit","34","270633","0.0-20.0-13.0","97197002","wem/bandit_either_2","A3ACUGH5N9VQO2","either","5","286","","","","","","","0","1","0","","0.8","0.5","0.5","","","0.8","0.2","","","","","","","","","","","","","","74","J","0","img/none_selected_demo.jpg","true","0","80_20_practice"
"","bandit","35","272416","0.0-20.0-14.0","97197002","wem/bandit_either_2","A3ACUGH5N9VQO2","either","5","276","","","","","","","1","0","0","0.8","","0.5","0.5","","","","","","","0.8","0.2","","","","","","","","","","74","J","0","img/none_selected_demo.jpg","true","0","80_20_practice"
"","bandit","36","274362","0.0-20.0-15.0","97197002","wem/bandit_either_2","A3ACUGH5N9VQO2","either","5","438","","","","","","","1","0","0","0.8","","0.5","0.5","","","","","","","0.8","0.2","","","","","","","","","","74","J","0","img/none_selected_demo.jpg","true","0","80_20_practice"
"","bandit","37","276175","0.0-20.0-16.0","97197002","wem/bandit_either_2","A3ACUGH5N9VQO2","either","5","307","","","","","","","0","1","0","","0.8","0.5","0.5","","","0.8","0.2","","","","","","","","","","","","","","74","J","0","img/none_selected_demo.jpg","true","0","80_20_practice"
"","bandit","38","277904","0.0-20.0-17.0","97197002","wem/bandit_either_2","A3ACUGH5N9VQO2","either","5","222","","","","","","","1","0","0","0.8","","0.5","0.5","","","","","","","0.8","0.2","","","","","","","","","","74","J","0","img/none_selected_demo.jpg","true","0","80_20_practice"
"","bandit","39","279704","0.0-20.0-18.0","97197002","wem/bandit_either_2","A3ACUGH5N9VQO2","either","5","293","","","","","","","0","1","0","","0.8","0.5","0.5","","","0.8","0.2","","","","","","","","","","","","","","74","J","0","img/none_selected_demo.jpg","true","0","80_20_practice"
"","bandit","40","281440","0.0-20.0-19.0","97197002","wem/bandit_either_2","A3ACUGH5N9VQO2","either","5","229","","","","","","","1","0","0","0.8","","0.5","0.5","","","","","","","0.8","0.2","","","","","","","","","","74","J","0","img/none_selected_demo.jpg","true","0","80_20_practice"
"","text","41","284393","0.0-21.0","97197002","wem/bandit_either_2","A3ACUGH5N9VQO2","either","5","2950","","32","","","","","","","","","","","","","","","","","","","","","","","","","","","","","","","","","","",""
"","bandit","42","287585","0.0-22.0-0.0","97197002","wem/bandit_either_2","A3ACUGH5N9VQO2","either","5","1684","","","","","","","1","0","0","1","0","","","","","0","1","","","1","0","","","","","","","","","","74","J","0","img/none_selected_demo.jpg","true","0",""
"","text","43","292913","0.0-23.0","97197002","wem/bandit_either_2","A3ACUGH5N9VQO2","either","5","5326","","32","","","","","","","","","","","","","","","","","","","","","","","","","","","","","","","","","","",""
"","text","44","295553","0.0-24.0","97197002","wem/bandit_either_2","A3ACUGH5N9VQO2","either","5","2638","","32","","","","","","","","","","","","","","","","","","","","","","","","","","","","","","","","","","",""
"","text","45","297849","0.0-25.0","97197002","wem/bandit_either_2","A3ACUGH5N9VQO2","either","5","2294","","32","","","","","","","","","","","","","","","","","","","","","","","","","","","","","","","","","","",""
"","text","46","300490","0.0-26.0","97197002","wem/bandit_either_2","A3ACUGH5N9VQO2","either","5","2639","","32","","","","","","","","","","","","","","","","","","","","","","","","","","","","","","","","","","",""
"","text","47","307963","0.0-27.0","97197002","wem/bandit_either_2","A3ACUGH5N9VQO2","either","5","7471","","32","","","","","","","","","","","","","","","","","","","","","","","","","","","","","","","","","","",""
"","text","48","309897","0.0-28.0","97197002","wem/bandit_either_2","A3ACUGH5N9VQO2","either","5","1934","","32","","","","","","","","","","","","","","","","","","","","","","","","","","","","","","","","","","",""
"","text","49","313802","0.0-29.0","97197002","wem/bandit_either_2","A3ACUGH5N9VQO2","either","5","3903","","32","","","","","","","","","","","","","","","","","","","","","","","","","","","","","","","","","","",""
"","text","50","316034","0.0-30.0","97197002","wem/bandit_either_2","A3ACUGH5N9VQO2","either","5","2230","","32","","","","","","","","","","","","","","","","","","","","","","","","","","","","","","","","","","",""
"","text","51","319435","0.0-31.0","97197002","wem/bandit_either_2","A3ACUGH5N9VQO2","either","5","3400","","32","","","","","","","","","","","","","","","","","","","","","","","","","","","","","","","","","","",""
"","text","52","321347","0.0-32.0","97197002","wem/bandit_either_2","A3ACUGH5N9VQO2","either","5","1909","","32","","","","","","","","","","","","","","","","","","","","","","","","","","","","","","","","","","",""
"","text","53","323714","0.0-33.0","97197002","wem/bandit_either_2","A3ACUGH5N9VQO2","either","5","2363","","32","","","","","","","","","","","","","","","","","","","","","","","","","","","","","","","","","","",""
"","bandit","54","327145","0.0-34.0-0.0","97197002","wem/bandit_either_2","A3ACUGH5N9VQO2","either","5","1925","","","","","","","1","0","0","0.8","","0.5","0.5","0.5","0.5","","","","","0.8","0.2","0.6","0.2","","","","","","","","72","H","0","img/none_selected.jpg","true","0","full_practice"
"","bandit","55","328980","0.0-34.0-1.0","97197002","wem/bandit_either_2","A3ACUGH5N9VQO2","either","5","326","","","","","","","0","1","0","","0.8","0.5","0.5","0.5","0.5","0.8","0.2","0.6","0.2","","","","","","","","","","","","72","H","0","img/none_selected.jpg","true","0","full_practice"
"","bandit","56","330754","0.0-34.0-2.0","97197002","wem/bandit_either_2","A3ACUGH5N9VQO2","either","5","266","","","","","","","0","0","1","0.8","","0.5","0.5","0.5","0.5","","","","","0.8","0.2","0.6","0.2","","","","","","","","72","H","0","img/none_selected.jpg","true","0","full_practice"
"","bandit","57","332610","0.0-34.0-3.0","97197002","wem/bandit_either_2","A3ACUGH5N9VQO2","either","5","350","","","","","","","0","0","1","","0.8","0.5","0.5","0.5","0.5","0.8","0.2","0.6","0.2","","","","","","","","","","","","72","H","0","img/none_selected.jpg","true","0","full_practice"
"","bandit","58","334132","0.0-34.0-4.0","97197002","wem/bandit_either_2","A3ACUGH5N9VQO2","either","5","15","","","","","","","0","0","1","","0.2","0.5","0.5","0.5","0.5","0.8","0.2","0.6","0.2","","","","","","","","","","","","74","J","1","","true","0","full_practice"
"","bandit","59","336532","0.0-34.0-5.0","97197002","wem/bandit_either_2","A3ACUGH5N9VQO2","either","5","892","","","","","","","0","0","1","","0.6","0.5","0.5","0.5","0.5","0.8","0.2","0.6","0.2","","","","","","","","","","","","75","K","2","","true","0","full_practice"
"","bandit","60","338364","0.0-34.0-6.0","97197002","wem/bandit_either_2","A3ACUGH5N9VQO2","either","5","323","","","","","","","0","0","1","0.2","","0.5","0.5","0.5","0.5","","","","","0.8","0.2","0.6","0.2","","","","","","","","76","L","3","","true","0","full_practice"
"","bandit","61","340153","0.0-34.0-7.0","97197002","wem/bandit_either_2","A3ACUGH5N9VQO2","either","5","282","","","","","","","0","0","1","","0.8","0.5","0.5","0.5","0.5","0.8","0.2","0.6","0.2","","","","","","","","","","","","72","H","0","img/none_selected.jpg","true","0","full_practice"
"","bandit","62","341803","0.0-34.0-8.0","97197002","wem/bandit_either_2","A3ACUGH5N9VQO2","either","5","144","","","","","","","0","1","0","","0.8","0.5","0.5","0.5","0.5","0.8","0.2","0.6","0.2","","","","","","","","","","","","72","H","0","img/none_selected.jpg","true","0","full_practice"
"","bandit","63","343595","0.0-34.0-9.0","97197002","wem/bandit_either_2","A3ACUGH5N9VQO2","either","5","286","","","","","","","0","1","0","","0.8","0.5","0.5","0.5","0.5","0.8","0.2","0.6","0.2","","","","","","","","","","","","72","H","0","img/none_selected.jpg","true","0","full_practice"
"","bandit","64","345306","0.0-34.0-10.0","97197002","wem/bandit_either_2","A3ACUGH5N9VQO2","either","5","203","","","","","","","0","1","0","","0.8","0.5","0.5","0.5","0.5","0.8","0.2","0.6","0.2","","","","","","","","","","","","72","H","0","img/none_selected.jpg","true","0","full_practice"
"","bandit","65","347034","0.0-34.0-11.0","97197002","wem/bandit_either_2","A3ACUGH5N9VQO2","either","5","222","","","","","","","1","0","0","0.8","","0.5","0.5","0.5","0.5","","","","","0.8","0.2","0.6","0.2","","","","","","","","72","H","0","img/none_selected.jpg","true","0","full_practice"
"","bandit","66","348652","0.0-34.0-12.0","97197002","wem/bandit_either_2","A3ACUGH5N9VQO2","either","5","112","","","","","","","0","1","0","","0.8","0.5","0.5","0.5","0.5","0.8","0.2","0.6","0.2","","","","","","","","","","","","72","H","0","img/none_selected.jpg","true","0","full_practice"
"","bandit","67","350322","0.0-34.0-13.0","97197002","wem/bandit_either_2","A3ACUGH5N9VQO2","either","5","163","","","","","","","1","0","0","0.8","","0.5","0.5","0.5","0.5","","","","","0.8","0.2","0.6","0.2","","","","","","","","72","H","0","img/none_selected.jpg","true","0","full_practice"
"","bandit","68","351875","0.0-34.0-14.0","97197002","wem/bandit_either_2","A3ACUGH5N9VQO2","either","5","46","","","","","","","0","1","0","","0.8","0.5","0.5","0.5","0.5","0.8","0.2","0.6","0.2","","","","","","","","","","","","72","H","0","img/none_selected.jpg","true","0","full_practice"
"","bandit","69","353474","0.0-34.0-15.0","97197002","wem/bandit_either_2","A3ACUGH5N9VQO2","either","5","94","","","","","","","1","0","0","0.8","","0.5","0.5","0.5","0.5","","","","","0.8","0.2","0.6","0.2","","","","","","","","72","H","0","img/none_selected.jpg","true","0","full_practice"
"","bandit","70","355244","0.0-34.0-16.0","97197002","wem/bandit_either_2","A3ACUGH5N9VQO2","either","5","263","","","","","","","0","0","1","0.8","","0.5","0.5","0.5","0.5","","","","","0.8","0.2","0.6","0.2","","","","","","","","72","H","0","img/none_selected.jpg","true","0","full_practice"
"","bandit","71","357938","0.0-34.0-17.0","97197002","wem/bandit_either_2","A3ACUGH5N9VQO2","either","5","1188","","","","","","","0","0","1","0.8","","0.5","0.5","0.5","0.5","","","","","0.8","0.2","0.6","0.2","","","","","","","","72","H","0","img/none_selected.jpg","true","0","full_practice"
"","bandit","72","359771","0.0-34.0-18.0","97197002","wem/bandit_either_2","A3ACUGH5N9VQO2","either","5","326","","","","","","","0","1","0","","0.8","0.5","0.5","0.5","0.5","0.8","0.2","0.6","0.2","","","","","","","","","","","","72","H","0","img/none_selected.jpg","true","0","full_practice"
"","bandit","73","361473","0.0-34.0-19.0","97197002","wem/bandit_either_2","A3ACUGH5N9VQO2","either","5","198","","","","","","","1","0","0","0.8","","0.5","0.5","0.5","0.5","","","","","0.8","0.2","0.6","0.2","","","","","","","","72","H","0","img/none_selected.jpg","true","0","full_practice"
"","text","74","364444","0.0-35.0","97197002","wem/bandit_either_2","A3ACUGH5N9VQO2","either","5","2966","","32","","","","","","","","","","","","","","","","","","","","","","","","","","","","","","","","","","",""
"","text","75","374301","0.0-36.0","97197002","wem/bandit_either_2","A3ACUGH5N9VQO2","either","5","8852","","32","","","","","","","","","","","","","","","","","","","","","","","","","","","","","","","","","","",""
"","text","76","381741","0.0-37.0","97197002","wem/bandit_either_2","A3ACUGH5N9VQO2","either","5","7438","","32","","","","","","","","","","","","","","","","","","","","","","","","","","","","","","","","","","",""
"","text","77","385757","0.0-38.0","97197002","wem/bandit_either_2","A3ACUGH5N9VQO2","either","5","4013","","32","","","","","","","","","","","","","","","","","","","","","","","","","","","","","","","","","","",""
"","text","78","390390","0.0-39.0","97197002","wem/bandit_either_2","A3ACUGH5N9VQO2","either","5","4630","","32","","","","","","","","","","","","","","","","","","","","","","","","","","","","","","","","","","",""
"","text","79","395541","0.0-40.0","97197002","wem/bandit_either_2","A3ACUGH5N9VQO2","either","5","5150","","32","","","","","","","","","","","","","","","","","","","","","","","","","","","","","","","","","","",""
"","bandit","80","399655","0.0-41.0-0.0","97197002","wem/bandit_either_2","A3ACUGH5N9VQO2","either","5","2606","","","","","","","0","1","0","","0.3897275569","0.6","0.8","0.4","0.2","0.3897275569","0.4265570961","0.3340388524","0.1165465043","","","","","","","","","","","","72","H","0","img/none_selected.jpg","","1","main_expt"
"","bandit","81","401501","0.0-42.0-0.0","97197002","wem/bandit_either_2","A3ACUGH5N9VQO2","either","5","338","","","","","","","1","0","0","0.3911966266","","0.6","0.8","0.4","0.2","","","","","0.3911966266","0.4177099958","0.3223834482","0.08371899021","","","","","","","","72","H","0","img/none_selected.jpg","","2","main_expt"
"","bandit","82","403309","0.0-43.0-0.0","97197002","wem/bandit_either_2","A3ACUGH5N9VQO2","either","5","301","","","","","","","1","0","0","0.4074861021","","0.6","0.8","0.4","0.2","","","","","0.4074861021","0.4192185534","0.3585509001","0.04339790364","","","","","","","","72","H","0","img/none_selected.jpg","","3","main_expt"
"","bandit","83","405076","0.0-44.0-0.0","97197002","wem/bandit_either_2","A3ACUGH5N9VQO2","either","5","262","","","","","","","0","1","0","","0.3965638453","0.6","0.8","0.4","0.2","0.3965638453","0.4241610434","0.3416436242","0.04073472785","","","","","","","","","","","","72","H","0","img/none_selected.jpg","","4","main_expt"
"","bandit","84","406797","0.0-45.0-0.0","97197002","wem/bandit_either_2","A3ACUGH5N9VQO2","either","5","213","","","","","","","0","0","1","","0.3688269119","0.6","0.8","0.4","0.2","0.3688269119","0.4284837315","0.3444758892","0.04731773769","","","","","","","","","","","","72","H","0","img/none_selected.jpg","","5","main_expt"
"","bandit","85","408598","0.0-46.0-0.0","97197002","wem/bandit_either_2","A3ACUGH5N9VQO2","either","5","293","","","","","","","1","0","0","0.3865867917","","0.6","0.8","0.4","0.2","","","","","0.3865867917","0.4328708062","0.3574177426","0.05617088868","","","","","","","","72","H","0","img/none_selected.jpg","","6","main_expt"
"","bandit","86","410340","0.0-47.0-0.0","97197002","wem/bandit_either_2","A3ACUGH5N9VQO2","either","5","236","","","","","","","0","1","0","","0.4294719924","0.6","0.8","0.4","0.2","0.4294719924","0.4176545671","0.3634052143","0.05606577856","","","","","","","","","","","","72","H","0","img/none_selected.jpg","","7","main_expt"
"","bandit","87","412118","0.0-48.0-0.0","97197002","wem/bandit_either_2","A3ACUGH5N9VQO2","either","5","271","","","","","","","0","0","1","0.4210378118","","0.6","0.8","0.4","0.2","","","","","0.4210378118","0.4022395488","0.3675420607","0.09244853328","","","","","","","","72","H","0","img/none_selected.jpg","","8","main_expt"
"","bandit","88","413887","0.0-49.0-0.0","97197002","wem/bandit_either_2","A3ACUGH5N9VQO2","either","5","258","","","","","","","1","0","0","0.4502112583","","0.6","0.8","0.4","0.2","","","","","0.4502112583","0.3929004949","0.3921196104","0.1271341085","","","","","","","","72","H","0","img/none_selected.jpg","","9","main_expt"
"","bandit","89","415660","0.0-50.0-0.0","97197002","wem/bandit_either_2","A3ACUGH5N9VQO2","either","5","266","","","","","","","0","0","1","0.4452653155","","0.6","0.8","0.4","0.2","","","","","0.4452653155","0.3863711448","0.4026182126","0.1370717255","","","","","","","","72","H","0","img/none_selected.jpg","","10","main_expt"
"","bandit","90","417404","0.0-51.0-0.0","97197002","wem/bandit_either_2","A3ACUGH5N9VQO2","either","5","239","","","","","","","0","0","1","0.4352349267","","0.6","0.8","0.4","0.2","","","","","0.4352349267","0.4205849279","0.3543069494","0.1275050207","","","","","","","","72","H","0","img/none_selected.jpg","","11","main_expt"
"","bandit","91","419038","0.0-52.0-0.0","97197002","wem/bandit_either_2","A3ACUGH5N9VQO2","either","5","126","","","","","","","0","1","0","","0.4029030639","0.6","0.8","0.4","0.2","0.4029030639","0.4525069231","0.3504097904","0.122317004","","","","","","","","","","","","72","H","0","img/none_selected.jpg","","12","main_expt"
"","bandit","92","420797","0.0-53.0-0.0","97197002","wem/bandit_either_2","A3ACUGH5N9VQO2","either","5","253","","","","","","","1","0","0","0.4198147105","","0.6","0.8","0.4","0.2","","","","","0.4198147105","0.4485799753","0.2787441393","0.1251711411","","","","","","","","72","H","0","img/none_selected.jpg","","13","main_expt"
"","bandit","93","422573","0.0-54.0-0.0","97197002","wem/bandit_either_2","A3ACUGH5N9VQO2","either","5","270","","","","","","","0","0","1","0.3761312174","","0.6","0.8","0.4","0.2","","","","","0.3761312174","0.4504049656","0.2723245106","0.1380641988","","","","","","","","72","H","0","img/none_selected.jpg","","14","main_expt"
"","bandit","94","424206","0.0-55.0-0.0","97197002","wem/bandit_either_2","A3ACUGH5N9VQO2","either","5","124","","","","","","","0","0","1","","0.4017507227","0.6","0.8","0.4","0.2","0.4017507227","0.4281165459","0.3687644442","0.2010812313","","","","","","","","","","","","72","H","0","img/none_selected.jpg","","15","main_expt"
"","bandit","95","425886","0.0-56.0-0.0","97197002","wem/bandit_either_2","A3ACUGH5N9VQO2","either","5","173","","","","","","","0","1","0","","0.3859888637","0.6","0.8","0.4","0.2","0.3859888637","0.4035101098","0.3992289848","0.1747275657","","","","","","","","","","","","72","H","0","img/none_selected.jpg","","16","main_expt"
"","bandit","96","427607","0.0-57.0-0.0","97197002","wem/bandit_either_2","A3ACUGH5N9VQO2","either","5","213","","","","","","","0","1","0","","0.3706978481","0.6","0.8","0.4","0.2","0.3706978481","0.4063691663","0.4067061876","0.1816524112","","","","","","","","","","","","72","H","0","img/none_selected.jpg","","17","main_expt"
"","bandit","97","429359","0.0-58.0-0.0","97197002","wem/bandit_either_2","A3ACUGH5N9VQO2","either","5","244","","","","","","","0","0","1","","0.3323991027","0.6","0.8","0.4","0.2","0.3323991027","0.4201618032","0.3969002131","0.1700798448","","","","","","","","","","","","72","H","0","img/none_selected.jpg","","18","main_expt"
"","bandit","98","431133","0.0-59.0-0.0","97197002","wem/bandit_either_2","A3ACUGH5N9VQO2","either","5","267","","","","","","","0","0","1","0.3301718366","","0.6","0.8","0.4","0.2","","","","","0.3301718366","0.3868389751","0.3930099592","0.1998500639","","","","","","","","72","H","0","img/none_selected.jpg","","19","main_expt"
"","bandit","99","432799","0.0-60.0-0.0","97197002","wem/bandit_either_2","A3ACUGH5N9VQO2","either","5","157","","","","","","","0","0","1","0.3714618997","","0.6","0.8","0.4","0.2","","","","","0.3714618997","0.3868875991","0.3791602553","0.2418808817","","","","","","","","72","H","0","img/none_selected.jpg","","20","main_expt"
"","bandit","100","434558","0.0-61.0-0.0","97197002","wem/bandit_either_2","A3ACUGH5N9VQO2","either","5","251","","","","","","","1","0","0","0.4253770554","","0.6","0.8","0.4","0.2","","","","","0.3621694591","0.4253770554","0.4127515201","0.2293341009","","","","","","","","74","J","1","","","21","main_expt"
"","bandit","101","436326","0.0-62.0-0.0","97197002","wem/bandit_either_2","A3ACUGH5N9VQO2","either","5","260","","","","","","","1","0","0","0.4285762007","","0.6","0.8","0.4","0.2","","","","","0.3648829928","0.4285762007","0.4164833055","0.2074184163","","","","","","","","74","J","1","","","22","main_expt"
"","bandit","102","438071","0.0-63.0-0.0","97197002","wem/bandit_either_2","A3ACUGH5N9VQO2","either","5","237","","","","","","","0","0","1","0.4082522222","","0.6","0.8","0.4","0.2","","","","","0.2856994719","0.4082522222","0.4143027846","0.1832507358","","","","","","","","74","J","1","","","23","main_expt"
"","bandit","103","439737","0.0-64.0-0.0","97197002","wem/bandit_either_2","A3ACUGH5N9VQO2","either","5","158","","","","","","","1","0","0","0.4027270218","","0.6","0.8","0.4","0.2","","","","","0.3152516524","0.4027270218","0.3649270698","0.1469425149","","","","","","","","74","J","1","","","24","main_expt"
"","bandit","104","441461","0.0-65.0-0.0","97197002","wem/bandit_either_2","A3ACUGH5N9VQO2","either","5","218","","","","","","","0","0","1","0.4100212433","","0.6","0.8","0.4","0.2","","","","","0.2778145345","0.4100212433","0.392676409","0.102794739","","","","","","","","74","J","1","","","25","main_expt"
"","bandit","105","443198","0.0-66.0-0.0","97197002","wem/bandit_either_2","A3ACUGH5N9VQO2","either","5","230","","","","","","","0","0","1","0.4190791169","","0.6","0.8","0.4","0.2","","","","","0.3170506137","0.4190791169","0.4031565401","0.1173732637","","","","","","","","74","J","1","","","26","main_expt"
"","bandit","106","444797","0.0-67.0-0.0","97197002","wem/bandit_either_2","A3ACUGH5N9VQO2","either","5","94","","","","","","","0","0","1","0.4527212376","","0.6","0.8","0.4","0.2","","","","","0.3223143746","0.4527212376","0.4245959001","0.08835016803","","","","","","","","74","J","1","","","27","main_expt"
"","bandit","107","446581","0.0-68.0-0.0","97197002","wem/bandit_either_2","A3ACUGH5N9VQO2","either","5","276","","","","","","","0","0","1","","0.4232885055","0.6","0.8","0.4","0.2","0.3234472479","0.4480998813","0.4232885055","0.1134440288","","","","","","","","","","","","75","K","2","","","28","main_expt"
"","bandit","108","448369","0.0-69.0-0.0","97197002","wem/bandit_either_2","A3ACUGH5N9VQO2","either","5","275","","","","","","","0","0","1","","0.4495512981","0.6","0.8","0.4","0.2","0.2881425904","0.4628669208","0.4495512981","0.1982905849","","","","","","","","","","","","75","K","2","","","29","main_expt"
"","bandit","109","450142","0.0-70.0-0.0","97197002","wem/bandit_either_2","A3ACUGH5N9VQO2","either","5","268","","","","","","","0","0","1","","0.2366655967","0.6","0.8","0.4","0.2","0.2326555855","0.4565655028","0.4485299892","0.2366655967","","","","","","","","","","","","76","L","3","","","30","main_expt"
"","bandit","110","452046","0.0-71.0-0.0","97197002","wem/bandit_either_2","A3ACUGH5N9VQO2","either","5","397","","","","","","","0","0","1","","0.1622470467","0.6","0.8","0.4","0.2","0.2364604256","0.4686031056","0.4599237238","0.1622470467","","","","","","","","","","","","76","L","3","","","31","main_expt"
"","bandit","111","454174","0.0-72.0-0.0","97197002","wem/bandit_either_2","A3ACUGH5N9VQO2","either","5","620","","","","","","","0","0","1","0.4659582456","","0.6","0.8","0.4","0.2","","","","","0.2451982598","0.4659582456","0.4508116693","0.1771911602","","","","","","","","74","J","1","","","32","main_expt"
"","bandit","112","455879","0.0-73.0-0.0","97197002","wem/bandit_either_2","A3ACUGH5N9VQO2","either","5","197","","","","","","","1","0","0","0.4810757035","","0.6","0.8","0.4","0.2","","","","","0.2360369815","0.4810757035","0.45101727","0.1622836308","","","","","","","","74","J","1","","","33","main_expt"
"","bandit","113","457670","0.0-74.0-0.0","97197002","wem/bandit_either_2","A3ACUGH5N9VQO2","either","5","284","","","","","","","0","0","1","0.4842727378","","0.6","0.8","0.4","0.2","","","","","0.2317763892","0.4842727378","0.4340174653","0.1655985557","","","","","","","","74","J","1","","","34","main_expt"
"","bandit","114","459447","0.0-75.0-0.0","97197002","wem/bandit_either_2","A3ACUGH5N9VQO2","either","5","269","","","","","","","0","0","1","0.4745470136","","0.6","0.8","0.4","0.2","","","","","0.2527891731","0.4745470136","0.4040147441","0.1492797185","","","","","","","","74","J","1","","","35","main_expt"
"","bandit","115","461313","0.0-76.0-0.0","97197002","wem/bandit_either_2","A3ACUGH5N9VQO2","either","5","357","","","","","","","1","0","0","0.2641283143","","0.6","0.8","0.4","0.2","","","","","0.2641283143","0.4440965139","0.4268829696","0.1504543003","","","","","","","","72","H","0","img/none_selected.jpg","","36","main_expt"
"","bandit","116","463486","0.0-77.0-0.0","97197002","wem/bandit_either_2","A3ACUGH5N9VQO2","either","5","667","","","","","","","1","0","0","0.2309310423","","0.6","0.8","0.4","0.2","","","","","0.2309310423","0.4544425755","0.4562327564","0.1064249526","","","","","","","","72","H","0","img/none_selected.jpg","","37","main_expt"
"","bandit","117","465247","0.0-78.0-0.0","97197002","wem/bandit_either_2","A3ACUGH5N9VQO2","either","5","254","","","","","","","0","0","1","0.2093170459","","0.6","0.8","0.4","0.2","","","","","0.2093170459","0.4700138218","0.4481627861","0.1346530267","","","","","","","","72","H","0","img/none_selected.jpg","","38","main_expt"
"","bandit","118","466975","0.0-79.0-0.0","97197002","wem/bandit_either_2","A3ACUGH5N9VQO2","either","5","220","","","","","","","0","0","1","0.1398625959","","0.6","0.8","0.4","0.2","","","","","0.1398625959","0.466948448","0.4475890948","0.1303494481","","","","","","","","72","H","0","img/none_selected.jpg","","39","main_expt"
"","bandit","119","468728","0.0-80.0-0.0","97197002","wem/bandit_either_2","A3ACUGH5N9VQO2","either","5","245","","","","","","","0","0","1","0.09690087606","","0.6","0.8","0.4","0.2","","","","","0.09690087606","0.4679256248","0.4501575696","0.1492074344","","","","","","","","72","H","0","img/none_selected.jpg","","40","main_expt"
"","bandit","120","470520","0.0-81.0-0.0","97197002","wem/bandit_either_2","A3ACUGH5N9VQO2","either","5","284","","","","","","","1","0","0","0.445537573","","0.6","0.8","0.4","0.2","","","","","0.1129569356","0.445537573","0.4121884666","0.1370672299","","","","","","","","74","J","1","","","41","main_expt"
"","bandit","121","472344","0.0-82.0-0.0","97197002","wem/bandit_either_2","A3ACUGH5N9VQO2","either","5","316","","","","","","","1","0","0","0.4521531226","","0.6","0.8","0.4","0.2","","","","","0.1227033228","0.4521531226","0.4379939247","0.08144147181","","","","","","","","74","J","1","","","42","main_expt"
"","bandit","122","474110","0.0-83.0-0.0","97197002","wem/bandit_either_2","A3ACUGH5N9VQO2","either","5","259","","","","","","","0","0","1","0.4695072217","","0.6","0.8","0.4","0.2","","","","","0.08393287497","0.4695072217","0.4271747655","0.06793865388","","","","","","","","74","J","1","","","43","main_expt"
"","bandit","123","475894","0.0-84.0-0.0","97197002","wem/bandit_either_2","A3ACUGH5N9VQO2","either","5","277","","","","","","","0","0","1","0.4807409838","","0.6","0.8","0.4","0.2","","","","","0.06260074275","0.4807409838","0.4480494518","0.05295344446","","","","","","","","74","J","1","","","44","main_expt"
"","bandit","124","477624","0.0-85.0-0.0","97197002","wem/bandit_either_2","A3ACUGH5N9VQO2","either","5","222","","","","","","","1","0","0","0.4507048108","","0.6","0.8","0.4","0.2","","","","","0.08062123592","0.4507048108","0.4269729589","0.02744239742","","","","","","","","74","J","1","","","45","main_expt"
"","bandit","125","479369","0.0-86.0-0.0","97197002","wem/bandit_either_2","A3ACUGH5N9VQO2","either","5","236","","","","","","","1","0","0","0.4382321206","","0.6","0.8","0.4","0.2","","","","","0.1110847749","0.4382321206","0.4475746277","0.02347437243","","","","","","","","74","J","1","","","46","main_expt"
"","bandit","126","481096","0.0-87.0-0.0","97197002","wem/bandit_either_2","A3ACUGH5N9VQO2","either","5","218","","","","","","","1","0","0","0.4393937913","","0.6","0.8","0.4","0.2","","","","","0.05346849493","0.4393937913","0.4295618238","0.02418160198","","","","","","","","74","J","1","","","47","main_expt"
"","bandit","127","482864","0.0-88.0-0.0","97197002","wem/bandit_either_2","A3ACUGH5N9VQO2","either","5","261","","","","","","","0","0","1","0.440318131","","0.6","0.8","0.4","0.2","","","","","0.04499733497","0.440318131","0.4431907244","0.01182676654","","","","","","","","74","J","1","","","48","main_expt"
"","bandit","128","484681","0.0-89.0-0.0","97197002","wem/bandit_either_2","A3ACUGH5N9VQO2","either","5","307","","","","","","","0","0","1","","0.4362102412","0.6","0.8","0.4","0.2","0.07378534534","0.4362102412","0.4187732916","0.0186287842","","","","","","","","","","","","74","J","1","","","49","main_expt"
"","bandit","129","486337","0.0-90.0-0.0","97197002","wem/bandit_either_2","A3ACUGH5N9VQO2","either","5","146","","","","","","","0","0","1","","0.44488671","0.6","0.8","0.4","0.2","0.06168845619","0.44488671","0.356579213","0.02550629551","","","","","","","","","","","","74","J","1","","","50","main_expt"
"","bandit","130","487952","0.0-91.0-0.0","97197002","wem/bandit_either_2","A3ACUGH5N9VQO2","either","5","107","","","","","","","0","1","0","","0.2629404955","0.6","0.8","0.4","0.2","0.1062028567","0.4633405548","0.2629404955","0.04366809707","","","","","","","","","","","","75","K","2","","","51","main_expt"
"","bandit","131","489690","0.0-92.0-0.0","97197002","wem/bandit_either_2","A3ACUGH5N9VQO2","either","5","230","","","","","","","0","0","1","","0.2919747068","0.6","0.8","0.4","0.2","0.1379608546","0.4528043762","0.2919747068","0.04357168116","","","","","","","","","","","","75","K","2","","","52","main_expt"
"","bandit","132","491505","0.0-93.0-0.0","97197002","wem/bandit_either_2","A3ACUGH5N9VQO2","either","5","306","","","","","","","0","0","1","","0.3809901122","0.6","0.8","0.4","0.2","0.1356826849","0.4390431751","0.3809901122","0.03899227154","","","","","","","","","","","","75","K","2","","","53","main_expt"
"","bandit","133","493800","0.0-94.0-0.0","97197002","wem/bandit_either_2","A3ACUGH5N9VQO2","either","5","787","","","","","","","0","0","1","","0.04009146386","0.6","0.8","0.4","0.2","0.1038772241","0.4549270822","0.3452518694","0.04009146386","","","","","","","","","","","","76","L","3","","","54","main_expt"
"","bandit","134","495649","0.0-95.0-0.0","97197002","wem/bandit_either_2","A3ACUGH5N9VQO2","either","5","341","","","","","","","0","0","1","","0.0155768565","0.6","0.8","0.4","0.2","0.1689791829","0.4710341864","0.3263112327","0.0155768565","","","","","","","","","","","","76","L","3","","","55","main_expt"
"","bandit","135","497464","0.0-96.0-0.0","97197002","wem/bandit_either_2","A3ACUGH5N9VQO2","either","5","305","","","","","","","0","0","1","0.1108888145","","0.6","0.8","0.4","0.2","","","","","0.1108888145","0.4745834276","0.3308963945","0.02112461672","","","","","","","","72","H","0","img/none_selected.jpg","","56","main_expt"
"","bandit","136","499306","0.0-97.0-0.0","97197002","wem/bandit_either_2","A3ACUGH5N9VQO2","either","5","332","","","","","","","0","0","1","0.1206542402","","0.6","0.8","0.4","0.2","","","","","0.1206542402","0.489318572","0.3150326571","0.0126553198","","","","","","","","72","H","0","img/none_selected.jpg","","57","main_expt"
"","bandit","137","501033","0.0-98.0-0.0","97197002","wem/bandit_either_2","A3ACUGH5N9VQO2","either","5","218","","","","","","","0","0","1","0.09707343937","","0.6","0.8","0.4","0.2","","","","","0.09707343937","0.480037986","0.3049116772","0.01131359515","","","","","","","","72","H","0","img/none_selected.jpg","","58","main_expt"
"","bandit","138","502912","0.0-99.0-0.0","97197002","wem/bandit_either_2","A3ACUGH5N9VQO2","either","5","372","","","","","","","0","0","1","0.3050987947","","0.6","0.8","0.4","0.2","","","","","0.1044384952","0.4593461039","0.3050987947","0.01030075821","","","","","","","","75","K","2","","","59","main_expt"
"","bandit","139","504761","0.0-100.0-0.0","97197002","wem/bandit_either_2","A3ACUGH5N9VQO2","either","5","343","","","","","","","0","0","1","","0.3274009355","0.6","0.8","0.4","0.2","0.08890369623","0.446051488","0.3274009355","0.005868957973","","","","","","","","","","","","75","K","2","","","60","main_expt"
"","bandit","140","506512","0.0-101.0-0.0","97197002","wem/bandit_either_2","A3ACUGH5N9VQO2","either","5","243","","","","","","","0","1","0","","0.4391285327","0.6","0.8","0.4","0.2","0.08921221942","0.4391285327","0.3428943983","0.004361943215","","","","","","","","","","","","74","J","1","","","61","main_expt"
"","bandit","141","508305","0.0-102.0-0.0","97197002","wem/bandit_either_2","A3ACUGH5N9VQO2","either","5","284","","","","","","","0","0","1","0.4063883723","","0.6","0.8","0.4","0.2","","","","","0.09812025034","0.4063883723","0.3549763931","0.005208412743","","","","","","","","74","J","1","","","62","main_expt"
"","bandit","142","510081","0.0-103.0-0.0","97197002","wem/bandit_either_2","A3ACUGH5N9VQO2","either","5","268","","","","","","","0","0","1","","0.4330387396","0.6","0.8","0.4","0.2","0.09006279409","0.4330387396","0.3496678451","0.006461011255","","","","","","","","","","","","74","J","1","","","63","main_expt"
"","bandit","143","511891","0.0-104.0-0.0","97197002","wem/bandit_either_2","A3ACUGH5N9VQO2","either","5","298","","","","","","","0","0","1","0.4207902426","","0.6","0.8","0.4","0.2","","","","","0.1118976224","0.4207902426","0.3188537263","0.01267926231","","","","","","","","74","J","1","","","64","main_expt"
"","bandit","144","513578","0.0-105.0-0.0","97197002","wem/bandit_either_2","A3ACUGH5N9VQO2","either","5","179","","","","","","","0","0","1","0.009732787917","","0.6","0.8","0.4","0.2","","","","","0.1053817613","0.3719582347","0.3191795336","0.009732787917","","","","","","","","76","L","3","","","65","main_expt"
"","bandit","145","515522","0.0-106.0-0.0","97197002","wem/bandit_either_2","A3ACUGH5N9VQO2","either","5","435","","","","","","","0","0","1","","0.01092542651","0.6","0.8","0.4","0.2","0.1307356695","0.3748569955","0.268616347","0.01092542651","","","","","","","","","","","","76","L","3","","","66","main_expt"
"","bandit","146","517417","0.0-107.0-0.0","97197002","wem/bandit_either_2","A3ACUGH5N9VQO2","either","5","387","","","","","","","0","0","1","","0.02125534741","0.6","0.8","0.4","0.2","0.1418436428","0.335252031","0.259194563","0.02125534741","","","","","","","","","","","","76","L","3","","","67","main_expt"
"","bandit","147","519176","0.0-108.0-0.0","97197002","wem/bandit_either_2","A3ACUGH5N9VQO2","either","5","251","","","","","","","1","0","0","0.2281204868","","0.6","0.8","0.4","0.2","","","","","0.1459089566","0.3199157278","0.2281204868","0.02360283027","","","","","","","","75","K","2","","","68","main_expt"
"","bandit","148","521001","0.0-109.0-0.0","97197002","wem/bandit_either_2","A3ACUGH5N9VQO2","either","5","317","","","","","","","0","0","1","0.2195844169","","0.6","0.8","0.4","0.2","","","","","0.1809721424","0.3068525281","0.2195844169","0.02539305756","","","","","","","","75","K","2","","","69","main_expt"
"","bandit","149","522787","0.0-110.0-0.0","97197002","wem/bandit_either_2","A3ACUGH5N9VQO2","either","5","275","","","","","","","0","0","1","0.1883338509","","0.6","0.8","0.4","0.2","","","","","0.1784068974","0.3181076016","0.1883338509","0.05014388586","","","","","","","","75","K","2","","","70","main_expt"
"","bandit","150","524410","0.0-111.0-0.0","97197002","wem/bandit_either_2","A3ACUGH5N9VQO2","either","5","114","","","","","","","0","0","1","","0.1639708178","0.6","0.8","0.4","0.2","0.1973023396","0.2926426422","0.1639708178","0.04209054697","","","","","","","","","","","","75","K","2","","","71","main_expt"
"","bandit","151","526060","0.0-112.0-0.0","97197002","wem/bandit_either_2","A3ACUGH5N9VQO2","either","5","142","","","","","","","0","0","1","0.2380263643","","0.6","0.8","0.4","0.2","","","","","0.2436342847","0.2380263643","0.1312842785","0.05611199342","","","","","","","","74","J","1","","","72","main_expt"
"","bandit","152","527601","0.0-113.0-0.0","97197002","wem/bandit_either_2","A3ACUGH5N9VQO2","either","5","33","","","","","","","0","0","1","0.2407197948","","0.6","0.8","0.4","0.2","","","","","0.1992173182","0.2407197948","0.1805041857","0.05293238473","","","","","","","","74","J","1","","","73","main_expt"
"","bandit","153","529482","0.0-114.0-0.0","97197002","wem/bandit_either_2","A3ACUGH5N9VQO2","either","5","374","","","","","","","1","0","0","0.2347098304","","0.6","0.8","0.4","0.2","","","","","0.2347098304","0.2317468449","0.1739557812","0.0318456884","","","","","","","","72","H","0","img/none_selected.jpg","","74","main_expt"
"","bandit","154","531218","0.0-115.0-0.0","97197002","wem/bandit_either_2","A3ACUGH5N9VQO2","either","5","227","","","","","","","0","1","0","","0.2641442137","0.6","0.8","0.4","0.2","0.2641442137","0.2545997551","0.2434916027","0.03873230677","","","","","","","","","","","","72","H","0","img/none_selected.jpg","","75","main_expt"
"","bandit","155","532994","0.0-116.0-0.0","97197002","wem/bandit_either_2","A3ACUGH5N9VQO2","either","5","266","","","","","","","0","0","1","","0.3192644053","0.6","0.8","0.4","0.2","0.3192644053","0.2890845388","0.2438468568","0.03304947682","","","","","","","","","","","","72","H","0","img/none_selected.jpg","","76","main_expt"
"","bandit","156","534698","0.0-117.0-0.0","97197002","wem/bandit_either_2","A3ACUGH5N9VQO2","either","5","195","","","","","","","0","0","1","0.3351132613","","0.6","0.8","0.4","0.2","","","","","0.3351132613","0.2386362654","0.2425324642","0.02607887458","","","","","","","","72","H","0","img/none_selected.jpg","","77","main_expt"
"","bandit","157","536410","0.0-118.0-0.0","97197002","wem/bandit_either_2","A3ACUGH5N9VQO2","either","5","204","","","","","","","0","0","1","0.3086784207","","0.6","0.8","0.4","0.2","","","","","0.3086784207","0.2673679704","0.205588479","0.02492981692","","","","","","","","72","H","0","img/none_selected.jpg","","78","main_expt"
"","bandit","158","538129","0.0-119.0-0.0","97197002","wem/bandit_either_2","A3ACUGH5N9VQO2","either","5","211","","","","","","","0","0","1","0.3076482073","","0.6","0.8","0.4","0.2","","","","","0.3076482073","0.2813811921","0.213062191","0.01824110002","","","","","","","","72","H","0","img/none_selected.jpg","","79","main_expt"
"","bandit","159","539810","0.0-120.0-0.0","97197002","wem/bandit_either_2","A3ACUGH5N9VQO2","either","5","174","","","","","","","0","0","1","","0.0202176162","0.6","0.8","0.4","0.2","0.3605025214","0.2419447949","0.1852926048","0.0202176162","","","","","","","","","","","","76","L","3","","","80","main_expt"
"","bandit","160","541746","0.0-121.0-0.0","97197002","wem/bandit_either_2","A3ACUGH5N9VQO2","either","5","428","","","","","","","0","0","1","","0.0252752587","0.6","0.8","0.4","0.2","0.3286166321","0.323481111","0.2332942271","0.0252752587","","","","","","","","","","","","76","L","3","","","81","main_expt"
"","bandit","161","543340","0.0-122.0-0.0","97197002","wem/bandit_either_2","A3ACUGH5N9VQO2","either","5","84","","","","","","","0","0","1","0.2087797338","","0.6","0.8","0.4","0.2","","","","","0.3459677762","0.3097244961","0.2087797338","0.05668457717","","","","","","","","75","K","2","","","82","main_expt"
"","bandit","162","545137","0.0-123.0-0.0","97197002","wem/bandit_either_2","A3ACUGH5N9VQO2","either","5","289","","","","","","","1","0","0","0.2787498647","","0.6","0.8","0.4","0.2","","","","","0.3092751195","0.2787498647","0.2049979043","0.07760530004","","","","","","","","74","J","1","","","83","main_expt"
"","bandit","163","546907","0.0-124.0-0.0","97197002","wem/bandit_either_2","A3ACUGH5N9VQO2","either","5","260","","","","","","","0","0","1","0.2589524449","","0.6","0.8","0.4","0.2","","","","","0.3044630387","0.2589524449","0.2151780091","0.03696005566","","","","","","","","74","J","1","","","84","main_expt"
"","bandit","164","548730","0.0-125.0-0.0","97197002","wem/bandit_either_2","A3ACUGH5N9VQO2","either","5","315","","","","","","","0","0","1","0.2769318636","","0.6","0.8","0.4","0.2","","","","","0.2812480587","0.2769318636","0.1497615914","0.04177257934","","","","","","","","74","J","1","","","85","main_expt"
"","bandit","165","550362","0.0-126.0-0.0","97197002","wem/bandit_either_2","A3ACUGH5N9VQO2","either","5","123","","","","","","","0","1","0","","0.1223687677","0.6","0.8","0.4","0.2","0.2506532223","0.2849222391","0.1223687677","0.0385770192","","","","","","","","","","","","75","K","2","","","86","main_expt"
"","bandit","166","552163","0.0-127.0-0.0","97197002","wem/bandit_either_2","A3ACUGH5N9VQO2","either","5","294","","","","","","","0","1","0","","0.1472857413","0.6","0.8","0.4","0.2","0.2269900387","0.3131087309","0.1472857413","0.03720252147","","","","","","","","","","","","75","K","2","","","87","main_expt"
"","bandit","167","553986","0.0-128.0-0.0","97197002","wem/bandit_either_2","A3ACUGH5N9VQO2","either","5","316","","","","","","","0","0","1","0.1252586248","","0.6","0.8","0.4","0.2","","","","","0.1504729919","0.3038587512","0.1252586248","0.06746059371","","","","","","","","75","K","2","","","88","main_expt"
"","bandit","168","555611","0.0-129.0-0.0","97197002","wem/bandit_either_2","A3ACUGH5N9VQO2","either","5","114","","","","","","","1","0","0","0.1194927994","","0.6","0.8","0.4","0.2","","","","","0.1382070302","0.3308022157","0.1194927994","0.04069757945","","","","","","","","75","K","2","","","89","main_expt"
"","bandit","169","557379","0.0-130.0-0.0","97197002","wem/bandit_either_2","A3ACUGH5N9VQO2","either","5","261","","","","","","","1","0","0","0.1589750007","","0.6","0.8","0.4","0.2","","","","","0.1364765349","0.3574922351","0.1589750007","0.07325379503","","","","","","","","75","K","2","","","90","main_expt"
"","bandit","170","559603","0.0-131.0-0.0","97197002","wem/bandit_either_2","A3ACUGH5N9VQO2","either","5","715","","","","","","","0","1","0","","0.1859960426","0.6","0.8","0.4","0.2","0.09318196272","0.3729517688","0.1859960426","0.06877471811","","","","","","","","","","","","75","K","2","","","91","main_expt"
"","bandit","171","561554","0.0-132.0-0.0","97197002","wem/bandit_either_2","A3ACUGH5N9VQO2","either","5","440","","","","","","","1","0","0","0.192419488","","0.6","0.8","0.4","0.2","","","","","0.06946097624","0.398352994","0.192419488","0.04115987362","","","","","","","","75","K","2","","","92","main_expt"
"","bandit","172","563307","0.0-133.0-0.0","97197002","wem/bandit_either_2","A3ACUGH5N9VQO2","either","5","244","","","","","","","0","0","1","0.1716033463","","0.6","0.8","0.4","0.2","","","","","0.08102832817","0.4135860398","0.1716033463","0.07078892783","","","","","","","","75","K","2","","","93","main_expt"
"","bandit","173","565010","0.0-134.0-0.0","97197002","wem/bandit_either_2","A3ACUGH5N9VQO2","either","5","195","","","","","","","0","0","1","0.1935897604","","0.6","0.8","0.4","0.2","","","","","0.1271360848","0.3786880174","0.1935897604","0.05572868433","","","","","","","","75","K","2","","","94","main_expt"
"","bandit","174","566579","0.0-135.0-0.0","97197002","wem/bandit_either_2","A3ACUGH5N9VQO2","either","5","60","","","","","","","0","0","1","","0.2193228015","0.6","0.8","0.4","0.2","0.1097592989","0.3823424718","0.2193228015","0.05056929995","","","","","","","","","","","","75","K","2","","","95","main_expt"
"","bandit","175","568411","0.0-136.0-0.0","97197002","wem/bandit_either_2","A3ACUGH5N9VQO2","either","5","325","","","","","","","0","0","1","0.04159874267","","0.6","0.8","0.4","0.2","","","","","0.1085490834","0.3642725552","0.3262643469","0.04159874267","","","","","","","","76","L","3","","","96","main_expt"
"","bandit","176","570162","0.0-137.0-0.0","97197002","wem/bandit_either_2","A3ACUGH5N9VQO2","either","5","243","","","","","","","0","0","1","","0.3197717944","0.6","0.8","0.4","0.2","0.1049812554","0.3197717944","0.3207405496","0.03654451862","","","","","","","","","","","","74","J","1","","","97","main_expt"
"","bandit","177","571867","0.0-138.0-0.0","97197002","wem/bandit_either_2","A3ACUGH5N9VQO2","either","5","197","","","","","","","0","0","1","0.08177978443","","0.6","0.8","0.4","0.2","","","","","0.08177978443","0.2514424369","0.3712856991","0.04190300095","","","","","","","","72","H","0","img/none_selected.jpg","","98","main_expt"
"","bandit","178","573963","0.0-139.0-0.0","97197002","wem/bandit_either_2","A3ACUGH5N9VQO2","either","5","587","","","","","","","0","0","1","","0.08742990617","0.6","0.8","0.4","0.2","0.07574087804","0.2926772137","0.3740145378","0.08742990617","","","","","","","","","","","","76","L","3","","","99","main_expt"
"","bandit","179","575701","0.0-140.0-0.0","97197002","wem/bandit_either_2","A3ACUGH5N9VQO2","either","5","228","","","","","","","0","0","1","0.08966523481","","0.6","0.8","0.4","0.2","","","","","0.07829319678","0.234485335","0.3776295542","0.08966523481","","","","","","","","76","L","3","","","100","main_expt"
"","bandit","180","577620","0.0-141.0-0.0","97197002","wem/bandit_either_2","A3ACUGH5N9VQO2","either","5","410","","","","","","","0","0","1","","0.3592666398","0.6","0.8","0.4","0.2","0.07919243683","0.250352175","0.3592666398","0.07849065771","","","","","","","","","","","","75","K","2","","","101","main_expt"
"","bandit","181","579436","0.0-142.0-0.0","97197002","wem/bandit_either_2","A3ACUGH5N9VQO2","either","5","306","","","","","","","1","0","0","0.2139972863","","0.6","0.8","0.4","0.2","","","","","0.1052753188","0.2139972863","0.3412191773","0.1054267613","","","","","","","","74","J","1","","","102","main_expt"
"","bandit","182","581179","0.0-143.0-0.0","97197002","wem/bandit_either_2","A3ACUGH5N9VQO2","either","5","234","","","","","","","0","0","1","0.20092706","","0.6","0.8","0.4","0.2","","","","","0.1248526142","0.20092706","0.3133100433","0.1120981937","","","","","","","","74","J","1","","","103","main_expt"
"","bandit","183","582989","0.0-144.0-0.0","97197002","wem/bandit_either_2","A3ACUGH5N9VQO2","either","5","301","","","","","","","0","0","1","","0.2305366804","0.6","0.8","0.4","0.2","0.142969925","0.2305366804","0.3219148419","0.1034740879","","","","","","","","","","","","74","J","1","","","104","main_expt"
"","bandit","184","584756","0.0-145.0-0.0","97197002","wem/bandit_either_2","A3ACUGH5N9VQO2","either","5","258","","","","","","","0","0","1","","0.2102135581","0.6","0.8","0.4","0.2","0.13947254","0.2102135581","0.3300892518","0.07597240327","","","","","","","","","","","","74","J","1","","","105","main_expt"
"","bandit","185","586476","0.0-146.0-0.0","97197002","wem/bandit_either_2","A3ACUGH5N9VQO2","either","5","210","","","","","","","0","0","1","","0.1329526997","0.6","0.8","0.4","0.2","0.1329526997","0.2219457329","0.3401839058","0.1124257427","","","","","","","","","","","","72","H","0","img/none_selected.jpg","","106","main_expt"
"","bandit","186","588262","0.0-147.0-0.0","97197002","wem/bandit_either_2","A3ACUGH5N9VQO2","either","5","278","","","","","","","0","0","1","0.1727290233","","0.6","0.8","0.4","0.2","","","","","0.1727290233","0.3048423019","0.3784706915","0.1133168519","","","","","","","","72","H","0","img/none_selected.jpg","","107","main_expt"
"","bandit","187","589894","0.0-148.0-0.0","97197002","wem/bandit_either_2","A3ACUGH5N9VQO2","either","5","123","","","","","","","0","0","1","0.1752395656","","0.6","0.8","0.4","0.2","","","","","0.1864487031","0.258150515","0.3945753887","0.1752395656","","","","","","","","76","L","3","","","108","main_expt"
"","bandit","188","591548","0.0-149.0-0.0","97197002","wem/bandit_either_2","A3ACUGH5N9VQO2","either","5","145","","","","","","","0","0","1","","0.1862973424","0.6","0.8","0.4","0.2","0.2463216238","0.1859129148","0.356827327","0.1862973424","","","","","","","","","","","","76","L","3","","","109","main_expt"
"","bandit","189","593292","0.0-150.0-0.0","97197002","wem/bandit_either_2","A3ACUGH5N9VQO2","either","5","235","","","","","","","0","0","1","","0.2344179837","0.6","0.8","0.4","0.2","0.2431522628","0.1371624404","0.2344179837","0.2015845776","","","","","","","","","","","","75","K","2","","","110","main_expt"
"","bandit","190","595035","0.0-151.0-0.0","97197002","wem/bandit_either_2","A3ACUGH5N9VQO2","either","5","235","","","","","","","0","1","0","","0.2644823096","0.6","0.8","0.4","0.2","0.1757476643","0.1258232978","0.2644823096","0.2003651753","","","","","","","","","","","","75","K","2","","","111","main_expt"
"","bandit","191","596820","0.0-152.0-0.0","97197002","wem/bandit_either_2","A3ACUGH5N9VQO2","either","5","277","","","","","","","0","0","1","0.28311182","","0.6","0.8","0.4","0.2","","","","","0.2451518953","0.1529967373","0.28311182","0.21392293","","","","","","","","75","K","2","","","112","main_expt"
"","bandit","192","598444","0.0-153.0-0.0","97197002","wem/bandit_either_2","A3ACUGH5N9VQO2","either","5","114","","","","","","","0","0","1","","0.2413269532","0.6","0.8","0.4","0.2","0.2407836715","0.148248117","0.2413269532","0.1606798039","","","","","","","","","","","","75","K","2","","","113","main_expt"
"","bandit","193","600142","0.0-154.0-0.0","97197002","wem/bandit_either_2","A3ACUGH5N9VQO2","either","5","187","","","","","","","0","0","1","0.1562208239","","0.6","0.8","0.4","0.2","","","","","0.3099317417","0.1562208239","0.3100969134","0.2095980235","","","","","","","","74","J","1","","","114","main_expt"
"","bandit","194","601772","0.0-155.0-0.0","97197002","wem/bandit_either_2","A3ACUGH5N9VQO2","either","5","123","","","","","","","0","0","1","0.2138032898","","0.6","0.8","0.4","0.2","","","","","0.3180754701","0.2138032898","0.329842252","0.2550279667","","","","","","","","74","J","1","","","115","main_expt"
"","bandit","195","603495","0.0-156.0-0.0","97197002","wem/bandit_either_2","A3ACUGH5N9VQO2","either","5","213","","","","","","","0","0","1","0.2919742107","","0.6","0.8","0.4","0.2","","","","","0.2919742107","0.2331260325","0.3223706096","0.2471764387","","","","","","","","72","H","0","img/none_selected.jpg","","116","main_expt"
"","bandit","196","605149","0.0-157.0-0.0","97197002","wem/bandit_either_2","A3ACUGH5N9VQO2","either","5","144","","","","","","","0","0","1","","0.2799774295","0.6","0.8","0.4","0.2","0.2799774295","0.1826309729","0.3098408215","0.2730878341","","","","","","","","","","","","72","H","0","img/none_selected.jpg","","117","main_expt"
"","bandit","197","606956","0.0-158.0-0.0","97197002","wem/bandit_either_2","A3ACUGH5N9VQO2","either","5","298","","","","","","","0","0","1","","0.2071462199","0.6","0.8","0.4","0.2","0.2646714695","0.1511269107","0.2974554567","0.2071462199","","","","","","","","","","","","76","L","3","","","118","main_expt"
"","bandit","198","608710","0.0-159.0-0.0","97197002","wem/bandit_either_2","A3ACUGH5N9VQO2","either","5","243","","","","","","","0","0","1","","0.2275232499","0.6","0.8","0.4","0.2","0.3179839519","0.1559979654","0.3598468986","0.2275232499","","","","","","","","","","","","76","L","3","","","119","main_expt"
"","bandit","199","611008","0.0-160.0-0.0","97197002","wem/bandit_either_2","A3ACUGH5N9VQO2","either","5","787","","","","","","","0","0","1","","0.2984373086","0.6","0.8","0.4","0.2","0.3302262658","0.1463004055","0.2984373086","0.2767559596","","","","","","","","","","","","75","K","2","","","120","main_expt"
"","bandit","200","612870","0.0-161.0-0.0","97197002","wem/bandit_either_2","A3ACUGH5N9VQO2","either","5","352","","","","","","","0","0","1","0.2973090059","","0.6","0.8","0.4","0.2","","","","","0.3500549905","0.1418195479","0.2973090059","0.3448590315","","","","","","","","75","K","2","","","121","main_expt"
"","bandit","201","614669","0.0-162.0-0.0","97197002","wem/bandit_either_2","A3ACUGH5N9VQO2","either","5","289","","","","","","","0","0","1","0.1270782113","","0.6","0.8","0.4","0.2","","","","","0.2686616284","0.1270782113","0.3382791822","0.3593301016","","","","","","","","74","J","1","","","122","main_expt"
"","bandit","202","616333","0.0-163.0-0.0","97197002","wem/bandit_either_2","A3ACUGH5N9VQO2","either","5","155","","","","","","","0","0","1","0.1207154071","","0.6","0.8","0.4","0.2","","","","","0.2277230314","0.1207154071","0.3154347028","0.3680529171","","","","","","","","74","J","1","","","123","main_expt"
"","bandit","203","618134","0.0-164.0-0.0","97197002","wem/bandit_either_2","A3ACUGH5N9VQO2","either","5","291","","","","","","","0","0","1","0.1229329119","","0.6","0.8","0.4","0.2","","","","","0.3287090939","0.1229329119","0.2966737815","0.3476523483","","","","","","","","74","J","1","","","124","main_expt"
"","bandit","204","619829","0.0-165.0-0.0","97197002","wem/bandit_either_2","A3ACUGH5N9VQO2","either","5","186","","","","","","","0","0","1","","0.3687339586","0.6","0.8","0.4","0.2","0.3687339586","0.09241122996","0.3094831126","0.3564603465","","","","","","","","","","","","72","H","0","img/none_selected.jpg","","125","main_expt"
"","bandit","205","621565","0.0-166.0-0.0","97197002","wem/bandit_either_2","A3ACUGH5N9VQO2","either","5","228","","","","","","","0","0","1","","0.3836195774","0.6","0.8","0.4","0.2","0.3836195774","0.08418962236","0.2488993205","0.3550684458","","","","","","","","","","","","72","H","0","img/none_selected.jpg","","126","main_expt"
"","bandit","206","623310","0.0-167.0-0.0","97197002","wem/bandit_either_2","A3ACUGH5N9VQO2","either","5","235","","","","","","","0","0","1","","0.3617365958","0.6","0.8","0.4","0.2","0.3617365958","0.154715772","0.1953487027","0.3235559827","","","","","","","","","","","","72","H","0","img/none_selected.jpg","","127","main_expt"
"","bandit","207","624927","0.0-168.0-0.0","97197002","wem/bandit_either_2","A3ACUGH5N9VQO2","either","5","107","","","","","","","0","1","0","","0.2171889907","0.6","0.8","0.4","0.2","0.3235283493","0.1556709078","0.2171889907","0.312087491","","","","","","","","","","","","75","K","2","","","128","main_expt"
"","bandit","208","626716","0.0-169.0-0.0","97197002","wem/bandit_either_2","A3ACUGH5N9VQO2","either","5","281","","","","","","","0","1","0","","0.2467699801","0.6","0.8","0.4","0.2","0.3453830546","0.1214200615","0.2467699801","0.2843272188","","","","","","","","","","","","75","K","2","","","129","main_expt"
"","bandit","209","628510","0.0-170.0-0.0","97197002","wem/bandit_either_2","A3ACUGH5N9VQO2","either","5","284","","","","","","","0","0","1","0.2814443482","","0.6","0.8","0.4","0.2","","","","","0.3242747857","0.1377283829","0.2814443482","0.2128416856","","","","","","","","75","K","2","","","130","main_expt"
"","bandit","210","630349","0.0-171.0-0.0","97197002","wem/bandit_either_2","A3ACUGH5N9VQO2","either","5","331","","","","","","","0","0","1","0.2834176508","","0.6","0.8","0.4","0.2","","","","","0.3417201858","0.1397421628","0.2834176508","0.2403879813","","","","","","","","75","K","2","","","131","main_expt"
"","bandit","211","631990","0.0-172.0-0.0","97197002","wem/bandit_either_2","A3ACUGH5N9VQO2","either","5","132","","","","","","","0","0","1","","0.2429908031","0.6","0.8","0.4","0.2","0.3498614837","0.1061875113","0.2429908031","0.2811421594","","","","","","","","","","","","75","K","2","","","132","main_expt"
"","bandit","212","633532","0.0-173.0-0.0","97197002","wem/bandit_either_2","A3ACUGH5N9VQO2","either","5","35","","","","","","","0","0","1","","0.3053559495","0.6","0.8","0.4","0.2","0.3134828643","0.07774811701","0.3053559495","0.3002858371","","","","","","","","","","","","75","K","2","","","133","main_expt"
"","bandit","213","635510","0.0-174.0-0.0","97197002","wem/bandit_either_2","A3ACUGH5N9VQO2","either","5","468","","","","","","","1","0","0","0.277406375","","0.6","0.8","0.4","0.2","","","","","0.3554593188","0.08211281178","0.2693478067","0.277406375","","","","","","","","76","L","3","","","134","main_expt"
"","bandit","214","637278","0.0-175.0-0.0","97197002","wem/bandit_either_2","A3ACUGH5N9VQO2","either","5","259","","","","","","","0","0","1","","0.2897147582","0.6","0.8","0.4","0.2","0.3150900126","0.1123817552","0.3369166079","0.2897147582","","","","","","","","","","","","76","L","3","","","135","main_expt"
"","bandit","215","638981","0.0-176.0-0.0","97197002","wem/bandit_either_2","A3ACUGH5N9VQO2","either","5","194","","","","","","","0","0","1","","0.3590576628","0.6","0.8","0.4","0.2","0.3199395785","0.1478339482","0.268603144","0.3590576628","","","","","","","","","","","","76","L","3","","","136","main_expt"
"","bandit","216","640598","0.0-177.0-0.0","97197002","wem/bandit_either_2","A3ACUGH5N9VQO2","either","5","106","","","","","","","0","0","1","0.3822427384","","0.6","0.8","0.4","0.2","","","","","0.33362357","0.1374936615","0.2373427956","0.3822427384","","","","","","","","76","L","3","","","137","main_expt"
"","bandit","217","642415","0.0-178.0-0.0","97197002","wem/bandit_either_2","A3ACUGH5N9VQO2","either","5","307","","","","","","","0","0","1","0.159761955","","0.6","0.8","0.4","0.2","","","","","0.3611324022","0.159761955","0.2206869265","0.3410071165","","","","","","","","74","J","1","","","138","main_expt"
"","bandit","218","644198","0.0-179.0-0.0","97197002","wem/bandit_either_2","A3ACUGH5N9VQO2","either","5","274","","","","","","","0","0","1","0.1363721132","","0.6","0.8","0.4","0.2","","","","","0.3504145086","0.1363721132","0.2177966349","0.3738014659","","","","","","","","74","J","1","","","139","main_expt"
"","bandit","219","645989","0.0-180.0-0.0","97197002","wem/bandit_either_2","A3ACUGH5N9VQO2","either","5","284","","","","","","","0","0","1","0.309774603","","0.6","0.8","0.4","0.2","","","","","0.309774603","0.1031445192","0.2387685432","0.422575493","","","","","","","","72","H","0","img/none_selected.jpg","","140","main_expt"
"","bandit","220","647696","0.0-181.0-0.0","97197002","wem/bandit_either_2","A3ACUGH5N9VQO2","either","5","195","","","","","","","0","0","1","0.3506531288","","0.6","0.8","0.4","0.2","","","","","0.3506531288","0.09805286369","0.2575087366","0.4439129864","","","","","","","","72","H","0","img/none_selected.jpg","","141","main_expt"
"","bandit","221","649665","0.0-182.0-0.0","97197002","wem/bandit_either_2","A3ACUGH5N9VQO2","either","5","459","","","","","","","0","0","1","","0.2392038972","0.6","0.8","0.4","0.2","0.2965027242","0.1149002948","0.2392038972","0.4323802182","","","","","","","","","","","","75","K","2","","","142","main_expt"
"","bandit","222","651446","0.0-183.0-0.0","97197002","wem/bandit_either_2","A3ACUGH5N9VQO2","either","5","272","","","","","","","0","1","0","","0.2216470548","0.6","0.8","0.4","0.2","0.2087517366","0.1209542099","0.2216470548","0.4358412593","","","","","","","","","","","","75","K","2","","","143","main_expt"
"","bandit","223","653255","0.0-184.0-0.0","97197002","wem/bandit_either_2","A3ACUGH5N9VQO2","either","5","300","","","","","","","0","0","1","0.2224896139","","0.6","0.8","0.4","0.2","","","","","0.2313605626","0.1202521083","0.2224896139","0.4407373256","","","","","","","","75","K","2","","","144","main_expt"
"","bandit","224","654975","0.0-185.0-0.0","97197002","wem/bandit_either_2","A3ACUGH5N9VQO2","either","5","209","","","","","","","1","0","0","0.1925605464","","0.6","0.8","0.4","0.2","","","","","0.1785565547","0.1619743669","0.1925605464","0.4661091035","","","","","","","","75","K","2","","","145","main_expt"
"","bandit","225","656742","0.0-186.0-0.0","97197002","wem/bandit_either_2","A3ACUGH5N9VQO2","either","5","258","","","","","","","0","0","1","0.2069800611","","0.6","0.8","0.4","0.2","","","","","0.1770660648","0.1664631043","0.2069800611","0.4637097668","","","","","","","","75","K","2","","","146","main_expt"
"","bandit","226","658559","0.0-187.0-0.0","97197002","wem/bandit_either_2","A3ACUGH5N9VQO2","either","5","308","","","","","","","0","0","1","","0.2489662189","0.6","0.8","0.4","0.2","0.1063371611","0.1669241763","0.2489662189","0.4700491642","","","","","","","","","","","","75","K","2","","","147","main_expt"
"","bandit","227","660287","0.0-188.0-0.0","97197002","wem/bandit_either_2","A3ACUGH5N9VQO2","either","5","218","","","","","","","0","0","1","","0.1946464158","0.6","0.8","0.4","0.2","0.1216370817","0.1581456949","0.1946464158","0.4648109734","","","","","","","","","","","","75","K","2","","","148","main_expt"
"","bandit","228","661839","0.0-189.0-0.0","97197002","wem/bandit_either_2","A3ACUGH5N9VQO2","either","5","39","","","","","","","0","0","1","","0.1826562491","0.6","0.8","0.4","0.2","0.1024256959","0.1698392466","0.1826562491","0.4635511513","","","","","","","","","","","","75","K","2","","","149","main_expt"
"","bandit","229","663513","0.0-190.0-0.0","97197002","wem/bandit_either_2","A3ACUGH5N9VQO2","either","5","163","","","","","","","0","0","1","0.2140114634","","0.6","0.8","0.4","0.2","","","","","0.1371094633","0.2140114634","0.1750473563","0.4445017148","","","","","","","","74","J","1","","","150","main_expt"
"","bandit","230","665128","0.0-191.0-0.0","97197002","wem/bandit_either_2","A3ACUGH5N9VQO2","either","5","106","","","","","","","0","0","1","0.2392960001","","0.6","0.8","0.4","0.2","","","","","0.1702433702","0.2392960001","0.1109536645","0.4434799742","","","","","","","","74","J","1","","","151","main_expt"
"","bandit","231","666903","0.0-192.0-0.0","97197002","wem/bandit_either_2","A3ACUGH5N9VQO2","either","5","266","","","","","","","0","0","1","0.1860489046","","0.6","0.8","0.4","0.2","","","","","0.1860489046","0.2095863317","0.1143086707","0.4451665291","","","","","","","","72","H","0","img/none_selected.jpg","","152","main_expt"
"","bandit","232","668654","0.0-193.0-0.0","97197002","wem/bandit_either_2","A3ACUGH5N9VQO2","either","5","242","","","","","","","0","0","1","0.2117094388","","0.6","0.8","0.4","0.2","","","","","0.2117094388","0.2543258611","0.1236290712","0.4401532833","","","","","","","","72","H","0","img/none_selected.jpg","","153","main_expt"
"","bandit","233","670528","0.0-194.0-0.0","97197002","wem/bandit_either_2","A3ACUGH5N9VQO2","either","5","364","","","","","","","0","0","1","","0.4516855879","0.6","0.8","0.4","0.2","0.2072389033","0.2602259906","0.1600695342","0.4516855879","","","","","","","","","","","","76","L","3","","","154","main_expt"
"","bandit","234","672184","0.0-195.0-0.0","97197002","wem/bandit_either_2","A3ACUGH5N9VQO2","either","5","146","","","","","","","0","0","1","0.4480264808","","0.6","0.8","0.4","0.2","","","","","0.1986333914","0.2750581274","0.1770288166","0.4480264808","","","","","","","","76","L","3","","","155","main_expt"
"","bandit","235","673904","0.0-196.0-0.0","97197002","wem/bandit_either_2","A3ACUGH5N9VQO2","either","5","209","","","","","","","0","1","0","","0.1761817894","0.6","0.8","0.4","0.2","0.2054640346","0.2438045727","0.1761817894","0.4260414265","","","","","","","","","","","","75","K","2","","","156","main_expt"
"","bandit","236","675767","0.0-197.0-0.0","97197002","wem/bandit_either_2","A3ACUGH5N9VQO2","either","5","353","","","","","","","0","1","0","","0.1998830888","0.6","0.8","0.4","0.2","0.1810715383","0.2857025143","0.1998830888","0.4365201507","","","","","","","","","","","","75","K","2","","","157","main_expt"
"","bandit","237","677558","0.0-198.0-0.0","97197002","wem/bandit_either_2","A3ACUGH5N9VQO2","either","5","283","","","","","","","0","0","1","0.2150354531","","0.6","0.8","0.4","0.2","","","","","0.2118906364","0.2887719476","0.2150354531","0.4076244479","","","","","","","","75","K","2","","","158","main_expt"
"","bandit","238","679390","0.0-199.0-0.0","97197002","wem/bandit_either_2","A3ACUGH5N9VQO2","either","5","324","","","","","","","0","1","0","","0.2221069796","0.6","0.8","0.4","0.2","0.2293976715","0.2859462397","0.2221069796","0.403953851","","","","","","","","","","","","75","K","2","","","159","main_expt"
"","bandit","239","681128","0.0-200.0-0.0","97197002","wem/bandit_either_2","A3ACUGH5N9VQO2","either","5","226","","","","","","","0","0","1","","0.2627335039","0.6","0.8","0.4","0.2","0.2186051381","0.207432816","0.2627335039","0.4282135537","","","","","","","","","","","","75","K","2","","","160","main_expt"
"","bandit","240","682944","0.0-201.0-0.0","97197002","wem/bandit_either_2","A3ACUGH5N9VQO2","either","5","306","","","","","","","0","0","1","","0.2922457848","0.6","0.8","0.4","0.2","0.2175927206","0.1611694724","0.2922457848","0.4479073124","","","","","","","","","","","","75","K","2","","","161","main_expt"
"","bandit","241","684769","0.0-202.0-0.0","97197002","wem/bandit_either_2","A3ACUGH5N9VQO2","either","5","313","","","","","","","0","1","0","","0.3040212123","0.6","0.8","0.4","0.2","0.2370404117","0.14378348","0.3040212123","0.4456201243","","","","","","","","","","","","75","K","2","","","162","main_expt"
"","bandit","242","686545","0.0-203.0-0.0","97197002","wem/bandit_either_2","A3ACUGH5N9VQO2","either","5","265","","","","","","","0","0","1","0.2933359027","","0.6","0.8","0.4","0.2","","","","","0.2778780432","0.1707099899","0.2933359027","0.4384930657","","","","","","","","75","K","2","","","163","main_expt"
"","bandit","243","688320","0.0-204.0-0.0","97197002","wem/bandit_either_2","A3ACUGH5N9VQO2","either","5","265","","","","","","","0","0","1","","0.2388203062","0.6","0.8","0.4","0.2","0.2643388611","0.1933693166","0.2388203062","0.4231568034","","","","","","","","","","","","75","K","2","","","164","main_expt"
"","bandit","244","690112","0.0-205.0-0.0","97197002","wem/bandit_either_2","A3ACUGH5N9VQO2","either","5","281","","","","","","","0","0","1","","0.2646204916","0.6","0.8","0.4","0.2","0.1967204453","0.2406324952","0.2646204916","0.4412535734","","","","","","","","","","","","75","K","2","","","165","main_expt"
"","bandit","245","691840","0.0-206.0-0.0","97197002","wem/bandit_either_2","A3ACUGH5N9VQO2","either","5","218","","","","","","","0","0","1","","0.2591758032","0.6","0.8","0.4","0.2","0.1567937345","0.2650462377","0.2591758032","0.438364003","","","","","","","","","","","","75","K","2","","","166","main_expt"
"","bandit","246","693656","0.0-207.0-0.0","97197002","wem/bandit_either_2","A3ACUGH5N9VQO2","either","5","306","","","","","","","0","0","1","0.1955934818","","0.6","0.8","0.4","0.2","","","","","0.1201482918","0.245875583","0.1955934818","0.4290991351","","","","","","","","75","K","2","","","167","main_expt"
"","bandit","247","695360","0.0-208.0-0.0","97197002","wem/bandit_either_2","A3ACUGH5N9VQO2","either","5","196","","","","","","","0","0","1","0.2090603634","","0.6","0.8","0.4","0.2","","","","","0.0936051119","0.257303599","0.2090603634","0.4510860662","","","","","","","","75","K","2","","","168","main_expt"
"","bandit","248","697119","0.0-209.0-0.0","97197002","wem/bandit_either_2","A3ACUGH5N9VQO2","either","5","251","","","","","","","0","1","0","","0.4491424364","0.6","0.8","0.4","0.2","0.08775096918","0.2993732043","0.2678479696","0.4491424364","","","","","","","","","","","","76","L","3","","","169","main_expt"
"","bandit","249","698904","0.0-210.0-0.0","97197002","wem/bandit_either_2","A3ACUGH5N9VQO2","either","5","275","","","","","","","0","0","1","","0.4332244901","0.6","0.8","0.4","0.2","0.06743429675","0.3388977639","0.2532125956","0.4332244901","","","","","","","","","","","","76","L","3","","","170","main_expt"
"","bandit","250","700937","0.0-211.0-0.0","97197002","wem/bandit_either_2","A3ACUGH5N9VQO2","either","5","523","","","","","","","0","0","1","","0.4405036994","0.6","0.8","0.4","0.2","0.05979118822","0.2947926635","0.2568627054","0.4405036994","","","","","","","","","","","","76","L","3","","","171","main_expt"
"","bandit","251","702777","0.0-212.0-0.0","97197002","wem/bandit_either_2","A3ACUGH5N9VQO2","either","5","330","","","","","","","0","0","1","","0.4358521759","0.6","0.8","0.4","0.2","0.03200499914","0.2892529657","0.2451563353","0.4358521759","","","","","","","","","","","","76","L","3","","","172","main_expt"
"","bandit","252","704850","0.0-213.0-0.0","97197002","wem/bandit_either_2","A3ACUGH5N9VQO2","either","5","563","","","","","","","0","0","1","","0.04613358223","0.6","0.8","0.4","0.2","0.04613358223","0.2571917514","0.3003395367","0.4471617722","","","","","","","","","","","","72","H","0","img/none_selected.jpg","","173","main_expt"
"","bandit","253","706793","0.0-214.0-0.0","97197002","wem/bandit_either_2","A3ACUGH5N9VQO2","either","5","432","","","","","","","0","0","1","0.05969677181","","0.6","0.8","0.4","0.2","","","","","0.05969677181","0.244173221","0.2545998681","0.4560251174","","","","","","","","72","H","0","img/none_selected.jpg","","174","main_expt"
"","bandit","254","708809","0.0-215.0-0.0","97197002","wem/bandit_either_2","A3ACUGH5N9VQO2","either","5","506","","","","","","","0","0","1","0.2038098688","","0.6","0.8","0.4","0.2","","","","","0.05930066603","0.2038098688","0.3383135611","0.4379349024","","","","","","","","74","J","1","","","175","main_expt"
"","bandit","255","710698","0.0-216.0-0.0","97197002","wem/bandit_either_2","A3ACUGH5N9VQO2","either","5","377","","","","","","","0","0","1","0.2053823003","","0.6","0.8","0.4","0.2","","","","","0.08110879181","0.2053823003","0.3880627729","0.4328841116","","","","","","","","74","J","1","","","176","main_expt"
"","bandit","256","712282","0.0-217.0-0.0","97197002","wem/bandit_either_2","A3ACUGH5N9VQO2","either","5","75","","","","","","","0","0","1","","0.3965365967","0.6","0.8","0.4","0.2","0.07611568943","0.2193083282","0.3920994557","0.3965365967","","","","","","","","","","","","76","L","3","","","177","main_expt"
"","bandit","257","714056","0.0-218.0-0.0","97197002","wem/bandit_either_2","A3ACUGH5N9VQO2","either","5","265","","","","","","","1","0","0","0.3899234309","","0.6","0.8","0.4","0.2","","","","","0.1220467165","0.1904263594","0.3882277994","0.3899234309","","","","","","","","76","L","3","","","178","main_expt"
"","bandit","258","715930","0.0-219.0-0.0","97197002","wem/bandit_either_2","A3ACUGH5N9VQO2","either","5","363","","","","","","","0","1","0","","0.4238443777","0.6","0.8","0.4","0.2","0.1698853315","0.2212788648","0.3939691408","0.4238443777","","","","","","","","","","","","76","L","3","","","179","main_expt"
"","bandit","259","717721","0.0-220.0-0.0","97197002","wem/bandit_either_2","A3ACUGH5N9VQO2","either","5","281","","","","","","","0","0","1","","0.4487400994","0.6","0.8","0.4","0.2","0.1374762061","0.2640717145","0.4074656662","0.4487400994","","","","","","","","","","","","76","L","3","","","180","main_expt"
"","bandit","260","719473","0.0-221.0-0.0","97197002","wem/bandit_either_2","A3ACUGH5N9VQO2","either","5","241","","","","","","","0","1","0","","0.4314573438","0.6","0.8","0.4","0.2","0.09961924189","0.2426483564","0.3724421945","0.4314573438","","","","","","","","","","","","76","L","3","","","181","main_expt"
"","bandit","261","721248","0.0-222.0-0.0","97197002","wem/bandit_either_2","A3ACUGH5N9VQO2","either","5","265","","","","","","","0","1","0","","0.4458059303","0.6","0.8","0.4","0.2","0.1391043194","0.2001563476","0.2998177931","0.4458059303","","","","","","","","","","","","76","L","3","","","182","main_expt"
"","bandit","262","723003","0.0-223.0-0.0","97197002","wem/bandit_either_2","A3ACUGH5N9VQO2","either","5","246","","","","","","","0","0","1","","0.4485460149","0.6","0.8","0.4","0.2","0.1336424596","0.2167094124","0.3629728763","0.4485460149","","","","","","","","","","","","76","L","3","","","183","main_expt"
"","bandit","263","724737","0.0-224.0-0.0","97197002","wem/bandit_either_2","A3ACUGH5N9VQO2","either","5","222","","","","","","","0","0","1","0.4078350507","","0.6","0.8","0.4","0.2","","","","","0.115911235","0.2402813617","0.3763603645","0.4078350507","","","","","","","","76","L","3","","","184","main_expt"
"","bandit","264","726600","0.0-225.0-0.0","97197002","wem/bandit_either_2","A3ACUGH5N9VQO2","either","5","354","","","","","","","0","0","1","","0.3805788675","0.6","0.8","0.4","0.2","0.1394203739","0.2745112141","0.3472982705","0.3805788675","","","","","","","","","","","","76","L","3","","","185","main_expt"
"","bandit","265","728412","0.0-226.0-0.0","97197002","wem/bandit_either_2","A3ACUGH5N9VQO2","either","5","300","","","","","","","0","0","1","","0.4236809331","0.6","0.8","0.4","0.2","0.1557479742","0.2774566956","0.3095995051","0.4236809331","","","","","","","","","","","","76","L","3","","","186","main_expt"
"","bandit","266","730179","0.0-227.0-0.0","97197002","wem/bandit_either_2","A3ACUGH5N9VQO2","either","5","255","","","","","","","0","0","1","","0.4058627081","0.6","0.8","0.4","0.2","0.1823611596","0.2876011691","0.2567332284","0.4058627081","","","","","","","","","","","","76","L","3","","","187","main_expt"
"","bandit","267","731994","0.0-228.0-0.0","97197002","wem/bandit_either_2","A3ACUGH5N9VQO2","either","5","304","","","","","","","0","0","1","","0.2555256861","0.6","0.8","0.4","0.2","0.1854179297","0.2947112378","0.2555256861","0.3913346521","","","","","","","","","","","","75","K","2","","","188","main_expt"
"","bandit","268","733872","0.0-229.0-0.0","97197002","wem/bandit_either_2","A3ACUGH5N9VQO2","either","5","370","","","","","","","1","0","0","0.2009875262","","0.6","0.8","0.4","0.2","","","","","0.1875645599","0.2581494","0.2009875262","0.3760164219","","","","","","","","75","K","2","","","189","main_expt"
"","bandit","269","735666","0.0-230.0-0.0","97197002","wem/bandit_either_2","A3ACUGH5N9VQO2","either","5","285","","","","","","","1","0","0","0.2055488595","","0.6","0.8","0.4","0.2","","","","","0.2018323604","0.1756323468","0.2055488595","0.3327352817","","","","","","","","75","K","2","","","190","main_expt"
"","bandit","270","737481","0.0-231.0-0.0","97197002","wem/bandit_either_2","A3ACUGH5N9VQO2","either","5","306","","","","","","","0","0","1","","0.1506387864","0.6","0.8","0.4","0.2","0.221094727","0.2521570866","0.1506387864","0.3015177445","","","","","","","","","","","","75","K","2","","","191","main_expt"
"","bandit","271","739274","0.0-232.0-0.0","97197002","wem/bandit_either_2","A3ACUGH5N9VQO2","either","5","283","","","","","","","0","0","1","","0.2027442266","0.6","0.8","0.4","0.2","0.2320570195","0.2964739449","0.2027442266","0.2773298268","","","","","","","","","","","","75","K","2","","","192","main_expt"
"","bandit","272","741084","0.0-233.0-0.0","97197002","wem/bandit_either_2","A3ACUGH5N9VQO2","either","5","298","","","","","","","0","0","1","","0.1969137872","0.6","0.8","0.4","0.2","0.2948950962","0.2612966838","0.1969137872","0.2836613797","","","","","","","","","","","","75","K","2","","","193","main_expt"
"","bandit","273","742761","0.0-234.0-0.0","97197002","wem/bandit_either_2","A3ACUGH5N9VQO2","either","5","168","","","","","","","0","0","1","","0.2114994946","0.6","0.8","0.4","0.2","0.2602906927","0.3292914436","0.2114994946","0.2799350415","","","","","","","","","","","","75","K","2","","","194","main_expt"
"","bandit","274","744370","0.0-235.0-0.0","97197002","wem/bandit_either_2","A3ACUGH5N9VQO2","either","5","98","","","","","","","0","1","0","","0.2068597772","0.6","0.8","0.4","0.2","0.1771499101","0.4070308407","0.2467939011","0.2068597772","","","","","","","","","","","","76","L","3","","","195","main_expt"
"","bandit","275","746186","0.0-236.0-0.0","97197002","wem/bandit_either_2","A3ACUGH5N9VQO2","either","5","307","","","","","","","0","0","1","","0.2679469531","0.6","0.8","0.4","0.2","0.1746274925","0.3494820729","0.2731811988","0.2679469531","","","","","","","","","","","","76","L","3","","","196","main_expt"
"","bandit","276","748001","0.0-237.0-0.0","97197002","wem/bandit_either_2","A3ACUGH5N9VQO2","either","5","307","","","","","","","0","0","1","","0.2448078588","0.6","0.8","0.4","0.2","0.193224684","0.3571939809","0.2512114903","0.2448078588","","","","","","","","","","","","76","L","3","","","197","main_expt"
"","bandit","277","749913","0.0-238.0-0.0","97197002","wem/bandit_either_2","A3ACUGH5N9VQO2","either","5","403","","","","","","","0","0","1","","0.2433987968","0.6","0.8","0.4","0.2","0.1771509929","0.382430028","0.190651112","0.2433987968","","","","","","","","","","","","76","L","3","","","198","main_expt"
"","bandit","278","751578","0.0-239.0-0.0","97197002","wem/bandit_either_2","A3ACUGH5N9VQO2","either","5","157","","","","","","","0","0","1","","0.2466668772","0.6","0.8","0.4","0.2","0.2466668772","0.3353474301","0.1701189695","0.2653624242","","","","","","","","","","","","72","H","0","img/none_selected.jpg","","199","main_expt"
"","bandit","279","753354","0.0-240.0-0.0","97197002","wem/bandit_either_2","A3ACUGH5N9VQO2","either","5","265","","","","","","","0","0","1","","0.2477816141","0.6","0.8","0.4","0.2","0.2477816141","0.3321976498","0.1656975488","0.2551376492","","","","","","","","","","","","72","H","0","img/none_selected.jpg","","200","main_expt"
"","bandit","280","754954","0.0-241.0-0.0","97197002","wem/bandit_either_2","A3ACUGH5N9VQO2","either","5","90","","","","","","","0","0","1","0.2744817861","","0.6","0.8","0.4","0.2","","","","","0.2744817861","0.3218117355","0.1647298582","0.2660639347","","","","","","","","72","H","0","img/none_selected.jpg","","201","main_expt"
"","bandit","281","756731","0.0-242.0-0.0","97197002","wem/bandit_either_2","A3ACUGH5N9VQO2","either","5","266","","","","","","","1","0","0","0.2949214693","","0.6","0.8","0.4","0.2","","","","","0.3043062986","0.2949214693","0.1242041815","0.2220900594","","","","","","","","74","J","1","","","202","main_expt"
"","bandit","282","758522","0.0-243.0-0.0","97197002","wem/bandit_either_2","A3ACUGH5N9VQO2","either","5","281","","","","","","","0","0","1","0.300077299","","0.6","0.8","0.4","0.2","","","","","0.272185569","0.300077299","0.1684487429","0.1543353204","","","","","","","","74","J","1","","","203","main_expt"
"","bandit","283","760259","0.0-244.0-0.0","97197002","wem/bandit_either_2","A3ACUGH5N9VQO2","either","5","226","","","","","","","0","0","1","0.2866085977","","0.6","0.8","0.4","0.2","","","","","0.2610767704","0.2866085977","0.1666409686","0.1605482003","","","","","","","","74","J","1","","","204","main_expt"
"","bandit","284","762059","0.0-245.0-0.0","97197002","wem/bandit_either_2","A3ACUGH5N9VQO2","either","5","286","","","","","","","0","0","1","0.2695546272","","0.6","0.8","0.4","0.2","","","","","0.2832615928","0.2695546272","0.2197286508","0.1406914754","","","","","","","","74","J","1","","","205","main_expt"
"","bandit","285","763836","0.0-246.0-0.0","97197002","wem/bandit_either_2","A3ACUGH5N9VQO2","either","5","267","","","","","","","0","0","1","0.2622178416","","0.6","0.8","0.4","0.2","","","","","0.300913322","0.2622178416","0.2754509052","0.1138947463","","","","","","","","74","J","1","","","206","main_expt"
"","bandit","286","765593","0.0-247.0-0.0","97197002","wem/bandit_either_2","A3ACUGH5N9VQO2","either","5","248","","","","","","","0","0","1","0.2498186578","","0.6","0.8","0.4","0.2","","","","","0.3260258847","0.2498186578","0.2664869377","0.1096702189","","","","","","","","74","J","1","","","207","main_expt"
"","bandit","287","767267","0.0-248.0-0.0","97197002","wem/bandit_either_2","A3ACUGH5N9VQO2","either","5","163","","","","","","","1","0","0","0.2686565688","","0.6","0.8","0.4","0.2","","","","","0.3173829003","0.2335358635","0.2686565688","0.09922356593","","","","","","","","75","K","2","","","208","main_expt"
"","bandit","288","769068","0.0-249.0-0.0","97197002","wem/bandit_either_2","A3ACUGH5N9VQO2","either","5","292","","","","","","","0","0","1","","0.2380255957","0.6","0.8","0.4","0.2","0.3153846937","0.2638942681","0.2380255957","0.101567507","","","","","","","","","","","","75","K","2","","","209","main_expt"
"","bandit","289","770870","0.0-250.0-0.0","97197002","wem/bandit_either_2","A3ACUGH5N9VQO2","either","5","292","","","","","","","0","0","1","","0.2507768727","0.6","0.8","0.4","0.2","0.3010876552","0.2526926237","0.2507768727","0.08675379402","","","","","","","","","","","","75","K","2","","","210","main_expt"
"","bandit","290","772599","0.0-251.0-0.0","97197002","wem/bandit_either_2","A3ACUGH5N9VQO2","either","5","214","","","","","","","0","1","0","","0.2685142319","0.6","0.8","0.4","0.2","0.2864900033","0.2740367769","0.2685142319","0.07512021269","","","","","","","","","","","","75","K","2","","","211","main_expt"
"","bandit","291","774401","0.0-252.0-0.0","97197002","wem/bandit_either_2","A3ACUGH5N9VQO2","either","5","293","","","","","","","0","0","1","","0.260511483","0.6","0.8","0.4","0.2","0.3163372434","0.2440836191","0.260511483","0.08144254236","","","","","","","","","","","","75","K","2","","","212","main_expt"
"","bandit","292","776172","0.0-253.0-0.0","97197002","wem/bandit_either_2","A3ACUGH5N9VQO2","either","5","260","","","","","","","1","0","0","0.2579605047","","0.6","0.8","0.4","0.2","","","","","0.2701305136","0.2341903104","0.2579605047","0.06585574052","","","","","","","","75","K","2","","","213","main_expt"
"","bandit","293","778042","0.0-254.0-0.0","97197002","wem/bandit_either_2","A3ACUGH5N9VQO2","either","5","362","","","","","","","0","0","1","","0.2470456849","0.6","0.8","0.4","0.2","0.302599165","0.2097526345","0.2470456849","0.08686614453","","","","","","","","","","","","75","K","2","","","214","main_expt"
"","bandit","294","779794","0.0-255.0-0.0","97197002","wem/bandit_either_2","A3ACUGH5N9VQO2","either","5","242","","","","","","","0","0","1","","0.3285383036","0.6","0.8","0.4","0.2","0.2968005471","0.1796882487","0.3285383036","0.1068548489","","","","","","","","","","","","75","K","2","","","215","main_expt"
"","bandit","295","781556","0.0-256.0-0.0","97197002","wem/bandit_either_2","A3ACUGH5N9VQO2","either","5","251","","","","","","","0","0","1","0.3780044773","","0.6","0.8","0.4","0.2","","","","","0.2835536598","0.2237900511","0.3780044773","0.1211736082","","","","","","","","75","K","2","","","216","main_expt"
"","bandit","296","783250","0.0-257.0-0.0","97197002","wem/bandit_either_2","A3ACUGH5N9VQO2","either","5","184","","","","","","","0","0","1","","0.3939228946","0.6","0.8","0.4","0.2","0.2520762718","0.2265358539","0.3939228946","0.09343701815","","","","","","","","","","","","75","K","2","","","217","main_expt"
"","bandit","297","784890","0.0-258.0-0.0","97197002","wem/bandit_either_2","A3ACUGH5N9VQO2","either","5","132","","","","","","","0","0","1","","0.3198270803","0.6","0.8","0.4","0.2","0.2562699476","0.2364013437","0.3198270803","0.1001055386","","","","","","","","","","","","75","K","2","","","218","main_expt"
"","bandit","298","786500","0.0-259.0-0.0","97197002","wem/bandit_either_2","A3ACUGH5N9VQO2","either","5","99","","","","","","","0","0","1","0.09524874014","","0.6","0.8","0.4","0.2","","","","","0.3002431464","0.2810560361","0.3502502288","0.09524874014","","","","","","","","76","L","3","","","219","main_expt"
"","bandit","299","788613","0.0-260.0-0.0","97197002","wem/bandit_either_2","A3ACUGH5N9VQO2","either","5","601","","","","","","","0","0","1","0.1304899995","","0.6","0.8","0.4","0.2","","","","","0.3365413303","0.3027429446","0.3402456168","0.1304899995","","","","","","","","76","L","3","","","220","main_expt"
"","bandit","300","791548","0.0-261.0-0.0","97197002","wem/bandit_either_2","A3ACUGH5N9VQO2","either","5","1426","","","","","","","0","0","1","","0.1272814923","0.6","0.8","0.4","0.2","0.2946103072","0.3132134988","0.3770059732","0.1272814923","","","","","","","","","","","","76","L","3","","","221","main_expt"
"","bandit","301","810757","0.0-262.0-0.0","97197002","wem/bandit_either_2","A3ACUGH5N9VQO2","either","5","17698","","","","","","","0","1","0","","0.3267284332","0.6","0.8","0.4","0.2","0.3267284332","0.2424821827","0.3864421123","0.1654407056","","","","","","","","","","","","72","H","0","img/none_selected.jpg","","222","main_expt"
"","bandit","302","812612","0.0-263.0-0.0","97197002","wem/bandit_either_2","A3ACUGH5N9VQO2","either","5","340","","","","","","","0","0","1","","0.3175152631","0.6","0.8","0.4","0.2","0.3175152631","0.2595367495","0.4205211408","0.1788325852","","","","","","","","","","","","72","H","0","img/none_selected.jpg","","223","main_expt"
"","bandit","303","814405","0.0-264.0-0.0","97197002","wem/bandit_either_2","A3ACUGH5N9VQO2","either","5","282","","","","","","","0","0","1","0.3192400935","","0.6","0.8","0.4","0.2","","","","","0.3192400935","0.328819141","0.4131889957","0.1736623033","","","","","","","","72","H","0","img/none_selected.jpg","","224","main_expt"
"","bandit","304","816243","0.0-265.0-0.0","97197002","wem/bandit_either_2","A3ACUGH5N9VQO2","either","5","328","","","","","","","0","0","1","","0.3096750449","0.6","0.8","0.4","0.2","0.3096750449","0.356121412","0.4001513574","0.1721911447","","","","","","","","","","","","72","H","0","img/none_selected.jpg","","225","main_expt"
"","bandit","305","818053","0.0-266.0-0.0","97197002","wem/bandit_either_2","A3ACUGH5N9VQO2","either","5","299","","","","","","","0","0","1","","0.3394019192","0.6","0.8","0.4","0.2","0.3142833063","0.3394019192","0.3963688582","0.2133818582","","","","","","","","","","","","74","J","1","","","226","main_expt"
"","bandit","306","819637","0.0-267.0-0.0","97197002","wem/bandit_either_2","A3ACUGH5N9VQO2","either","5","74","","","","","","","0","0","1","0.3979714495","","0.6","0.8","0.4","0.2","","","","","0.3096885674","0.2860553004","0.3979714495","0.2620007467","","","","","","","","75","K","2","","","227","main_expt"
"","bandit","307","821438","0.0-268.0-0.0","97197002","wem/bandit_either_2","A3ACUGH5N9VQO2","either","5","290","","","","","","","1","0","0","0.2961930455","","0.6","0.8","0.4","0.2","","","","","0.3048295172","0.2967856672","0.3811043637","0.2961930455","","","","","","","","76","L","3","","","228","main_expt"
"","bandit","308","823204","0.0-269.0-0.0","97197002","wem/bandit_either_2","A3ACUGH5N9VQO2","either","5","256","","","","","","","0","0","1","","0.3081123415","0.6","0.8","0.4","0.2","0.2553920021","0.2857745529","0.3488149186","0.3081123415","","","","","","","","","","","","76","L","3","","","229","main_expt"
"","bandit","309","824972","0.0-270.0-0.0","97197002","wem/bandit_either_2","A3ACUGH5N9VQO2","either","5","258","","","","","","","0","0","1","","0.3027177586","0.6","0.8","0.4","0.2","0.2783794412","0.2589404948","0.2883621188","0.3027177586","","","","","","","","","","","","76","L","3","","","230","main_expt"
"","bandit","310","826925","0.0-271.0-0.0","97197002","wem/bandit_either_2","A3ACUGH5N9VQO2","either","5","441","","","","","","","0","1","0","","0.2495346478","0.6","0.8","0.4","0.2","0.2735536708","0.2628441024","0.2444465504","0.2495346478","","","","","","","","","","","","76","L","3","","","231","main_expt"
"","bandit","311","828702","0.0-272.0-0.0","97197002","wem/bandit_either_2","A3ACUGH5N9VQO2","either","5","265","","","","","","","0","0","1","","0.2185872191","0.6","0.8","0.4","0.2","0.2262440502","0.276537748","0.2996930955","0.2185872191","","","","","","","","","","","","76","L","3","","","232","main_expt"
"","bandit","312","830606","0.0-273.0-0.0","97197002","wem/bandit_either_2","A3ACUGH5N9VQO2","either","5","393","","","","","","","0","1","0","","0.1874863907","0.6","0.8","0.4","0.2","0.2171974885","0.2485723575","0.3103031796","0.1874863907","","","","","","","","","","","","76","L","3","","","233","main_expt"
"","bandit","313","832462","0.0-274.0-0.0","97197002","wem/bandit_either_2","A3ACUGH5N9VQO2","either","5","344","","","","","","","0","0","1","","0.2165838284","0.6","0.8","0.4","0.2","0.2951485073","0.2172766866","0.2971988612","0.2165838284","","","","","","","","","","","","76","L","3","","","234","main_expt"
"","bandit","314","834325","0.0-275.0-0.0","97197002","wem/bandit_either_2","A3ACUGH5N9VQO2","either","5","351","","","","","","","0","0","1","","0.1791302586","0.6","0.8","0.4","0.2","0.3135740045","0.221542824","0.3266576642","0.1791302586","","","","","","","","","","","","76","L","3","","","235","main_expt"
"","bandit","315","836093","0.0-276.0-0.0","97197002","wem/bandit_either_2","A3ACUGH5N9VQO2","either","5","253","","","","","","","1","0","0","0.3596878827","","0.6","0.8","0.4","0.2","","","","","0.2945285262","0.2200573756","0.3596878827","0.2463713802","","","","","","","","75","K","2","","","236","main_expt"
"","bandit","316","837933","0.0-277.0-0.0","97197002","wem/bandit_either_2","A3ACUGH5N9VQO2","either","5","328","","","","","","","1","0","0","0.3951370387","","0.6","0.8","0.4","0.2","","","","","0.2797454337","0.2146478317","0.3951370387","0.2204623923","","","","","","","","75","K","2","","","237","main_expt"
"","bandit","317","839742","0.0-278.0-0.0","97197002","wem/bandit_either_2","A3ACUGH5N9VQO2","either","5","296","","","","","","","0","0","1","0.3863552979","","0.6","0.8","0.4","0.2","","","","","0.266453507","0.2237656472","0.3863552979","0.2316256556","","","","","","","","75","K","2","","","238","main_expt"
"","bandit","318","841518","0.0-279.0-0.0","97197002","wem/bandit_either_2","A3ACUGH5N9VQO2","either","5","261","","","","","","","0","0","1","","0.3962704677","0.6","0.8","0.4","0.2","0.310831157","0.2302611888","0.3962704677","0.2406304147","","","","","","","","","","","","75","K","2","","","239","main_expt"
"","bandit","319","843254","0.0-280.0-0.0","97197002","wem/bandit_either_2","A3ACUGH5N9VQO2","either","5","225","","","","","","","0","0","1","","0.3926977495","0.6","0.8","0.4","0.2","0.331950591","0.2253069634","0.3926977495","0.2624476398","","","","","","","","","","","","75","K","2","","","240","main_expt"
"","bandit","320","844934","0.0-281.0-0.0","97197002","wem/bandit_either_2","A3ACUGH5N9VQO2","either","5","168","","","","","","","0","0","1","0.2627099727","","0.6","0.8","0.4","0.2","","","","","0.3223776605","0.2523404353","0.3381110468","0.2627099727","","","","","","","","76","L","3","","","241","main_expt"
"","bandit","321","846615","0.0-282.0-0.0","97197002","wem/bandit_either_2","A3ACUGH5N9VQO2","either","5","169","","","","","","","0","0","1","","0.2262339403","0.6","0.8","0.4","0.2","0.3389272588","0.238450381","0.3213381148","0.2262339403","","","","","","","","","","","","76","L","3","","","242","main_expt"
"","bandit","322","848589","0.0-283.0-0.0","97197002","wem/bandit_either_2","A3ACUGH5N9VQO2","either","5","464","","","","","","","0","0","1","","0.2511573395","0.6","0.8","0.4","0.2","0.4023830898","0.2476478509","0.3395415742","0.2511573395","","","","","","","","","","","","76","L","3","","","243","main_expt"
"","bandit","323","850357","0.0-284.0-0.0","97197002","wem/bandit_either_2","A3ACUGH5N9VQO2","either","5","257","","","","","","","0","1","0","","0.4072225753","0.6","0.8","0.4","0.2","0.4072225753","0.2603762171","0.3077285799","0.3112309098","","","","","","","","","","","","72","H","0","img/none_selected.jpg","","244","main_expt"
"","bandit","324","852158","0.0-285.0-0.0","97197002","wem/bandit_either_2","A3ACUGH5N9VQO2","either","5","289","","","","","","","0","0","1","0.4047901721","","0.6","0.8","0.4","0.2","","","","","0.4047901721","0.2778117757","0.269997398","0.3169667097","","","","","","","","72","H","0","img/none_selected.jpg","","245","main_expt"
"","bandit","325","853959","0.0-286.0-0.0","97197002","wem/bandit_either_2","A3ACUGH5N9VQO2","either","5","287","","","","","","","0","0","1","0.4245844383","","0.6","0.8","0.4","0.2","","","","","0.4245844383","0.2571702875","0.2896792764","0.3774934029","","","","","","","","72","H","0","img/none_selected.jpg","","246","main_expt"
"","bandit","326","855669","0.0-287.0-0.0","97197002","wem/bandit_either_2","A3ACUGH5N9VQO2","either","5","200","","","","","","","0","1","0","","0.4425022826","0.6","0.8","0.4","0.2","0.4425022826","0.2790325972","0.3079745892","0.3592590195","","","","","","","","","","","","72","H","0","img/none_selected.jpg","","247","main_expt"
