"consent","trial_type","trial_index","time_elapsed","internal_node_id","subjID","study","MID","cond","drift","rt","responses","key_press","expt_phase","like","value","connected","gems","bombs","no_reward","GemPrChosen","BombPrChosen","GainOverPainPr_0","GainOverPainPr_1","GainOverPainPr_2","GainOverPainPr_3","LosePr_0","LosePr_1","LosePr_2","LosePr_3","WinPr_0","WinPr_1","WinPr_2","WinPr_3","Q0","Q1","Q2","gender","age","ethnicity","target","respCharCode","respKey","respChoiceNum","respChoice","practice","trial_counter","trial_label"
"INL_behavioral_consent_30min_online.html","consent","0","59159","0.0-0.0","97542198","wem/bandit_either_2","A3G2NVZWJQH4YH","either","8","","","","","","","","","","","","","","","","","","","","","","","","","","","","","","","","","","","","","",""
"","survey-text","1","70394","0.0-1.0","97542198","wem/bandit_either_2","A3G2NVZWJQH4YH","either","8","8266","{""Q0"":""A3G2NVZWJQH4YH""}","","","","","","","","","","","","","","","","","","","","","","","","","","","","","","","","","","","",""
"","text","2","95476","0.0-2.0","97542198","wem/bandit_either_2","A3G2NVZWJQH4YH","either","8","24062","","32","","","","","","","","","","","","","","","","","","","","","","","","","","","","","","","","","","",""
"","text","3","115440","0.0-3.0","97542198","wem/bandit_either_2","A3G2NVZWJQH4YH","either","8","19946","","32","","","","","","","","","","","","","","","","","","","","","","","","","","","","","","","","","","",""
"","text","4","148094","0.0-4.0","97542198","wem/bandit_either_2","A3G2NVZWJQH4YH","either","8","32648","","32","","","","","","","","","","","","","","","","","","","","","","","","","","","","","","","","","","",""
"","text","5","163946","0.0-5.0","97542198","wem/bandit_either_2","A3G2NVZWJQH4YH","either","8","15846","","32","","","","","","","","","","","","","","","","","","","","","","","","","","","","","","","","","","",""
"","text","6","185279","0.0-6.0","97542198","wem/bandit_either_2","A3G2NVZWJQH4YH","either","8","21326","","32","","","","","","","","","","","","","","","","","","","","","","","","","","","","","","","","","","",""
"","text","7","196282","0.0-7.0","97542198","wem/bandit_either_2","A3G2NVZWJQH4YH","either","8","10996","","32","","","","","","","","","","","","","","","","","","","","","","","","","","","","","","","","","","",""
"","text","8","202071","0.0-8.0","97542198","wem/bandit_either_2","A3G2NVZWJQH4YH","either","8","5781","","32","","","","","","","","","","","","","","","","","","","","","","","","","","","","","","","","","","",""
"","identification","9","219005","0.0-9.0-0.0","97542198","wem/bandit_either_2","A3G2NVZWJQH4YH","either","8","16853","","","","6","6","6","","","","","","","","","","","","","","","","","","","","","","","","the village of Zur","","","","","","",""
"","identification","10","227262","0.0-9.0-1.0","97542198","wem/bandit_either_2","A3G2NVZWJQH4YH","either","8","7122","","","","0","0","0","","","","","","","","","","","","","","","","","","","","","","","","the village of Nyx","","","","","","",""
"","text","11","236537","0.0-10.0","97542198","wem/bandit_either_2","A3G2NVZWJQH4YH","either","8","8251","","32","","","","","","","","","","","","","","","","","","","","","","","","","","","","","","","","","","",""
"","text","12","244320","0.0-11.0","97542198","wem/bandit_either_2","A3G2NVZWJQH4YH","either","8","7776","","32","","","","","","","","","","","","","","","","","","","","","","","","","","","","","","","","","","",""
"","text","13","247661","0.0-12.0","97542198","wem/bandit_either_2","A3G2NVZWJQH4YH","either","8","3298","","32","","","","","","","","","","","","","","","","","","","","","","","","","","","","","","","","","","",""
"","text","14","252016","0.0-13.0","97542198","wem/bandit_either_2","A3G2NVZWJQH4YH","either","8","4348","","32","","","","","","","","","","","","","","","","","","","","","","","","","","","","","","","","","","",""
"","bandit","15","260960","0.0-14.0-0.0","97542198","wem/bandit_either_2","A3G2NVZWJQH4YH","either","8","7398","","","","","","","0","0","1","0","0","","","","","0","","","","0","","","","","","","","","","","74","J","0","img/none_selected_demo.jpg","true","0",""
"","bandit","16","265024","0.0-15.0-0.0","97542198","wem/bandit_either_2","A3G2NVZWJQH4YH","either","8","2541","","","","","","","0","0","1","0","0","","","","","0","","","","0","","","","","","","","","","","75","K","0","img/none_selected_demo.jpg","true","0",""
"","text","17","274450","0.0-16.0","97542198","wem/bandit_either_2","A3G2NVZWJQH4YH","either","8","9417","","32","","","","","","","","","","","","","","","","","","","","","","","","","","","","","","","","","","",""
"","text","18","284178","0.0-17.0","97542198","wem/bandit_either_2","A3G2NVZWJQH4YH","either","8","9720","","32","","","","","","","","","","","","","","","","","","","","","","","","","","","","","","","","","","",""
"","text","19","292357","0.0-18.0","97542198","wem/bandit_either_2","A3G2NVZWJQH4YH","either","8","8174","","32","","","","","","","","","","","","","","","","","","","","","","","","","","","","","","","","","","",""
"","text","20","297208","0.0-19.0","97542198","wem/bandit_either_2","A3G2NVZWJQH4YH","either","8","4844","","32","","","","","","","","","","","","","","","","","","","","","","","","","","","","","","","","","","",""
"","bandit","21","302240","0.0-20.0-0.0","97542198","wem/bandit_either_2","A3G2NVZWJQH4YH","either","8","3473","","","","","","","0","0","1","","0.2","0.5","0.5","","","0.8","0.2","","","","","","","","","","","","","","75","K","1","","true","0","80_20_practice"
"","bandit","22","306476","0.0-20.0-1.0","97542198","wem/bandit_either_2","A3G2NVZWJQH4YH","either","8","2708","","","","","","","1","0","0","0.8","","0.5","0.5","","","","","","","0.8","0.2","","","","","","","","","","74","J","0","img/none_selected_demo.jpg","true","0","80_20_practice"
"","bandit","23","309318","0.0-20.0-2.0","97542198","wem/bandit_either_2","A3G2NVZWJQH4YH","either","8","1283","","","","","","","0","0","1","","0.8","0.5","0.5","","","0.8","0.2","","","","","","","","","","","","","","74","J","0","img/none_selected_demo.jpg","true","0","80_20_practice"
"","bandit","24","312281","0.0-20.0-3.0","97542198","wem/bandit_either_2","A3G2NVZWJQH4YH","either","8","1438","","","","","","","0","0","1","0.2","","0.5","0.5","","","","","","","0.8","0.2","","","","","","","","","","75","K","1","","true","0","80_20_practice"
"","bandit","25","314782","0.0-20.0-4.0","97542198","wem/bandit_either_2","A3G2NVZWJQH4YH","either","8","939","","","","","","","0","0","1","","0.2","0.5","0.5","","","0.8","0.2","","","","","","","","","","","","","","75","K","1","","true","0","80_20_practice"
"","bandit","26","317448","0.0-20.0-5.0","97542198","wem/bandit_either_2","A3G2NVZWJQH4YH","either","8","1147","","","","","","","0","0","1","0.2","","0.5","0.5","","","","","","","0.8","0.2","","","","","","","","","","75","K","1","","true","0","80_20_practice"
"","bandit","27","319898","0.0-20.0-6.0","97542198","wem/bandit_either_2","A3G2NVZWJQH4YH","either","8","883","","","","","","","0","1","0","","0.8","0.5","0.5","","","0.8","0.2","","","","","","","","","","","","","","74","J","0","img/none_selected_demo.jpg","true","0","80_20_practice"
"","bandit","28","322520","0.0-20.0-7.0","97542198","wem/bandit_either_2","A3G2NVZWJQH4YH","either","8","1077","","","","","","","0","1","0","","0.8","0.5","0.5","","","0.8","0.2","","","","","","","","","","","","","","74","J","0","img/none_selected_demo.jpg","true","0","80_20_practice"
"","bandit","29","324890","0.0-20.0-8.0","97542198","wem/bandit_either_2","A3G2NVZWJQH4YH","either","8","844","","","","","","","0","1","0","","0.8","0.5","0.5","","","0.8","0.2","","","","","","","","","","","","","","74","J","0","img/none_selected_demo.jpg","true","0","80_20_practice"
"","bandit","30","327556","0.0-20.0-9.0","97542198","wem/bandit_either_2","A3G2NVZWJQH4YH","either","8","1144","","","","","","","1","0","0","0.8","","0.5","0.5","","","","","","","0.8","0.2","","","","","","","","","","74","J","0","img/none_selected_demo.jpg","true","0","80_20_practice"
"","bandit","31","329933","0.0-20.0-10.0","97542198","wem/bandit_either_2","A3G2NVZWJQH4YH","either","8","801","","","","","","","1","0","0","0.8","","0.5","0.5","","","","","","","0.8","0.2","","","","","","","","","","74","J","0","img/none_selected_demo.jpg","true","0","80_20_practice"
"","bandit","32","332328","0.0-20.0-11.0","97542198","wem/bandit_either_2","A3G2NVZWJQH4YH","either","8","876","","","","","","","0","1","0","","0.8","0.5","0.5","","","0.8","0.2","","","","","","","","","","","","","","74","J","0","img/none_selected_demo.jpg","true","0","80_20_practice"
"","bandit","33","334561","0.0-20.0-12.0","97542198","wem/bandit_either_2","A3G2NVZWJQH4YH","either","8","710","","","","","","","0","0","1","","0.8","0.5","0.5","","","0.8","0.2","","","","","","","","","","","","","","74","J","0","img/none_selected_demo.jpg","true","0","80_20_practice"
"","bandit","34","337204","0.0-20.0-13.0","97542198","wem/bandit_either_2","A3G2NVZWJQH4YH","either","8","1067","","","","","","","1","0","0","0.8","","0.5","0.5","","","","","","","0.8","0.2","","","","","","","","","","74","J","0","img/none_selected_demo.jpg","true","0","80_20_practice"
"","bandit","35","339899","0.0-20.0-14.0","97542198","wem/bandit_either_2","A3G2NVZWJQH4YH","either","8","1159","","","","","","","0","1","0","","0.8","0.5","0.5","","","0.8","0.2","","","","","","","","","","","","","","74","J","0","img/none_selected_demo.jpg","true","0","80_20_practice"
"","bandit","36","341914","0.0-20.0-15.0","97542198","wem/bandit_either_2","A3G2NVZWJQH4YH","either","8","476","","","","","","","0","0","1","0.8","","0.5","0.5","","","","","","","0.8","0.2","","","","","","","","","","74","J","0","img/none_selected_demo.jpg","true","0","80_20_practice"
"","bandit","37","344207","0.0-20.0-16.0","97542198","wem/bandit_either_2","A3G2NVZWJQH4YH","either","8","715","","","","","","","1","0","0","0.8","","0.5","0.5","","","","","","","0.8","0.2","","","","","","","","","","74","J","0","img/none_selected_demo.jpg","true","0","80_20_practice"
"","bandit","38","346205","0.0-20.0-17.0","97542198","wem/bandit_either_2","A3G2NVZWJQH4YH","either","8","478","","","","","","","0","0","1","0.8","","0.5","0.5","","","","","","","0.8","0.2","","","","","","","","","","74","J","0","img/none_selected_demo.jpg","true","0","80_20_practice"
"","bandit","39","348355","0.0-20.0-18.0","97542198","wem/bandit_either_2","A3G2NVZWJQH4YH","either","8","561","","","","","","","0","0","1","","0.8","0.5","0.5","","","0.8","0.2","","","","","","","","","","","","","","74","J","0","img/none_selected_demo.jpg","true","0","80_20_practice"
"","bandit","40","350386","0.0-20.0-19.0","97542198","wem/bandit_either_2","A3G2NVZWJQH4YH","either","8","481","","","","","","","0","0","1","","0.8","0.5","0.5","","","0.8","0.2","","","","","","","","","","","","","","74","J","0","img/none_selected_demo.jpg","true","0","80_20_practice"
"","text","41","361704","0.0-21.0","97542198","wem/bandit_either_2","A3G2NVZWJQH4YH","either","8","11310","","32","","","","","","","","","","","","","","","","","","","","","","","","","","","","","","","","","","",""
"","bandit","42","366813","0.0-22.0-0.0","97542198","wem/bandit_either_2","A3G2NVZWJQH4YH","either","8","3562","","","","","","","1","0","0","1","0","","","","","0","1","","","1","0","","","","","","","","","","74","J","0","img/none_selected_demo.jpg","true","0",""
"","text","43","375362","0.0-23.0","97542198","wem/bandit_either_2","A3G2NVZWJQH4YH","either","8","8539","","32","","","","","","","","","","","","","","","","","","","","","","","","","","","","","","","","","","",""
"","text","44","379766","0.0-24.0","97542198","wem/bandit_either_2","A3G2NVZWJQH4YH","either","8","4393","","32","","","","","","","","","","","","","","","","","","","","","","","","","","","","","","","","","","",""
"","text","45","384282","0.0-25.0","97542198","wem/bandit_either_2","A3G2NVZWJQH4YH","either","8","4507","","32","","","","","","","","","","","","","","","","","","","","","","","","","","","","","","","","","","",""
"","text","46","389207","0.0-26.0","97542198","wem/bandit_either_2","A3G2NVZWJQH4YH","either","8","4916","","32","","","","","","","","","","","","","","","","","","","","","","","","","","","","","","","","","","",""
"","text","47","399726","0.0-27.0","97542198","wem/bandit_either_2","A3G2NVZWJQH4YH","either","8","10509","","32","","","","","","","","","","","","","","","","","","","","","","","","","","","","","","","","","","",""
"","text","48","404215","0.0-28.0","97542198","wem/bandit_either_2","A3G2NVZWJQH4YH","either","8","4470","","32","","","","","","","","","","","","","","","","","","","","","","","","","","","","","","","","","","",""
"","text","49","409845","0.0-29.0","97542198","wem/bandit_either_2","A3G2NVZWJQH4YH","either","8","5621","","32","","","","","","","","","","","","","","","","","","","","","","","","","","","","","","","","","","",""
"","text","50","413929","0.0-30.0","97542198","wem/bandit_either_2","A3G2NVZWJQH4YH","either","8","4074","","32","","","","","","","","","","","","","","","","","","","","","","","","","","","","","","","","","","",""
"","text","51","419406","0.0-31.0","97542198","wem/bandit_either_2","A3G2NVZWJQH4YH","either","8","5468","","32","","","","","","","","","","","","","","","","","","","","","","","","","","","","","","","","","","",""
"","text","52","423383","0.0-32.0","97542198","wem/bandit_either_2","A3G2NVZWJQH4YH","either","8","3966","","32","","","","","","","","","","","","","","","","","","","","","","","","","","","","","","","","","","",""
"","text","53","430077","0.0-33.0","97542198","wem/bandit_either_2","A3G2NVZWJQH4YH","either","8","6682","","32","","","","","","","","","","","","","","","","","","","","","","","","","","","","","","","","","","",""
"","bandit","54","433173","0.0-34.0-0.0","97542198","wem/bandit_either_2","A3G2NVZWJQH4YH","either","8","1561","","","","","","","1","0","0","0.8","","0.5","0.5","0.5","0.5","","","","","0.8","0.2","0.6","0.2","","","","","","","","72","H","0","img/none_selected.jpg","true","0","full_practice"
"","bandit","55","436628","0.0-34.0-1.0","97542198","wem/bandit_either_2","A3G2NVZWJQH4YH","either","8","1931","","","","","","","1","0","0","0.8","","0.5","0.5","0.5","0.5","","","","","0.8","0.2","0.6","0.2","","","","","","","","72","H","0","img/none_selected.jpg","true","0","full_practice"
"","bandit","56","439464","0.0-34.0-2.0","97542198","wem/bandit_either_2","A3G2NVZWJQH4YH","either","8","1307","","","","","","","0","1","0","","0.8","0.5","0.5","0.5","0.5","0.8","0.2","0.6","0.2","","","","","","","","","","","","72","H","0","img/none_selected.jpg","true","0","full_practice"
"","bandit","57","441799","0.0-34.0-3.0","97542198","wem/bandit_either_2","A3G2NVZWJQH4YH","either","8","763","","","","","","","0","1","0","","0.8","0.5","0.5","0.5","0.5","0.8","0.2","0.6","0.2","","","","","","","","","","","","72","H","0","img/none_selected.jpg","true","0","full_practice"
"","bandit","58","443630","0.0-34.0-4.0","97542198","wem/bandit_either_2","A3G2NVZWJQH4YH","either","8","174","","","","","","","0","0","1","","0.8","0.5","0.5","0.5","0.5","0.8","0.2","0.6","0.2","","","","","","","","","","","","72","H","0","img/none_selected.jpg","true","0","full_practice"
"","bandit","59","446778","0.0-34.0-5.0","97542198","wem/bandit_either_2","A3G2NVZWJQH4YH","either","8","1621","","","","","","","0","0","1","0.2","","0.5","0.5","0.5","0.5","","","","","0.8","0.2","0.6","0.2","","","","","","","","74","J","1","","true","0","full_practice"
"","bandit","60","450022","0.0-34.0-6.0","97542198","wem/bandit_either_2","A3G2NVZWJQH4YH","either","8","1706","","","","","","","1","0","0","0.6","","0.5","0.5","0.5","0.5","","","","","0.8","0.2","0.6","0.2","","","","","","","","75","K","2","","true","0","full_practice"
"","bandit","61","452196","0.0-34.0-7.0","97542198","wem/bandit_either_2","A3G2NVZWJQH4YH","either","8","650","","","","","","","0","0","1","0.6","","0.5","0.5","0.5","0.5","","","","","0.8","0.2","0.6","0.2","","","","","","","","75","K","2","","true","0","full_practice"
"","bandit","62","454520","0.0-34.0-8.0","97542198","wem/bandit_either_2","A3G2NVZWJQH4YH","either","8","798","","","","","","","1","0","0","0.6","","0.5","0.5","0.5","0.5","","","","","0.8","0.2","0.6","0.2","","","","","","","","75","K","2","","true","0","full_practice"
"","bandit","63","456887","0.0-34.0-9.0","97542198","wem/bandit_either_2","A3G2NVZWJQH4YH","either","8","841","","","","","","","1","0","0","0.6","","0.5","0.5","0.5","0.5","","","","","0.8","0.2","0.6","0.2","","","","","","","","75","K","2","","true","0","full_practice"
"","bandit","64","459033","0.0-34.0-10.0","97542198","wem/bandit_either_2","A3G2NVZWJQH4YH","either","8","616","","","","","","","0","0","1","0.6","","0.5","0.5","0.5","0.5","","","","","0.8","0.2","0.6","0.2","","","","","","","","75","K","2","","true","0","full_practice"
"","bandit","65","462421","0.0-34.0-11.0","97542198","wem/bandit_either_2","A3G2NVZWJQH4YH","either","8","1854","","","","","","","0","0","1","0.2","","0.5","0.5","0.5","0.5","","","","","0.8","0.2","0.6","0.2","","","","","","","","74","J","1","","true","0","full_practice"
"","bandit","66","465351","0.0-34.0-12.0","97542198","wem/bandit_either_2","A3G2NVZWJQH4YH","either","8","1403","","","","","","","0","0","1","","0.2","0.5","0.5","0.5","0.5","0.8","0.2","0.6","0.2","","","","","","","","","","","","76","L","3","","true","0","full_practice"
"","bandit","67","470984","0.0-34.0-13.0","97542198","wem/bandit_either_2","A3G2NVZWJQH4YH","either","8","4070","","","","","","","0","1","0","","0.8","0.5","0.5","0.5","0.5","0.8","0.2","0.6","0.2","","","","","","","","","","","","72","H","0","img/none_selected.jpg","true","0","full_practice"
"","bandit","68","473291","0.0-34.0-14.0","97542198","wem/bandit_either_2","A3G2NVZWJQH4YH","either","8","769","","","","","","","0","1","0","","0.8","0.5","0.5","0.5","0.5","0.8","0.2","0.6","0.2","","","","","","","","","","","","72","H","0","img/none_selected.jpg","true","0","full_practice"
"","bandit","69","475137","0.0-34.0-15.0","97542198","wem/bandit_either_2","A3G2NVZWJQH4YH","either","8","317","","","","","","","1","0","0","0.8","","0.5","0.5","0.5","0.5","","","","","0.8","0.2","0.6","0.2","","","","","","","","72","H","0","img/none_selected.jpg","true","0","full_practice"
"","bandit","70","476833","0.0-34.0-16.0","97542198","wem/bandit_either_2","A3G2NVZWJQH4YH","either","8","104","","","","","","","0","1","0","","0.8","0.5","0.5","0.5","0.5","0.8","0.2","0.6","0.2","","","","","","","","","","","","72","H","0","img/none_selected.jpg","true","0","full_practice"
"","bandit","71","478514","0.0-34.0-17.0","97542198","wem/bandit_either_2","A3G2NVZWJQH4YH","either","8","74","","","","","","","0","1","0","","0.8","0.5","0.5","0.5","0.5","0.8","0.2","0.6","0.2","","","","","","","","","","","","72","H","0","img/none_selected.jpg","true","0","full_practice"
"","bandit","72","481765","0.0-34.0-18.0","97542198","wem/bandit_either_2","A3G2NVZWJQH4YH","either","8","1718","","","","","","","1","0","0","0.8","","0.5","0.5","0.5","0.5","","","","","0.8","0.2","0.6","0.2","","","","","","","","72","H","0","img/none_selected.jpg","true","0","full_practice"
"","bandit","73","483746","0.0-34.0-19.0","97542198","wem/bandit_either_2","A3G2NVZWJQH4YH","either","8","452","","","","","","","0","1","0","","0.8","0.5","0.5","0.5","0.5","0.8","0.2","0.6","0.2","","","","","","","","","","","","72","H","0","img/none_selected.jpg","true","0","full_practice"
"","text","74","488608","0.0-35.0","97542198","wem/bandit_either_2","A3G2NVZWJQH4YH","either","8","4833","","32","","","","","","","","","","","","","","","","","","","","","","","","","","","","","","","","","","",""
"","text","75","504930","0.0-36.0","97542198","wem/bandit_either_2","A3G2NVZWJQH4YH","either","8","15287","","32","","","","","","","","","","","","","","","","","","","","","","","","","","","","","","","","","","",""
"","text","76","513814","0.0-37.0","97542198","wem/bandit_either_2","A3G2NVZWJQH4YH","either","8","8870","","32","","","","","","","","","","","","","","","","","","","","","","","","","","","","","","","","","","",""
"","text","77","519323","0.0-38.0","97542198","wem/bandit_either_2","A3G2NVZWJQH4YH","either","8","5491","","32","","","","","","","","","","","","","","","","","","","","","","","","","","","","","","","","","","",""
"","text","78","527553","0.0-39.0","97542198","wem/bandit_either_2","A3G2NVZWJQH4YH","either","8","8219","","32","","","","","","","","","","","","","","","","","","","","","","","","","","","","","","","","","","",""
"","text","79","532371","0.0-40.0","97542198","wem/bandit_either_2","A3G2NVZWJQH4YH","either","8","4799","","32","","","","","","","","","","","","","","","","","","","","","","","","","","","","","","","","","","",""
"","bandit","80","535639","0.0-41.0-0.0","97542198","wem/bandit_either_2","A3G2NVZWJQH4YH","either","8","1730","","","","","","","1","0","0","0.2637293772","","0.4","0.8","0.6","0.2","","","","","0.2637293772","0.3540548627","0.2928194041","0.1351790469","","","","","","","","72","H","0","img/none_selected.jpg","","1","main_expt"
"","bandit","81","537784","0.0-42.0-0.0","97542198","wem/bandit_either_2","A3G2NVZWJQH4YH","either","8","617","","","","","","","0","0","1","","0.2760013096","0.4","0.8","0.6","0.2","0.2760013096","0.3812516843","0.3040419902","0.125602744","","","","","","","","","","","","72","H","0","img/none_selected.jpg","","2","main_expt"
"","bandit","82","540153","0.0-43.0-0.0","97542198","wem/bandit_either_2","A3G2NVZWJQH4YH","either","8","834","","","","","","","0","1","0","","0.3240499928","0.4","0.8","0.6","0.2","0.3240499928","0.3901316494","0.2875251023","0.09574082279","","","","","","","","","","","","72","H","0","img/none_selected.jpg","","3","main_expt"
"","bandit","83","542577","0.0-44.0-0.0","97542198","wem/bandit_either_2","A3G2NVZWJQH4YH","either","8","834","","","","","","","0","1","0","","0.3510822359","0.4","0.8","0.6","0.2","0.3510822359","0.3945399471","0.2965567903","0.0913382225","","","","","","","","","","","","72","H","0","img/none_selected.jpg","","4","main_expt"
"","bandit","84","544815","0.0-45.0-0.0","97542198","wem/bandit_either_2","A3G2NVZWJQH4YH","either","8","631","","","","","","","0","0","1","","0.3522827721","0.4","0.8","0.6","0.2","0.3522827721","0.3997977613","0.2681113314","0.106177601","","","","","","","","","","","","72","H","0","img/none_selected.jpg","","5","main_expt"
"","bandit","85","547364","0.0-46.0-0.0","97542198","wem/bandit_either_2","A3G2NVZWJQH4YH","either","8","982","","","","","","","0","0","1","","0.382674005","0.4","0.8","0.6","0.2","0.382674005","0.390783501","0.2330443498","0.08998955495","","","","","","","","","","","","72","H","0","img/none_selected.jpg","","6","main_expt"
"","bandit","86","549852","0.0-47.0-0.0","97542198","wem/bandit_either_2","A3G2NVZWJQH4YH","either","8","956","","","","","","","0","0","1","","0.3998463606","0.4","0.8","0.6","0.2","0.3998463606","0.3305693427","0.1630509172","0.1077526668","","","","","","","","","","","","72","H","0","img/none_selected.jpg","","7","main_expt"
"","bandit","87","551902","0.0-48.0-0.0","97542198","wem/bandit_either_2","A3G2NVZWJQH4YH","either","8","518","","","","","","","0","0","1","0.3056545716","","0.4","0.8","0.6","0.2","","","","","0.3832029687","0.3056545716","0.2002468685","0.1243697388","","","","","","","","74","J","1","","","8","main_expt"
"","bandit","88","555375","0.0-49.0-0.0","97542198","wem/bandit_either_2","A3G2NVZWJQH4YH","either","8","1950","","","","","","","0","0","1","","0.1835034381","0.4","0.8","0.6","0.2","0.3796681134","0.3278889804","0.1835034381","0.1698108096","","","","","","","","","","","","75","K","2","","","9","main_expt"
"","bandit","89","558431","0.0-50.0-0.0","97542198","wem/bandit_either_2","A3G2NVZWJQH4YH","either","8","1509","","","","","","","0","0","1","","0.221757114","0.4","0.8","0.6","0.2","0.3614311416","0.3137855556","0.1939723001","0.221757114","","","","","","","","","","","","76","L","3","","","10","main_expt"
"","bandit","90","561441","0.0-51.0-0.0","97542198","wem/bandit_either_2","A3G2NVZWJQH4YH","either","8","1484","","","","","","","0","0","1","","0.1949806013","0.4","0.8","0.6","0.2","0.3938737051","0.3253079181","0.1949806013","0.1961062924","","","","","","","","","","","","75","K","2","","","11","main_expt"
"","bandit","91","564356","0.0-52.0-0.0","97542198","wem/bandit_either_2","A3G2NVZWJQH4YH","either","8","1373","","","","","","","0","0","1","","0.3298150516","0.4","0.8","0.6","0.2","0.3810544723","0.3298150516","0.2587943474","0.1907056259","","","","","","","","","","","","74","J","1","","","12","main_expt"
"","bandit","92","566869","0.0-53.0-0.0","97542198","wem/bandit_either_2","A3G2NVZWJQH4YH","either","8","982","","","","","","","0","1","0","","0.3707046684","0.4","0.8","0.6","0.2","0.3707046684","0.3673307406","0.3085985727","0.2162865666","","","","","","","","","","","","72","H","0","img/none_selected.jpg","","13","main_expt"
"","bandit","93","568998","0.0-54.0-0.0","97542198","wem/bandit_either_2","A3G2NVZWJQH4YH","either","8","607","","","","","","","0","1","0","","0.3486531997","0.4","0.8","0.6","0.2","0.3486531997","0.3679224674","0.2464992766","0.2399362825","","","","","","","","","","","","72","H","0","img/none_selected.jpg","","14","main_expt"
"","bandit","94","572908","0.0-55.0-0.0","97542198","wem/bandit_either_2","A3G2NVZWJQH4YH","either","8","2313","","","","","","","0","0","1","0.3263578384","","0.4","0.8","0.6","0.2","","","","","0.3263578384","0.3062507314","0.2474611475","0.1986859052","","","","","","","","72","H","0","img/none_selected.jpg","","15","main_expt"
"","bandit","95","575153","0.0-56.0-0.0","97542198","wem/bandit_either_2","A3G2NVZWJQH4YH","either","8","714","","","","","","","0","1","0","","0.3514189979","0.4","0.8","0.6","0.2","0.3514189979","0.2892976033","0.2835538477","0.1865641621","","","","","","","","","","","","72","H","0","img/none_selected.jpg","","16","main_expt"
"","bandit","96","577447","0.0-57.0-0.0","97542198","wem/bandit_either_2","A3G2NVZWJQH4YH","either","8","767","","","","","","","0","0","1","","0.3532592314","0.4","0.8","0.6","0.2","0.3532592314","0.2861796528","0.3256112075","0.2035525071","","","","","","","","","","","","72","H","0","img/none_selected.jpg","","17","main_expt"
"","bandit","97","579780","0.0-58.0-0.0","97542198","wem/bandit_either_2","A3G2NVZWJQH4YH","either","8","801","","","","","","","0","0","1","","0.3858608091","0.4","0.8","0.6","0.2","0.3858608091","0.2958570682","0.3802227677","0.2039336531","","","","","","","","","","","","72","H","0","img/none_selected.jpg","","18","main_expt"
"","bandit","98","581902","0.0-59.0-0.0","97542198","wem/bandit_either_2","A3G2NVZWJQH4YH","either","8","595","","","","","","","0","0","1","","0.3837638756","0.4","0.8","0.6","0.2","0.3837638756","0.3353028819","0.360566968","0.1598579642","","","","","","","","","","","","72","H","0","img/none_selected.jpg","","19","main_expt"
"","bandit","99","584146","0.0-60.0-0.0","97542198","wem/bandit_either_2","A3G2NVZWJQH4YH","either","8","716","","","","","","","0","0","1","0.3139704528","","0.4","0.8","0.6","0.2","","","","","0.2872100501","0.3139704528","0.3696799013","0.1437622327","","","","","","","","74","J","1","","","20","main_expt"
"","bandit","100","587212","0.0-61.0-0.0","97542198","wem/bandit_either_2","A3G2NVZWJQH4YH","either","8","1532","","","","","","","0","0","1","","0.4006907501","0.4","0.8","0.6","0.2","0.2975414498","0.2524707143","0.4006907501","0.07974703335","","","","","","","","","","","","75","K","2","","","21","main_expt"
"","bandit","101","590263","0.0-62.0-0.0","97542198","wem/bandit_either_2","A3G2NVZWJQH4YH","either","8","1426","","","","","","","0","0","1","","0.1361132429","0.4","0.8","0.6","0.2","0.2741965999","0.248326021","0.4081217326","0.1361132429","","","","","","","","","","","","76","L","3","","","22","main_expt"
"","bandit","102","592737","0.0-63.0-0.0","97542198","wem/bandit_either_2","A3G2NVZWJQH4YH","either","8","938","","","","","","","0","0","1","","0.3740207531","0.4","0.8","0.6","0.2","0.2379064449","0.2937153481","0.3740207531","0.1705973249","","","","","","","","","","","","75","K","2","","","23","main_expt"
"","bandit","103","595179","0.0-64.0-0.0","97542198","wem/bandit_either_2","A3G2NVZWJQH4YH","either","8","915","","","","","","","1","0","0","0.2625315469","","0.4","0.8","0.6","0.2","","","","","0.2078598572","0.2625315469","0.3913756451","0.1392759225","","","","","","","","74","J","1","","","24","main_expt"
"","bandit","104","597298","0.0-65.0-0.0","97542198","wem/bandit_either_2","A3G2NVZWJQH4YH","either","8","589","","","","","","","0","0","1","","0.2405651368","0.4","0.8","0.6","0.2","0.2764850733","0.2405651368","0.4100905738","0.1800538527","","","","","","","","","","","","74","J","1","","","25","main_expt"
"","bandit","105","600063","0.0-66.0-0.0","97542198","wem/bandit_either_2","A3G2NVZWJQH4YH","either","8","1237","","","","","","","0","0","1","","0.2503350336","0.4","0.8","0.6","0.2","0.3080191348","0.2503350336","0.3600668969","0.2146400533","","","","","","","","","","","","74","J","1","","","26","main_expt"
"","bandit","106","602615","0.0-67.0-0.0","97542198","wem/bandit_either_2","A3G2NVZWJQH4YH","either","8","1009","","","","","","","0","1","0","","0.3606197488","0.4","0.8","0.6","0.2","0.3606197488","0.354091838","0.3703096079","0.1948367851","","","","","","","","","","","","72","H","0","img/none_selected.jpg","","27","main_expt"
"","bandit","107","605115","0.0-68.0-0.0","97542198","wem/bandit_either_2","A3G2NVZWJQH4YH","either","8","962","","","","","","","0","1","0","","0.3696097963","0.4","0.8","0.6","0.2","0.3696097963","0.3419366675","0.3527269899","0.2282666016","","","","","","","","","","","","72","H","0","img/none_selected.jpg","","28","main_expt"
"","bandit","108","607285","0.0-69.0-0.0","97542198","wem/bandit_either_2","A3G2NVZWJQH4YH","either","8","637","","","","","","","1","0","0","0.3434444954","","0.4","0.8","0.6","0.2","","","","","0.3434444954","0.361896517","0.2854860911","0.1842618798","","","","","","","","72","H","0","img/none_selected.jpg","","29","main_expt"
"","bandit","109","609500","0.0-70.0-0.0","97542198","wem/bandit_either_2","A3G2NVZWJQH4YH","either","8","685","","","","","","","0","0","1","","0.3528183973","0.4","0.8","0.6","0.2","0.3528183973","0.3701160785","0.2971434158","0.1930267653","","","","","","","","","","","","72","H","0","img/none_selected.jpg","","30","main_expt"
"","bandit","110","611809","0.0-71.0-0.0","97542198","wem/bandit_either_2","A3G2NVZWJQH4YH","either","8","715","","","","","","","1","0","0","0.3436926249","","0.4","0.8","0.6","0.2","","","","","0.3436926249","0.3602312343","0.3192935598","0.2279264959","","","","","","","","72","H","0","img/none_selected.jpg","","31","main_expt"
"","bandit","111","614276","0.0-72.0-0.0","97542198","wem/bandit_either_2","A3G2NVZWJQH4YH","either","8","931","","","","","","","0","0","1","","0.3392376576","0.4","0.8","0.6","0.2","0.3392376576","0.3550043818","0.2910845839","0.1922668126","","","","","","","","","","","","72","H","0","img/none_selected.jpg","","32","main_expt"
"","bandit","112","616626","0.0-73.0-0.0","97542198","wem/bandit_either_2","A3G2NVZWJQH4YH","either","8","818","","","","","","","0","1","0","","0.2524106513","0.4","0.8","0.6","0.2","0.2524106513","0.3927862597","0.2956883229","0.1503247695","","","","","","","","","","","","72","H","0","img/none_selected.jpg","","33","main_expt"
"","bandit","113","619845","0.0-74.0-0.0","97542198","wem/bandit_either_2","A3G2NVZWJQH4YH","either","8","1690","","","","","","","0","0","1","","0.2378308988","0.4","0.8","0.6","0.2","0.2378308988","0.4185963197","0.2918182698","0.1875072744","","","","","","","","","","","","72","H","0","img/none_selected.jpg","","34","main_expt"
"","bandit","114","622120","0.0-75.0-0.0","97542198","wem/bandit_either_2","A3G2NVZWJQH4YH","either","8","716","","","","","","","0","0","1","0.2683654211","","0.4","0.8","0.6","0.2","","","","","0.2683654211","0.441983755","0.3063909307","0.2135507624","","","","","","","","72","H","0","img/none_selected.jpg","","35","main_expt"
"","bandit","115","624571","0.0-76.0-0.0","97542198","wem/bandit_either_2","A3G2NVZWJQH4YH","either","8","915","","","","","","","1","0","0","0.4352827683","","0.4","0.8","0.6","0.2","","","","","0.2645223933","0.4352827683","0.2820805085","0.2042402853","","","","","","","","74","J","1","","","36","main_expt"
"","bandit","116","626729","0.0-77.0-0.0","97542198","wem/bandit_either_2","A3G2NVZWJQH4YH","either","8","624","","","","","","","1","0","0","0.450520142","","0.4","0.8","0.6","0.2","","","","","0.2360561858","0.450520142","0.2610370824","0.2024605481","","","","","","","","74","J","1","","","37","main_expt"
"","bandit","117","629142","0.0-78.0-0.0","97542198","wem/bandit_either_2","A3G2NVZWJQH4YH","either","8","885","","","","","","","0","0","1","0.4681224698","","0.4","0.8","0.6","0.2","","","","","0.2001865083","0.4681224698","0.1896233007","0.1677713785","","","","","","","","74","J","1","","","38","main_expt"
"","bandit","118","632830","0.0-79.0-0.0","97542198","wem/bandit_either_2","A3G2NVZWJQH4YH","either","8","2146","","","","","","","1","0","0","0.4711022053","","0.4","0.8","0.6","0.2","","","","","0.1687915361","0.4711022053","0.168851025","0.221779122","","","","","","","","74","J","1","","","39","main_expt"
"","bandit","119","635023","0.0-80.0-0.0","97542198","wem/bandit_either_2","A3G2NVZWJQH4YH","either","8","652","","","","","","","0","0","1","0.4559447699","","0.4","0.8","0.6","0.2","","","","","0.1503151413","0.4559447699","0.1615787635","0.2722397218","","","","","","","","74","J","1","","","40","main_expt"
"","bandit","120","637048","0.0-81.0-0.0","97542198","wem/bandit_either_2","A3G2NVZWJQH4YH","either","8","472","","","","","","","0","0","1","0.4412687596","","0.4","0.8","0.6","0.2","","","","","0.08168262283","0.4412687596","0.1472326003","0.3298230943","","","","","","","","74","J","1","","","41","main_expt"
"","bandit","121","639246","0.0-82.0-0.0","97542198","wem/bandit_either_2","A3G2NVZWJQH4YH","either","8","614","","","","","","","0","0","1","","0.07668629145","0.4","0.8","0.6","0.2","0.07668629145","0.4457751761","0.1533480506","0.3104885444","","","","","","","","","","","","72","H","0","img/none_selected.jpg","","42","main_expt"
"","bandit","122","641710","0.0-83.0-0.0","97542198","wem/bandit_either_2","A3G2NVZWJQH4YH","either","8","930","","","","","","","0","0","1","0.4298378352","","0.4","0.8","0.6","0.2","","","","","0.07394587158","0.4298378352","0.1414351437","0.3005355489","","","","","","","","74","J","1","","","43","main_expt"
"","bandit","123","643992","0.0-84.0-0.0","97542198","wem/bandit_either_2","A3G2NVZWJQH4YH","either","8","742","","","","","","","0","0","1","0.4416915379","","0.4","0.8","0.6","0.2","","","","","0.1192337685","0.4416915379","0.1067646429","0.2456242138","","","","","","","","74","J","1","","","44","main_expt"
"","bandit","124","646059","0.0-85.0-0.0","97542198","wem/bandit_either_2","A3G2NVZWJQH4YH","either","8","537","","","","","","","0","0","1","0.1250796286","","0.4","0.8","0.6","0.2","","","","","0.1285724119","0.3915522423","0.1250796286","0.2839901561","","","","","","","","75","K","2","","","45","main_expt"
"","bandit","125","648644","0.0-86.0-0.0","97542198","wem/bandit_either_2","A3G2NVZWJQH4YH","either","8","1055","","","","","","","0","0","1","","0.2353621531","0.4","0.8","0.6","0.2","0.1112684106","0.4318427431","0.1927264636","0.2353621531","","","","","","","","","","","","76","L","3","","","46","main_expt"
"","bandit","126","650851","0.0-87.0-0.0","97542198","wem/bandit_either_2","A3G2NVZWJQH4YH","either","8","677","","","","","","","0","0","1","0.1804488412","","0.4","0.8","0.6","0.2","","","","","0.1207340475","0.4395998441","0.1804488412","0.2405257196","","","","","","","","75","K","2","","","47","main_expt"
"","bandit","127","653159","0.0-88.0-0.0","97542198","wem/bandit_either_2","A3G2NVZWJQH4YH","either","8","726","","","","","","","0","0","1","0.4630443269","","0.4","0.8","0.6","0.2","","","","","0.1182533935","0.4630443269","0.168268176","0.2629408555","","","","","","","","74","J","1","","","48","main_expt"
"","bandit","128","656140","0.0-89.0-0.0","97542198","wem/bandit_either_2","A3G2NVZWJQH4YH","either","8","1452","","","","","","","0","0","1","0.1460801474","","0.4","0.8","0.6","0.2","","","","","0.1460801474","0.4794982466","0.1466838001","0.2902453213","","","","","","","","72","H","0","img/none_selected.jpg","","49","main_expt"
"","bandit","129","658418","0.0-90.0-0.0","97542198","wem/bandit_either_2","A3G2NVZWJQH4YH","either","8","708","","","","","","","0","1","0","","0.1765155983","0.4","0.8","0.6","0.2","0.1765155983","0.4562783041","0.1336340117","0.3033715012","","","","","","","","","","","","72","H","0","img/none_selected.jpg","","50","main_expt"
"","bandit","130","660665","0.0-91.0-0.0","97542198","wem/bandit_either_2","A3G2NVZWJQH4YH","either","8","709","","","","","","","0","0","1","0.1614266163","","0.4","0.8","0.6","0.2","","","","","0.1614266163","0.4515646323","0.1067821754","0.3536831403","","","","","","","","72","H","0","img/none_selected.jpg","","51","main_expt"
"","bandit","131","663076","0.0-92.0-0.0","97542198","wem/bandit_either_2","A3G2NVZWJQH4YH","either","8","848","","","","","","","0","0","1","0.1938643747","","0.4","0.8","0.6","0.2","","","","","0.1938643747","0.4344137529","0.07294577227","0.3058792917","","","","","","","","72","H","0","img/none_selected.jpg","","52","main_expt"
"","bandit","132","666067","0.0-93.0-0.0","97542198","wem/bandit_either_2","A3G2NVZWJQH4YH","either","8","982","","","","","","","0","0","1","0.1721886996","","0.4","0.8","0.6","0.2","","","","","0.1721886996","0.4421766306","0.07676454597","0.3466820038","","","","","","","","72","H","0","img/none_selected.jpg","","53","main_expt"
"","bandit","133","668395","0.0-94.0-0.0","97542198","wem/bandit_either_2","A3G2NVZWJQH4YH","either","8","725","","","","","","","0","0","1","0.4591875032","","0.4","0.8","0.6","0.2","","","","","0.1542880765","0.4591875032","0.07707135067","0.3159173384","","","","","","","","74","J","1","","","54","main_expt"
"","bandit","134","670837","0.0-95.0-0.0","97542198","wem/bandit_either_2","A3G2NVZWJQH4YH","either","8","865","","","","","","","1","0","0","0.4455250987","","0.4","0.8","0.6","0.2","","","","","0.2155598061","0.4455250987","0.08227932488","0.3205246683","","","","","","","","74","J","1","","","55","main_expt"
"","bandit","135","673470","0.0-96.0-0.0","97542198","wem/bandit_either_2","A3G2NVZWJQH4YH","either","8","1035","","","","","","","0","0","1","0.4200701886","","0.4","0.8","0.6","0.2","","","","","0.199350645","0.4200701886","0.09013031375","0.3067659888","","","","","","","","74","J","1","","","56","main_expt"
"","bandit","136","675725","0.0-97.0-0.0","97542198","wem/bandit_either_2","A3G2NVZWJQH4YH","either","8","650","","","","","","","1","0","0","0.3635567377","","0.4","0.8","0.6","0.2","","","","","0.1991981904","0.3635567377","0.106866739","0.3786279545","","","","","","","","74","J","1","","","57","main_expt"
"","bandit","137","677858","0.0-98.0-0.0","97542198","wem/bandit_either_2","A3G2NVZWJQH4YH","either","8","595","","","","","","","0","0","1","0.3647217687","","0.4","0.8","0.6","0.2","","","","","0.1307276253","0.3647217687","0.0915584437","0.3796022377","","","","","","","","74","J","1","","","58","main_expt"
"","bandit","138","680594","0.0-99.0-0.0","97542198","wem/bandit_either_2","A3G2NVZWJQH4YH","either","8","1197","","","","","","","0","0","1","","0.1540949786","0.4","0.8","0.6","0.2","0.1540949786","0.3975499765","0.1036540812","0.3570845549","","","","","","","","","","","","72","H","0","img/none_selected.jpg","","59","main_expt"
"","bandit","139","683277","0.0-100.0-0.0","97542198","wem/bandit_either_2","A3G2NVZWJQH4YH","either","8","1140","","","","","","","0","0","1","0.376383165","","0.4","0.8","0.6","0.2","","","","","0.1187181044","0.376383165","0.07948280662","0.398525789","","","","","","","","74","J","1","","","60","main_expt"
"","bandit","140","686139","0.0-101.0-0.0","97542198","wem/bandit_either_2","A3G2NVZWJQH4YH","either","8","1322","","","","","","","0","0","1","0.0685056185","","0.4","0.8","0.6","0.2","","","","","0.1734870435","0.3384437455","0.0685056185","0.380986593","","","","","","","","75","K","2","","","61","main_expt"
"","bandit","141","688945","0.0-102.0-0.0","97542198","wem/bandit_either_2","A3G2NVZWJQH4YH","either","8","1274","","","","","","","0","0","1","","0.3928002855","0.4","0.8","0.6","0.2","0.2056999461","0.3086389155","0.04196312691","0.3928002855","","","","","","","","","","","","76","L","3","","","62","main_expt"
"","bandit","142","691159","0.0-103.0-0.0","97542198","wem/bandit_either_2","A3G2NVZWJQH4YH","either","8","683","","","","","","","0","0","1","","0.06524357318","0.4","0.8","0.6","0.2","0.2421495796","0.3098998428","0.06524357318","0.4097838671","","","","","","","","","","","","75","K","2","","","63","main_expt"
"","bandit","143","693481","0.0-104.0-0.0","97542198","wem/bandit_either_2","A3G2NVZWJQH4YH","either","8","788","","","","","","","0","0","1","0.2859800092","","0.4","0.8","0.6","0.2","","","","","0.2678986655","0.2859800092","0.04599317762","0.3942475769","","","","","","","","74","J","1","","","64","main_expt"
"","bandit","144","695938","0.0-105.0-0.0","97542198","wem/bandit_either_2","A3G2NVZWJQH4YH","either","8","923","","","","","","","0","0","1","","0.2780805564","0.4","0.8","0.6","0.2","0.2780805564","0.2780623804","0.04738713632","0.3756823908","","","","","","","","","","","","72","H","0","img/none_selected.jpg","","65","main_expt"
"","bandit","145","698145","0.0-106.0-0.0","97542198","wem/bandit_either_2","A3G2NVZWJQH4YH","either","8","668","","","","","","","0","0","1","","0.2923516192","0.4","0.8","0.6","0.2","0.2923516192","0.2740889186","0.02873144913","0.3780323226","","","","","","","","","","","","72","H","0","img/none_selected.jpg","","66","main_expt"
"","bandit","146","700600","0.0-107.0-0.0","97542198","wem/bandit_either_2","A3G2NVZWJQH4YH","either","8","831","","","","","","","1","0","0","0.3122756929","","0.4","0.8","0.6","0.2","","","","","0.3481747094","0.3122756929","0.0355516853","0.382091886","","","","","","","","74","J","1","","","67","main_expt"
"","bandit","147","702748","0.0-108.0-0.0","97542198","wem/bandit_either_2","A3G2NVZWJQH4YH","either","8","620","","","","","","","0","0","1","0.3004294993","","0.4","0.8","0.6","0.2","","","","","0.3540590834","0.3004294993","0.04483006882","0.4080562953","","","","","","","","74","J","1","","","68","main_expt"
"","bandit","148","704893","0.0-109.0-0.0","97542198","wem/bandit_either_2","A3G2NVZWJQH4YH","either","8","617","","","","","","","0","0","1","0.3312842332","","0.4","0.8","0.6","0.2","","","","","0.3348318208","0.3312842332","0.04300650393","0.419826639","","","","","","","","74","J","1","","","69","main_expt"
"","bandit","149","707130","0.0-110.0-0.0","97542198","wem/bandit_either_2","A3G2NVZWJQH4YH","either","8","631","","","","","","","1","0","0","0.2362018798","","0.4","0.8","0.6","0.2","","","","","0.3844983113","0.2362018798","0.03960880855","0.3889643965","","","","","","","","74","J","1","","","70","main_expt"
"","bandit","150","709450","0.0-111.0-0.0","97542198","wem/bandit_either_2","A3G2NVZWJQH4YH","either","8","769","","","","","","","0","0","1","0.1838323472","","0.4","0.8","0.6","0.2","","","","","0.3753843975","0.1838323472","0.02401392238","0.3492343966","","","","","","","","74","J","1","","","71","main_expt"
"","bandit","151","711594","0.0-112.0-0.0","97542198","wem/bandit_either_2","A3G2NVZWJQH4YH","either","8","605","","","","","","","0","0","1","0.1749810972","","0.4","0.8","0.6","0.2","","","","","0.3861429343","0.1749810972","0.008756159955","0.3502155883","","","","","","","","74","J","1","","","72","main_expt"
"","bandit","152","713929","0.0-113.0-0.0","97542198","wem/bandit_either_2","A3G2NVZWJQH4YH","either","8","797","","","","","","","1","0","0","0.3978436086","","0.4","0.8","0.6","0.2","","","","","0.3978436086","0.1664097112","0.006257651783","0.3568691787","","","","","","","","72","H","0","img/none_selected.jpg","","73","main_expt"
"","bandit","153","716231","0.0-114.0-0.0","97542198","wem/bandit_either_2","A3G2NVZWJQH4YH","either","8","762","","","","","","","0","0","1","","0.3847979518","0.4","0.8","0.6","0.2","0.3847979518","0.2001176207","0.004732084297","0.3303653739","","","","","","","","","","","","72","H","0","img/none_selected.jpg","","74","main_expt"
"","bandit","154","718511","0.0-115.0-0.0","97542198","wem/bandit_either_2","A3G2NVZWJQH4YH","either","8","741","","","","","","","0","0","1","0.1848717924","","0.4","0.8","0.6","0.2","","","","","0.3974319157","0.1848717924","0.006967558871","0.3353283381","","","","","","","","74","J","1","","","75","main_expt"
"","bandit","155","720746","0.0-116.0-0.0","97542198","wem/bandit_either_2","A3G2NVZWJQH4YH","either","8","699","","","","","","","0","0","1","0.1510178238","","0.4","0.8","0.6","0.2","","","","","0.3987985884","0.1510178238","0.004525860487","0.3009524994","","","","","","","","74","J","1","","","76","main_expt"
"","bandit","156","722813","0.0-117.0-0.0","97542198","wem/bandit_either_2","A3G2NVZWJQH4YH","either","8","535","","","","","","","0","1","0","","0.2089633591","0.4","0.8","0.6","0.2","0.4127312768","0.2089633591","0.007245535115","0.3316028908","","","","","","","","","","","","74","J","1","","","77","main_expt"
"","bandit","157","725203","0.0-118.0-0.0","97542198","wem/bandit_either_2","A3G2NVZWJQH4YH","either","8","853","","","","","","","0","0","1","0.2285147345","","0.4","0.8","0.6","0.2","","","","","0.4257675477","0.2285147345","0.00483057751","0.3571024926","","","","","","","","74","J","1","","","78","main_expt"
"","bandit","158","727699","0.0-119.0-0.0","97542198","wem/bandit_either_2","A3G2NVZWJQH4YH","either","8","960","","","","","","","0","0","1","0.2246975601","","0.4","0.8","0.6","0.2","","","","","0.4331167668","0.2246975601","0.005956317848","0.3542776451","","","","","","","","74","J","1","","","79","main_expt"
"","bandit","159","729923","0.0-120.0-0.0","97542198","wem/bandit_either_2","A3G2NVZWJQH4YH","either","8","694","","","","","","","0","1","0","","0.4294395537","0.4","0.8","0.6","0.2","0.4294395537","0.1878766281","0.0076590047","0.3201174307","","","","","","","","","","","","72","H","0","img/none_selected.jpg","","80","main_expt"
"","bandit","160","733012","0.0-121.0-0.0","97542198","wem/bandit_either_2","A3G2NVZWJQH4YH","either","8","1512","","","","","","","0","0","1","0.2436254364","","0.4","0.8","0.6","0.2","","","","","0.4234249918","0.2436254364","0.009115568074","0.3503003334","","","","","","","","74","J","1","","","81","main_expt"
"","bandit","161","735484","0.0-122.0-0.0","97542198","wem/bandit_either_2","A3G2NVZWJQH4YH","either","8","938","","","","","","","0","0","1","0.3956977209","","0.4","0.8","0.6","0.2","","","","","0.3956977209","0.2627531714","0.01382977225","0.3509066846","","","","","","","","72","H","0","img/none_selected.jpg","","82","main_expt"
"","bandit","162","737642","0.0-123.0-0.0","97542198","wem/bandit_either_2","A3G2NVZWJQH4YH","either","8","616","","","","","","","0","0","1","","0.4248650233","0.4","0.8","0.6","0.2","0.4248650233","0.2672212524","0.01500629599","0.3951868033","","","","","","","","","","","","72","H","0","img/none_selected.jpg","","83","main_expt"
"","bandit","163","739800","0.0-124.0-0.0","97542198","wem/bandit_either_2","A3G2NVZWJQH4YH","either","8","625","","","","","","","0","0","1","0.2817484998","","0.4","0.8","0.6","0.2","","","","","0.4196907627","0.2817484998","0.02310127573","0.4131477378","","","","","","","","74","J","1","","","84","main_expt"
"","bandit","164","741957","0.0-125.0-0.0","97542198","wem/bandit_either_2","A3G2NVZWJQH4YH","either","8","627","","","","","","","0","0","1","0.3074775227","","0.4","0.8","0.6","0.2","","","","","0.435633498","0.3074775227","0.02639065846","0.3889697292","","","","","","","","74","J","1","","","85","main_expt"
"","bandit","165","744174","0.0-126.0-0.0","97542198","wem/bandit_either_2","A3G2NVZWJQH4YH","either","8","668","","","","","","","0","0","1","","0.01746441632","0.4","0.8","0.6","0.2","0.4322222521","0.2717847629","0.01746441632","0.3885636443","","","","","","","","","","","","75","K","2","","","86","main_expt"
"","bandit","166","746895","0.0-127.0-0.0","97542198","wem/bandit_either_2","A3G2NVZWJQH4YH","either","8","1180","","","","","","","0","0","1","","0.4028282504","0.4","0.8","0.6","0.2","0.4476119451","0.2183858348","0.01256144444","0.4028282504","","","","","","","","","","","","76","L","3","","","87","main_expt"
"","bandit","167","749716","0.0-128.0-0.0","97542198","wem/bandit_either_2","A3G2NVZWJQH4YH","either","8","1279","","","","","","","0","0","1","","0.4306890759","0.4","0.8","0.6","0.2","0.4073123198","0.2054961256","0.01178158386","0.4306890759","","","","","","","","","","","","76","L","3","","","88","main_expt"
"","bandit","168","751853","0.0-129.0-0.0","97542198","wem/bandit_either_2","A3G2NVZWJQH4YH","either","8","602","","","","","","","0","0","1","0.008722555822","","0.4","0.8","0.6","0.2","","","","","0.3862301724","0.1452714398","0.008722555822","0.4103738654","","","","","","","","75","K","2","","","89","main_expt"
"","bandit","169","753993","0.0-130.0-0.0","97542198","wem/bandit_either_2","A3G2NVZWJQH4YH","either","8","603","","","","","","","0","0","1","0.1077779513","","0.4","0.8","0.6","0.2","","","","","0.3596745144","0.1077779513","0.008232471735","0.3980827974","","","","","","","","74","J","1","","","90","main_expt"
"","bandit","170","756658","0.0-131.0-0.0","97542198","wem/bandit_either_2","A3G2NVZWJQH4YH","either","8","1094","","","","","","","0","0","1","","0.1308407065","0.4","0.8","0.6","0.2","0.3082854458","0.1308407065","0.01249180717","0.4040531024","","","","","","","","","","","","74","J","1","","","91","main_expt"
"","bandit","171","758845","0.0-132.0-0.0","97542198","wem/bandit_either_2","A3G2NVZWJQH4YH","either","8","600","","","","","","","1","0","0","0.312225492","","0.4","0.8","0.6","0.2","","","","","0.312225492","0.1652322036","0.01470986316","0.3462944796","","","","","","","","72","H","0","img/none_selected.jpg","","92","main_expt"
"","bandit","172","761112","0.0-133.0-0.0","97542198","wem/bandit_either_2","A3G2NVZWJQH4YH","either","8","700","","","","","","","0","0","1","","0.3671658277","0.4","0.8","0.6","0.2","0.3671658277","0.1344678182","0.02655281846","0.3411451966","","","","","","","","","","","","72","H","0","img/none_selected.jpg","","93","main_expt"
"","bandit","173","763198","0.0-134.0-0.0","97542198","wem/bandit_either_2","A3G2NVZWJQH4YH","either","8","542","","","","","","","0","0","1","","0.3401731108","0.4","0.8","0.6","0.2","0.3401731108","0.1301314301","0.02575246025","0.3384154489","","","","","","","","","","","","72","H","0","img/none_selected.jpg","","94","main_expt"
"","bandit","174","765352","0.0-135.0-0.0","97542198","wem/bandit_either_2","A3G2NVZWJQH4YH","either","8","615","","","","","","","0","0","1","","0.3413923724","0.4","0.8","0.6","0.2","0.3413923724","0.1746055711","0.02262355665","0.3126988266","","","","","","","","","","","","72","H","0","img/none_selected.jpg","","95","main_expt"
"","bandit","175","767566","0.0-136.0-0.0","97542198","wem/bandit_either_2","A3G2NVZWJQH4YH","either","8","633","","","","","","","0","0","1","0.1994244555","","0.4","0.8","0.6","0.2","","","","","0.3570420485","0.1994244555","0.02047181149","0.3800019137","","","","","","","","74","J","1","","","96","main_expt"
"","bandit","176","769929","0.0-137.0-0.0","97542198","wem/bandit_either_2","A3G2NVZWJQH4YH","either","8","610","","","","","","","0","0","1","0.1834602947","","0.4","0.8","0.6","0.2","","","","","0.3435474977","0.1834602947","0.0207754381","0.3328121005","","","","","","","","74","J","1","","","97","main_expt"
"","bandit","177","771593","0.0-138.0-0.0","97542198","wem/bandit_either_2","A3G2NVZWJQH4YH","either","8","4","","","","","","","0","0","1","0.1719221531","","0.4","0.8","0.6","0.2","","","","","0.3614714926","0.1719221531","0.02955834597","0.332228596","","","","","","","","74","J","1","","","98","main_expt"
"","bandit","178","774182","0.0-139.0-0.0","97542198","wem/bandit_either_2","A3G2NVZWJQH4YH","either","8","1017","","","","","","","0","0","1","0.1183399241","","0.4","0.8","0.6","0.2","","","","","0.3176405447","0.1183399241","0.0383131093","0.2843854285","","","","","","","","74","J","1","","","99","main_expt"
"","bandit","179","776320","0.0-140.0-0.0","97542198","wem/bandit_either_2","A3G2NVZWJQH4YH","either","8","603","","","","","","","0","0","1","","0.3586553183","0.4","0.8","0.6","0.2","0.3586553183","0.1558635017","0.03580757471","0.309751149","","","","","","","","","","","","72","H","0","img/none_selected.jpg","","100","main_expt"
"","bandit","180","778658","0.0-141.0-0.0","97542198","wem/bandit_either_2","A3G2NVZWJQH4YH","either","8","799","","","","","","","0","1","0","","0.2951503345","0.4","0.8","0.6","0.2","0.2951503345","0.1389665978","0.04899620691","0.2993195944","","","","","","","","","","","","72","H","0","img/none_selected.jpg","","101","main_expt"
"","bandit","181","781138","0.0-142.0-0.0","97542198","wem/bandit_either_2","A3G2NVZWJQH4YH","either","8","946","","","","","","","0","0","1","","0.2998391809","0.4","0.8","0.6","0.2","0.2998391809","0.1377203561","0.08055650644","0.3551890872","","","","","","","","","","","","72","H","0","img/none_selected.jpg","","102","main_expt"
"","bandit","182","783486","0.0-143.0-0.0","97542198","wem/bandit_either_2","A3G2NVZWJQH4YH","either","8","793","","","","","","","0","1","0","","0.2791823827","0.4","0.8","0.6","0.2","0.2791823827","0.1285548106","0.1040447627","0.3148404956","","","","","","","","","","","","72","H","0","img/none_selected.jpg","","103","main_expt"
"","bandit","183","785734","0.0-144.0-0.0","97542198","wem/bandit_either_2","A3G2NVZWJQH4YH","either","8","703","","","","","","","1","0","0","0.3382769334","","0.4","0.8","0.6","0.2","","","","","0.3382769334","0.1555523735","0.1143547335","0.3286912191","","","","","","","","72","H","0","img/none_selected.jpg","","104","main_expt"
"","bandit","184","788043","0.0-145.0-0.0","97542198","wem/bandit_either_2","A3G2NVZWJQH4YH","either","8","728","","","","","","","0","0","1","","0.3339697125","0.4","0.8","0.6","0.2","0.3339697125","0.1775592141","0.1487676438","0.298340497","","","","","","","","","","","","72","H","0","img/none_selected.jpg","","105","main_expt"
"","bandit","185","790207","0.0-146.0-0.0","97542198","wem/bandit_either_2","A3G2NVZWJQH4YH","either","8","625","","","","","","","0","0","1","0.3124129253","","0.4","0.8","0.6","0.2","","","","","0.3124129253","0.2263451353","0.152088545","0.3504464386","","","","","","","","72","H","0","img/none_selected.jpg","","106","main_expt"
"","bandit","186","792838","0.0-147.0-0.0","97542198","wem/bandit_either_2","A3G2NVZWJQH4YH","either","8","1085","","","","","","","0","0","1","","0.3400683723","0.4","0.8","0.6","0.2","0.3400683723","0.1679769802","0.2406734145","0.3510410077","","","","","","","","","","","","72","H","0","img/none_selected.jpg","","107","main_expt"
"","bandit","187","794980","0.0-148.0-0.0","97542198","wem/bandit_either_2","A3G2NVZWJQH4YH","either","8","598","","","","","","","0","0","1","0.1999870147","","0.4","0.8","0.6","0.2","","","","","0.3557340834","0.1999870147","0.3048040024","0.3282766846","","","","","","","","74","J","1","","","108","main_expt"
"","bandit","188","797154","0.0-149.0-0.0","97542198","wem/bandit_either_2","A3G2NVZWJQH4YH","either","8","608","","","","","","","0","1","0","","0.208992856","0.4","0.8","0.6","0.2","0.3846418901","0.208992856","0.3418503096","0.3561186451","","","","","","","","","","","","74","J","1","","","109","main_expt"
"","bandit","189","799328","0.0-150.0-0.0","97542198","wem/bandit_either_2","A3G2NVZWJQH4YH","either","8","636","","","","","","","0","1","0","","0.1716040471","0.4","0.8","0.6","0.2","0.4057962062","0.1716040471","0.3198501315","0.3576445865","","","","","","","","","","","","74","J","1","","","110","main_expt"
"","bandit","190","801607","0.0-151.0-0.0","97542198","wem/bandit_either_2","A3G2NVZWJQH4YH","either","8","738","","","","","","","0","0","1","0.08984071331","","0.4","0.8","0.6","0.2","","","","","0.3692451483","0.08984071331","0.3681534847","0.3377543854","","","","","","","","74","J","1","","","111","main_expt"
"","bandit","191","803576","0.0-152.0-0.0","97542198","wem/bandit_either_2","A3G2NVZWJQH4YH","either","8","433","","","","","","","0","0","1","0.1243463141","","0.4","0.8","0.6","0.2","","","","","0.3577317973","0.1243463141","0.3757830796","0.286234052","","","","","","","","74","J","1","","","112","main_expt"
"","bandit","192","805764","0.0-153.0-0.0","97542198","wem/bandit_either_2","A3G2NVZWJQH4YH","either","8","641","","","","","","","0","0","1","","0.1433440675","0.4","0.8","0.6","0.2","0.3328808086","0.1433440675","0.3838999828","0.1932674395","","","","","","","","","","","","74","J","1","","","113","main_expt"
"","bandit","193","807977","0.0-154.0-0.0","97542198","wem/bandit_either_2","A3G2NVZWJQH4YH","either","8","678","","","","","","","0","0","1","","0.3416979579","0.4","0.8","0.6","0.2","0.3416979579","0.1510662198","0.4157938717","0.2403040534","","","","","","","","","","","","72","H","0","img/none_selected.jpg","","114","main_expt"
"","bandit","194","810237","0.0-155.0-0.0","97542198","wem/bandit_either_2","A3G2NVZWJQH4YH","either","8","713","","","","","","","0","0","1","0.3377137281","","0.4","0.8","0.6","0.2","","","","","0.3377137281","0.09845245139","0.4055870595","0.254937398","","","","","","","","72","H","0","img/none_selected.jpg","","115","main_expt"
"","bandit","195","812568","0.0-156.0-0.0","97542198","wem/bandit_either_2","A3G2NVZWJQH4YH","either","8","774","","","","","","","0","0","1","","0.3039448029","0.4","0.8","0.6","0.2","0.3039448029","0.107393795","0.4161015278","0.2605063941","","","","","","","","","","","","72","H","0","img/none_selected.jpg","","116","main_expt"
"","bandit","196","815530","0.0-157.0-0.0","97542198","wem/bandit_either_2","A3G2NVZWJQH4YH","either","8","1407","","","","","","","0","0","1","0.07879800556","","0.4","0.8","0.6","0.2","","","","","0.2974336912","0.07879800556","0.414877819","0.2161328783","","","","","","","","74","J","1","","","117","main_expt"
"","bandit","197","817760","0.0-158.0-0.0","97542198","wem/bandit_either_2","A3G2NVZWJQH4YH","either","8","685","","","","","","","0","0","1","0.08383735875","","0.4","0.8","0.6","0.2","","","","","0.2651867246","0.08383735875","0.3968259953","0.1931197841","","","","","","","","74","J","1","","","118","main_expt"
"","bandit","198","819889","0.0-159.0-0.0","97542198","wem/bandit_either_2","A3G2NVZWJQH4YH","either","8","597","","","","","","","1","0","0","0.1392474383","","0.4","0.8","0.6","0.2","","","","","0.3131666206","0.1392474383","0.4198241006","0.1638183597","","","","","","","","74","J","1","","","119","main_expt"
"","bandit","199","822314","0.0-160.0-0.0","97542198","wem/bandit_either_2","A3G2NVZWJQH4YH","either","8","888","","","","","","","0","0","1","0.1649404926","","0.4","0.8","0.6","0.2","","","","","0.358829095","0.1649404926","0.4286088018","0.1893282748","","","","","","","","74","J","1","","","120","main_expt"
"","bandit","200","824416","0.0-161.0-0.0","97542198","wem/bandit_either_2","A3G2NVZWJQH4YH","either","8","530","","","","","","","0","0","1","0.1764152442","","0.4","0.8","0.6","0.2","","","","","0.3189860171","0.1764152442","0.4253829576","0.2290368179","","","","","","","","74","J","1","","","121","main_expt"
"","bandit","201","826391","0.0-162.0-0.0","97542198","wem/bandit_either_2","A3G2NVZWJQH4YH","either","8","259","","","","","","","0","0","1","0.2092397698","","0.4","0.8","0.6","0.2","","","","","0.3011672979","0.2092397698","0.4235175979","0.2445441383","","","","","","","","74","J","1","","","122","main_expt"
"","bandit","202","828773","0.0-163.0-0.0","97542198","wem/bandit_either_2","A3G2NVZWJQH4YH","either","8","816","","","","","","","0","0","1","0.3037948063","","0.4","0.8","0.6","0.2","","","","","0.3037948063","0.1884058447","0.4182090072","0.2091075756","","","","","","","","72","H","0","img/none_selected.jpg","","123","main_expt"
"","bandit","203","832000","0.0-164.0-0.0","97542198","wem/bandit_either_2","A3G2NVZWJQH4YH","either","8","1693","","","","","","","0","0","1","0.4356016004","","0.4","0.8","0.6","0.2","","","","","0.2446200253","0.1876417206","0.4356016004","0.2216111921","","","","","","","","75","K","2","","","124","main_expt"
"","bandit","204","834332","0.0-165.0-0.0","97542198","wem/bandit_either_2","A3G2NVZWJQH4YH","either","8","775","","","","","","","1","0","0","0.403953628","","0.4","0.8","0.6","0.2","","","","","0.2464628806","0.1890564589","0.403953628","0.1622020501","","","","","","","","75","K","2","","","125","main_expt"
"","bandit","205","836600","0.0-166.0-0.0","97542198","wem/bandit_either_2","A3G2NVZWJQH4YH","either","8","722","","","","","","","0","0","1","","0.4020675328","0.4","0.8","0.6","0.2","0.281169445","0.1659850756","0.4020675328","0.173533554","","","","","","","","","","","","75","K","2","","","126","main_expt"
"","bandit","206","838869","0.0-167.0-0.0","97542198","wem/bandit_either_2","A3G2NVZWJQH4YH","either","8","725","","","","","","","0","0","1","0.338443572","","0.4","0.8","0.6","0.2","","","","","0.290080064","0.2006343121","0.338443572","0.189829559","","","","","","","","75","K","2","","","127","main_expt"
"","bandit","207","841674","0.0-168.0-0.0","97542198","wem/bandit_either_2","A3G2NVZWJQH4YH","either","8","1217","","","","","","","0","0","1","0.2637444583","","0.4","0.8","0.6","0.2","","","","","0.3280989756","0.2637444583","0.323123489","0.1764696366","","","","","","","","74","J","1","","","128","main_expt"
"","bandit","208","844339","0.0-169.0-0.0","97542198","wem/bandit_either_2","A3G2NVZWJQH4YH","either","8","1123","","","","","","","0","1","0","","0.3052704822","0.4","0.8","0.6","0.2","0.3052704822","0.2783394686","0.3615310162","0.172709194","","","","","","","","","","","","72","H","0","img/none_selected.jpg","","129","main_expt"
"","bandit","209","846650","0.0-170.0-0.0","97542198","wem/bandit_either_2","A3G2NVZWJQH4YH","either","8","779","","","","","","","0","1","0","","0.2674474002","0.4","0.8","0.6","0.2","0.314718742","0.2674474002","0.3667448715","0.1407460215","","","","","","","","","","","","74","J","1","","","130","main_expt"
"","bandit","210","849002","0.0-171.0-0.0","97542198","wem/bandit_either_2","A3G2NVZWJQH4YH","either","8","821","","","","","","","0","0","1","0.341745941","","0.4","0.8","0.6","0.2","","","","","0.2492347367","0.2122920843","0.341745941","0.143826562","","","","","","","","75","K","2","","","131","main_expt"
"","bandit","211","851264","0.0-172.0-0.0","97542198","wem/bandit_either_2","A3G2NVZWJQH4YH","either","8","708","","","","","","","1","0","0","0.2615325727","","0.4","0.8","0.6","0.2","","","","","0.2495736985","0.1969346152","0.2615325727","0.1862992663","","","","","","","","75","K","2","","","132","main_expt"
"","bandit","212","854572","0.0-173.0-0.0","97542198","wem/bandit_either_2","A3G2NVZWJQH4YH","either","8","1760","","","","","","","0","0","1","0.1390835973","","0.4","0.8","0.6","0.2","","","","","0.2487120015","0.1390835973","0.27905624","0.185648564","","","","","","","","74","J","1","","","133","main_expt"
"","bandit","213","856965","0.0-174.0-0.0","97542198","wem/bandit_either_2","A3G2NVZWJQH4YH","either","8","857","","","","","","","1","0","0","0.1437640715","","0.4","0.8","0.6","0.2","","","","","0.3239420422","0.1437640715","0.2751163123","0.2002276213","","","","","","","","74","J","1","","","134","main_expt"
"","bandit","214","859170","0.0-175.0-0.0","97542198","wem/bandit_either_2","A3G2NVZWJQH4YH","either","8","672","","","","","","","0","0","1","0.3903525049","","0.4","0.8","0.6","0.2","","","","","0.3903525049","0.1175999949","0.2586507773","0.2474552851","","","","","","","","72","H","0","img/none_selected.jpg","","135","main_expt"
"","bandit","215","863665","0.0-176.0-0.0","97542198","wem/bandit_either_2","A3G2NVZWJQH4YH","either","8","2956","","","","","","","0","0","1","","0.3703049055","0.4","0.8","0.6","0.2","0.3703049055","0.1108499649","0.2385277364","0.2454982057","","","","","","","","","","","","72","H","0","img/none_selected.jpg","","136","main_expt"
"","bandit","216","866018","0.0-177.0-0.0","97542198","wem/bandit_either_2","A3G2NVZWJQH4YH","either","8","809","","","","","","","0","0","1","","0.3657944308","0.4","0.8","0.6","0.2","0.3657944308","0.1208727618","0.1935782534","0.2708690816","","","","","","","","","","","","72","H","0","img/none_selected.jpg","","137","main_expt"
"","bandit","217","868369","0.0-178.0-0.0","97542198","wem/bandit_either_2","A3G2NVZWJQH4YH","either","8","818","","","","","","","0","0","1","","0.1098805161","0.4","0.8","0.6","0.2","0.3452946514","0.1098805161","0.14087624","0.2219039101","","","","","","","","","","","","74","J","1","","","138","main_expt"
"","bandit","218","870559","0.0-179.0-0.0","97542198","wem/bandit_either_2","A3G2NVZWJQH4YH","either","8","641","","","","","","","0","0","1","0.1359731218","","0.4","0.8","0.6","0.2","","","","","0.3225052804","0.1359731218","0.1340930794","0.2485571535","","","","","","","","74","J","1","","","139","main_expt"
"","bandit","219","872777","0.0-180.0-0.0","97542198","wem/bandit_either_2","A3G2NVZWJQH4YH","either","8","621","","","","","","","0","0","1","","0.1419248406","0.4","0.8","0.6","0.2","0.2997250911","0.1419248406","0.1170750994","0.2605640439","","","","","","","","","","","","74","J","1","","","140","main_expt"
"","bandit","220","874875","0.0-181.0-0.0","97542198","wem/bandit_either_2","A3G2NVZWJQH4YH","either","8","528","","","","","","","0","0","1","","0.1316830279","0.4","0.8","0.6","0.2","0.311933389","0.1269577117","0.1316830279","0.2260680923","","","","","","","","","","","","75","K","2","","","141","main_expt"
"","bandit","221","877137","0.0-182.0-0.0","97542198","wem/bandit_either_2","A3G2NVZWJQH4YH","either","8","728","","","","","","","0","0","1","","0.09490366034","0.4","0.8","0.6","0.2","0.3442568425","0.1073819056","0.09490366034","0.2354846983","","","","","","","","","","","","75","K","2","","","142","main_expt"
"","bandit","222","879211","0.0-183.0-0.0","97542198","wem/bandit_either_2","A3G2NVZWJQH4YH","either","8","522","","","","","","","1","0","0","0.1246024154","","0.4","0.8","0.6","0.2","","","","","0.3117203045","0.1152767294","0.1246024154","0.2089358464","","","","","","","","75","K","2","","","143","main_expt"
"","bandit","223","881374","0.0-184.0-0.0","97542198","wem/bandit_either_2","A3G2NVZWJQH4YH","either","8","619","","","","","","","0","0","1","","0.1179874238","0.4","0.8","0.6","0.2","0.3080771123","0.1317444946","0.1179874238","0.1844607625","","","","","","","","","","","","75","K","2","","","144","main_expt"
"","bandit","224","883516","0.0-185.0-0.0","97542198","wem/bandit_either_2","A3G2NVZWJQH4YH","either","8","602","","","","","","","0","0","1","0.1211842963","","0.4","0.8","0.6","0.2","","","","","0.3146876691","0.1058600218","0.1211842963","0.1940384654","","","","","","","","75","K","2","","","145","main_expt"
"","bandit","225","885793","0.0-186.0-0.0","97542198","wem/bandit_either_2","A3G2NVZWJQH4YH","either","8","734","","","","","","","0","0","1","","0.06212451067","0.4","0.8","0.6","0.2","0.3526806189","0.1862633901","0.06212451067","0.2532022814","","","","","","","","","","","","75","K","2","","","146","main_expt"
"","bandit","226","888788","0.0-187.0-0.0","97542198","wem/bandit_either_2","A3G2NVZWJQH4YH","either","8","1456","","","","","","","0","0","1","","0.272856749","0.4","0.8","0.6","0.2","0.3859334927","0.1944793183","0.05826033827","0.272856749","","","","","","","","","","","","76","L","3","","","147","main_expt"
"","bandit","227","890837","0.0-188.0-0.0","97542198","wem/bandit_either_2","A3G2NVZWJQH4YH","either","8","504","","","","","","","0","1","0","","0.2441255329","0.4","0.8","0.6","0.2","0.4089873985","0.1572605535","0.04847575149","0.2441255329","","","","","","","","","","","","76","L","3","","","148","main_expt"
"","bandit","228","893340","0.0-189.0-0.0","97542198","wem/bandit_either_2","A3G2NVZWJQH4YH","either","8","770","","","","","","","0","1","0","","0.2304797635","0.4","0.8","0.6","0.2","0.3317076441","0.1632070519","0.07397138717","0.2304797635","","","","","","","","","","","","76","L","3","","","149","main_expt"
"","bandit","229","895501","0.0-190.0-0.0","97542198","wem/bandit_either_2","A3G2NVZWJQH4YH","either","8","628","","","","","","","0","0","1","0.2645424191","","0.4","0.8","0.6","0.2","","","","","0.2514439341","0.2162169298","0.1178437277","0.2645424191","","","","","","","","76","L","3","","","150","main_expt"
"","bandit","230","897613","0.0-191.0-0.0","97542198","wem/bandit_either_2","A3G2NVZWJQH4YH","either","8","570","","","","","","","0","0","1","0.2919476008","","0.4","0.8","0.6","0.2","","","","","0.2209696772","0.2806681102","0.1116740648","0.2919476008","","","","","","","","76","L","3","","","151","main_expt"
"","bandit","231","899663","0.0-192.0-0.0","97542198","wem/bandit_either_2","A3G2NVZWJQH4YH","either","8","500","","","","","","","0","0","1","","0.09681320826","0.4","0.8","0.6","0.2","0.2004300668","0.25223767","0.09681320826","0.3004198658","","","","","","","","","","","","75","K","2","","","152","main_expt"
"","bandit","232","902140","0.0-193.0-0.0","97542198","wem/bandit_either_2","A3G2NVZWJQH4YH","either","8","792","","","","","","","0","0","1","","0.2910243242","0.4","0.8","0.6","0.2","0.1803159607","0.2259503681","0.1162344283","0.2910243242","","","","","","","","","","","","76","L","3","","","153","main_expt"
"","bandit","233","904338","0.0-194.0-0.0","97542198","wem/bandit_either_2","A3G2NVZWJQH4YH","either","8","662","","","","","","","0","0","1","","0.2858680692","0.4","0.8","0.6","0.2","0.1793353988","0.2520515582","0.1441765144","0.2858680692","","","","","","","","","","","","76","L","3","","","154","main_expt"
"","bandit","234","906620","0.0-195.0-0.0","97542198","wem/bandit_either_2","A3G2NVZWJQH4YH","either","8","739","","","","","","","0","0","1","0.276906037","","0.4","0.8","0.6","0.2","","","","","0.175125938","0.246895917","0.1506434262","0.276906037","","","","","","","","76","L","3","","","155","main_expt"
"","bandit","235","908972","0.0-196.0-0.0","97542198","wem/bandit_either_2","A3G2NVZWJQH4YH","either","8","813","","","","","","","0","0","1","0.2067462234","","0.4","0.8","0.6","0.2","","","","","0.19004546","0.2067462234","0.1691825384","0.3087514371","","","","","","","","74","J","1","","","156","main_expt"
"","bandit","236","911164","0.0-197.0-0.0","97542198","wem/bandit_either_2","A3G2NVZWJQH4YH","either","8","615","","","","","","","0","0","1","0.1736677602","","0.4","0.8","0.6","0.2","","","","","0.1538528063","0.1736677602","0.1465267651","0.3400763937","","","","","","","","74","J","1","","","157","main_expt"
"","bandit","237","913323","0.0-198.0-0.0","97542198","wem/bandit_either_2","A3G2NVZWJQH4YH","either","8","615","","","","","","","0","1","0","","0.2437422656","0.4","0.8","0.6","0.2","0.1624419901","0.2437422656","0.1517260174","0.3388441277","","","","","","","","","","","","74","J","1","","","158","main_expt"
"","bandit","238","916028","0.0-199.0-0.0","97542198","wem/bandit_either_2","A3G2NVZWJQH4YH","either","8","1040","","","","","","","0","0","1","0.1749682205","","0.4","0.8","0.6","0.2","","","","","0.1749682205","0.2627628197","0.143579764","0.3496437485","","","","","","","","72","H","0","img/none_selected.jpg","","159","main_expt"
"","bandit","239","918295","0.0-200.0-0.0","97542198","wem/bandit_either_2","A3G2NVZWJQH4YH","either","8","702","","","","","","","0","0","1","","0.2227833177","0.4","0.8","0.6","0.2","0.2227833177","0.2532756584","0.1701049762","0.3347491532","","","","","","","","","","","","72","H","0","img/none_selected.jpg","","160","main_expt"
"","bandit","240","920350","0.0-201.0-0.0","97542198","wem/bandit_either_2","A3G2NVZWJQH4YH","either","8","492","","","","","","","1","0","0","0.1616195486","","0.4","0.8","0.6","0.2","","","","","0.1616195486","0.2846030245","0.1596038406","0.3036625801","","","","","","","","72","H","0","img/none_selected.jpg","","161","main_expt"
"","bandit","241","923437","0.0-202.0-0.0","97542198","wem/bandit_either_2","A3G2NVZWJQH4YH","either","8","1520","","","","","","","0","0","1","0.1186271452","","0.4","0.8","0.6","0.2","","","","","0.1440802068","0.2480450928","0.1186271452","0.2735804545","","","","","","","","75","K","2","","","162","main_expt"
"","bandit","242","925639","0.0-203.0-0.0","97542198","wem/bandit_either_2","A3G2NVZWJQH4YH","either","8","648","","","","","","","0","0","1","","0.1460830151","0.4","0.8","0.6","0.2","0.1349250059","0.3217860246","0.1460830151","0.2219233964","","","","","","","","","","","","75","K","2","","","163","main_expt"
"","bandit","243","928141","0.0-204.0-0.0","97542198","wem/bandit_either_2","A3G2NVZWJQH4YH","either","8","882","","","","","","","0","0","1","","0.2489701673","0.4","0.8","0.6","0.2","0.1482528248","0.3528623486","0.1924179555","0.2489701673","","","","","","","","","","","","76","L","3","","","164","main_expt"
"","bandit","244","930233","0.0-205.0-0.0","97542198","wem/bandit_either_2","A3G2NVZWJQH4YH","either","8","482","","","","","","","0","0","1","0.2424219606","","0.4","0.8","0.6","0.2","","","","","0.1444116863","0.3113737792","0.1909643941","0.2424219606","","","","","","","","76","L","3","","","165","main_expt"
"","bandit","245","932513","0.0-206.0-0.0","97542198","wem/bandit_either_2","A3G2NVZWJQH4YH","either","8","679","","","","","","","0","0","1","0.1899742571","","0.4","0.8","0.6","0.2","","","","","0.1621449425","0.2820045276","0.1917506842","0.1899742571","","","","","","","","76","L","3","","","166","main_expt"
"","bandit","246","934705","0.0-207.0-0.0","97542198","wem/bandit_either_2","A3G2NVZWJQH4YH","either","8","641","","","","","","","0","0","1","","0.2298880826","0.4","0.8","0.6","0.2","0.1695256229","0.2539690707","0.2238056512","0.2298880826","","","","","","","","","","","","76","L","3","","","167","main_expt"
"","bandit","247","937101","0.0-208.0-0.0","97542198","wem/bandit_either_2","A3G2NVZWJQH4YH","either","8","856","","","","","","","0","0","1","","0.2132240521","0.4","0.8","0.6","0.2","0.1712445676","0.2177565821","0.2132240521","0.241220494","","","","","","","","","","","","75","K","2","","","168","main_expt"
"","bandit","248","940067","0.0-209.0-0.0","97542198","wem/bandit_either_2","A3G2NVZWJQH4YH","either","8","1429","","","","","","","0","0","1","","0.183214586","0.4","0.8","0.6","0.2","0.191079104","0.183214586","0.1363713625","0.2113351254","","","","","","","","","","","","74","J","1","","","169","main_expt"
"","bandit","249","942323","0.0-210.0-0.0","97542198","wem/bandit_either_2","A3G2NVZWJQH4YH","either","8","713","","","","","","","1","0","0","0.2227666825","","0.4","0.8","0.6","0.2","","","","","0.2227666825","0.1757282231","0.2007690262","0.2224744884","","","","","","","","72","H","0","img/none_selected.jpg","","170","main_expt"
"","bandit","250","945395","0.0-211.0-0.0","97542198","wem/bandit_either_2","A3G2NVZWJQH4YH","either","8","1514","","","","","","","0","0","1","0.2719914804","","0.4","0.8","0.6","0.2","","","","","0.2719914804","0.1679331046","0.1238998316","0.262177911","","","","","","","","72","H","0","img/none_selected.jpg","","171","main_expt"
"","bandit","251","948630","0.0-212.0-0.0","97542198","wem/bandit_either_2","A3G2NVZWJQH4YH","either","8","1696","","","","","","","0","0","1","0.14560319","","0.4","0.8","0.6","0.2","","","","","0.2330128459","0.14560319","0.09746419185","0.2822992514","","","","","","","","74","J","1","","","172","main_expt"
"","bandit","252","951031","0.0-213.0-0.0","97542198","wem/bandit_either_2","A3G2NVZWJQH4YH","either","8","829","","","","","","","0","0","1","0.1341549344","","0.4","0.8","0.6","0.2","","","","","0.2840251313","0.1341549344","0.1018164217","0.2545762091","","","","","","","","74","J","1","","","173","main_expt"
"","bandit","253","953364","0.0-214.0-0.0","97542198","wem/bandit_either_2","A3G2NVZWJQH4YH","either","8","739","","","","","","","0","0","1","","0.1401689619","0.4","0.8","0.6","0.2","0.2739042306","0.1471305278","0.1401689619","0.2838184637","","","","","","","","","","","","75","K","2","","","174","main_expt"
"","bandit","254","955550","0.0-215.0-0.0","97542198","wem/bandit_either_2","A3G2NVZWJQH4YH","either","8","630","","","","","","","0","0","1","0.1697524679","","0.4","0.8","0.6","0.2","","","","","0.3444735506","0.173963405","0.1697524679","0.3002790513","","","","","","","","75","K","2","","","175","main_expt"
"","bandit","255","957662","0.0-216.0-0.0","97542198","wem/bandit_either_2","A3G2NVZWJQH4YH","either","8","561","","","","","","","0","0","1","","0.3771690292","0.4","0.8","0.6","0.2","0.3223017316","0.1821857965","0.1896898672","0.3771690292","","","","","","","","","","","","76","L","3","","","176","main_expt"
"","bandit","256","959691","0.0-217.0-0.0","97542198","wem/bandit_either_2","A3G2NVZWJQH4YH","either","8","466","","","","","","","0","0","1","","0.4047809956","0.4","0.8","0.6","0.2","0.2964924158","0.1444884472","0.2441254625","0.4047809956","","","","","","","","","","","","76","L","3","","","177","main_expt"
"","bandit","257","961959","0.0-218.0-0.0","97542198","wem/bandit_either_2","A3G2NVZWJQH4YH","either","8","703","","","","","","","0","1","0","","0.4344960837","0.4","0.8","0.6","0.2","0.2780576925","0.1207783293","0.2427722412","0.4344960837","","","","","","","","","","","","76","L","3","","","178","main_expt"
"","bandit","258","964173","0.0-219.0-0.0","97542198","wem/bandit_either_2","A3G2NVZWJQH4YH","either","8","591","","","","","","","0","0","1","","0.4287912686","0.4","0.8","0.6","0.2","0.2859751729","0.111585665","0.2284650367","0.4287912686","","","","","","","","","","","","76","L","3","","","179","main_expt"
"","bandit","259","966187","0.0-220.0-0.0","97542198","wem/bandit_either_2","A3G2NVZWJQH4YH","either","8","391","","","","","","","0","1","0","","0.4294180747","0.4","0.8","0.6","0.2","0.283533164","0.06891525065","0.2694081366","0.4294180747","","","","","","","","","","","","76","L","3","","","180","main_expt"
"","bandit","260","968815","0.0-221.0-0.0","97542198","wem/bandit_either_2","A3G2NVZWJQH4YH","either","8","1064","","","","","","","1","0","0","0.3887332701","","0.4","0.8","0.6","0.2","","","","","0.2430023428","0.07407739619","0.2471628034","0.3887332701","","","","","","","","76","L","3","","","181","main_expt"
"","bandit","261","971014","0.0-222.0-0.0","97542198","wem/bandit_either_2","A3G2NVZWJQH4YH","either","8","585","","","","","","","1","0","0","0.3910635387","","0.4","0.8","0.6","0.2","","","","","0.223254837","0.07501704201","0.275372354","0.3910635387","","","","","","","","76","L","3","","","182","main_expt"
"","bandit","262","972563","0.0-223.0-0.0","97542198","wem/bandit_either_2","A3G2NVZWJQH4YH","either","8","2","","","","","","","0","0","1","0.3957792538","","0.4","0.8","0.6","0.2","","","","","0.2274286797","0.09354103142","0.2378950907","0.3957792538","","","","","","","","76","L","3","","","183","main_expt"
"","bandit","263","975020","0.0-224.0-0.0","97542198","wem/bandit_either_2","A3G2NVZWJQH4YH","either","8","803","","","","","","","0","0","1","0.3777829694","","0.4","0.8","0.6","0.2","","","","","0.2485964068","0.06673830493","0.2611999536","0.3777829694","","","","","","","","76","L","3","","","184","main_expt"
"","bandit","264","978213","0.0-225.0-0.0","97542198","wem/bandit_either_2","A3G2NVZWJQH4YH","either","8","1523","","","","","","","0","0","1","0.2799245071","","0.4","0.8","0.6","0.2","","","","","0.2080173303","0.08617836821","0.2799245071","0.4130939835","","","","","","","","75","K","2","","","185","main_expt"
"","bandit","265","980385","0.0-226.0-0.0","97542198","wem/bandit_either_2","A3G2NVZWJQH4YH","either","8","614","","","","","","","0","0","1","0.2275386122","","0.4","0.8","0.6","0.2","","","","","0.2538883687","0.05054014018","0.2275386122","0.376930599","","","","","","","","75","K","2","","","186","main_expt"
"","bandit","266","982839","0.0-227.0-0.0","97542198","wem/bandit_either_2","A3G2NVZWJQH4YH","either","8","900","","","","","","","0","0","1","0.1101456656","","0.4","0.8","0.6","0.2","","","","","0.2267652077","0.1101456656","0.2558518805","0.3934592684","","","","","","","","74","J","1","","","187","main_expt"
"","bandit","267","984724","0.0-228.0-0.0","97542198","wem/bandit_either_2","A3G2NVZWJQH4YH","either","8","10","","","","","","","0","0","1","","0.1076418148","0.4","0.8","0.6","0.2","0.2583789709","0.1076418148","0.2757393749","0.4086060551","","","","","","","","","","","","74","J","1","","","188","main_expt"
"","bandit","268","988261","0.0-229.0-0.0","97542198","wem/bandit_either_2","A3G2NVZWJQH4YH","either","8","1994","","","","","","","0","0","1","","0.2329768584","0.4","0.8","0.6","0.2","0.2329768584","0.1230456027","0.3326758055","0.447145564","","","","","","","","","","","","72","H","0","img/none_selected.jpg","","189","main_expt"
"","bandit","269","990350","0.0-230.0-0.0","97542198","wem/bandit_either_2","A3G2NVZWJQH4YH","either","8","528","","","","","","","0","0","1","","0.2002510669","0.4","0.8","0.6","0.2","0.2002510669","0.1872873117","0.332927569","0.386091063","","","","","","","","","","","","72","H","0","img/none_selected.jpg","","190","main_expt"
"","bandit","270","992792","0.0-231.0-0.0","97542198","wem/bandit_either_2","A3G2NVZWJQH4YH","either","8","834","","","","","","","0","1","0","","0.4221145333","0.4","0.8","0.6","0.2","0.2182600554","0.1413073252","0.3859199101","0.4221145333","","","","","","","","","","","","76","L","3","","","191","main_expt"
"","bandit","271","994958","0.0-232.0-0.0","97542198","wem/bandit_either_2","A3G2NVZWJQH4YH","either","8","591","","","","","","","0","1","0","","0.3913199708","0.4","0.8","0.6","0.2","0.2681613901","0.1868627967","0.392668484","0.3913199708","","","","","","","","","","","","76","L","3","","","192","main_expt"
"","bandit","272","997292","0.0-233.0-0.0","97542198","wem/bandit_either_2","A3G2NVZWJQH4YH","either","8","663","","","","","","","0","0","1","","0.4013624592","0.4","0.8","0.6","0.2","0.3035027483","0.2312719224","0.3789843676","0.4013624592","","","","","","","","","","","","76","L","3","","","193","main_expt"
"","bandit","273","1000074","0.0-234.0-0.0","97542198","wem/bandit_either_2","A3G2NVZWJQH4YH","either","8","1206","","","","","","","0","1","0","","0.3668237699","0.4","0.8","0.6","0.2","0.275531754","0.2585201677","0.3689216281","0.3668237699","","","","","","","","","","","","76","L","3","","","194","main_expt"
"","bandit","274","1002428","0.0-235.0-0.0","97542198","wem/bandit_either_2","A3G2NVZWJQH4YH","either","8","672","","","","","","","0","0","1","","0.3856266791","0.4","0.8","0.6","0.2","0.2716401532","0.2786104129","0.4136905162","0.3856266791","","","","","","","","","","","","76","L","3","","","195","main_expt"
"","bandit","275","1004687","0.0-236.0-0.0","97542198","wem/bandit_either_2","A3G2NVZWJQH4YH","either","8","673","","","","","","","0","0","1","","0.3702439493","0.4","0.8","0.6","0.2","0.2814611543","0.2407834285","0.4258575101","0.3702439493","","","","","","","","","","","","76","L","3","","","196","main_expt"
"","bandit","276","1007045","0.0-237.0-0.0","97542198","wem/bandit_either_2","A3G2NVZWJQH4YH","either","8","815","","","","","","","0","1","0","","0.3665926528","0.4","0.8","0.6","0.2","0.2588010394","0.2550568011","0.3976178043","0.3665926528","","","","","","","","","","","","76","L","3","","","197","main_expt"
"","bandit","277","1009208","0.0-238.0-0.0","97542198","wem/bandit_either_2","A3G2NVZWJQH4YH","either","8","624","","","","","","","0","1","0","","0.3432124584","0.4","0.8","0.6","0.2","0.3094610495","0.3094863904","0.3802378075","0.3432124584","","","","","","","","","","","","76","L","3","","","198","main_expt"
"","bandit","278","1011219","0.0-239.0-0.0","97542198","wem/bandit_either_2","A3G2NVZWJQH4YH","either","8","465","","","","","","","0","0","1","","0.4096574544","0.4","0.8","0.6","0.2","0.3139278769","0.3012985694","0.3926800246","0.4096574544","","","","","","","","","","","","76","L","3","","","199","main_expt"
"","bandit","279","1013627","0.0-240.0-0.0","97542198","wem/bandit_either_2","A3G2NVZWJQH4YH","either","8","799","","","","","","","0","1","0","","0.3799023259","0.4","0.8","0.6","0.2","0.3459706187","0.3149132519","0.3814844917","0.3799023259","","","","","","","","","","","","76","L","3","","","200","main_expt"
"","bandit","280","1016050","0.0-241.0-0.0","97542198","wem/bandit_either_2","A3G2NVZWJQH4YH","either","8","792","","","","","","","0","1","0","","0.3513783521","0.4","0.8","0.6","0.2","0.3038365479","0.3236307962","0.3831630738","0.3513783521","","","","","","","","","","","","76","L","3","","","201","main_expt"
"","bandit","281","1017672","0.0-242.0-0.0","97542198","wem/bandit_either_2","A3G2NVZWJQH4YH","either","8","79","","","","","","","0","1","0","","0.3439351057","0.4","0.8","0.6","0.2","0.2964599608","0.3163717903","0.3957430938","0.3439351057","","","","","","","","","","","","76","L","3","","","202","main_expt"
"","bandit","282","1019728","0.0-243.0-0.0","97542198","wem/bandit_either_2","A3G2NVZWJQH4YH","either","8","506","","","","","","","0","0","1","","0.2615327891","0.4","0.8","0.6","0.2","0.280336616","0.3165936227","0.4175506619","0.2615327891","","","","","","","","","","","","76","L","3","","","203","main_expt"
"","bandit","283","1022014","0.0-244.0-0.0","97542198","wem/bandit_either_2","A3G2NVZWJQH4YH","either","8","744","","","","","","","0","0","1","","0.2211517471","0.4","0.8","0.6","0.2","0.262900641","0.3166231072","0.4356800279","0.2211517471","","","","","","","","","","","","76","L","3","","","204","main_expt"
"","bandit","284","1024216","0.0-245.0-0.0","97542198","wem/bandit_either_2","A3G2NVZWJQH4YH","either","8","614","","","","","","","0","0","1","0.1955747294","","0.4","0.8","0.6","0.2","","","","","0.3403150927","0.2983153058","0.4342993254","0.1955747294","","","","","","","","76","L","3","","","205","main_expt"
"","bandit","285","1026456","0.0-246.0-0.0","97542198","wem/bandit_either_2","A3G2NVZWJQH4YH","either","8","545","","","","","","","0","1","0","","0.4515967499","0.4","0.8","0.6","0.2","0.3407188883","0.255573156","0.4515967499","0.3137251184","","","","","","","","","","","","75","K","2","","","206","main_expt"
"","bandit","286","1028602","0.0-247.0-0.0","97542198","wem/bandit_either_2","A3G2NVZWJQH4YH","either","8","603","","","","","","","0","0","1","","0.4559700358","0.4","0.8","0.6","0.2","0.2955601217","0.2816724171","0.4559700358","0.2982459604","","","","","","","","","","","","75","K","2","","","207","main_expt"
"","bandit","287","1031881","0.0-248.0-0.0","97542198","wem/bandit_either_2","A3G2NVZWJQH4YH","either","8","1737","","","","","","","0","0","1","0.2462622089","","0.4","0.8","0.6","0.2","","","","","0.2832193826","0.2462622089","0.4711787588","0.2359404152","","","","","","","","74","J","1","","","208","main_expt"
"","bandit","288","1034211","0.0-249.0-0.0","97542198","wem/bandit_either_2","A3G2NVZWJQH4YH","either","8","783","","","","","","","0","0","1","","0.2608633631","0.4","0.8","0.6","0.2","0.25637755","0.2608633631","0.4859779177","0.2396635106","","","","","","","","","","","","74","J","1","","","209","main_expt"
"","bandit","289","1036385","0.0-250.0-0.0","97542198","wem/bandit_either_2","A3G2NVZWJQH4YH","either","8","590","","","","","","","0","0","1","0.2649708152","","0.4","0.8","0.6","0.2","","","","","0.2500912527","0.2649708152","0.4798195452","0.2320506775","","","","","","","","74","J","1","","","210","main_expt"
"","bandit","290","1038637","0.0-251.0-0.0","97542198","wem/bandit_either_2","A3G2NVZWJQH4YH","either","8","713","","","","","","","0","1","0","","0.2481129288","0.4","0.8","0.6","0.2","0.2481129288","0.2658594566","0.4754072522","0.1894847828","","","","","","","","","","","","72","H","0","img/none_selected.jpg","","211","main_expt"
"","bandit","291","1041044","0.0-252.0-0.0","97542198","wem/bandit_either_2","A3G2NVZWJQH4YH","either","8","866","","","","","","","0","1","0","","0.3192168596","0.4","0.8","0.6","0.2","0.3192168596","0.2648449814","0.4780703898","0.2330804604","","","","","","","","","","","","72","H","0","img/none_selected.jpg","","212","main_expt"
"","bandit","292","1043556","0.0-253.0-0.0","97542198","wem/bandit_either_2","A3G2NVZWJQH4YH","either","8","919","","","","","","","0","0","1","0.2361953268","","0.4","0.8","0.6","0.2","","","","","0.2361953268","0.286492297","0.4883488692","0.2484053244","","","","","","","","72","H","0","img/none_selected.jpg","","213","main_expt"
"","bandit","293","1045606","0.0-254.0-0.0","97542198","wem/bandit_either_2","A3G2NVZWJQH4YH","either","8","477","","","","","","","0","1","0","","0.2182548364","0.4","0.8","0.6","0.2","0.2308921763","0.2540339129","0.4872562331","0.2182548364","","","","","","","","","","","","76","L","3","","","214","main_expt"
"","bandit","294","1047812","0.0-255.0-0.0","97542198","wem/bandit_either_2","A3G2NVZWJQH4YH","either","8","663","","","","","","","0","0","1","","0.1824073789","0.4","0.8","0.6","0.2","0.2161033537","0.254651127","0.4749609167","0.1824073789","","","","","","","","","","","","76","L","3","","","215","main_expt"
"","bandit","295","1051487","0.0-256.0-0.0","97542198","wem/bandit_either_2","A3G2NVZWJQH4YH","either","8","1982","","","","","","","0","1","0","","0.1896756427","0.4","0.8","0.6","0.2","0.1896756427","0.3140517816","0.4798413464","0.1923730387","","","","","","","","","","","","72","H","0","img/none_selected.jpg","","216","main_expt"
"","bandit","296","1054583","0.0-257.0-0.0","97542198","wem/bandit_either_2","A3G2NVZWJQH4YH","either","8","1550","","","","","","","0","0","1","0.1724286307","","0.4","0.8","0.6","0.2","","","","","0.1724286307","0.3338676317","0.4865144435","0.2266612446","","","","","","","","72","H","0","img/none_selected.jpg","","217","main_expt"
"","bandit","297","1056668","0.0-258.0-0.0","97542198","wem/bandit_either_2","A3G2NVZWJQH4YH","either","8","515","","","","","","","0","0","1","","0.1702705737","0.4","0.8","0.6","0.2","0.161168334","0.3397001125","0.4789145001","0.1702705737","","","","","","","","","","","","76","L","3","","","218","main_expt"
"","bandit","298","1058813","0.0-259.0-0.0","97542198","wem/bandit_either_2","A3G2NVZWJQH4YH","either","8","576","","","","","","","0","0","1","0.1159766116","","0.4","0.8","0.6","0.2","","","","","0.2021763003","0.2982528089","0.4834748692","0.1159766116","","","","","","","","76","L","3","","","219","main_expt"
"","bandit","299","1060891","0.0-260.0-0.0","97542198","wem/bandit_either_2","A3G2NVZWJQH4YH","either","8","525","","","","","","","0","0","1","","0.09529473055","0.4","0.8","0.6","0.2","0.2142164272","0.2770934022","0.4722371777","0.09529473055","","","","","","","","","","","","76","L","3","","","220","main_expt"
"","bandit","300","1063828","0.0-261.0-0.0","97542198","wem/bandit_either_2","A3G2NVZWJQH4YH","either","8","1390","","","","","","","0","0","1","","0.189068297","0.4","0.8","0.6","0.2","0.189068297","0.2696770889","0.4654689219","0.09060922323","","","","","","","","","","","","72","H","0","img/none_selected.jpg","","221","main_expt"
"","bandit","301","1066146","0.0-262.0-0.0","97542198","wem/bandit_either_2","A3G2NVZWJQH4YH","either","8","762","","","","","","","0","0","1","","0.2120997892","0.4","0.8","0.6","0.2","0.2120997892","0.3103502417","0.4533789701","0.1250772464","","","","","","","","","","","","72","H","0","img/none_selected.jpg","","222","main_expt"
"","bandit","302","1068451","0.0-263.0-0.0","97542198","wem/bandit_either_2","A3G2NVZWJQH4YH","either","8","762","","","","","","","0","0","1","0.3477728299","","0.4","0.8","0.6","0.2","","","","","0.1937664477","0.3477728299","0.4473019993","0.1177235221","","","","","","","","74","J","1","","","223","main_expt"
"","bandit","303","1070683","0.0-264.0-0.0","97542198","wem/bandit_either_2","A3G2NVZWJQH4YH","either","8","606","","","","","","","0","0","1","0.3230244909","","0.4","0.8","0.6","0.2","","","","","0.2195846313","0.3230244909","0.4651086175","0.1589673504","","","","","","","","74","J","1","","","224","main_expt"
"","bandit","304","1072813","0.0-265.0-0.0","97542198","wem/bandit_either_2","A3G2NVZWJQH4YH","either","8","572","","","","","","","1","0","0","0.3641913847","","0.4","0.8","0.6","0.2","","","","","0.1973587738","0.3641913847","0.4704934375","0.1582937281","","","","","","","","74","J","1","","","225","main_expt"
"","bandit","305","1075714","0.0-266.0-0.0","97542198","wem/bandit_either_2","A3G2NVZWJQH4YH","either","8","1293","","","","","","","0","1","0","","0.3211822138","0.4","0.8","0.6","0.2","0.2029059012","0.3211822138","0.4545632724","0.1585786296","","","","","","","","","","","","74","J","1","","","226","main_expt"
"","bandit","306","1077944","0.0-267.0-0.0","97542198","wem/bandit_either_2","A3G2NVZWJQH4YH","either","8","680","","","","","","","1","0","0","0.3318596792","","0.4","0.8","0.6","0.2","","","","","0.1677618241","0.3318596792","0.4313330006","0.1614007709","","","","","","","","74","J","1","","","227","main_expt"
"","bandit","307","1079903","0.0-268.0-0.0","97542198","wem/bandit_either_2","A3G2NVZWJQH4YH","either","8","399","","","","","","","1","0","0","0.3715738924","","0.4","0.8","0.6","0.2","","","","","0.2079318551","0.3715738924","0.4253897179","0.1160982884","","","","","","","","74","J","1","","","228","main_expt"
"","bandit","308","1081825","0.0-269.0-0.0","97542198","wem/bandit_either_2","A3G2NVZWJQH4YH","either","8","365","","","","","","","0","0","1","0.3571583743","","0.4","0.8","0.6","0.2","","","","","0.1860779256","0.3571583743","0.4416009531","0.1327168588","","","","","","","","74","J","1","","","229","main_expt"
"","bandit","309","1083950","0.0-270.0-0.0","97542198","wem/bandit_either_2","A3G2NVZWJQH4YH","either","8","584","","","","","","","1","0","0","0.3455313741","","0.4","0.8","0.6","0.2","","","","","0.1294985144","0.3455313741","0.4612445757","0.1751239199","","","","","","","","74","J","1","","","230","main_expt"
"","bandit","310","1086545","0.0-271.0-0.0","97542198","wem/bandit_either_2","A3G2NVZWJQH4YH","either","8","1046","","","","","","","0","0","1","0.3114256563","","0.4","0.8","0.6","0.2","","","","","0.1424139305","0.3114256563","0.4455927364","0.2080149414","","","","","","","","74","J","1","","","231","main_expt"
"","bandit","311","1088905","0.0-272.0-0.0","97542198","wem/bandit_either_2","A3G2NVZWJQH4YH","either","8","772","","","","","","","0","0","1","","0.3127001645","0.4","0.8","0.6","0.2","0.1777617008","0.3127001645","0.4449483857","0.2305008548","","","","","","","","","","","","74","J","1","","","232","main_expt"
"","bandit","312","1091135","0.0-273.0-0.0","97542198","wem/bandit_either_2","A3G2NVZWJQH4YH","either","8","676","","","","","","","0","0","1","0.2953609795","","0.4","0.8","0.6","0.2","","","","","0.1408291819","0.2953609795","0.4570404202","0.2331895239","","","","","","","","74","J","1","","","233","main_expt"
"","bandit","313","1093398","0.0-274.0-0.0","97542198","wem/bandit_either_2","A3G2NVZWJQH4YH","either","8","714","","","","","","","0","1","0","","0.4785018613","0.4","0.8","0.6","0.2","0.09563300426","0.2743769666","0.4785018613","0.2007149185","","","","","","","","","","","","75","K","2","","","234","main_expt"
"","bandit","314","1095502","0.0-275.0-0.0","97542198","wem/bandit_either_2","A3G2NVZWJQH4YH","either","8","544","","","","","","","0","0","1","","0.4708517218","0.4","0.8","0.6","0.2","0.06508254785","0.2842570603","0.4708517218","0.1428876463","","","","","","","","","","","","75","K","2","","","235","main_expt"
"","bandit","315","1097670","0.0-276.0-0.0","97542198","wem/bandit_either_2","A3G2NVZWJQH4YH","either","8","618","","","","","","","0","0","1","","0.4721911582","0.4","0.8","0.6","0.2","0.05272484418","0.3536106974","0.4721911582","0.1327756685","","","","","","","","","","","","75","K","2","","","236","main_expt"
"","bandit","316","1099811","0.0-277.0-0.0","97542198","wem/bandit_either_2","A3G2NVZWJQH4YH","either","8","589","","","","","","","0","0","1","","0.1969646424","0.4","0.8","0.6","0.2","0.05000735717","0.3777879982","0.4567984566","0.1969646424","","","","","","","","","","","","76","L","3","","","237","main_expt"
"","bandit","317","1102132","0.0-278.0-0.0","97542198","wem/bandit_either_2","A3G2NVZWJQH4YH","either","8","760","","","","","","","0","0","1","","0.2040955009","0.4","0.8","0.6","0.2","0.03409798278","0.3819628943","0.4601910044","0.2040955009","","","","","","","","","","","","76","L","3","","","238","main_expt"
"","bandit","318","1104112","0.0-279.0-0.0","97542198","wem/bandit_either_2","A3G2NVZWJQH4YH","either","8","417","","","","","","","0","0","1","","0.1885012088","0.4","0.8","0.6","0.2","0.03555143528","0.3590612953","0.4663275819","0.1885012088","","","","","","","","","","","","76","L","3","","","239","main_expt"
"","bandit","319","1106183","0.0-280.0-0.0","97542198","wem/bandit_either_2","A3G2NVZWJQH4YH","either","8","476","","","","","","","0","1","0","","0.1779850251","0.4","0.8","0.6","0.2","0.06633834621","0.3943681209","0.4781926851","0.1779850251","","","","","","","","","","","","76","L","3","","","240","main_expt"
"","bandit","320","1108413","0.0-281.0-0.0","97542198","wem/bandit_either_2","A3G2NVZWJQH4YH","either","8","685","","","","","","","0","0","1","","0.2132761508","0.4","0.8","0.6","0.2","0.0332650027","0.4178476804","0.4813407325","0.2132761508","","","","","","","","","","","","76","L","3","","","241","main_expt"
"","bandit","321","1110747","0.0-282.0-0.0","97542198","wem/bandit_either_2","A3G2NVZWJQH4YH","either","8","778","","","","","","","1","0","0","0.4758201438","","0.4","0.8","0.6","0.2","","","","","0.03674005559","0.4083523659","0.4758201438","0.2181708985","","","","","","","","75","K","2","","","242","main_expt"
"","bandit","322","1113680","0.0-283.0-0.0","97542198","wem/bandit_either_2","A3G2NVZWJQH4YH","either","8","1373","","","","","","","0","0","1","","0.1880751836","0.4","0.8","0.6","0.2","0.02732183546","0.4107673147","0.4739127226","0.1880751836","","","","","","","","","","","","76","L","3","","","243","main_expt"
"","bandit","323","1116098","0.0-284.0-0.0","97542198","wem/bandit_either_2","A3G2NVZWJQH4YH","either","8","869","","","","","","","0","1","0","","0.4467527753","0.4","0.8","0.6","0.2","0.02742276317","0.3914084711","0.4467527753","0.2693527465","","","","","","","","","","","","75","K","2","","","244","main_expt"
"","bandit","324","1118331","0.0-285.0-0.0","97542198","wem/bandit_either_2","A3G2NVZWJQH4YH","either","8","658","","","","","","","0","1","0","","0.4492118003","0.4","0.8","0.6","0.2","0.03322496416","0.4117032301","0.4492118003","0.2474629182","","","","","","","","","","","","75","K","2","","","245","main_expt"
"","bandit","325","1120501","0.0-286.0-0.0","97542198","wem/bandit_either_2","A3G2NVZWJQH4YH","either","8","500","","","","","","","0","0","1","0.4702058379","","0.4","0.8","0.6","0.2","","","","","0.0538648904","0.4225436654","0.4702058379","0.3019125269","","","","","","","","75","K","2","","","246","main_expt"
