"consent","trial_type","trial_index","time_elapsed","internal_node_id","subjID","study","MID","cond","drift1","drift2","rt","responses","key_press","expt_phase","like","value","connected","gems","bombs","no_reward","GemPrChosen","BombPrChosen","GainOverPainPr_0","GainOverPainPr_1","GainOverPainPr_2","GainOverPainPr_3","LosePr_0","LosePr_1","LosePr_2","LosePr_3","WinPr_0","WinPr_1","WinPr_2","WinPr_3","Q0","Q1","Q2","gender","age","ethnicity","target","respCharCode","respKey","respChoiceNum","respChoice","practice","trial_counter","trial_label"
"INL_behavioral_consent_30min_online.html","consent","0","10491","0.0-0.0","10951372","wem/bandit_double","A34VY22YEREOOI","both","7","2","","","","","","","","","","","","","","","","","","","","","","","","","","","","","","","","","","","","","",""
"","survey-text","1","16380","0.0-1.0","10951372","wem/bandit_double","A34VY22YEREOOI","both","7","2","4871","{""Q0"":""A34VY22YEREOOI""}","","","","","","","","","","","","","","","","","","","","","","","","","","","","","","","","","","","",""
"","text","2","24828","0.0-2.0","10951372","wem/bandit_double","A34VY22YEREOOI","both","7","2","7435","","32","","","","","","","","","","","","","","","","","","","","","","","","","","","","","","","","","","",""
"","text","3","33710","0.0-3.0","10951372","wem/bandit_double","A34VY22YEREOOI","both","7","2","8879","","32","","","","","","","","","","","","","","","","","","","","","","","","","","","","","","","","","","",""
"","text","4","53287","0.0-4.0","10951372","wem/bandit_double","A34VY22YEREOOI","both","7","2","19574","","32","","","","","","","","","","","","","","","","","","","","","","","","","","","","","","","","","","",""
"","text","5","65643","0.0-5.0","10951372","wem/bandit_double","A34VY22YEREOOI","both","7","2","12353","","32","","","","","","","","","","","","","","","","","","","","","","","","","","","","","","","","","","",""
"","text","6","82088","0.0-6.0","10951372","wem/bandit_double","A34VY22YEREOOI","both","7","2","16441","","32","","","","","","","","","","","","","","","","","","","","","","","","","","","","","","","","","","",""
"","text","7","87842","0.0-7.0","10951372","wem/bandit_double","A34VY22YEREOOI","both","7","2","5751","","32","","","","","","","","","","","","","","","","","","","","","","","","","","","","","","","","","","",""
"","identification","8","100858","0.0-8.0-0.0","10951372","wem/bandit_double","A34VY22YEREOOI","both","7","2","12981","","","","2","2","3","","","","","","","","","","","","","","","","","","","","","","","","the village of Zur","","","","","","",""
"","identification","9","107600","0.0-8.0-1.0","10951372","wem/bandit_double","A34VY22YEREOOI","both","7","2","5718","","","","4","4","4","","","","","","","","","","","","","","","","","","","","","","","","the village of Nyx","","","","","","",""
"","text","10","123607","0.0-9.0","10951372","wem/bandit_double","A34VY22YEREOOI","both","7","2","14998","","32","","","","","","","","","","","","","","","","","","","","","","","","","","","","","","","","","","",""
"","text","11","128541","0.0-10.0","10951372","wem/bandit_double","A34VY22YEREOOI","both","7","2","4930","","32","","","","","","","","","","","","","","","","","","","","","","","","","","","","","","","","","","",""
"","text","12","132312","0.0-11.0","10951372","wem/bandit_double","A34VY22YEREOOI","both","7","2","3767","","32","","","","","","","","","","","","","","","","","","","","","","","","","","","","","","","","","","",""
"","text","13","135725","0.0-12.0","10951372","wem/bandit_double","A34VY22YEREOOI","both","7","2","3410","","32","","","","","","","","","","","","","","","","","","","","","","","","","","","","","","","","","","",""
"","text","14","138980","0.0-13.0","10951372","wem/bandit_double","A34VY22YEREOOI","both","7","2","3251","","32","","","","","","","","","","","","","","","","","","","","","","","","","","","","","","","","","","",""
"","bandit","15","141114","0.0-14.0-0.0","10951372","wem/bandit_double","A34VY22YEREOOI","both","7","2","611","","","","","","","1","0","0","1","0","","","","","0","","","","1","","","","","","","","","","","74","J","0","img/none_selected_demo.jpg","true","0",""
"","bandit","16","145571","0.0-15.0-0.0","10951372","wem/bandit_double","A34VY22YEREOOI","both","7","2","2940","","","","","","","0","1","0","0","1","","","","","1","","","","0","","","","","","","","","","","75","K","0","img/none_selected_demo.jpg","true","0",""
"","text","17","153582","0.0-16.0","10951372","wem/bandit_double","A34VY22YEREOOI","both","7","2","8008","","32","","","","","","","","","","","","","","","","","","","","","","","","","","","","","","","","","","",""
"","text","18","162198","0.0-17.0","10951372","wem/bandit_double","A34VY22YEREOOI","both","7","2","8614","","32","","","","","","","","","","","","","","","","","","","","","","","","","","","","","","","","","","",""
"","text","19","168417","0.0-18.0","10951372","wem/bandit_double","A34VY22YEREOOI","both","7","2","6216","","32","","","","","","","","","","","","","","","","","","","","","","","","","","","","","","","","","","",""
"","text","20","172372","0.0-19.0","10951372","wem/bandit_double","A34VY22YEREOOI","both","7","2","3952","","32","","","","","","","","","","","","","","","","","","","","","","","","","","","","","","","","","","",""
"","bandit","21","174518","0.0-20.0-0.0","10951372","wem/bandit_double","A34VY22YEREOOI","both","7","2","625","","","","","","","1","0","0","0.8","0","","","","","0","0","","","0.8","0.2","","","","","","","","","","74","J","0","img/none_selected_demo.jpg","true","0","80_20_practice"
"","bandit","22","176478","0.0-20.0-1.0","10951372","wem/bandit_double","A34VY22YEREOOI","both","7","2","443","","","","","","","1","0","0","0.8","0","","","","","0","0","","","0.8","0.2","","","","","","","","","","74","J","0","img/none_selected_demo.jpg","true","0","80_20_practice"
"","bandit","23","178275","0.0-20.0-2.0","10951372","wem/bandit_double","A34VY22YEREOOI","both","7","2","266","","","","","","","1","0","0","0.8","0","","","","","0","0","","","0.8","0.2","","","","","","","","","","74","J","0","img/none_selected_demo.jpg","true","0","80_20_practice"
"","bandit","24","180079","0.0-20.0-3.0","10951372","wem/bandit_double","A34VY22YEREOOI","both","7","2","282","","","","","","","1","0","0","0.8","0","","","","","0","0","","","0.8","0.2","","","","","","","","","","74","J","0","img/none_selected_demo.jpg","true","0","80_20_practice"
"","bandit","25","181884","0.0-20.0-4.0","10951372","wem/bandit_double","A34VY22YEREOOI","both","7","2","274","","","","","","","0","0","1","0.8","0","","","","","0","0","","","0.8","0.2","","","","","","","","","","74","J","0","img/none_selected_demo.jpg","true","0","80_20_practice"
"","bandit","26","183681","0.0-20.0-5.0","10951372","wem/bandit_double","A34VY22YEREOOI","both","7","2","274","","","","","","","1","0","0","0.8","0","","","","","0","0","","","0.8","0.2","","","","","","","","","","74","J","0","img/none_selected_demo.jpg","true","0","80_20_practice"
"","bandit","27","185362","0.0-20.0-6.0","10951372","wem/bandit_double","A34VY22YEREOOI","both","7","2","171","","","","","","","1","0","0","0.8","0","","","","","0","0","","","0.8","0.2","","","","","","","","","","74","J","0","img/none_selected_demo.jpg","true","0","80_20_practice"
"","bandit","28","187138","0.0-20.0-7.0","10951372","wem/bandit_double","A34VY22YEREOOI","both","7","2","256","","","","","","","1","0","0","0.8","0","","","","","0","0","","","0.8","0.2","","","","","","","","","","74","J","0","img/none_selected_demo.jpg","true","0","80_20_practice"
"","bandit","29","188908","0.0-20.0-8.0","10951372","wem/bandit_double","A34VY22YEREOOI","both","7","2","249","","","","","","","1","0","0","0.8","0","","","","","0","0","","","0.8","0.2","","","","","","","","","","74","J","0","img/none_selected_demo.jpg","true","0","80_20_practice"
"","bandit","30","190648","0.0-20.0-9.0","10951372","wem/bandit_double","A34VY22YEREOOI","both","7","2","221","","","","","","","0","0","1","0.2","0","","","","","0","0","","","0.8","0.2","","","","","","","","","","75","K","1","","true","0","80_20_practice"
"","bandit","31","192497","0.0-20.0-10.0","10951372","wem/bandit_double","A34VY22YEREOOI","both","7","2","338","","","","","","","0","0","1","0.8","0","","","","","0","0","","","0.8","0.2","","","","","","","","","","74","J","0","img/none_selected_demo.jpg","true","0","80_20_practice"
"","bandit","32","194087","0.0-20.0-11.0","10951372","wem/bandit_double","A34VY22YEREOOI","both","7","2","76","","","","","","","0","0","1","0.2","0","","","","","0","0","","","0.8","0.2","","","","","","","","","","75","K","1","","true","0","80_20_practice"
"","bandit","33","195602","0.0-20.0-12.0","10951372","wem/bandit_double","A34VY22YEREOOI","both","7","2","3","","","","","","","1","0","0","0.8","0","","","","","0","0","","","0.8","0.2","","","","","","","","","","74","J","0","img/none_selected_demo.jpg","true","0","80_20_practice"
"","bandit","34","197175","0.0-20.0-13.0","10951372","wem/bandit_double","A34VY22YEREOOI","both","7","2","58","","","","","","","1","0","0","0.8","0","","","","","0","0","","","0.8","0.2","","","","","","","","","","74","J","0","img/none_selected_demo.jpg","true","0","80_20_practice"
"","bandit","35","199170","0.0-20.0-14.0","10951372","wem/bandit_double","A34VY22YEREOOI","both","7","2","483","","","","","","","1","0","0","0.8","0","","","","","0","0","","","0.8","0.2","","","","","","","","","","74","J","0","img/none_selected_demo.jpg","true","0","80_20_practice"
"","bandit","36","200963","0.0-20.0-15.0","10951372","wem/bandit_double","A34VY22YEREOOI","both","7","2","274","","","","","","","1","0","0","0.8","0","","","","","0","0","","","0.8","0.2","","","","","","","","","","74","J","0","img/none_selected_demo.jpg","true","0","80_20_practice"
"","bandit","37","203048","0.0-20.0-16.0","10951372","wem/bandit_double","A34VY22YEREOOI","both","7","2","571","","","","","","","1","0","0","0.8","0","","","","","0","0","","","0.8","0.2","","","","","","","","","","74","J","0","img/none_selected_demo.jpg","true","0","80_20_practice"
"","bandit","38","204999","0.0-20.0-17.0","10951372","wem/bandit_double","A34VY22YEREOOI","both","7","2","430","","","","","","","1","0","0","0.8","0","","","","","0","0","","","0.8","0.2","","","","","","","","","","74","J","0","img/none_selected_demo.jpg","true","0","80_20_practice"
"","bandit","39","206626","0.0-20.0-18.0","10951372","wem/bandit_double","A34VY22YEREOOI","both","7","2","113","","","","","","","1","0","0","0.2","0","","","","","0","0","","","0.8","0.2","","","","","","","","","","75","K","1","","true","0","80_20_practice"
"","bandit","40","208403","0.0-20.0-19.0","10951372","wem/bandit_double","A34VY22YEREOOI","both","7","2","258","","","","","","","1","0","0","0.8","0","","","","","0","0","","","0.8","0.2","","","","","","","","","","74","J","0","img/none_selected_demo.jpg","true","0","80_20_practice"
"","text","41","212571","0.0-21.0","10951372","wem/bandit_double","A34VY22YEREOOI","both","7","2","4164","","32","","","","","","","","","","","","","","","","","","","","","","","","","","","","","","","","","","",""
"","bandit","42","216377","0.0-22.0-0.0","10951372","wem/bandit_double","A34VY22YEREOOI","both","7","2","2293","","","","","","","1","0","0","1","0","","","","","0","1","","","1","0","","","","","","","","","","74","J","0","img/none_selected_demo.jpg","true","0",""
"","text","43","221224","0.0-23.0","10951372","wem/bandit_double","A34VY22YEREOOI","both","7","2","4845","","32","","","","","","","","","","","","","","","","","","","","","","","","","","","","","","","","","","",""
"","text","44","226541","0.0-24.0","10951372","wem/bandit_double","A34VY22YEREOOI","both","7","2","5313","","32","","","","","","","","","","","","","","","","","","","","","","","","","","","","","","","","","","",""
"","text","45","228747","0.0-25.0","10951372","wem/bandit_double","A34VY22YEREOOI","both","7","2","2202","","32","","","","","","","","","","","","","","","","","","","","","","","","","","","","","","","","","","",""
"","text","46","231875","0.0-26.0","10951372","wem/bandit_double","A34VY22YEREOOI","both","7","2","3125","","32","","","","","","","","","","","","","","","","","","","","","","","","","","","","","","","","","","",""
"","text","47","234808","0.0-27.0","10951372","wem/bandit_double","A34VY22YEREOOI","both","7","2","2930","","32","","","","","","","","","","","","","","","","","","","","","","","","","","","","","","","","","","",""
"","text","48","243171","0.0-28.0","10951372","wem/bandit_double","A34VY22YEREOOI","both","7","2","8360","","32","","","","","","","","","","","","","","","","","","","","","","","","","","","","","","","","","","",""
"","text","49","253411","0.0-29.0","10951372","wem/bandit_double","A34VY22YEREOOI","both","7","2","10236","","32","","","","","","","","","","","","","","","","","","","","","","","","","","","","","","","","","","",""
"","text","50","258031","0.0-30.0","10951372","wem/bandit_double","A34VY22YEREOOI","both","7","2","4616","","32","","","","","","","","","","","","","","","","","","","","","","","","","","","","","","","","","","",""
"","text","51","262319","0.0-31.0","10951372","wem/bandit_double","A34VY22YEREOOI","both","7","2","4285","","32","","","","","","","","","","","","","","","","","","","","","","","","","","","","","","","","","","",""
"","text","52","266748","0.0-32.0","10951372","wem/bandit_double","A34VY22YEREOOI","both","7","2","4426","","32","","","","","","","","","","","","","","","","","","","","","","","","","","","","","","","","","","",""
"","text","53","268024","0.0-33.0","10951372","wem/bandit_double","A34VY22YEREOOI","both","7","2","1270","","32","","","","","","","","","","","","","","","","","","","","","","","","","","","","","","","","","","",""
"","text","54","268975","0.0-34.0","10951372","wem/bandit_double","A34VY22YEREOOI","both","7","2","946","","32","","","","","","","","","","","","","","","","","","","","","","","","","","","","","","","","","","",""
"","bandit","55","271272","0.0-35.0-0.0","10951372","wem/bandit_double","A34VY22YEREOOI","both","7","2","786","","","","","","","1","0","0","0.8","0.8","","","","","0.8","0.2","0.6","0.2","0.8","0.2","0.6","0.2","","","","","","","","72","H","0","img/none_selected.jpg","true","0","full_practice"
"","bandit","56","273049","0.0-35.0-1.0","10951372","wem/bandit_double","A34VY22YEREOOI","both","7","2","251","","","","","","","0","1","0","0.8","0.8","","","","","0.8","0.2","0.6","0.2","0.8","0.2","0.6","0.2","","","","","","","","72","H","0","img/none_selected.jpg","true","0","full_practice"
"","bandit","57","274863","0.0-35.0-2.0","10951372","wem/bandit_double","A34VY22YEREOOI","both","7","2","298","","","","","","","1","1","0","0.8","0.8","","","","","0.8","0.2","0.6","0.2","0.8","0.2","0.6","0.2","","","","","","","","72","H","0","img/none_selected.jpg","true","0","full_practice"
"","bandit","58","276673","0.0-35.0-3.0","10951372","wem/bandit_double","A34VY22YEREOOI","both","7","2","271","","","","","","","1","0","0","0.8","0.8","","","","","0.8","0.2","0.6","0.2","0.8","0.2","0.6","0.2","","","","","","","","72","H","0","img/none_selected.jpg","true","0","full_practice"
"","bandit","59","278465","0.0-35.0-4.0","10951372","wem/bandit_double","A34VY22YEREOOI","both","7","2","270","","","","","","","1","1","0","0.8","0.8","","","","","0.8","0.2","0.6","0.2","0.8","0.2","0.6","0.2","","","","","","","","72","H","0","img/none_selected.jpg","true","0","full_practice"
"","bandit","60","280249","0.0-35.0-5.0","10951372","wem/bandit_double","A34VY22YEREOOI","both","7","2","260","","","","","","","1","0","0","0.8","0.8","","","","","0.8","0.2","0.6","0.2","0.8","0.2","0.6","0.2","","","","","","","","72","H","0","img/none_selected.jpg","true","0","full_practice"
"","bandit","61","282017","0.0-35.0-6.0","10951372","wem/bandit_double","A34VY22YEREOOI","both","7","2","249","","","","","","","0","0","1","0.2","0.2","","","","","0.8","0.2","0.6","0.2","0.8","0.2","0.6","0.2","","","","","","","","74","J","1","","true","0","full_practice"
"","bandit","62","283816","0.0-35.0-7.0","10951372","wem/bandit_double","A34VY22YEREOOI","both","7","2","288","","","","","","","0","1","0","0.2","0.2","","","","","0.8","0.2","0.6","0.2","0.8","0.2","0.6","0.2","","","","","","","","74","J","1","","true","0","full_practice"
"","bandit","63","285571","0.0-35.0-8.0","10951372","wem/bandit_double","A34VY22YEREOOI","both","7","2","237","","","","","","","0","0","1","0.2","0.2","","","","","0.8","0.2","0.6","0.2","0.8","0.2","0.6","0.2","","","","","","","","74","J","1","","true","0","full_practice"
"","bandit","64","287283","0.0-35.0-9.0","10951372","wem/bandit_double","A34VY22YEREOOI","both","7","2","187","","","","","","","1","1","0","0.6","0.6","","","","","0.8","0.2","0.6","0.2","0.8","0.2","0.6","0.2","","","","","","","","75","K","2","","true","0","full_practice"
"","bandit","65","289078","0.0-35.0-10.0","10951372","wem/bandit_double","A34VY22YEREOOI","both","7","2","278","","","","","","","1","0","0","0.6","0.6","","","","","0.8","0.2","0.6","0.2","0.8","0.2","0.6","0.2","","","","","","","","75","K","2","","true","0","full_practice"
"","bandit","66","290855","0.0-35.0-11.0","10951372","wem/bandit_double","A34VY22YEREOOI","both","7","2","265","","","","","","","1","1","0","0.6","0.6","","","","","0.8","0.2","0.6","0.2","0.8","0.2","0.6","0.2","","","","","","","","75","K","2","","true","0","full_practice"
"","bandit","67","292664","0.0-35.0-12.0","10951372","wem/bandit_double","A34VY22YEREOOI","both","7","2","291","","","","","","","1","1","0","0.6","0.6","","","","","0.8","0.2","0.6","0.2","0.8","0.2","0.6","0.2","","","","","","","","75","K","2","","true","0","full_practice"
"","bandit","68","294575","0.0-35.0-13.0","10951372","wem/bandit_double","A34VY22YEREOOI","both","7","2","393","","","","","","","0","0","1","0.6","0.6","","","","","0.8","0.2","0.6","0.2","0.8","0.2","0.6","0.2","","","","","","","","75","K","2","","true","0","full_practice"
"","bandit","69","296546","0.0-35.0-14.0","10951372","wem/bandit_double","A34VY22YEREOOI","both","7","2","451","","","","","","","0","1","0","0.2","0.2","","","","","0.8","0.2","0.6","0.2","0.8","0.2","0.6","0.2","","","","","","","","76","L","3","","true","0","full_practice"
"","bandit","70","298100","0.0-35.0-15.0","10951372","wem/bandit_double","A34VY22YEREOOI","both","7","2","31","","","","","","","0","1","0","0.2","0.2","","","","","0.8","0.2","0.6","0.2","0.8","0.2","0.6","0.2","","","","","","","","76","L","3","","true","0","full_practice"
"","bandit","71","299851","0.0-35.0-16.0","10951372","wem/bandit_double","A34VY22YEREOOI","both","7","2","233","","","","","","","0","0","1","0.2","0.2","","","","","0.8","0.2","0.6","0.2","0.8","0.2","0.6","0.2","","","","","","","","76","L","3","","true","0","full_practice"
"","bandit","72","301646","0.0-35.0-17.0","10951372","wem/bandit_double","A34VY22YEREOOI","both","7","2","277","","","","","","","1","1","0","0.6","0.6","","","","","0.8","0.2","0.6","0.2","0.8","0.2","0.6","0.2","","","","","","","","75","K","2","","true","0","full_practice"
"","bandit","73","303433","0.0-35.0-18.0","10951372","wem/bandit_double","A34VY22YEREOOI","both","7","2","263","","","","","","","1","1","0","0.6","0.6","","","","","0.8","0.2","0.6","0.2","0.8","0.2","0.6","0.2","","","","","","","","75","K","2","","true","0","full_practice"
"","bandit","74","305295","0.0-35.0-19.0","10951372","wem/bandit_double","A34VY22YEREOOI","both","7","2","340","","","","","","","1","0","0","0.6","0.6","","","","","0.8","0.2","0.6","0.2","0.8","0.2","0.6","0.2","","","","","","","","75","K","2","","true","0","full_practice"
"","text","75","309345","0.0-36.0","10951372","wem/bandit_double","A34VY22YEREOOI","both","7","2","4039","","32","","","","","","","","","","","","","","","","","","","","","","","","","","","","","","","","","","",""
"","text","76","315679","0.0-37.0","10951372","wem/bandit_double","A34VY22YEREOOI","both","7","2","5327","","32","","","","","","","","","","","","","","","","","","","","","","","","","","","","","","","","","","",""
"","text","77","317756","0.0-38.0","10951372","wem/bandit_double","A34VY22YEREOOI","both","7","2","2072","","32","","","","","","","","","","","","","","","","","","","","","","","","","","","","","","","","","","",""
"","text","78","323540","0.0-39.0","10951372","wem/bandit_double","A34VY22YEREOOI","both","7","2","5780","","32","","","","","","","","","","","","","","","","","","","","","","","","","","","","","","","","","","",""
"","text","79","328476","0.0-40.0","10951372","wem/bandit_double","A34VY22YEREOOI","both","7","2","4933","","32","","","","","","","","","","","","","","","","","","","","","","","","","","","","","","","","","","",""
"","bandit","80","330846","0.0-41.0-0.0","10951372","wem/bandit_double","A34VY22YEREOOI","both","7","2","854","","","","","","","0","0","1","0.1480066451","0.3653736811","","","","","0.362799796","0.4781977867","0.3653736811","0.326135308","0.1952616071","0.01738065524","0.1480066451","0.06530018083","","","","","","","","75","K","2","","","1","main_expt"
"","bandit","81","332505","0.0-42.0-0.0","10951372","wem/bandit_double","A34VY22YEREOOI","both","7","2","149","","","","","","","0","0","1","0.1652234336","0.3891507205","","","","","0.3891507205","0.4765481994","0.3999069229","0.3564958201","0.1652234336","0.0196943787","0.1053714073","0.1011701763","","","","","","","","72","H","0","img/none_selected.jpg","","2","main_expt"
"","bandit","82","334042","0.0-43.0-0.0","10951372","wem/bandit_double","A34VY22YEREOOI","both","7","2","17","","","","","","","1","0","0","0.1347382479","0.3151339382","","","","","0.3151339382","0.4722158263","0.4363582421","0.3309056029","0.1347382479","0.01678573497","0.1460078221","0.09486719381","","","","","","","","72","H","0","img/none_selected.jpg","","3","main_expt"
"","bandit","83","335652","0.0-44.0-0.0","10951372","wem/bandit_double","A34VY22YEREOOI","both","7","2","100","","","","","","","0","1","0","0.1684625442","0.250648122","","","","","0.250648122","0.4609570051","0.4300921111","0.308467875","0.1684625442","0.02981965743","0.1866138214","0.06705802814","","","","","","","","72","H","0","img/none_selected.jpg","","4","main_expt"
"","bandit","84","337495","0.0-45.0-0.0","10951372","wem/bandit_double","A34VY22YEREOOI","both","7","2","321","","","","","","","0","0","1","0.02600208211","0.4707799186","","","","","0.2382585344","0.4707799186","0.3863220662","0.3349995635","0.1792029032","0.02600208211","0.2445348717","0.0822298525","","","","","","","","74","J","1","","","5","main_expt"
"","bandit","85","339034","0.0-46.0-0.0","10951372","wem/bandit_double","A34VY22YEREOOI","both","7","2","13","","","","","","","0","0","1","0.02332436933","0.4676743975","","","","","0.2088101903","0.4676743975","0.4192648028","0.3743101545","0.2153873139","0.02332436933","0.2546962146","0.09162209411","","","","","","","","74","J","1","","","6","main_expt"
"","bandit","86","340613","0.0-47.0-0.0","10951372","wem/bandit_double","A34VY22YEREOOI","both","7","2","64","","","","","","","0","0","1","0.02864040813","0.4767364015","","","","","0.1884279889","0.4767364015","0.4218548145","0.377506125","0.1757762721","0.02864040813","0.2344841702","0.1028820098","","","","","","","","74","J","1","","","7","main_expt"
"","bandit","87","342310","0.0-48.0-0.0","10951372","wem/bandit_double","A34VY22YEREOOI","both","7","2","185","","","","","","","0","0","1","0.1532270122","0.3452849142","","","","","0.2297930851","0.4837409877","0.4298914749","0.3452849142","0.2241229746","0.02951264166","0.2473344203","0.1532270122","","","","","","","","76","L","3","","","8","main_expt"
"","bandit","88","344078","0.0-49.0-0.0","10951372","wem/bandit_double","A34VY22YEREOOI","both","7","2","256","","","","","","","0","1","0","0.2131450397","0.2713567333","","","","","0.2219539873","0.4825212187","0.4215440671","0.2713567333","0.2199426203","0.02997011939","0.2642160399","0.2131450397","","","","","","","","76","L","3","","","9","main_expt"
"","bandit","89","345699","0.0-50.0-0.0","10951372","wem/bandit_double","A34VY22YEREOOI","both","7","2","101","","","","","","","0","0","1","0.2985754635","0.2712708503","","","","","0.2398128751","0.4791264729","0.3991616263","0.2712708503","0.1520686932","0.02489651457","0.2104627424","0.2985754635","","","","","","","","76","L","3","","","10","main_expt"
"","bandit","90","347471","0.0-51.0-0.0","10951372","wem/bandit_double","A34VY22YEREOOI","both","7","2","246","","","","","","","0","1","0","0.219372878","0.4002673883","","","","","0.2551733424","0.4762013833","0.4002673883","0.2635531688","0.2013349999","0.01651058827","0.219372878","0.2924640086","","","","","","","","75","K","2","","","11","main_expt"
"","bandit","91","349248","0.0-52.0-0.0","10951372","wem/bandit_double","A34VY22YEREOOI","both","7","2","253","","","","","","","0","0","1","0.2105839871","0.368629831","","","","","0.2593424883","0.4729837645","0.368629831","0.2669056975","0.2156800105","0.02341729431","0.2105839871","0.3264291113","","","","","","","","75","K","2","","","12","main_expt"
"","bandit","92","350964","0.0-53.0-0.0","10951372","wem/bandit_double","A34VY22YEREOOI","both","7","2","202","","","","","","","0","1","0","0.1833947696","0.2493591627","","","","","0.2493591627","0.4749786695","0.4189726289","0.3204456557","0.1833947696","0.0257410372","0.2511698571","0.3254913314","","","","","","","","72","H","0","img/none_selected.jpg","","13","main_expt"
"","bandit","93","352738","0.0-54.0-0.0","10951372","wem/bandit_double","A34VY22YEREOOI","both","7","2","254","","","","","","","1","0","0","0.243643366","0.2686446846","","","","","0.2686446846","0.4810115094","0.4352425359","0.3466526728","0.243643366","0.02570014082","0.2158977649","0.3428504842","","","","","","","","72","H","0","img/none_selected.jpg","","14","main_expt"
"","bandit","94","354685","0.0-55.0-0.0","10951372","wem/bandit_double","A34VY22YEREOOI","both","7","2","424","","","","","","","0","0","1","0.2265365198","0.2690169042","","","","","0.2690169042","0.4705329286","0.3819090161","0.3736671224","0.2265365198","0.04268316416","0.2762480727","0.3244047679","","","","","","","","72","H","0","img/none_selected.jpg","","15","main_expt"
"","bandit","95","356517","0.0-56.0-0.0","10951372","wem/bandit_double","A34VY22YEREOOI","both","7","2","299","","","","","","","1","0","0","0.2484951132","0.2518303543","","","","","0.2518303543","0.4687419894","0.3737760256","0.3778143907","0.2484951132","0.04667408308","0.3202890724","0.3025313629","","","","","","","","72","H","0","img/none_selected.jpg","","16","main_expt"
"","bandit","96","358315","0.0-57.0-0.0","10951372","wem/bandit_double","A34VY22YEREOOI","both","7","2","277","","","","","","","0","1","0","0.3680552247","0.4151791473","","","","","0.2406549936","0.4594180265","0.4151791473","0.3845750066","0.2570267238","0.0506688767","0.3680552247","0.3291216938","","","","","","","","75","K","2","","","17","main_expt"
"","bandit","97","360352","0.0-58.0-0.0","10951372","wem/bandit_double","A34VY22YEREOOI","both","7","2","523","","","","","","","1","0","0","0.3968593921","0.4137363134","","","","","0.2670149403","0.425397146","0.4137363134","0.4041286345","0.287418789","0.02988526167","0.3968593921","0.2987881532","","","","","","","","75","K","2","","","18","main_expt"
"","bandit","98","362247","0.0-59.0-0.0","10951372","wem/bandit_double","A34VY22YEREOOI","both","7","2","378","","","","","","","0","0","1","0.2338710899","0.2658482338","","","","","0.2658482338","0.4201246927","0.4084056464","0.4127350431","0.2338710899","0.03476350355","0.4192996399","0.281207523","","","","","","","","72","H","0","img/none_selected.jpg","","19","main_expt"
"","bandit","99","364620","0.0-60.0-0.0","10951372","wem/bandit_double","A34VY22YEREOOI","both","7","2","838","","","","","","","0","0","1","0.2335293464","0.2452433766","","","","","0.2452433766","0.3954271328","0.4129175496","0.4107359536","0.2335293464","0.0233687216","0.4362768361","0.291129981","","","","","","","","72","H","0","img/none_selected.jpg","","20","main_expt"
"","bandit","100","366425","0.0-61.0-0.0","10951372","wem/bandit_double","A34VY22YEREOOI","both","7","2","292","","","","","","","1","1","0","0.4599691003","0.3888488162","","","","","0.2298761452","0.4196431029","0.3888488162","0.3954861765","0.2434826965","0.01272547494","0.4599691003","0.2729578326","","","","","","","","75","K","2","","","21","main_expt"
"","bandit","101","368192","0.0-62.0-0.0","10951372","wem/bandit_double","A34VY22YEREOOI","both","7","2","255","","","","","","","0","1","0","0.44353765","0.3873149631","","","","","0.266827693","0.3843335182","0.3873149631","0.3805979297","0.2702300591","0.01739491555","0.44353765","0.2805141014","","","","","","","","75","K","2","","","22","main_expt"
"","bandit","102","369997","0.0-63.0-0.0","10951372","wem/bandit_double","A34VY22YEREOOI","both","7","2","281","","","","","","","1","0","0","0.4105594395","0.3659772031","","","","","0.2519769849","0.3839977458","0.3659772031","0.425451992","0.2424740502","0.006692102231","0.4105594395","0.3016389313","","","","","","","","75","K","2","","","23","main_expt"
"","bandit","103","371778","0.0-64.0-0.0","10951372","wem/bandit_double","A34VY22YEREOOI","both","7","2","270","","","","","","","0","0","1","0.4243351486","0.3594327093","","","","","0.2447613107","0.3338939571","0.3594327093","0.4699447661","0.1754503809","0.01209419849","0.4243351486","0.2475621169","","","","","","","","75","K","2","","","24","main_expt"
"","bandit","104","373546","0.0-65.0-0.0","10951372","wem/bandit_double","A34VY22YEREOOI","both","7","2","248","","","","","","","0","0","1","0.4172780312","0.3719143394","","","","","0.2350413847","0.324486952","0.3719143394","0.4484050393","0.2023019753","0.009734580702","0.4172780312","0.2607476102","","","","","","","","75","K","2","","","25","main_expt"
"","bandit","105","375263","0.0-66.0-0.0","10951372","wem/bandit_double","A34VY22YEREOOI","both","7","2","197","","","","","","","0","1","0","0.3981062588","0.3690014044","","","","","0.207774486","0.3095710384","0.3690014044","0.4190234423","0.1887270612","0.008596148908","0.3981062588","0.292589008","","","","","","","","75","K","2","","","26","main_expt"
"","bandit","106","377046","0.0-67.0-0.0","10951372","wem/bandit_double","A34VY22YEREOOI","both","7","2","266","","","","","","","0","1","0","0.3889188119","0.3940030818","","","","","0.2164182795","0.3355629191","0.3940030818","0.4251478254","0.2526986378","0.01380650739","0.3889188119","0.2978950393","","","","","","","","75","K","2","","","27","main_expt"
"","bandit","107","378662","0.0-68.0-0.0","10951372","wem/bandit_double","A34VY22YEREOOI","both","7","2","102","","","","","","","1","0","0","0.3699095679","0.4111080327","","","","","0.2164031865","0.3668681485","0.4111080327","0.4287328697","0.2536033627","0.01160852189","0.3699095679","0.337392419","","","","","","","","75","K","2","","","28","main_expt"
"","bandit","108","380321","0.0-69.0-0.0","10951372","wem/bandit_double","A34VY22YEREOOI","both","7","2","141","","","","","","","0","1","0","0.4087832773","0.41290056","","","","","0.2770000278","0.343198694","0.41290056","0.4106025245","0.258258936","0.02858314752","0.4087832773","0.3830759015","","","","","","","","75","K","2","","","29","main_expt"
"","bandit","109","382070","0.0-70.0-0.0","10951372","wem/bandit_double","A34VY22YEREOOI","both","7","2","229","","","","","","","0","0","1","0.3152574144","0.2354797847","","","","","0.2354797847","0.326069126","0.3937480262","0.3942494676","0.3152574144","0.0265596094","0.4162513677","0.3778881599","","","","","","","","72","H","0","img/none_selected.jpg","","30","main_expt"
"","bandit","110","383819","0.0-71.0-0.0","10951372","wem/bandit_double","A34VY22YEREOOI","both","7","2","229","","","","","","","0","0","1","0.02828816112","0.3390127419","","","","","0.2692030882","0.3390127419","0.3997016236","0.4285056211","0.3508579725","0.02828816112","0.43337534","0.3585458117","","","","","","","","74","J","1","","","31","main_expt"
"","bandit","111","385583","0.0-72.0-0.0","10951372","wem/bandit_double","A34VY22YEREOOI","both","7","2","232","","","","","","","0","0","1","0.03857304495","0.3360649894","","","","","0.2471118655","0.3360649894","0.3574295763","0.4249454459","0.3902021543","0.03857304495","0.4399105216","0.3511664436","","","","","","","","74","J","1","","","32","main_expt"
"","bandit","112","387287","0.0-73.0-0.0","10951372","wem/bandit_double","A34VY22YEREOOI","both","7","2","190","","","","","","","0","0","1","0.3859623535","0.3877818659","","","","","0.2879199001","0.3052602024","0.3877818659","0.416417765","0.4112626521","0.02642959278","0.3859623535","0.3924960189","","","","","","","","75","K","2","","","33","main_expt"
"","bandit","113","389131","0.0-74.0-0.0","10951372","wem/bandit_double","A34VY22YEREOOI","both","7","2","309","","","","","","","0","0","1","0.4231921331","0.3799496232","","","","","0.3180115212","0.3594788954","0.3799496232","0.4623714429","0.3912589523","0.06800028167","0.4231921331","0.3713907517","","","","","","","","75","K","2","","","34","main_expt"
"","bandit","114","391122","0.0-75.0-0.0","10951372","wem/bandit_double","A34VY22YEREOOI","both","7","2","478","","","","","","","1","1","0","0.3929004689","0.4591977302","","","","","0.2524306687","0.380235832","0.3577573403","0.4591977302","0.3663646496","0.05710280771","0.3950458867","0.3929004689","","","","","","","","76","L","3","","","35","main_expt"
"","bandit","115","392904","0.0-76.0-0.0","10951372","wem/bandit_double","A34VY22YEREOOI","both","7","2","243","","","","","","","1","1","0","0.3820467604","0.4686235256","","","","","0.2351869563","0.3459989602","0.3895375856","0.4686235256","0.3045225128","0.07756943076","0.4005306787","0.3820467604","","","","","","","","76","L","3","","","36","main_expt"
"","bandit","116","394590","0.0-77.0-0.0","10951372","wem/bandit_double","A34VY22YEREOOI","both","7","2","165","","","","","","","0","0","1","0.3948022939","0.4571547709","","","","","0.2629170466","0.3320905149","0.3783527007","0.4571547709","0.2806474599","0.06074629621","0.3972735937","0.3948022939","","","","","","","","76","L","3","","","37","main_expt"
"","bandit","117","396374","0.0-78.0-0.0","10951372","wem/bandit_double","A34VY22YEREOOI","both","7","2","267","","","","","","","1","0","0","0.3769579019","0.4688430709","","","","","0.3090194305","0.3471020919","0.284076782","0.4688430709","0.3558759705","0.07063042774","0.38339591","0.3769579019","","","","","","","","76","L","3","","","38","main_expt"
"","bandit","118","398169","0.0-79.0-0.0","10951372","wem/bandit_double","A34VY22YEREOOI","both","7","2","271","","","","","","","0","0","1","0.4030344636","0.4612923778","","","","","0.2845371228","0.3401763967","0.3388972186","0.4612923778","0.3194138052","0.06209293178","0.3906354184","0.4030344636","","","","","","","","76","L","3","","","39","main_expt"
"","bandit","119","399842","0.0-80.0-0.0","10951372","wem/bandit_double","A34VY22YEREOOI","both","7","2","155","","","","","","","1","1","0","0.3622335218","0.4576194683","","","","","0.3076259244","0.3260487483","0.2663655232","0.4576194683","0.3549086085","0.06952578958","0.3623676206","0.3622335218","","","","","","","","76","L","3","","","40","main_expt"
"","bandit","120","401622","0.0-81.0-0.0","10951372","wem/bandit_double","A34VY22YEREOOI","both","7","2","253","","","","","","","1","0","0","0.3911596719","0.4473921051","","","","","0.2888769276","0.3390218734","0.2608266697","0.4473921051","0.3452113815","0.1291245709","0.3873704927","0.3911596719","","","","","","","","76","L","3","","","41","main_expt"
"","bandit","121","403339","0.0-82.0-0.0","10951372","wem/bandit_double","A34VY22YEREOOI","both","7","2","203","","","","","","","1","0","0","0.3921858285","0.425470286","","","","","0.2639198141","0.2889680017","0.2287676803","0.425470286","0.3522960267","0.1174523948","0.359823116","0.3921858285","","","","","","","","76","L","3","","","42","main_expt"
"","bandit","122","405153","0.0-83.0-0.0","10951372","wem/bandit_double","A34VY22YEREOOI","both","7","2","294","","","","","","","1","0","0","0.3831213528","0.4030522017","","","","","0.2255441472","0.2784828801","0.2043112358","0.4030522017","0.3093122096","0.1201484523","0.3710191411","0.3831213528","","","","","","","","76","L","3","","","43","main_expt"
"","bandit","123","406841","0.0-84.0-0.0","10951372","wem/bandit_double","A34VY22YEREOOI","both","7","2","157","","","","","","","1","1","0","0.3518708159","0.4106315797","","","","","0.2050272072","0.2805729819","0.1957049551","0.4106315797","0.3026159556","0.09958360536","0.3874065465","0.3518708159","","","","","","","","76","L","3","","","44","main_expt"
"","bandit","124","408446","0.0-85.0-0.0","10951372","wem/bandit_double","A34VY22YEREOOI","both","7","2","92","","","","","","","0","1","0","0.3122870636","0.4258527362","","","","","0.239455925","0.2195119073","0.2207366272","0.4258527362","0.3336294247","0.05173655998","0.3851533971","0.3122870636","","","","","","","","76","L","3","","","45","main_expt"
"","bandit","125","410224","0.0-86.0-0.0","10951372","wem/bandit_double","A34VY22YEREOOI","both","7","2","265","","","","","","","0","0","1","0.2635721956","0.4425966235","","","","","0.2414778298","0.2657932304","0.1727988076","0.4425966235","0.3400222736","0.05945041096","0.4055883719","0.2635721956","","","","","","","","76","L","3","","","46","main_expt"
"","bandit","126","411978","0.0-87.0-0.0","10951372","wem/bandit_double","A34VY22YEREOOI","both","7","2","239","","","","","","","1","0","0","0.2856785865","0.4428977597","","","","","0.1884211613","0.2678398397","0.1446735631","0.4428977597","0.328707825","0.04375763727","0.3671593179","0.2856785865","","","","","","","","76","L","3","","","47","main_expt"
"","bandit","127","413729","0.0-88.0-0.0","10951372","wem/bandit_double","A34VY22YEREOOI","both","7","2","239","","","","","","","1","0","0","0.2649087478","0.4479964269","","","","","0.1755274282","0.2866904938","0.1681765936","0.4479964269","0.3307690822","0.0666370861","0.3198203038","0.2649087478","","","","","","","","76","L","3","","","48","main_expt"
"","bandit","128","415318","0.0-89.0-0.0","10951372","wem/bandit_double","A34VY22YEREOOI","both","7","2","65","","","","","","","1","0","0","0.2462979357","0.4660387519","","","","","0.1646396384","0.2803848884","0.1473883531","0.4660387519","0.3438067684","0.08266213623","0.3111357295","0.2462979357","","","","","","","","76","L","3","","","49","main_expt"
"","bandit","129","416946","0.0-90.0-0.0","10951372","wem/bandit_double","A34VY22YEREOOI","both","7","2","113","","","","","","","0","0","1","0.2490076798","0.4345757832","","","","","0.2024226619","0.2587411269","0.1378170987","0.4345757832","0.4037002216","0.08795051988","0.3196682981","0.2490076798","","","","","","","","76","L","3","","","50","main_expt"
"","bandit","130","418500","0.0-91.0-0.0","10951372","wem/bandit_double","A34VY22YEREOOI","both","7","2","41","","","","","","","0","1","0","0.305209751","0.4450950844","","","","","0.1976760068","0.2212901065","0.1430360168","0.4450950844","0.3557518394","0.07533366945","0.3088596379","0.305209751","","","","","","","","76","L","3","","","51","main_expt"
"","bandit","131","420250","0.0-92.0-0.0","10951372","wem/bandit_double","A34VY22YEREOOI","both","7","2","232","","","","","","","0","0","1","0.3087204988","0.4475354499","","","","","0.1796352224","0.236006857","0.1731798725","0.4475354499","0.3254324358","0.06506638851","0.3060924957","0.3087204988","","","","","","","","76","L","3","","","52","main_expt"
"","bandit","132","422051","0.0-93.0-0.0","10951372","wem/bandit_double","A34VY22YEREOOI","both","7","2","272","","","","","","","0","1","0","0.2984188648","0.4627294295","","","","","0.2451732725","0.2660825342","0.1312409056","0.4627294295","0.2952150256","0.06562792832","0.3229319808","0.2984188648","","","","","","","","76","L","3","","","53","main_expt"
"","bandit","133","423827","0.0-94.0-0.0","10951372","wem/bandit_double","A34VY22YEREOOI","both","7","2","250","","","","","","","0","1","0","0.3353917468","0.44829207","","","","","0.2621482643","0.2458345041","0.1862053218","0.44829207","0.300320608","0.04630081711","0.3280138586","0.3353917468","","","","","","","","76","L","3","","","54","main_expt"
"","bandit","134","425537","0.0-95.0-0.0","10951372","wem/bandit_double","A34VY22YEREOOI","both","7","2","195","","","","","","","0","1","0","0.3259144651","0.4505537928","","","","","0.2441780383","0.2265690781","0.1733563037","0.4505537928","0.2985084879","0.03868373719","0.2777260571","0.3259144651","","","","","","","","76","L","3","","","55","main_expt"
"","bandit","135","427317","0.0-96.0-0.0","10951372","wem/bandit_double","A34VY22YEREOOI","both","7","2","263","","","","","","","0","0","1","0.2607009345","0.199729785","","","","","0.199729785","0.2741820357","0.1728369204","0.4686400132","0.2607009345","0.06235362297","0.1791004868","0.3259049121","","","","","","","","72","H","0","img/none_selected.jpg","","56","main_expt"
"","bandit","136","429321","0.0-97.0-0.0","10951372","wem/bandit_double","A34VY22YEREOOI","both","7","2","488","","","","","","","0","1","0","0.2182265394","0.09176359954","","","","","0.1945085845","0.2937641054","0.09176359954","0.4572679106","0.2565854794","0.04639461243","0.2182265394","0.3687904078","","","","","","","","75","K","2","","","57","main_expt"
"","bandit","137","430953","0.0-98.0-0.0","10951372","wem/bandit_double","A34VY22YEREOOI","both","7","2","117","","","","","","","0","1","0","0.3422038875","0.4300169527","","","","","0.2614759052","0.2949827607","0.04991422033","0.4300169527","0.319121847","0.08954448139","0.2970860181","0.3422038875","","","","","","","","76","L","3","","","58","main_expt"
"","bandit","138","432680","0.0-99.0-0.0","10951372","wem/bandit_double","A34VY22YEREOOI","both","7","2","209","","","","","","","1","0","0","0.3249685468","0.053239915","","","","","0.2426118991","0.2710075273","0.053239915","0.4050829606","0.3269923399","0.07390342289","0.3249685468","0.3771421139","","","","","","","","75","K","2","","","59","main_expt"
"","bandit","139","434204","0.0-100.0-0.0","10951372","wem/bandit_double","A34VY22YEREOOI","both","7","2","1","","","","","","","0","0","1","0.3620124399","0.4070720156","","","","","0.2623750897","0.2766623035","0.06994226662","0.4070720156","0.3150968823","0.05801548519","0.2931470039","0.3620124399","","","","","","","","76","L","3","","","60","main_expt"
"","bandit","140","435846","0.0-101.0-0.0","10951372","wem/bandit_double","A34VY22YEREOOI","both","7","2","108","","","","","","","0","0","1","0.2646536279","0.07064832373","","","","","0.2139103784","0.2574592035","0.07064832373","0.3895400789","0.324539239","0.07333263924","0.2646536279","0.3958116198","","","","","","","","75","K","2","","","61","main_expt"
"","bandit","141","437436","0.0-102.0-0.0","10951372","wem/bandit_double","A34VY22YEREOOI","both","7","2","54","","","","","","","0","1","0","0.3615218546","0.4050708951","","","","","0.2566580444","0.2425209234","0.08925217872","0.4050708951","0.3066306166","0.07563430262","0.242461968","0.3615218546","","","","","","","","76","L","3","","","62","main_expt"
"","bandit","142","439196","0.0-103.0-0.0","10951372","wem/bandit_double","A34VY22YEREOOI","both","7","2","246","","","","","","","0","0","1","0.3574266064","0.3765761212","","","","","0.2393402704","0.2294211584","0.08505035955","0.3765761212","0.3068900116","0.06826526778","0.2206683029","0.3574266064","","","","","","","","76","L","3","","","63","main_expt"
"","bandit","143","440873","0.0-104.0-0.0","10951372","wem/bandit_double","A34VY22YEREOOI","both","7","2","152","","","","","","","1","0","0","0.3541915859","0.3859881554","","","","","0.300105392","0.2350173232","0.09892528285","0.3859881554","0.2936494982","0.1175271989","0.2288959862","0.3541915859","","","","","","","","76","L","3","","","64","main_expt"
"","bandit","144","442387","0.0-105.0-0.0","10951372","wem/bandit_double","A34VY22YEREOOI","both","7","2","1","","","","","","","0","0","1","0.2346523549","0.1428545766","","","","","0.2584268813","0.2775473173","0.1428545766","0.3817039273","0.290236101","0.1273865191","0.2346523549","0.3339820985","","","","","","","","75","K","2","","","65","main_expt"
"","bandit","145","444165","0.0-106.0-0.0","10951372","wem/bandit_double","A34VY22YEREOOI","both","7","2","264","","","","","","","0","0","1","0.09075088943","0.298861572","","","","","0.2536378703","0.298861572","0.120440259","0.3622232449","0.2512036594","0.09075088943","0.1881688105","0.3195467083","","","","","","","","74","J","1","","","66","main_expt"
"","bandit","146","445906","0.0-107.0-0.0","10951372","wem/bandit_double","A34VY22YEREOOI","both","7","2","228","","","","","","","0","1","0","0.3477383846","0.3768721334","","","","","0.2548884231","0.3043747659","0.2019700983","0.3768721334","0.263747572","0.08077075725","0.231043846","0.3477383846","","","","","","","","76","L","3","","","67","main_expt"
"","bandit","147","447595","0.0-108.0-0.0","10951372","wem/bandit_double","A34VY22YEREOOI","both","7","2","171","","","","","","","0","0","1","0.3365352069","0.3826604183","","","","","0.2105458193","0.2533072519","0.1467862533","0.3826604183","0.2892519303","0.08810311296","0.2576664243","0.3365352069","","","","","","","","76","L","3","","","68","main_expt"
"","bandit","148","450033","0.0-109.0-0.0","10951372","wem/bandit_double","A34VY22YEREOOI","both","7","2","911","","","","","","","1","0","0","0.3148812039","0.3981811202","","","","","0.2901666962","0.2451677402","0.09022805221","0.3981811202","0.2383664846","0.1260156682","0.2183283259","0.3148812039","","","","","","","","76","L","3","","","69","main_expt"
"","bandit","149","451795","0.0-110.0-0.0","10951372","wem/bandit_double","A34VY22YEREOOI","both","7","2","242","","","","","","","1","0","0","0.3154014692","0.3936557204","","","","","0.2973761433","0.2403061491","0.1128827508","0.3936557204","0.2497111545","0.08773951932","0.2260484764","0.3154014692","","","","","","","","76","L","3","","","70","main_expt"
"","bandit","150","453540","0.0-111.0-0.0","10951372","wem/bandit_double","A34VY22YEREOOI","both","7","2","225","","","","","","","0","0","1","0.219815459","0.3949471057","","","","","0.2737706179","0.1917576795","0.1184182172","0.3949471057","0.2095843002","0.1154304285","0.3196469567","0.219815459","","","","","","","","76","L","3","","","71","main_expt"
"","bandit","151","455073","0.0-112.0-0.0","10951372","wem/bandit_double","A34VY22YEREOOI","both","7","2","19","","","","","","","1","0","0","0.3644141189","0.1038133506","","","","","0.3005227265","0.1894079546","0.1038133506","0.3888869603","0.1972488467","0.10097247","0.3644141189","0.2623730272","","","","","","","","75","K","2","","","72","main_expt"
"","bandit","152","456845","0.0-113.0-0.0","10951372","wem/bandit_double","A34VY22YEREOOI","both","7","2","243","","","","","","","1","0","0","0.4081842109","0.07830871569","","","","","0.3205676235","0.235909594","0.07830871569","0.4015056825","0.15494396","0.0746930591","0.4081842109","0.2639805735","","","","","","","","75","K","2","","","73","main_expt"
"","bandit","153","458673","0.0-114.0-0.0","10951372","wem/bandit_double","A34VY22YEREOOI","both","7","2","301","","","","","","","1","0","0","0.4506698749","0.09226686474","","","","","0.3040473008","0.2772030277","0.09226686474","0.4200542591","0.1324790415","0.1124392477","0.4506698749","0.2770925356","","","","","","","","75","K","2","","","74","main_expt"
"","bandit","154","460449","0.0-115.0-0.0","10951372","wem/bandit_double","A34VY22YEREOOI","both","7","2","259","","","","","","","0","0","1","0.454520075","0.07948082514","","","","","0.2686744794","0.2237268092","0.07948082514","0.4353174817","0.179195356","0.113494578","0.454520075","0.2796652475","","","","","","","","75","K","2","","","75","main_expt"
"","bandit","155","462236","0.0-116.0-0.0","10951372","wem/bandit_double","A34VY22YEREOOI","both","7","2","271","","","","","","","1","1","0","0.3153427244","0.4196821318","","","","","0.258707356","0.1739375455","0.1279570505","0.4196821318","0.215808919","0.1469344428","0.466199952","0.3153427244","","","","","","","","76","L","3","","","76","main_expt"
"","bandit","156","463895","0.0-117.0-0.0","10951372","wem/bandit_double","A34VY22YEREOOI","both","7","2","145","","","","","","","0","1","0","0.3676911864","0.3787369199","","","","","0.3010070056","0.1648796623","0.1202820049","0.3787369199","0.2312347408","0.2152215887","0.4402141775","0.3676911864","","","","","","","","76","L","3","","","77","main_expt"
"","bandit","157","465578","0.0-118.0-0.0","10951372","wem/bandit_double","A34VY22YEREOOI","both","7","2","165","","","","","","","0","0","1","0.3434277392","0.4314930014","","","","","0.2648586626","0.1637798684","0.1054071572","0.4314930014","0.2197025874","0.2055177618","0.4525957793","0.3434277392","","","","","","","","76","L","3","","","78","main_expt"
"","bandit","158","467458","0.0-119.0-0.0","10951372","wem/bandit_double","A34VY22YEREOOI","both","7","2","362","","","","","","","0","0","1","0.3758616161","0.4155078174","","","","","0.1984114041","0.1490076182","0.1403095361","0.4155078174","0.2227420924","0.222262525","0.4630799716","0.3758616161","","","","","","","","76","L","3","","","79","main_expt"
"","bandit","159","469219","0.0-120.0-0.0","10951372","wem/bandit_double","A34VY22YEREOOI","both","7","2","240","","","","","","","0","1","0","0.423693353","0.1891235553","","","","","0.180325551","0.1093198388","0.1891235553","0.4226243671","0.2283057493","0.2700860438","0.423693353","0.3862393514","","","","","","","","75","K","2","","","80","main_expt"
"","bandit","160","470880","0.0-121.0-0.0","10951372","wem/bandit_double","A34VY22YEREOOI","both","7","2","136","","","","","","","0","0","1","0.4319112677","0.1858030354","","","","","0.224531153","0.08868186825","0.1858030354","0.4474166549","0.2721525977","0.2642688004","0.4319112677","0.3593770893","","","","","","","","75","K","2","","","81","main_expt"
"","bandit","161","472641","0.0-122.0-0.0","10951372","wem/bandit_double","A34VY22YEREOOI","both","7","2","236","","","","","","","1","0","0","0.441827487","0.2476542501","","","","","0.221125015","0.1073880826","0.2476542501","0.4636297045","0.2850237184","0.2824164754","0.441827487","0.4035110645","","","","","","","","75","K","2","","","82","main_expt"
"","bandit","162","474476","0.0-123.0-0.0","10951372","wem/bandit_double","A34VY22YEREOOI","both","7","2","310","","","","","","","1","0","0","0.4288861504","0.2188241074","","","","","0.2143237207","0.1022587498","0.2188241074","0.467509749","0.3236436683","0.2819095575","0.4288861504","0.3719627038","","","","","","","","75","K","2","","","83","main_expt"
"","bandit","163","476264","0.0-124.0-0.0","10951372","wem/bandit_double","A34VY22YEREOOI","both","7","2","249","","","","","","","1","1","0","0.4350385517","0.2754771977","","","","","0.2097367537","0.1085807699","0.2754771977","0.4551111531","0.3339638593","0.2589745902","0.4350385517","0.3349288927","","","","","","","","75","K","2","","","84","main_expt"
"","bandit","164","477861","0.0-125.0-0.0","10951372","wem/bandit_double","A34VY22YEREOOI","both","7","2","71","","","","","","","0","0","1","0.4255505645","0.2965575968","","","","","0.1661536269","0.1263918358","0.2965575968","0.4621419017","0.3795022601","0.3626504113","0.4255505645","0.3247899262","","","","","","","","75","K","2","","","85","main_expt"
"","bandit","165","479405","0.0-126.0-0.0","10951372","wem/bandit_double","A34VY22YEREOOI","both","7","2","25","","","","","","","1","1","0","0.4330938692","0.257129161","","","","","0.1364458955","0.1481941301","0.257129161","0.4612050897","0.3835523064","0.3598915268","0.4330938692","0.3443557019","","","","","","","","75","K","2","","","86","main_expt"
"","bandit","166","480922","0.0-127.0-0.0","10951372","wem/bandit_double","A34VY22YEREOOI","both","7","2","2","","","","","","","0","0","1","0.4548398529","0.2338967043","","","","","0.08235553135","0.1447872846","0.2338967043","0.4334675206","0.3772514457","0.3433052933","0.4548398529","0.3648776167","","","","","","","","75","K","2","","","87","main_expt"
"","bandit","167","482676","0.0-128.0-0.0","10951372","wem/bandit_double","A34VY22YEREOOI","both","7","2","238","","","","","","","1","0","0","0.4493124031","0.2161535794","","","","","0.0754832669","0.1391637727","0.2161535794","0.4397617206","0.3766830519","0.4022938878","0.4493124031","0.3609631839","","","","","","","","75","K","2","","","88","main_expt"
"","bandit","168","484480","0.0-129.0-0.0","10951372","wem/bandit_double","A34VY22YEREOOI","both","7","2","270","","","","","","","0","0","1","0.4161110063","0.2043146745","","","","","0.109361408","0.1476089376","0.2043146745","0.4635478967","0.3537755119","0.4141493151","0.4161110063","0.3636167192","","","","","","","","75","K","2","","","89","main_expt"
"","bandit","169","486048","0.0-130.0-0.0","10951372","wem/bandit_double","A34VY22YEREOOI","both","7","2","41","","","","","","","1","1","0","0.405260856","0.2346009907","","","","","0.07391079866","0.2081489191","0.2346009907","0.4234969579","0.3014761449","0.4136124289","0.405260856","0.3563441379","","","","","","","","75","K","2","","","90","main_expt"
"","bandit","170","487622","0.0-131.0-0.0","10951372","wem/bandit_double","A34VY22YEREOOI","both","7","2","48","","","","","","","0","0","1","0.3827048226","0.2333967219","","","","","0.1164594673","0.1834039029","0.2333967219","0.4267507071","0.2694038268","0.4184852842","0.3827048226","0.3389138503","","","","","","","","75","K","2","","","91","main_expt"
"","bandit","171","489355","0.0-132.0-0.0","10951372","wem/bandit_double","A34VY22YEREOOI","both","7","2","216","","","","","","","1","1","0","0.3552182969","0.2150480475","","","","","0.113043345","0.2027314649","0.2150480475","0.4089505196","0.2651536323","0.4456808576","0.3552182969","0.3263360165","","","","","","","","75","K","2","","","92","main_expt"
"","bandit","172","490888","0.0-133.0-0.0","10951372","wem/bandit_double","A34VY22YEREOOI","both","7","2","7","","","","","","","1","0","0","0.3286897504","0.2588080464","","","","","0.1714352716","0.1738894496","0.2588080464","0.4112501448","0.1997208586","0.4355219805","0.3286897504","0.2844131911","","","","","","","","75","K","2","","","93","main_expt"
"","bandit","173","492731","0.0-134.0-0.0","10951372","wem/bandit_double","A34VY22YEREOOI","both","7","2","326","","","","","","","1","0","0","0.3422490236","0.2748849181","","","","","0.1253024032","0.2484708832","0.2748849181","0.452415855","0.2442555344","0.4609821192","0.3422490236","0.2978465223","","","","","","","","75","K","2","","","94","main_expt"
"","bandit","174","494537","0.0-135.0-0.0","10951372","wem/bandit_double","A34VY22YEREOOI","both","7","2","285","","","","","","","0","0","1","0.3160161054","0.2791739054","","","","","0.1401284447","0.2914685715","0.2791739054","0.4589197587","0.2638839348","0.4419374505","0.3160161054","0.2638723705","","","","","","","","75","K","2","","","95","main_expt"
"","bandit","175","496093","0.0-136.0-0.0","10951372","wem/bandit_double","A34VY22YEREOOI","both","7","2","33","","","","","","","1","0","0","0.2945538732","0.3149564315","","","","","0.1320491369","0.2417524935","0.3149564315","0.4481870348","0.2265245807","0.39438674","0.2945538732","0.2276010735","","","","","","","","75","K","2","","","96","main_expt"
"","bandit","176","497638","0.0-137.0-0.0","10951372","wem/bandit_double","A34VY22YEREOOI","both","7","2","31","","","","","","","1","0","0","0.393563827","0.372564007","","","","","0.1518453759","0.2492821404","0.372564007","0.4597072186","0.1969189177","0.3617668419","0.393563827","0.2045446072","","","","","","","","75","K","2","","","97","main_expt"
"","bandit","177","499180","0.0-138.0-0.0","10951372","wem/bandit_double","A34VY22YEREOOI","both","7","2","26","","","","","","","1","1","0","0.4046254927","0.393328365","","","","","0.2173959583","0.3002958449","0.393328365","0.4705619112","0.1761144245","0.3737913853","0.4046254927","0.2436418828","","","","","","","","75","K","2","","","98","main_expt"
"","bandit","178","502364","0.0-139.0-0.0","10951372","wem/bandit_double","A34VY22YEREOOI","both","7","2","1669","","","","","","","0","0","1","0.3659012549","0.421239771","","","","","0.2618725657","0.3544832656","0.421239771","0.4800968761","0.1211630765","0.4221129479","0.3659012549","0.2473144087","","","","","","","","75","K","2","","","99","main_expt"
"","bandit","179","504014","0.0-140.0-0.0","10951372","wem/bandit_double","A34VY22YEREOOI","both","7","2","134","","","","","","","0","1","0","0.400368336","0.4130759476","","","","","0.2487788848","0.3810954338","0.4130759476","0.4780143146","0.1257326749","0.3857893684","0.400368336","0.2707360286","","","","","","","","75","K","2","","","100","main_expt"
"","bandit","180","505846","0.0-141.0-0.0","10951372","wem/bandit_double","A34VY22YEREOOI","both","7","2","307","","","","","","","0","1","0","0.4367931528","0.4089462913","","","","","0.2890792313","0.4042362267","0.4089462913","0.4849002763","0.09975532208","0.3635527264","0.4367931528","0.3250409822","","","","","","","","75","K","2","","","101","main_expt"
"","bandit","181","507430","0.0-142.0-0.0","10951372","wem/bandit_double","A34VY22YEREOOI","both","7","2","66","","","","","","","0","0","1","0.4371155326","0.370330464","","","","","0.3136369757","0.4594696392","0.370330464","0.4886078379","0.1127414424","0.3738375489","0.4371155326","0.3088580598","","","","","","","","75","K","2","","","102","main_expt"
"","bandit","182","508996","0.0-143.0-0.0","10951372","wem/bandit_double","A34VY22YEREOOI","both","7","2","38","","","","","","","0","0","1","0.388648264","0.3306315663","","","","","0.2364671533","0.4588766667","0.3306315663","0.47121906","0.1232600734","0.3860163181","0.388648264","0.2901001995","","","","","","","","75","K","2","","","103","main_expt"
"","bandit","183","510587","0.0-144.0-0.0","10951372","wem/bandit_double","A34VY22YEREOOI","both","7","2","56","","","","","","","1","1","0","0.390692362","0.4372785745","","","","","0.2202486688","0.4372785745","0.354634178","0.4760763377","0.08156843846","0.390692362","0.3718469433","0.309645936","","","","","","","","74","J","1","","","104","main_expt"
"","bandit","184","512237","0.0-145.0-0.0","10951372","wem/bandit_double","A34VY22YEREOOI","both","7","2","122","","","","","","","1","1","0","0.4139082553","0.4063887309","","","","","0.1854418088","0.4063887309","0.3896605338","0.4701389446","0.08245659199","0.4139082553","0.3920304628","0.3386062745","","","","","","","","74","J","1","","","105","main_expt"
"","bandit","185","513896","0.0-146.0-0.0","10951372","wem/bandit_double","A34VY22YEREOOI","both","7","2","130","","","","","","","0","1","0","0.3295275825","0.3778019321","","","","","0.1596754559","0.3778019321","0.414339711","0.471324938","0.1276639339","0.3295275825","0.3733497125","0.3827539061","","","","","","","","74","J","1","","","106","main_expt"
"","bandit","186","515661","0.0-147.0-0.0","10951372","wem/bandit_double","A34VY22YEREOOI","both","7","2","245","","","","","","","0","1","0","0.3499712774","0.3614143111","","","","","0.137099288","0.3614143111","0.4164239898","0.4786694594","0.1812689745","0.3499712774","0.3878439861","0.3401355396","","","","","","","","74","J","1","","","107","main_expt"
"","bandit","187","517199","0.0-148.0-0.0","10951372","wem/bandit_double","A34VY22YEREOOI","both","7","2","21","","","","","","","0","1","0","0.2666891207","0.3681250399","","","","","0.1443984823","0.3681250399","0.3836571442","0.4810065258","0.2187982558","0.2666891207","0.3529013302","0.3258039352","","","","","","","","74","J","1","","","108","main_expt"
"","bandit","188","518746","0.0-149.0-0.0","10951372","wem/bandit_double","A34VY22YEREOOI","both","7","2","31","","","","","","","0","1","0","0.2575067634","0.3446081275","","","","","0.1409511773","0.3446081275","0.3881214568","0.4816764674","0.2201216928","0.2575067634","0.3457683734","0.374919859","","","","","","","","74","J","1","","","109","main_expt"
"","bandit","189","520607","0.0-150.0-0.0","10951372","wem/bandit_double","A34VY22YEREOOI","both","7","2","339","","","","","","","1","0","0","0.2664913793","0.3681270965","","","","","0.1787750665","0.3681270965","0.4266873791","0.4882082215","0.1789817232","0.2664913793","0.3316873257","0.3656186065","","","","","","","","74","J","1","","","110","main_expt"
"","bandit","190","522279","0.0-151.0-0.0","10951372","wem/bandit_double","A34VY22YEREOOI","both","7","2","146","","","","","","","0","0","1","0.2233446911","0.391379093","","","","","0.1862786225","0.391379093","0.4475699482","0.478642168","0.2404947452","0.2233446911","0.3434945318","0.3649701027","","","","","","","","74","J","1","","","111","main_expt"
"","bandit","191","524045","0.0-152.0-0.0","10951372","wem/bandit_double","A34VY22YEREOOI","both","7","2","250","","","","","","","1","0","0","0.2170082082","0.4131544452","","","","","0.1654620982","0.4131544452","0.4190314983","0.4841415165","0.2959558532","0.2170082082","0.2729480053","0.3371716456","","","","","","","","74","J","1","","","112","main_expt"
"","bandit","192","525693","0.0-153.0-0.0","10951372","wem/bandit_double","A34VY22YEREOOI","both","7","2","122","","","","","","","1","0","0","0.1912277411","0.3963985948","","","","","0.1582981878","0.3963985948","0.3666128881","0.4883212127","0.2966985553","0.1912277411","0.2579672073","0.2587224119","","","","","","","","74","J","1","","","113","main_expt"
"","bandit","193","527477","0.0-154.0-0.0","10951372","wem/bandit_double","A34VY22YEREOOI","both","7","2","268","","","","","","","0","0","1","0.1691995451","0.4117985871","","","","","0.1922757069","0.4117985871","0.3866259854","0.4883790739","0.3289730608","0.1691995451","0.24654084","0.2384324947","","","","","","","","74","J","1","","","114","main_expt"
"","bandit","194","529161","0.0-155.0-0.0","10951372","wem/bandit_double","A34VY22YEREOOI","both","7","2","163","","","","","","","0","1","0","0.1263730162","0.394381103","","","","","0.185618385","0.394381103","0.354161152","0.4902011966","0.2783705844","0.1263730162","0.246649757","0.2705755989","","","","","","","","74","J","1","","","115","main_expt"
"","bandit","195","530819","0.0-156.0-0.0","10951372","wem/bandit_double","A34VY22YEREOOI","both","7","2","130","","","","","","","0","1","0","0.1130092975","0.3762408663","","","","","0.2057277395","0.3762408663","0.3170745426","0.4844723045","0.2990421824","0.1130092975","0.2190482835","0.2666822","","","","","","","","74","J","1","","","116","main_expt"
"","bandit","196","532535","0.0-157.0-0.0","10951372","wem/bandit_double","A34VY22YEREOOI","both","7","2","191","","","","","","","0","0","1","0.1317362661","0.3823674378","","","","","0.2288411079","0.3823674378","0.304536318","0.4895589844","0.3214730448","0.1317362661","0.1860086181","0.2664749026","","","","","","","","74","J","1","","","117","main_expt"
"","bandit","197","534129","0.0-158.0-0.0","10951372","wem/bandit_double","A34VY22YEREOOI","both","7","2","76","","","","","","","0","1","0","0.3996160597","0.2207517482","","","","","0.2207517482","0.4050195855","0.3411026949","0.4899729034","0.3996160597","0.08460291254","0.1765749983","0.285497096","","","","","","","","72","H","0","img/none_selected.jpg","","118","main_expt"
"","bandit","198","535749","0.0-159.0-0.0","10951372","wem/bandit_double","A34VY22YEREOOI","both","7","2","92","","","","","","","0","0","1","0.4143362638","0.1955286499","","","","","0.1955286499","0.4227562767","0.3447942488","0.4947041593","0.4143362638","0.09168363065","0.1840588368","0.3004427434","","","","","","","","72","H","0","img/none_selected.jpg","","119","main_expt"
"","bandit","199","537290","0.0-160.0-0.0","10951372","wem/bandit_double","A34VY22YEREOOI","both","7","2","26","","","","","","","1","0","0","0.372340151","0.2427950695","","","","","0.2427950695","0.4163810796","0.3686185352","0.4916865355","0.372340151","0.06729372802","0.1988357929","0.2419855731","","","","","","","","72","H","0","img/none_selected.jpg","","120","main_expt"
"","bandit","200","538914","0.0-161.0-0.0","10951372","wem/bandit_double","A34VY22YEREOOI","both","7","2","103","","","","","","","1","1","0","0.3910424524","0.2479682904","","","","","0.2479682904","0.406821829","0.3547669752","0.4860386064","0.3910424524","0.08346408207","0.2315674","0.3054132847","","","","","","","","72","H","0","img/none_selected.jpg","","121","main_expt"
"","bandit","201","540712","0.0-162.0-0.0","10951372","wem/bandit_double","A34VY22YEREOOI","both","7","2","282","","","","","","","1","0","0","0.3813410711","0.3081985406","","","","","0.3081985406","0.3999449125","0.365994073","0.483083859","0.3813410711","0.05632743158","0.2041322171","0.2473202095","","","","","","","","72","H","0","img/none_selected.jpg","","122","main_expt"
"","bandit","202","542376","0.0-163.0-0.0","10951372","wem/bandit_double","A34VY22YEREOOI","both","7","2","146","","","","","","","0","0","1","0.4247291795","0.3089359708","","","","","0.3089359708","0.366626489","0.3120596142","0.4791491275","0.4247291795","0.05516745574","0.1945268209","0.2909195989","","","","","","","","72","H","0","img/none_selected.jpg","","123","main_expt"
"","bandit","203","543947","0.0-164.0-0.0","10951372","wem/bandit_double","A34VY22YEREOOI","both","7","2","49","","","","","","","1","0","0","0.4311179713","0.3298338218","","","","","0.3298338218","0.3706278578","0.302161917","0.4776777384","0.4311179713","0.05528311039","0.2206749142","0.3493750294","","","","","","","","72","H","0","img/none_selected.jpg","","124","main_expt"
"","bandit","204","545530","0.0-165.0-0.0","10951372","wem/bandit_double","A34VY22YEREOOI","both","7","2","64","","","","","","","1","0","0","0.4085782939","0.2795250441","","","","","0.2795250441","0.3545504723","0.2794370347","0.478983255","0.4085782939","0.07149807259","0.212012295","0.3883668019","","","","","","","","72","H","0","img/none_selected.jpg","","125","main_expt"
"","bandit","205","547114","0.0-166.0-0.0","10951372","wem/bandit_double","A34VY22YEREOOI","both","7","2","53","","","","","","","0","0","1","0.4110861309","0.2184127205","","","","","0.2184127205","0.3106298006","0.2466154908","0.4724726719","0.4110861309","0.1137803622","0.1656684785","0.3888129637","","","","","","","","72","H","0","img/none_selected.jpg","","126","main_expt"
"","bandit","206","548671","0.0-167.0-0.0","10951372","wem/bandit_double","A34VY22YEREOOI","both","7","2","29","","","","","","","1","1","0","0.4214671818","0.2488858907","","","","","0.2488858907","0.3351405197","0.2712823261","0.4796244369","0.4214671818","0.1003054442","0.1685301808","0.3659195129","","","","","","","","72","H","0","img/none_selected.jpg","","127","main_expt"
"","bandit","207","550356","0.0-168.0-0.0","10951372","wem/bandit_double","A34VY22YEREOOI","both","7","2","168","","","","","","","0","1","0","0.36889317","0.2850827173","","","","","0.2850827173","0.2984422464","0.2095517986","0.4825212971","0.36889317","0.1378169536","0.1703551811","0.3689954399","","","","","","","","72","H","0","img/none_selected.jpg","","128","main_expt"
"","bandit","208","551902","0.0-169.0-0.0","10951372","wem/bandit_double","A34VY22YEREOOI","both","7","2","4","","","","","","","0","1","0","0.3840267129","0.2867242009","","","","","0.2867242009","0.2027892291","0.1986866195","0.4877535013","0.3840267129","0.1333081235","0.1624753709","0.3600340942","","","","","","","","72","H","0","img/none_selected.jpg","","129","main_expt"
"","bandit","209","553461","0.0-170.0-0.0","10951372","wem/bandit_double","A34VY22YEREOOI","both","7","2","41","","","","","","","1","0","0","0.3809677701","0.2509552002","","","","","0.2509552002","0.13768179","0.172959111","0.4833646461","0.3809677701","0.1682212827","0.2335662737","0.3580797835","","","","","","","","72","H","0","img/none_selected.jpg","","130","main_expt"
"","bandit","210","555015","0.0-171.0-0.0","10951372","wem/bandit_double","A34VY22YEREOOI","both","7","2","28","","","","","","","0","1","0","0.3681933818","0.2172434631","","","","","0.2172434631","0.1352832961","0.163172462","0.4790990265","0.3681933818","0.2193829955","0.240441026","0.3785893338","","","","","","","","72","H","0","img/none_selected.jpg","","131","main_expt"
"","bandit","211","556563","0.0-172.0-0.0","10951372","wem/bandit_double","A34VY22YEREOOI","both","7","2","31","","","","","","","1","0","0","0.3664045944","0.158295755","","","","","0.158295755","0.08660982753","0.161148659","0.4882311922","0.3664045944","0.2693349046","0.2266699971","0.3764735404","","","","","","","","72","H","0","img/none_selected.jpg","","132","main_expt"
"","bandit","212","558088","0.0-173.0-0.0","10951372","wem/bandit_double","A34VY22YEREOOI","both","7","2","2","","","","","","","1","0","0","0.4046437197","0.185310911","","","","","0.185310911","0.1020907376","0.1735641072","0.4889625365","0.4046437197","0.2576546077","0.1994193025","0.3433534211","","","","","","","","72","H","0","img/none_selected.jpg","","133","main_expt"
"","bandit","213","559776","0.0-174.0-0.0","10951372","wem/bandit_double","A34VY22YEREOOI","both","7","2","168","","","","","","","1","0","0","0.364490756","0.1966535246","","","","","0.1966535246","0.1231499397","0.1597390633","0.4916783795","0.364490756","0.2412372273","0.1891464922","0.3606247271","","","","","","","","72","H","0","img/none_selected.jpg","","134","main_expt"
"","bandit","214","561449","0.0-175.0-0.0","10951372","wem/bandit_double","A34VY22YEREOOI","both","7","2","147","","","","","","","1","0","0","0.311914316","0.2290191974","","","","","0.2290191974","0.1524236556","0.1460070414","0.4904315354","0.311914316","0.2198641054","0.1614798668","0.3268624306","","","","","","","","72","H","0","img/none_selected.jpg","","135","main_expt"
"","bandit","215","563146","0.0-176.0-0.0","10951372","wem/bandit_double","A34VY22YEREOOI","both","7","2","179","","","","","","","1","1","0","0.2653901568","0.2929229053","","","","","0.2929229053","0.1954247664","0.105474526","0.491666595","0.2653901568","0.2504132697","0.1880386222","0.2854606769","","","","","","","","72","H","0","img/none_selected.jpg","","136","main_expt"
"","bandit","216","564816","0.0-177.0-0.0","10951372","wem/bandit_double","A34VY22YEREOOI","both","7","2","149","","","","","","","0","0","1","0.2413295316","0.2780805385","","","","","0.2780805385","0.1833989084","0.08835118593","0.4917142499","0.2413295316","0.1912230989","0.1961818793","0.3311747399","","","","","","","","72","H","0","img/none_selected.jpg","","137","main_expt"
"","bandit","217","566596","0.0-178.0-0.0","10951372","wem/bandit_double","A34VY22YEREOOI","both","7","2","258","","","","","","","1","0","0","0.1576256809","0.1490533902","","","","","0.217224157","0.1490533902","0.06418360449","0.4870170403","0.2060295423","0.1576256809","0.2857678963","0.2570785188","","","","","","","","74","J","1","","","138","main_expt"
"","bandit","218","568208","0.0-179.0-0.0","10951372","wem/bandit_double","A34VY22YEREOOI","both","7","2","80","","","","","","","0","0","1","0.1019788138","0.1318817547","","","","","0.2323391466","0.1318817547","0.03554325754","0.4834992155","0.1809645164","0.1019788138","0.3449131854","0.2858060749","","","","","","","","74","J","1","","","139","main_expt"
"","bandit","219","569864","0.0-180.0-0.0","10951372","wem/bandit_double","A34VY22YEREOOI","both","7","2","124","","","","","","","0","0","1","0.07754087054","0.1877412345","","","","","0.244475209","0.1877412345","0.04477370895","0.4927392517","0.1843216893","0.07754087054","0.2537716732","0.2975559752","","","","","","","","74","J","1","","","140","main_expt"
"","bandit","220","571741","0.0-181.0-0.0","10951372","wem/bandit_double","A34VY22YEREOOI","both","7","2","350","","","","","","","0","0","1","0.09489610577","0.2363671377","","","","","0.232604034","0.2363671377","0.03780119019","0.4872377518","0.1651876155","0.09489610577","0.2858111263","0.2802168405","","","","","","","","74","J","1","","","141","main_expt"
"","bandit","221","573321","0.0-182.0-0.0","10951372","wem/bandit_double","A34VY22YEREOOI","both","7","2","61","","","","","","","0","0","1","0.303049367","0.03149913875","","","","","0.2447345556","0.2546402356","0.03149913875","0.4846254936","0.1536427928","0.09601428546","0.303049367","0.2231986748","","","","","","","","75","K","2","","","142","main_expt"
"","bandit","222","574997","0.0-183.0-0.0","10951372","wem/bandit_double","A34VY22YEREOOI","both","7","2","144","","","","","","","1","1","0","0.2032880393","0.4815328815","","","","","0.26413271","0.2825544685","0.04191513266","0.4815328815","0.1546140226","0.08301142993","0.2969419413","0.2032880393","","","","","","","","76","L","3","","","143","main_expt"
"","bandit","223","576593","0.0-184.0-0.0","10951372","wem/bandit_double","A34VY22YEREOOI","both","7","2","77","","","","","","","0","1","0","0.1967741464","0.4854048375","","","","","0.1988203511","0.2731230023","0.05613120157","0.4854048375","0.1746031107","0.09599686985","0.3128690494","0.1967741464","","","","","","","","76","L","3","","","144","main_expt"
"","bandit","224","578359","0.0-185.0-0.0","10951372","wem/bandit_double","A34VY22YEREOOI","both","7","2","248","","","","","","","1","0","0","0.2283154954","0.4813029389","","","","","0.217822638","0.2943814715","0.03827589539","0.4813029389","0.2021387556","0.07499383622","0.2991796355","0.2283154954","","","","","","","","76","L","3","","","145","main_expt"
"","bandit","225","579932","0.0-186.0-0.0","10951372","wem/bandit_double","A34VY22YEREOOI","both","7","2","34","","","","","","","0","1","0","0.2118700154","0.4884824202","","","","","0.2009042904","0.328634005","0.02861175853","0.4884824202","0.2504344391","0.09566861","0.3163763193","0.2118700154","","","","","","","","76","L","3","","","146","main_expt"
"","bandit","226","581509","0.0-187.0-0.0","10951372","wem/bandit_double","A34VY22YEREOOI","both","7","2","53","","","","","","","0","0","1","0.210437557","0.4835291327","","","","","0.2080446297","0.3511209141","0.02140640811","0.4835291327","0.2437718569","0.08578591382","0.3198025905","0.210437557","","","","","","","","76","L","3","","","147","main_expt"
"","bandit","227","583162","0.0-188.0-0.0","10951372","wem/bandit_double","A34VY22YEREOOI","both","7","2","136","","","","","","","0","0","1","0.2370661354","0.4716003481","","","","","0.1536700415","0.3874996206","0.0202041473","0.4716003481","0.2446677265","0.1147887709","0.2588245921","0.2370661354","","","","","","","","76","L","3","","","148","main_expt"
"","bandit","228","585341","0.0-189.0-0.0","10951372","wem/bandit_double","A34VY22YEREOOI","both","7","2","661","","","","","","","0","1","0","0.2430363771","0.4341886607","","","","","0.1593661633","0.3476646045","0.01154190459","0.4341886607","0.2911002833","0.1378203382","0.248712437","0.2430363771","","","","","","","","76","L","3","","","149","main_expt"
"","bandit","229","587046","0.0-190.0-0.0","10951372","wem/bandit_double","A34VY22YEREOOI","both","7","2","177","","","","","","","1","0","0","0.2242182381","0.4014438172","","","","","0.144955896","0.3323010919","0.01291237021","0.4014438172","0.3529655025","0.1414499273","0.179144869","0.2242182381","","","","","","","","76","L","3","","","150","main_expt"
"","bandit","230","588872","0.0-191.0-0.0","10951372","wem/bandit_double","A34VY22YEREOOI","both","7","2","297","","","","","","","0","0","1","0.1997145133","0.3980713407","","","","","0.2123564028","0.3954477196","0.0137789916","0.3980713407","0.3885741111","0.07852348772","0.1545669956","0.1997145133","","","","","","","","76","L","3","","","151","main_expt"
"","bandit","231","590498","0.0-192.0-0.0","10951372","wem/bandit_double","A34VY22YEREOOI","both","7","2","104","","","","","","","0","0","1","0.3690499696","0.2301890466","","","","","0.2301890466","0.4186327087","0.01985271471","0.4002357887","0.3690499696","0.08485793113","0.1651714415","0.2195927633","","","","","","","","72","H","0","img/none_selected.jpg","","152","main_expt"
"","bandit","232","592028","0.0-193.0-0.0","10951372","wem/bandit_double","A34VY22YEREOOI","both","7","2","0","","","","","","","0","0","1","0.3710492515","0.2295153641","","","","","0.2295153641","0.4029566754","0.02951100453","0.388677987","0.3710492515","0.1083789561","0.2396245514","0.2121816628","","","","","","","","72","H","0","img/none_selected.jpg","","153","main_expt"
"","bandit","233","593744","0.0-194.0-0.0","10951372","wem/bandit_double","A34VY22YEREOOI","both","7","2","191","","","","","","","0","0","1","0.109098481","0.4037751878","","","","","0.2163321136","0.4037751878","0.02325572033","0.3817747688","0.3483335413","0.109098481","0.2085838567","0.1830588608","","","","","","","","74","J","1","","","154","main_expt"
"","bandit","234","595272","0.0-195.0-0.0","10951372","wem/bandit_double","A34VY22YEREOOI","both","7","2","7","","","","","","","0","0","1","0.1758262092","0.4078727314","","","","","0.2257858177","0.4078727314","0.03925092562","0.327727533","0.3343760247","0.1758262092","0.1864274254","0.2031423662","","","","","","","","74","J","1","","","155","main_expt"
"","bandit","235","597033","0.0-196.0-0.0","10951372","wem/bandit_double","A34VY22YEREOOI","both","7","2","231","","","","","","","0","0","1","0.1750870897","0.05532081832","","","","","0.2077891775","0.3941681487","0.05532081832","0.2821504166","0.3742013553","0.2046597001","0.1750870897","0.2022731065","","","","","","","","75","K","2","","","156","main_expt"
"","bandit","236","598611","0.0-197.0-0.0","10951372","wem/bandit_double","A34VY22YEREOOI","both","7","2","43","","","","","","","0","0","1","0.1321985386","0.05983660039","","","","","0.1742908387","0.3417147062","0.05983660039","0.2784527126","0.3620366094","0.1774751899","0.1321985386","0.1826661219","","","","","","","","75","K","2","","","157","main_expt"
"","bandit","237","600186","0.0-198.0-0.0","10951372","wem/bandit_double","A34VY22YEREOOI","both","7","2","55","","","","","","","0","0","1","0.1658993888","0.2857058734","","","","","0.162057643","0.2963220618","0.09347744845","0.2857058734","0.3671714071","0.1612033886","0.1341899746","0.1658993888","","","","","","","","76","L","3","","","158","main_expt"
"","bandit","238","601953","0.0-199.0-0.0","10951372","wem/bandit_double","A34VY22YEREOOI","both","7","2","245","","","","","","","0","0","1","0.1620079643","0.2349295223","","","","","0.1805514511","0.2961528309","0.09649648717","0.2349295223","0.4015988616","0.1586838935","0.1567784951","0.1620079643","","","","","","","","76","L","3","","","159","main_expt"
"","bandit","239","603893","0.0-200.0-0.0","10951372","wem/bandit_double","A34VY22YEREOOI","both","7","2","407","","","","","","","0","1","0","0.2453635642","0.2275717407","","","","","0.1724629995","0.2842772575","0.08382429791","0.2275717407","0.4004877553","0.2159944071","0.1615549635","0.2453635642","","","","","","","","76","L","3","","","160","main_expt"
"","bandit","240","605642","0.0-201.0-0.0","10951372","wem/bandit_double","A34VY22YEREOOI","both","7","2","230","","","","","","","1","0","0","0.2456373749","0.2559884592","","","","","0.1660992999","0.2747674873","0.1466352983","0.2559884592","0.4095849454","0.2105769377","0.1854631015","0.2456373749","","","","","","","","76","L","3","","","161","main_expt"
"","bandit","241","607367","0.0-202.0-0.0","10951372","wem/bandit_double","A34VY22YEREOOI","both","7","2","207","","","","","","","0","0","1","0.2460125232","0.2670526618","","","","","0.2281832109","0.2993190406","0.1569467617","0.2670526618","0.3978002783","0.2006925765","0.21229469","0.2460125232","","","","","","","","76","L","3","","","162","main_expt"
"","bandit","242","609158","0.0-203.0-0.0","10951372","wem/bandit_double","A34VY22YEREOOI","both","7","2","258","","","","","","","0","0","1","0.2013568893","0.2618894379","","","","","0.2144285545","0.3102408377","0.1437935099","0.2618894379","0.4180552148","0.2365124807","0.162194177","0.2013568893","","","","","","","","76","L","3","","","163","main_expt"
"","bandit","243","610743","0.0-204.0-0.0","10951372","wem/bandit_double","A34VY22YEREOOI","both","7","2","65","","","","","","","1","0","0","0.4407560021","0.2131293933","","","","","0.2131293933","0.2607878409","0.1503677763","0.2977476978","0.4407560021","0.2157370886","0.1535707797","0.1933595846","","","","","","","","72","H","0","img/none_selected.jpg","","164","main_expt"
"","bandit","244","612326","0.0-205.0-0.0","10951372","wem/bandit_double","A34VY22YEREOOI","both","7","2","60","","","","","","","1","0","0","0.4582960521","0.251698227","","","","","0.251698227","0.2470054868","0.1574825995","0.3138636066","0.4582960521","0.2166787898","0.2315934193","0.167552211","","","","","","","","72","H","0","img/none_selected.jpg","","165","main_expt"
"","bandit","245","613862","0.0-206.0-0.0","10951372","wem/bandit_double","A34VY22YEREOOI","both","7","2","12","","","","","","","0","0","1","0.4337500892","0.2831539445","","","","","0.2831539445","0.2629624785","0.1500633275","0.3204338644","0.4337500892","0.1846262972","0.2579087381","0.1311237951","","","","","","","","72","H","0","img/none_selected.jpg","","166","main_expt"
"","bandit","246","615397","0.0-207.0-0.0","10951372","wem/bandit_double","A34VY22YEREOOI","both","7","2","19","","","","","","","1","0","0","0.4537582576","0.2496169508","","","","","0.2496169508","0.2745713682","0.1137242654","0.3600517585","0.4537582576","0.1888750078","0.2496457694","0.1714029316","","","","","","","","72","H","0","img/none_selected.jpg","","167","main_expt"
"","bandit","247","616964","0.0-208.0-0.0","10951372","wem/bandit_double","A34VY22YEREOOI","both","7","2","38","","","","","","","1","0","0","0.4473485534","0.2315540067","","","","","0.2315540067","0.2557249153","0.145192941","0.3678373827","0.4473485534","0.2315683769","0.234558796","0.1494402723","","","","","","","","72","H","0","img/none_selected.jpg","","168","main_expt"
"","bandit","248","618699","0.0-209.0-0.0","10951372","wem/bandit_double","A34VY22YEREOOI","both","7","2","201","","","","","","","0","0","1","0.4471591033","0.1825517174","","","","","0.1825517174","0.2016321063","0.1863479632","0.3421512568","0.4471591033","0.2018123945","0.2458600006","0.1819888556","","","","","","","","72","H","0","img/none_selected.jpg","","169","main_expt"
"","bandit","249","620493","0.0-210.0-0.0","10951372","wem/bandit_double","A34VY22YEREOOI","both","7","2","274","","","","","","","0","0","1","0.4581839475","0.2535959064","","","","","0.2535959064","0.2210696627","0.142304713","0.3917895485","0.4581839475","0.139238222","0.2214583157","0.2329206984","","","","","","","","72","H","0","img/none_selected.jpg","","170","main_expt"
"","bandit","250","622123","0.0-211.0-0.0","10951372","wem/bandit_double","A34VY22YEREOOI","both","7","2","111","","","","","","","0","1","0","0.4674995421","0.3004284576","","","","","0.3004284576","0.1627904758","0.1739768979","0.3206692194","0.4674995421","0.1466511374","0.296208115","0.2000607923","","","","","","","","72","H","0","img/none_selected.jpg","","171","main_expt"
"","bandit","251","623650","0.0-212.0-0.0","10951372","wem/bandit_double","A34VY22YEREOOI","both","7","2","2","","","","","","","0","0","1","0.4455620345","0.2716191145","","","","","0.2716191145","0.1421076649","0.2172659048","0.3198600846","0.4455620345","0.1348290388","0.3062379281","0.2342957318","","","","","","","","72","H","0","img/none_selected.jpg","","172","main_expt"
"","bandit","252","625334","0.0-213.0-0.0","10951372","wem/bandit_double","A34VY22YEREOOI","both","7","2","156","","","","","","","0","1","0","0.4471610379","0.3253138029","","","","","0.3253138029","0.165050165","0.2419731025","0.2641483633","0.4471610379","0.1521691919","0.2498067723","0.2189308077","","","","","","","","72","H","0","img/none_selected.jpg","","173","main_expt"
"","bandit","253","626946","0.0-214.0-0.0","10951372","wem/bandit_double","A34VY22YEREOOI","both","7","2","91","","","","","","","0","0","1","0.4496576915","0.3419591401","","","","","0.3419591401","0.1406738207","0.2239571331","0.2248062597","0.4496576915","0.2191935525","0.1803522277","0.2373932689","","","","","","","","72","H","0","img/none_selected.jpg","","174","main_expt"
"","bandit","254","628526","0.0-215.0-0.0","10951372","wem/bandit_double","A34VY22YEREOOI","both","7","2","50","","","","","","","0","0","1","0.4715297358","0.3442692367","","","","","0.3442692367","0.138310495","0.2311410243","0.2370379408","0.4715297358","0.219961305","0.2014319342","0.2160264752","","","","","","","","72","H","0","img/none_selected.jpg","","175","main_expt"
"","bandit","255","630142","0.0-216.0-0.0","10951372","wem/bandit_double","A34VY22YEREOOI","both","7","2","87","","","","","","","1","1","0","0.477956151","0.3397266539","","","","","0.3397266539","0.1675243642","0.2610077479","0.2157433706","0.477956151","0.1882485239","0.2122003168","0.1990604306","","","","","","","","72","H","0","img/none_selected.jpg","","176","main_expt"
"","bandit","256","631784","0.0-217.0-0.0","10951372","wem/bandit_double","A34VY22YEREOOI","both","7","2","122","","","","","","","1","1","0","0.4563721206","0.2997078274","","","","","0.2997078274","0.1919885971","0.2780938204","0.2014791824","0.4563721206","0.1644902553","0.2629069455","0.1729978196","","","","","","","","72","H","0","img/none_selected.jpg","","177","main_expt"
"","bandit","257","633309","0.0-218.0-0.0","10951372","wem/bandit_double","A34VY22YEREOOI","both","7","2","3","","","","","","","0","0","1","0.4409869931","0.3064007527","","","","","0.3064007527","0.2365392944","0.3151752793","0.1913564418","0.4409869931","0.1713669852","0.2336104206","0.1633080779","","","","","","","","72","H","0","img/none_selected.jpg","","178","main_expt"
"","bandit","258","634832","0.0-219.0-0.0","10951372","wem/bandit_double","A34VY22YEREOOI","both","7","2","2","","","","","","","0","0","1","0.4243126063","0.3533432679","","","","","0.3533432679","0.2509455726","0.2799621139","0.1980728016","0.4243126063","0.2263400462","0.1887504226","0.1243251356","","","","","","","","72","H","0","img/none_selected.jpg","","179","main_expt"
"","bandit","259","636479","0.0-220.0-0.0","10951372","wem/bandit_double","A34VY22YEREOOI","both","7","2","127","","","","","","","0","0","1","0.4312830743","0.3652522579","","","","","0.3652522579","0.2767223981","0.3170936092","0.1833491223","0.4312830743","0.2036870175","0.138376641","0.1150149055","","","","","","","","72","H","0","img/none_selected.jpg","","180","main_expt"
"","bandit","260","638177","0.0-221.0-0.0","10951372","wem/bandit_double","A34VY22YEREOOI","both","7","2","166","","","","","","","0","0","1","0.4433127893","0.3383156657","","","","","0.3383156657","0.314600373","0.28101752","0.1342686697","0.4433127893","0.1934599198","0.1883992559","0.1407924877","","","","","","","","72","H","0","img/none_selected.jpg","","181","main_expt"
"","bandit","261","639708","0.0-222.0-0.0","10951372","wem/bandit_double","A34VY22YEREOOI","both","7","2","12","","","","","","","0","0","1","0.440136403","0.2902116232","","","","","0.2902116232","0.3943610609","0.3043342224","0.1636660304","0.440136403","0.2424515525","0.128889003","0.09672650852","","","","","","","","72","H","0","img/none_selected.jpg","","182","main_expt"
"","bandit","262","641239","0.0-223.0-0.0","10951372","wem/bandit_double","A34VY22YEREOOI","both","7","2","12","","","","","","","1","0","0","0.4347693449","0.3026157476","","","","","0.3026157476","0.3586422101","0.3192524042","0.136761637","0.4347693449","0.1961777535","0.1748769843","0.09888002855","","","","","","","","72","H","0","img/none_selected.jpg","","183","main_expt"
"","bandit","263","642787","0.0-224.0-0.0","10951372","wem/bandit_double","A34VY22YEREOOI","both","7","2","31","","","","","","","1","0","0","0.4277130926","0.3360229169","","","","","0.3360229169","0.3879999062","0.3332516821","0.1685989701","0.4277130926","0.1489283113","0.1945994373","0.07200145298","","","","","","","","72","H","0","img/none_selected.jpg","","184","main_expt"
"","bandit","264","644326","0.0-225.0-0.0","10951372","wem/bandit_double","A34VY22YEREOOI","both","7","2","9","","","","","","","1","1","0","0.3956248437","0.3336456265","","","","","0.3336456265","0.3831340227","0.3228184693","0.1663529744","0.3956248437","0.1499965078","0.1644748654","0.09476413333","","","","","","","","72","H","0","img/none_selected.jpg","","185","main_expt"
"","bandit","265","645893","0.0-226.0-0.0","10951372","wem/bandit_double","A34VY22YEREOOI","both","7","2","42","","","","","","","0","0","1","0.3748928266","0.3308881938","","","","","0.3308881938","0.3999004662","0.3111703144","0.1916836285","0.3748928266","0.2169832988","0.1504635592","0.06556422103","","","","","","","","72","H","0","img/none_selected.jpg","","186","main_expt"
"","bandit","266","647424","0.0-227.0-0.0","10951372","wem/bandit_double","A34VY22YEREOOI","both","7","2","13","","","","","","","1","0","0","0.3848139325","0.325530054","","","","","0.325530054","0.3875363153","0.3353611299","0.1686829448","0.3848139325","0.2655186329","0.1760039214","0.08901149072","","","","","","","","72","H","0","img/none_selected.jpg","","187","main_expt"
"","bandit","267","649170","0.0-228.0-0.0","10951372","wem/bandit_double","A34VY22YEREOOI","both","7","2","212","","","","","","","0","0","1","0.3990176401","0.3055482451","","","","","0.3055482451","0.3875691392","0.3646937268","0.1461675531","0.3990176401","0.2738785118","0.1203267588","0.09471428588","","","","","","","","72","H","0","img/none_selected.jpg","","188","main_expt"
"","bandit","268","650864","0.0-229.0-0.0","10951372","wem/bandit_double","A34VY22YEREOOI","both","7","2","155","","","","","","","1","0","0","0.3581396838","0.3002345065","","","","","0.3002345065","0.4166866882","0.3891323825","0.1382971047","0.3581396838","0.3041874674","0.1171540391","0.05118235823","","","","","","","","72","H","0","img/none_selected.jpg","","189","main_expt"
"","bandit","269","652429","0.0-230.0-0.0","10951372","wem/bandit_double","A34VY22YEREOOI","both","7","2","48","","","","","","","0","0","1","0.2882972244","0.2693931213","","","","","0.2693931213","0.4124474499","0.3860741766","0.1898135375","0.2882972244","0.3229453735","0.1535230761","0.05788318751","","","","","","","","72","H","0","img/none_selected.jpg","","190","main_expt"
"","bandit","270","654019","0.0-231.0-0.0","10951372","wem/bandit_double","A34VY22YEREOOI","both","7","2","71","","","","","","","1","1","0","0.3145326233","0.3009284261","","","","","0.3009284261","0.3638199534","0.3864243721","0.1264917812","0.3145326233","0.3818249757","0.1372750947","0.08736915481","","","","","","","","72","H","0","img/none_selected.jpg","","191","main_expt"
"","bandit","271","655707","0.0-232.0-0.0","10951372","wem/bandit_double","A34VY22YEREOOI","both","7","2","167","","","","","","","1","1","0","0.3270603702","0.3157917784","","","","","0.3157917784","0.3711146034","0.400448014","0.1185409567","0.3270603702","0.4157726243","0.1047771501","0.08251019118","","","","","","","","72","H","0","img/none_selected.jpg","","192","main_expt"
"","bandit","272","657262","0.0-233.0-0.0","10951372","wem/bandit_double","A34VY22YEREOOI","both","7","2","29","","","","","","","0","0","1","0.3604030797","0.2999212614","","","","","0.2999212614","0.3654165885","0.3895367297","0.09837948322","0.3604030797","0.4611608212","0.1100845432","0.06897628064","","","","","","","","72","H","0","img/none_selected.jpg","","193","main_expt"
"","bandit","273","658952","0.0-234.0-0.0","10951372","wem/bandit_double","A34VY22YEREOOI","both","7","2","165","","","","","","","1","0","0","0.357423186","0.3287494418","","","","","0.3287494418","0.3537818584","0.4032313792","0.137690802","0.357423186","0.4508818777","0.1468163818","0.06801266305","","","","","","","","72","H","0","img/none_selected.jpg","","194","main_expt"
"","bandit","274","661521","0.0-235.0-0.0","10951372","wem/bandit_double","A34VY22YEREOOI","both","7","2","1051","","","","","","","0","0","1","0.3697779856","0.3031978913","","","","","0.3031978913","0.3597494918","0.337234763","0.1683354775","0.3697779856","0.4278921451","0.1495594621","0.09923709358","","","","","","","","72","H","0","img/none_selected.jpg","","195","main_expt"
"","bandit","275","663243","0.0-236.0-0.0","10951372","wem/bandit_double","A34VY22YEREOOI","both","7","2","194","","","","","","","0","0","1","0.3617177512","0.2901303692","","","","","0.2901303692","0.3479121901","0.3950764453","0.1561951964","0.3617177512","0.4256293003","0.2263220537","0.1103063831","","","","","","","","72","H","0","img/none_selected.jpg","","196","main_expt"
"","bandit","276","664956","0.0-237.0-0.0","10951372","wem/bandit_double","A34VY22YEREOOI","both","7","2","192","","","","","","","0","1","0","0.3775990084","0.2444781728","","","","","0.2444781728","0.3596292454","0.4193743727","0.1329868482","0.3775990084","0.4476975038","0.2204718804","0.07377144043","","","","","","","","72","H","0","img/none_selected.jpg","","197","main_expt"
"","bandit","277","666573","0.0-238.0-0.0","10951372","wem/bandit_double","A34VY22YEREOOI","both","7","2","97","","","","","","","1","0","0","0.4144042571","0.2140047665","","","","","0.2140047665","0.3555371828","0.4375347816","0.1730826789","0.4144042571","0.4434357272","0.2401118457","0.08863448313","","","","","","","","72","H","0","img/none_selected.jpg","","198","main_expt"
"","bandit","278","668135","0.0-239.0-0.0","10951372","wem/bandit_double","A34VY22YEREOOI","both","7","2","42","","","","","","","0","0","1","0.4081775392","0.2077842613","","","","","0.2077842613","0.4016486285","0.4315030007","0.1385649096","0.4081775392","0.4245114622","0.2673724497","0.1082179128","","","","","","","","72","H","0","img/none_selected.jpg","","199","main_expt"
"","bandit","279","669894","0.0-240.0-0.0","10951372","wem/bandit_double","A34VY22YEREOOI","both","7","2","241","","","","","","","1","1","0","0.4166156547","0.180488049","","","","","0.180488049","0.3871107612","0.4340108373","0.1941139053","0.4166156547","0.4087100315","0.3125307902","0.09350688576","","","","","","","","72","H","0","img/none_selected.jpg","","200","main_expt"
"","bandit","280","671418","0.0-241.0-0.0","10951372","wem/bandit_double","A34VY22YEREOOI","both","7","2","3","","","","","","","0","0","1","0.4306537176","0.2084987087","","","","","0.2084987087","0.3856539452","0.441078118","0.1825013029","0.4306537176","0.4361521275","0.2914574258","0.1036625099","","","","","","","","72","H","0","img/none_selected.jpg","","201","main_expt"
"","bandit","281","673015","0.0-242.0-0.0","10951372","wem/bandit_double","A34VY22YEREOOI","both","7","2","63","","","","","","","0","1","0","0.449382563","0.1869669721","","","","","0.1869669721","0.358588673","0.4143682719","0.162440572","0.449382563","0.3332596158","0.2550600684","0.1216733889","","","","","","","","72","H","0","img/none_selected.jpg","","202","main_expt"
"","bandit","282","674592","0.0-243.0-0.0","10951372","wem/bandit_double","A34VY22YEREOOI","both","7","2","50","","","","","","","0","1","0","0.4506576586","0.1383076553","","","","","0.1383076553","0.3460881607","0.4280720422","0.1914238456","0.4506576586","0.3581848779","0.2769745997","0.120655788","","","","","","","","72","H","0","img/none_selected.jpg","","203","main_expt"
"","bandit","283","676117","0.0-244.0-0.0","10951372","wem/bandit_double","A34VY22YEREOOI","both","7","2","3","","","","","","","1","0","0","0.454839243","0.1656187697","","","","","0.1656187697","0.3091432968","0.4113524858","0.1849793247","0.454839243","0.3597133043","0.2752990059","0.1082970726","","","","","","","","72","H","0","img/none_selected.jpg","","204","main_expt"
"","bandit","284","677656","0.0-245.0-0.0","10951372","wem/bandit_double","A34VY22YEREOOI","both","7","2","20","","","","","","","0","1","0","0.4512889682","0.1699285253","","","","","0.1699285253","0.3016396897","0.4151465815","0.1722293799","0.4512889682","0.3630183988","0.2901512169","0.09143681274","","","","","","","","72","H","0","img/none_selected.jpg","","205","main_expt"
"","bandit","285","679203","0.0-246.0-0.0","10951372","wem/bandit_double","A34VY22YEREOOI","both","7","2","18","","","","","","","1","0","0","0.4591490044","0.161732949","","","","","0.161732949","0.3300702997","0.4002359997","0.1625694713","0.4591490044","0.3737494834","0.2823763913","0.08377413986","","","","","","","","72","H","0","img/none_selected.jpg","","206","main_expt"
"","bandit","286","680745","0.0-247.0-0.0","10951372","wem/bandit_double","A34VY22YEREOOI","both","7","2","22","","","","","","","0","0","1","0.4650593633","0.1699017951","","","","","0.1699017951","0.2648848683","0.3692387261","0.1079769143","0.4650593633","0.3668784438","0.2708062506","0.1585073664","","","","","","","","72","H","0","img/none_selected.jpg","","207","main_expt"
"","bandit","287","682278","0.0-248.0-0.0","10951372","wem/bandit_double","A34VY22YEREOOI","both","7","2","11","","","","","","","1","0","0","0.4641513068","0.1592107695","","","","","0.1592107695","0.2502792914","0.3283471685","0.1380178959","0.4641513068","0.4045351895","0.2641553663","0.162299901","","","","","","","","72","H","0","img/none_selected.jpg","","208","main_expt"
"","bandit","288","683815","0.0-249.0-0.0","10951372","wem/bandit_double","A34VY22YEREOOI","both","7","2","5","","","","","","","1","0","0","0.4567807332","0.1659907122","","","","","0.1659907122","0.2770073026","0.2924758898","0.1538506734","0.4567807332","0.4402386934","0.2704675845","0.1542266077","","","","","","","","72","H","0","img/none_selected.jpg","","209","main_expt"
"","bandit","289","685534","0.0-250.0-0.0","10951372","wem/bandit_double","A34VY22YEREOOI","both","7","2","190","","","","","","","0","1","0","0.428253188","0.229525517","","","","","0.229525517","0.3451435735","0.2279470939","0.1406222791","0.428253188","0.4483623408","0.3420868926","0.1890415559","","","","","","","","72","H","0","img/none_selected.jpg","","210","main_expt"
"","bandit","290","687064","0.0-251.0-0.0","10951372","wem/bandit_double","A34VY22YEREOOI","both","7","2","12","","","","","","","1","0","0","0.410271385","0.2434605193","","","","","0.2434605193","0.3514478275","0.2131844406","0.08987887408","0.410271385","0.4471415093","0.3069688952","0.1818133019","","","","","","","","72","H","0","img/none_selected.jpg","","211","main_expt"
"","bandit","291","688593","0.0-252.0-0.0","10951372","wem/bandit_double","A34VY22YEREOOI","both","7","2","5","","","","","","","0","0","1","0.4065587724","0.1633214123","","","","","0.1633214123","0.3579324364","0.1601793481","0.1277875359","0.4065587724","0.4374655127","0.3005379093","0.1782747956","","","","","","","","72","H","0","img/none_selected.jpg","","212","main_expt"
"","bandit","292","690194","0.0-253.0-0.0","10951372","wem/bandit_double","A34VY22YEREOOI","both","7","2","79","","","","","","","1","0","0","0.4007116542","0.1014835246","","","","","0.1014835246","0.3231243524","0.1354109392","0.134271297","0.4007116542","0.4381457257","0.213882915","0.1935195711","","","","","","","","72","H","0","img/none_selected.jpg","","213","main_expt"
"","bandit","293","691759","0.0-254.0-0.0","10951372","wem/bandit_double","A34VY22YEREOOI","both","7","2","37","","","","","","","0","1","0","0.4246209323","0.09587264096","","","","","0.09587264096","0.2798540136","0.1142105534","0.1385204111","0.4246209323","0.4643769008","0.2138557204","0.2421176173","","","","","","","","72","H","0","img/none_selected.jpg","","214","main_expt"
