"consent","trial_type","trial_index","time_elapsed","internal_node_id","subjID","study","MID","cond","drift1","drift2","rt","responses","key_press","expt_phase","like","value","connected","gems","bombs","no_reward","GemPrChosen","BombPrChosen","GainOverPainPr_0","GainOverPainPr_1","GainOverPainPr_2","GainOverPainPr_3","LosePr_0","LosePr_1","LosePr_2","LosePr_3","WinPr_0","WinPr_1","WinPr_2","WinPr_3","Q0","Q1","Q2","gender","age","ethnicity","target","respCharCode","respKey","respChoiceNum","respChoice","practice","trial_counter","trial_label"
"INL_behavioral_consent_30min_online.html","consent","0","13285","0.0-0.0","13614112","wem/bandit_double","AE608VRXK6M2E","both","6","3","","","","","","","","","","","","","","","","","","","","","","","","","","","","","","","","","","","","","",""
"","survey-text","1","19374","0.0-1.0","13614112","wem/bandit_double","AE608VRXK6M2E","both","6","3","5079","{""Q0"":""AE608VRXK6M2E""}","","","","","","","","","","","","","","","","","","","","","","","","","","","","","","","","","","","",""
"","text","2","26136","0.0-2.0","13614112","wem/bandit_double","AE608VRXK6M2E","both","6","3","5757","","32","","","","","","","","","","","","","","","","","","","","","","","","","","","","","","","","","","",""
"","text","3","33131","0.0-3.0","13614112","wem/bandit_double","AE608VRXK6M2E","both","6","3","6993","","32","","","","","","","","","","","","","","","","","","","","","","","","","","","","","","","","","","",""
"","text","4","55235","0.0-4.0","13614112","wem/bandit_double","AE608VRXK6M2E","both","6","3","22101","","32","","","","","","","","","","","","","","","","","","","","","","","","","","","","","","","","","","",""
"","text","5","99833","0.0-5.0","13614112","wem/bandit_double","AE608VRXK6M2E","both","6","3","44597","","32","","","","","","","","","","","","","","","","","","","","","","","","","","","","","","","","","","",""
"","text","6","120543","0.0-6.0","13614112","wem/bandit_double","AE608VRXK6M2E","both","6","3","20705","","32","","","","","","","","","","","","","","","","","","","","","","","","","","","","","","","","","","",""
"","text","7","125840","0.0-7.0","13614112","wem/bandit_double","AE608VRXK6M2E","both","6","3","5290","","32","","","","","","","","","","","","","","","","","","","","","","","","","","","","","","","","","","",""
"","identification","8","139575","0.0-8.0-0.0","13614112","wem/bandit_double","AE608VRXK6M2E","both","6","3","13707","","","","3","2","2","","","","","","","","","","","","","","","","","","","","","","","","the village of Zur","","","","","","",""
"","identification","9","146629","0.0-8.0-1.0","13614112","wem/bandit_double","AE608VRXK6M2E","both","6","3","6024","","","","1","0","0","","","","","","","","","","","","","","","","","","","","","","","","the village of Nyx","","","","","","",""
"","text","10","156098","0.0-9.0","13614112","wem/bandit_double","AE608VRXK6M2E","both","6","3","8463","","32","","","","","","","","","","","","","","","","","","","","","","","","","","","","","","","","","","",""
"","text","11","157689","0.0-10.0","13614112","wem/bandit_double","AE608VRXK6M2E","both","6","3","1588","","32","","","","","","","","","","","","","","","","","","","","","","","","","","","","","","","","","","",""
"","text","12","161601","0.0-11.0","13614112","wem/bandit_double","AE608VRXK6M2E","both","6","3","3911","","32","","","","","","","","","","","","","","","","","","","","","","","","","","","","","","","","","","",""
"","text","13","163323","0.0-12.0","13614112","wem/bandit_double","AE608VRXK6M2E","both","6","3","1719","","32","","","","","","","","","","","","","","","","","","","","","","","","","","","","","","","","","","",""
"","text","14","168432","0.0-13.0","13614112","wem/bandit_double","AE608VRXK6M2E","both","6","3","5107","","32","","","","","","","","","","","","","","","","","","","","","","","","","","","","","","","","","","",""
"","bandit","15","173084","0.0-14.0-0.0","13614112","wem/bandit_double","AE608VRXK6M2E","both","6","3","3140","","","","","","","1","0","0","1","0","","","","","0","","","","1","","","","","","","","","","","74","J","0","img/none_selected_demo.jpg","true","0",""
"","bandit","16","176419","0.0-15.0-0.0","13614112","wem/bandit_double","AE608VRXK6M2E","both","6","3","1825","","","","","","","0","1","0","0","1","","","","","1","","","","0","","","","","","","","","","","75","K","0","img/none_selected_demo.jpg","true","0",""
"","text","17","179007","0.0-16.0","13614112","wem/bandit_double","AE608VRXK6M2E","both","6","3","2587","","32","","","","","","","","","","","","","","","","","","","","","","","","","","","","","","","","","","",""
"","text","18","188953","0.0-17.0","13614112","wem/bandit_double","AE608VRXK6M2E","both","6","3","9944","","32","","","","","","","","","","","","","","","","","","","","","","","","","","","","","","","","","","",""
"","text","19","196431","0.0-18.0","13614112","wem/bandit_double","AE608VRXK6M2E","both","6","3","7476","","32","","","","","","","","","","","","","","","","","","","","","","","","","","","","","","","","","","",""
"","text","20","201139","0.0-19.0","13614112","wem/bandit_double","AE608VRXK6M2E","both","6","3","4705","","32","","","","","","","","","","","","","","","","","","","","","","","","","","","","","","","","","","",""
"","bandit","21","204280","0.0-20.0-0.0","13614112","wem/bandit_double","AE608VRXK6M2E","both","6","3","1633","","","","","","","1","0","0","0.8","0","","","","","0","0","","","0.8","0.2","","","","","","","","","","74","J","0","img/none_selected_demo.jpg","true","0","80_20_practice"
"","bandit","22","207664","0.0-20.0-1.0","13614112","wem/bandit_double","AE608VRXK6M2E","both","6","3","1873","","","","","","","1","0","0","0.2","0","","","","","0","0","","","0.8","0.2","","","","","","","","","","75","K","1","","true","0","80_20_practice"
"","bandit","23","209791","0.0-20.0-2.0","13614112","wem/bandit_double","AE608VRXK6M2E","both","6","3","617","","","","","","","1","0","0","0.8","0","","","","","0","0","","","0.8","0.2","","","","","","","","","","74","J","0","img/none_selected_demo.jpg","true","0","80_20_practice"
"","bandit","24","212416","0.0-20.0-3.0","13614112","wem/bandit_double","AE608VRXK6M2E","both","6","3","1116","","","","","","","1","0","0","0.8","0","","","","","0","0","","","0.8","0.2","","","","","","","","","","74","J","0","img/none_selected_demo.jpg","true","0","80_20_practice"
"","bandit","25","214258","0.0-20.0-4.0","13614112","wem/bandit_double","AE608VRXK6M2E","both","6","3","334","","","","","","","1","0","0","0.8","0","","","","","0","0","","","0.8","0.2","","","","","","","","","","74","J","0","img/none_selected_demo.jpg","true","0","80_20_practice"
"","bandit","26","216049","0.0-20.0-5.0","13614112","wem/bandit_double","AE608VRXK6M2E","both","6","3","281","","","","","","","1","0","0","0.8","0","","","","","0","0","","","0.8","0.2","","","","","","","","","","74","J","0","img/none_selected_demo.jpg","true","0","80_20_practice"
"","bandit","27","217559","0.0-20.0-6.0","13614112","wem/bandit_double","AE608VRXK6M2E","both","6","3","1","","","","","","","1","0","0","0.8","0","","","","","0","0","","","0.8","0.2","","","","","","","","","","74","J","0","img/none_selected_demo.jpg","true","0","80_20_practice"
"","bandit","28","219504","0.0-20.0-7.0","13614112","wem/bandit_double","AE608VRXK6M2E","both","6","3","435","","","","","","","1","0","0","0.8","0","","","","","0","0","","","0.8","0.2","","","","","","","","","","74","J","0","img/none_selected_demo.jpg","true","0","80_20_practice"
"","bandit","29","221248","0.0-20.0-8.0","13614112","wem/bandit_double","AE608VRXK6M2E","both","6","3","235","","","","","","","1","0","0","0.8","0","","","","","0","0","","","0.8","0.2","","","","","","","","","","74","J","0","img/none_selected_demo.jpg","true","0","80_20_practice"
"","bandit","30","222970","0.0-20.0-9.0","13614112","wem/bandit_double","AE608VRXK6M2E","both","6","3","211","","","","","","","0","0","1","0.2","0","","","","","0","0","","","0.8","0.2","","","","","","","","","","75","K","1","","true","0","80_20_practice"
"","bandit","31","225288","0.0-20.0-10.0","13614112","wem/bandit_double","AE608VRXK6M2E","both","6","3","810","","","","","","","0","0","1","0.2","0","","","","","0","0","","","0.8","0.2","","","","","","","","","","75","K","1","","true","0","80_20_practice"
"","bandit","32","227080","0.0-20.0-11.0","13614112","wem/bandit_double","AE608VRXK6M2E","both","6","3","283","","","","","","","1","0","0","0.8","0","","","","","0","0","","","0.8","0.2","","","","","","","","","","74","J","0","img/none_selected_demo.jpg","true","0","80_20_practice"
"","bandit","33","228949","0.0-20.0-12.0","13614112","wem/bandit_double","AE608VRXK6M2E","both","6","3","364","","","","","","","0","0","1","0.8","0","","","","","0","0","","","0.8","0.2","","","","","","","","","","74","J","0","img/none_selected_demo.jpg","true","0","80_20_practice"
"","bandit","34","231703","0.0-20.0-13.0","13614112","wem/bandit_double","AE608VRXK6M2E","both","6","3","1248","","","","","","","1","0","0","0.8","0","","","","","0","0","","","0.8","0.2","","","","","","","","","","74","J","0","img/none_selected_demo.jpg","true","0","80_20_practice"
"","bandit","35","233511","0.0-20.0-14.0","13614112","wem/bandit_double","AE608VRXK6M2E","both","6","3","299","","","","","","","1","0","0","0.8","0","","","","","0","0","","","0.8","0.2","","","","","","","","","","74","J","0","img/none_selected_demo.jpg","true","0","80_20_practice"
"","bandit","36","235271","0.0-20.0-15.0","13614112","wem/bandit_double","AE608VRXK6M2E","both","6","3","247","","","","","","","0","0","1","0.8","0","","","","","0","0","","","0.8","0.2","","","","","","","","","","74","J","0","img/none_selected_demo.jpg","true","0","80_20_practice"
"","bandit","37","237084","0.0-20.0-16.0","13614112","wem/bandit_double","AE608VRXK6M2E","both","6","3","300","","","","","","","1","0","0","0.8","0","","","","","0","0","","","0.8","0.2","","","","","","","","","","74","J","0","img/none_selected_demo.jpg","true","0","80_20_practice"
"","bandit","38","238792","0.0-20.0-17.0","13614112","wem/bandit_double","AE608VRXK6M2E","both","6","3","201","","","","","","","1","0","0","0.8","0","","","","","0","0","","","0.8","0.2","","","","","","","","","","74","J","0","img/none_selected_demo.jpg","true","0","80_20_practice"
"","bandit","39","240542","0.0-20.0-18.0","13614112","wem/bandit_double","AE608VRXK6M2E","both","6","3","246","","","","","","","1","0","0","0.8","0","","","","","0","0","","","0.8","0.2","","","","","","","","","","74","J","0","img/none_selected_demo.jpg","true","0","80_20_practice"
"","bandit","40","242336","0.0-20.0-19.0","13614112","wem/bandit_double","AE608VRXK6M2E","both","6","3","286","","","","","","","1","0","0","0.8","0","","","","","0","0","","","0.8","0.2","","","","","","","","","","74","J","0","img/none_selected_demo.jpg","true","0","80_20_practice"
"","text","41","245674","0.0-21.0","13614112","wem/bandit_double","AE608VRXK6M2E","both","6","3","3335","","32","","","","","","","","","","","","","","","","","","","","","","","","","","","","","","","","","","",""
"","bandit","42","248519","0.0-22.0-0.0","13614112","wem/bandit_double","AE608VRXK6M2E","both","6","3","1337","","","","","","","1","0","0","1","0","","","","","0","1","","","1","0","","","","","","","","","","74","J","0","img/none_selected_demo.jpg","true","0",""
"","text","43","260570","0.0-23.0","13614112","wem/bandit_double","AE608VRXK6M2E","both","6","3","12046","","32","","","","","","","","","","","","","","","","","","","","","","","","","","","","","","","","","","",""
"","text","44","263991","0.0-24.0","13614112","wem/bandit_double","AE608VRXK6M2E","both","6","3","3419","","32","","","","","","","","","","","","","","","","","","","","","","","","","","","","","","","","","","",""
"","text","45","266568","0.0-25.0","13614112","wem/bandit_double","AE608VRXK6M2E","both","6","3","2575","","32","","","","","","","","","","","","","","","","","","","","","","","","","","","","","","","","","","",""
"","text","46","269704","0.0-26.0","13614112","wem/bandit_double","AE608VRXK6M2E","both","6","3","3132","","32","","","","","","","","","","","","","","","","","","","","","","","","","","","","","","","","","","",""
"","text","47","272154","0.0-27.0","13614112","wem/bandit_double","AE608VRXK6M2E","both","6","3","2447","","32","","","","","","","","","","","","","","","","","","","","","","","","","","","","","","","","","","",""
"","text","48","282593","0.0-28.0","13614112","wem/bandit_double","AE608VRXK6M2E","both","6","3","10436","","32","","","","","","","","","","","","","","","","","","","","","","","","","","","","","","","","","","",""
"","text","49","295242","0.0-29.0","13614112","wem/bandit_double","AE608VRXK6M2E","both","6","3","12647","","32","","","","","","","","","","","","","","","","","","","","","","","","","","","","","","","","","","",""
"","text","50","301553","0.0-30.0","13614112","wem/bandit_double","AE608VRXK6M2E","both","6","3","6307","","32","","","","","","","","","","","","","","","","","","","","","","","","","","","","","","","","","","",""
"","text","51","305730","0.0-31.0","13614112","wem/bandit_double","AE608VRXK6M2E","both","6","3","4173","","32","","","","","","","","","","","","","","","","","","","","","","","","","","","","","","","","","","",""
"","text","52","310263","0.0-32.0","13614112","wem/bandit_double","AE608VRXK6M2E","both","6","3","4531","","32","","","","","","","","","","","","","","","","","","","","","","","","","","","","","","","","","","",""
"","text","53","312848","0.0-33.0","13614112","wem/bandit_double","AE608VRXK6M2E","both","6","3","2581","","32","","","","","","","","","","","","","","","","","","","","","","","","","","","","","","","","","","",""
"","text","54","315304","0.0-34.0","13614112","wem/bandit_double","AE608VRXK6M2E","both","6","3","2451","","32","","","","","","","","","","","","","","","","","","","","","","","","","","","","","","","","","","",""
"","bandit","55","319546","0.0-35.0-0.0","13614112","wem/bandit_double","AE608VRXK6M2E","both","6","3","2731","","","","","","","1","0","0","0.8","0.8","","","","","0.8","0.2","0.6","0.2","0.8","0.2","0.6","0.2","","","","","","","","72","H","0","img/none_selected.jpg","true","0","full_practice"
"","bandit","56","321614","0.0-35.0-1.0","13614112","wem/bandit_double","AE608VRXK6M2E","both","6","3","561","","","","","","","1","0","0","0.8","0.8","","","","","0.8","0.2","0.6","0.2","0.8","0.2","0.6","0.2","","","","","","","","72","H","0","img/none_selected.jpg","true","0","full_practice"
"","bandit","57","323344","0.0-35.0-2.0","13614112","wem/bandit_double","AE608VRXK6M2E","both","6","3","223","","","","","","","0","0","1","0.2","0.2","","","","","0.8","0.2","0.6","0.2","0.8","0.2","0.6","0.2","","","","","","","","74","J","1","","true","0","full_practice"
"","bandit","58","325048","0.0-35.0-3.0","13614112","wem/bandit_double","AE608VRXK6M2E","both","6","3","194","","","","","","","1","0","0","0.6","0.6","","","","","0.8","0.2","0.6","0.2","0.8","0.2","0.6","0.2","","","","","","","","75","K","2","","true","0","full_practice"
"","bandit","59","326847","0.0-35.0-4.0","13614112","wem/bandit_double","AE608VRXK6M2E","both","6","3","290","","","","","","","0","0","1","0.2","0.2","","","","","0.8","0.2","0.6","0.2","0.8","0.2","0.6","0.2","","","","","","","","76","L","3","","true","0","full_practice"
"","bandit","60","328713","0.0-35.0-5.0","13614112","wem/bandit_double","AE608VRXK6M2E","both","6","3","356","","","","","","","1","1","0","0.6","0.6","","","","","0.8","0.2","0.6","0.2","0.8","0.2","0.6","0.2","","","","","","","","75","K","2","","true","0","full_practice"
"","bandit","61","330600","0.0-35.0-6.0","13614112","wem/bandit_double","AE608VRXK6M2E","both","6","3","380","","","","","","","1","0","0","0.6","0.6","","","","","0.8","0.2","0.6","0.2","0.8","0.2","0.6","0.2","","","","","","","","75","K","2","","true","0","full_practice"
"","bandit","62","332312","0.0-35.0-7.0","13614112","wem/bandit_double","AE608VRXK6M2E","both","6","3","203","","","","","","","1","0","0","0.6","0.6","","","","","0.8","0.2","0.6","0.2","0.8","0.2","0.6","0.2","","","","","","","","75","K","2","","true","0","full_practice"
"","bandit","63","333920","0.0-35.0-8.0","13614112","wem/bandit_double","AE608VRXK6M2E","both","6","3","97","","","","","","","1","1","0","0.2","0.2","","","","","0.8","0.2","0.6","0.2","0.8","0.2","0.6","0.2","","","","","","","","76","L","3","","true","0","full_practice"
"","bandit","64","335672","0.0-35.0-9.0","13614112","wem/bandit_double","AE608VRXK6M2E","both","6","3","245","","","","","","","0","1","0","0.2","0.2","","","","","0.8","0.2","0.6","0.2","0.8","0.2","0.6","0.2","","","","","","","","76","L","3","","true","0","full_practice"
"","bandit","65","337399","0.0-35.0-10.0","13614112","wem/bandit_double","AE608VRXK6M2E","both","6","3","220","","","","","","","0","1","0","0.2","0.2","","","","","0.8","0.2","0.6","0.2","0.8","0.2","0.6","0.2","","","","","","","","76","L","3","","true","0","full_practice"
"","bandit","66","339159","0.0-35.0-11.0","13614112","wem/bandit_double","AE608VRXK6M2E","both","6","3","251","","","","","","","0","0","1","0.2","0.2","","","","","0.8","0.2","0.6","0.2","0.8","0.2","0.6","0.2","","","","","","","","76","L","3","","true","0","full_practice"
"","bandit","67","340914","0.0-35.0-12.0","13614112","wem/bandit_double","AE608VRXK6M2E","both","6","3","245","","","","","","","1","1","0","0.2","0.2","","","","","0.8","0.2","0.6","0.2","0.8","0.2","0.6","0.2","","","","","","","","74","J","1","","true","0","full_practice"
"","bandit","68","342654","0.0-35.0-13.0","13614112","wem/bandit_double","AE608VRXK6M2E","both","6","3","232","","","","","","","0","0","1","0.2","0.2","","","","","0.8","0.2","0.6","0.2","0.8","0.2","0.6","0.2","","","","","","","","74","J","1","","true","0","full_practice"
"","bandit","69","344544","0.0-35.0-14.0","13614112","wem/bandit_double","AE608VRXK6M2E","both","6","3","383","","","","","","","0","0","1","0.2","0.2","","","","","0.8","0.2","0.6","0.2","0.8","0.2","0.6","0.2","","","","","","","","74","J","1","","true","0","full_practice"
"","bandit","70","346298","0.0-35.0-15.0","13614112","wem/bandit_double","AE608VRXK6M2E","both","6","3","233","","","","","","","1","1","0","0.8","0.8","","","","","0.8","0.2","0.6","0.2","0.8","0.2","0.6","0.2","","","","","","","","72","H","0","img/none_selected.jpg","true","0","full_practice"
"","bandit","71","348169","0.0-35.0-16.0","13614112","wem/bandit_double","AE608VRXK6M2E","both","6","3","359","","","","","","","1","1","0","0.8","0.8","","","","","0.8","0.2","0.6","0.2","0.8","0.2","0.6","0.2","","","","","","","","72","H","0","img/none_selected.jpg","true","0","full_practice"
"","bandit","72","349946","0.0-35.0-17.0","13614112","wem/bandit_double","AE608VRXK6M2E","both","6","3","265","","","","","","","1","1","0","0.8","0.8","","","","","0.8","0.2","0.6","0.2","0.8","0.2","0.6","0.2","","","","","","","","72","H","0","img/none_selected.jpg","true","0","full_practice"
"","bandit","73","351817","0.0-35.0-18.0","13614112","wem/bandit_double","AE608VRXK6M2E","both","6","3","362","","","","","","","1","0","0","0.8","0.8","","","","","0.8","0.2","0.6","0.2","0.8","0.2","0.6","0.2","","","","","","","","72","H","0","img/none_selected.jpg","true","0","full_practice"
"","bandit","74","353591","0.0-35.0-19.0","13614112","wem/bandit_double","AE608VRXK6M2E","both","6","3","264","","","","","","","1","0","0","0.8","0.8","","","","","0.8","0.2","0.6","0.2","0.8","0.2","0.6","0.2","","","","","","","","72","H","0","img/none_selected.jpg","true","0","full_practice"
"","text","75","357719","0.0-36.0","13614112","wem/bandit_double","AE608VRXK6M2E","both","6","3","4122","","32","","","","","","","","","","","","","","","","","","","","","","","","","","","","","","","","","","",""
"","text","76","370498","0.0-37.0","13614112","wem/bandit_double","AE608VRXK6M2E","both","6","3","11774","","32","","","","","","","","","","","","","","","","","","","","","","","","","","","","","","","","","","",""
"","text","77","375704","0.0-38.0","13614112","wem/bandit_double","AE608VRXK6M2E","both","6","3","5202","","32","","","","","","","","","","","","","","","","","","","","","","","","","","","","","","","","","","",""
"","text","78","381218","0.0-39.0","13614112","wem/bandit_double","AE608VRXK6M2E","both","6","3","5510","","32","","","","","","","","","","","","","","","","","","","","","","","","","","","","","","","","","","",""
"","text","79","389368","0.0-40.0","13614112","wem/bandit_double","AE608VRXK6M2E","both","6","3","8146","","32","","","","","","","","","","","","","","","","","","","","","","","","","","","","","","","","","","",""
"","bandit","80","394578","0.0-41.0-0.0","13614112","wem/bandit_double","AE608VRXK6M2E","both","6","3","3699","","","","","","","0","0","1","0.06094066238","0.4870892339","","","","","0.07685641067","0.1426046982","0.4870892339","0.1646489015","0.1734470434","0.1720655487","0.06094066238","0.4656478179","","","","","","","","75","K","2","","","1","main_expt"
"","bandit","81","396504","0.0-42.0-0.0","13614112","wem/bandit_double","AE608VRXK6M2E","both","6","3","413","","","","","","","0","0","1","0.1607886358","0.1597004976","","","","","0.08388143876","0.1597004976","0.4875162112","0.2180431119","0.1582158198","0.1607886358","0.04941180107","0.4661883906","","","","","","","","74","J","1","","","2","main_expt"
"","bandit","82","398656","0.0-43.0-0.0","13614112","wem/bandit_double","AE608VRXK6M2E","both","6","3","641","","","","","","","1","0","0","0.1264016625","0.06528774038","","","","","0.06528774038","0.1381850853","0.4909945117","0.2294217256","0.1264016625","0.1825924006","0.09066711981","0.4608397999","","","","","","","","72","H","0","img/none_selected.jpg","","3","main_expt"
"","bandit","83","403017","0.0-44.0-0.0","13614112","wem/bandit_double","AE608VRXK6M2E","both","6","3","2853","","","","","","","0","0","1","0.1212924903","0.07987899881","","","","","0.07987899881","0.1787932262","0.482579304","0.2162119515","0.1212924903","0.1572982515","0.07815644495","0.4568511376","","","","","","","","72","H","0","img/none_selected.jpg","","4","main_expt"
"","bandit","84","406107","0.0-45.0-0.0","13614112","wem/bandit_double","AE608VRXK6M2E","both","6","3","1579","","","","","","","1","0","0","0.4576747282","0.2246316054","","","","","0.0432391811","0.1795032464","0.4887913002","0.2246316054","0.1603104869","0.1873501432","0.06547040057","0.4576747282","","","","","","","","76","L","3","","","5","main_expt"
"","bandit","85","412751","0.0-46.0-0.0","13614112","wem/bandit_double","AE608VRXK6M2E","both","6","3","5133","","","","","","","1","1","0","0.4673201091","0.2061018479","","","","","0.03467601655","0.164375756","0.4887860333","0.2061018479","0.1916070739","0.1484719509","0.09500806419","0.4673201091","","","","","","","","76","L","3","","","6","main_expt"
"","bandit","86","417402","0.0-47.0-0.0","13614112","wem/bandit_double","AE608VRXK6M2E","both","6","3","3141","","","","","","","0","0","1","0.4671816856","0.1795347326","","","","","0.05033951668","0.204957223","0.4901971563","0.1795347326","0.1624213819","0.1368680622","0.1156714339","0.4671816856","","","","","","","","76","L","3","","","7","main_expt"
"","bandit","87","419342","0.0-48.0-0.0","13614112","wem/bandit_double","AE608VRXK6M2E","both","6","3","428","","","","","","","0","0","1","0.08939878806","0.4862230721","","","","","0.07676355645","0.2162036531","0.4862230721","0.1290452752","0.1529627983","0.1412197478","0.08939878806","0.4577650209","","","","","","","","75","K","2","","","8","main_expt"
"","bandit","88","420945","0.0-49.0-0.0","13614112","wem/bandit_double","AE608VRXK6M2E","both","6","3","90","","","","","","","0","1","0","0.1285241668","0.2167418122","","","","","0.08620859221","0.2167418122","0.4759730645","0.1559184374","0.1638779","0.1285241668","0.1379609943","0.4538037209","","","","","","","","74","J","1","","","9","main_expt"
"","bandit","89","422864","0.0-50.0-0.0","13614112","wem/bandit_double","AE608VRXK6M2E","both","6","3","406","","","","","","","0","0","1","0.1682184418","0.1103839657","","","","","0.1103839657","0.1607923637","0.4560980466","0.1381514788","0.1682184418","0.1137500729","0.08892925829","0.4567906288","","","","","","","","72","H","0","img/none_selected.jpg","","10","main_expt"
"","bandit","90","424374","0.0-51.0-0.0","13614112","wem/bandit_double","AE608VRXK6M2E","both","6","3","1","","","","","","","0","0","1","0.1134058804","0.1386410957","","","","","0.1334948588","0.1386410957","0.4775116046","0.1271140015","0.1511948373","0.1134058804","0.1053961985","0.4707556997","","","","","","","","74","J","1","","","11","main_expt"
"","bandit","91","426416","0.0-52.0-0.0","13614112","wem/bandit_double","AE608VRXK6M2E","both","6","3","529","","","","","","","0","0","1","0.1267534428","0.4705073552","","","","","0.1535602519","0.1718380738","0.4705073552","0.1854664659","0.2144966391","0.1358134986","0.1267534428","0.4534589675","","","","","","","","75","K","2","","","12","main_expt"
"","bandit","92","428083","0.0-53.0-0.0","13614112","wem/bandit_double","AE608VRXK6M2E","both","6","3","154","","","","","","","0","1","0","0.4474824422","0.1869952656","","","","","0.127854239","0.1686303413","0.4851887342","0.1869952656","0.1443049275","0.1105925571","0.1179877152","0.4474824422","","","","","","","","76","L","3","","","13","main_expt"
"","bandit","93","429807","0.0-54.0-0.0","13614112","wem/bandit_double","AE608VRXK6M2E","both","6","3","213","","","","","","","0","0","1","0.4125602811","0.2035171393","","","","","0.1507911491","0.1460019496","0.4731273917","0.2035171393","0.149160688","0.09057326494","0.1300626215","0.4125602811","","","","","","","","76","L","3","","","14","main_expt"
"","bandit","94","431831","0.0-55.0-0.0","13614112","wem/bandit_double","AE608VRXK6M2E","both","6","3","514","","","","","","","0","0","1","0.05963436345","0.1667614464","","","","","0.1741212098","0.1667614464","0.4585867004","0.2800299461","0.1525333278","0.05963436345","0.1129073675","0.3715785473","","","","","","","","74","J","1","","","15","main_expt"
"","bandit","95","434438","0.0-56.0-0.0","13614112","wem/bandit_double","AE608VRXK6M2E","both","6","3","1096","","","","","","","0","1","0","0.1437253933","0.1918308831","","","","","0.1918308831","0.1973644546","0.4366533258","0.2725454461","0.1437253933","0.03970917029","0.1132840383","0.3670357029","","","","","","","","72","H","0","img/none_selected.jpg","","16","main_expt"
"","bandit","96","436193","0.0-57.0-0.0","13614112","wem/bandit_double","AE608VRXK6M2E","both","6","3","245","","","","","","","0","0","1","0.1191274054","0.1950212473","","","","","0.1950212473","0.1873415792","0.4405228744","0.1570621471","0.1191274054","0.03301664506","0.1530786807","0.333794799","","","","","","","","72","H","0","img/none_selected.jpg","","17","main_expt"
"","bandit","97","437878","0.0-58.0-0.0","13614112","wem/bandit_double","AE608VRXK6M2E","both","6","3","176","","","","","","","0","0","1","0.1367655081","0.4678551263","","","","","0.2094813194","0.1875860444","0.4678551263","0.1968188506","0.1231388663","0.0325619","0.1367655081","0.3720862831","","","","","","","","75","K","2","","","18","main_expt"
"","bandit","98","439657","0.0-59.0-0.0","13614112","wem/bandit_double","AE608VRXK6M2E","both","6","3","269","","","","","","","0","0","1","0.3940248177","0.2439518204","","","","","0.2628959394","0.1988439388","0.466140525","0.2439518204","0.1014962652","0.05136562407","0.1519969922","0.3940248177","","","","","","","","76","L","3","","","19","main_expt"
"","bandit","99","441368","0.0-60.0-0.0","13614112","wem/bandit_double","AE608VRXK6M2E","both","6","3","199","","","","","","","0","0","1","0.3980303587","0.2806117898","","","","","0.2116504525","0.1813993393","0.4094087999","0.2806117898","0.1184271466","0.05620034239","0.2344823222","0.3980303587","","","","","","","","76","L","3","","","20","main_expt"
"","bandit","100","443169","0.0-61.0-0.0","13614112","wem/bandit_double","AE608VRXK6M2E","both","6","3","288","","","","","","","0","1","0","0.2227593861","0.4386974508","","","","","0.1904426465","0.2012004452","0.4386974508","0.2658005831","0.1434190777","0.04865895453","0.2227593861","0.405953395","","","","","","","","75","K","2","","","21","main_expt"
"","bandit","101","445007","0.0-62.0-0.0","13614112","wem/bandit_double","AE608VRXK6M2E","both","6","3","325","","","","","","","0","0","1","0.1831098024","0.4505723784","","","","","0.1581796968","0.1958646163","0.4505723784","0.2774390086","0.1323354157","0.05276066643","0.1831098024","0.37898799","","","","","","","","75","K","2","","","22","main_expt"
"","bandit","102","447438","0.0-63.0-0.0","13614112","wem/bandit_double","AE608VRXK6M2E","both","6","3","920","","","","","","","0","0","1","0.1660310818","0.4568000239","","","","","0.2039009352","0.2626819079","0.4568000239","0.2795917474","0.1384191998","0.05284133488","0.1660310818","0.3661255489","","","","","","","","75","K","2","","","23","main_expt"
"","bandit","103","449185","0.0-64.0-0.0","13614112","wem/bandit_double","AE608VRXK6M2E","both","6","3","234","","","","","","","0","0","1","0.0333904923","0.2906682881","","","","","0.228339491","0.2906682881","0.4518339256","0.2981059477","0.1395593146","0.0333904923","0.1400827643","0.3576379461","","","","","","","","74","J","1","","","24","main_expt"
"","bandit","104","450993","0.0-65.0-0.0","13614112","wem/bandit_double","AE608VRXK6M2E","both","6","3","297","","","","","","","0","0","1","0.1696236693","0.2602465224","","","","","0.2602465224","0.3270173502","0.4120159309","0.3272059922","0.1696236693","0.04666446392","0.2022937807","0.3346121782","","","","","","","","72","H","0","img/none_selected.jpg","","25","main_expt"
"","bandit","105","453040","0.0-66.0-0.0","13614112","wem/bandit_double","AE608VRXK6M2E","both","6","3","539","","","","","","","0","0","1","0.1754084838","0.1939420306","","","","","0.1939420306","0.2951289915","0.4134154185","0.3369826645","0.1754084838","0.04067930801","0.1725383963","0.3790434843","","","","","","","","72","H","0","img/none_selected.jpg","","26","main_expt"
"","bandit","106","455831","0.0-67.0-0.0","13614112","wem/bandit_double","AE608VRXK6M2E","both","6","3","1279","","","","","","","1","0","0","0.118483546","0.2387331149","","","","","0.2387331149","0.3520126272","0.4031068294","0.2531212506","0.118483546","0.03070036018","0.1735642386","0.3744762435","","","","","","","","72","H","0","img/none_selected.jpg","","27","main_expt"
"","bandit","107","457599","0.0-68.0-0.0","13614112","wem/bandit_double","AE608VRXK6M2E","both","6","3","258","","","","","","","0","0","1","0.1259847853","0.2183458617","","","","","0.2183458617","0.3369287003","0.4305883772","0.2170461037","0.1259847853","0.02292460278","0.149532802","0.3650769418","","","","","","","","72","H","0","img/none_selected.jpg","","28","main_expt"
"","bandit","108","459338","0.0-69.0-0.0","13614112","wem/bandit_double","AE608VRXK6M2E","both","6","3","224","","","","","","","0","0","1","0.03476379039","0.3591799128","","","","","0.2151501268","0.3591799128","0.4383329838","0.2346211465","0.1072727049","0.03476379039","0.1597785082","0.3299345172","","","","","","","","74","J","1","","","29","main_expt"
"","bandit","109","461120","0.0-70.0-0.0","13614112","wem/bandit_double","AE608VRXK6M2E","both","6","3","272","","","","","","","0","0","1","0.1978771271","0.4233276099","","","","","0.2267233056","0.3324285477","0.4233276099","0.2450860663","0.07952930744","0.04211589453","0.1978771271","0.3010095271","","","","","","","","75","K","2","","","30","main_expt"
"","bandit","110","462895","0.0-71.0-0.0","13614112","wem/bandit_double","AE608VRXK6M2E","both","6","3","268","","","","","","","0","0","1","0.331530841","0.2141169407","","","","","0.2663701676","0.327032362","0.4016185005","0.2141169407","0.09691030242","0.04495483672","0.1928768267","0.331530841","","","","","","","","76","L","3","","","31","main_expt"
"","bandit","111","464632","0.0-72.0-0.0","13614112","wem/bandit_double","AE608VRXK6M2E","both","6","3","228","","","","","","","0","0","1","0.1511047494","0.4134940178","","","","","0.275969473","0.3230905041","0.4134940178","0.2347854155","0.1338720944","0.04126869591","0.1511047494","0.3469043085","","","","","","","","75","K","2","","","32","main_expt"
"","bandit","112","466967","0.0-73.0-0.0","13614112","wem/bandit_double","AE608VRXK6M2E","both","6","3","825","","","","","","","0","1","0","0.02396570111","0.2969008969","","","","","0.3365270118","0.2969008969","0.4331174495","0.246596708","0.1428203538","0.02396570111","0.09247049486","0.2778139242","","","","","","","","74","J","1","","","33","main_expt"
"","bandit","113","469020","0.0-74.0-0.0","13614112","wem/bandit_double","AE608VRXK6M2E","both","6","3","544","","","","","","","0","1","0","0.03561151332","0.2536392951","","","","","0.2916301021","0.2536392951","0.4454497031","0.1914370393","0.1258169527","0.03561151332","0.1127946788","0.236883459","","","","","","","","74","J","1","","","34","main_expt"
"","bandit","114","470799","0.0-75.0-0.0","13614112","wem/bandit_double","AE608VRXK6M2E","both","6","3","272","","","","","","","0","0","1","0.04565222073","0.2336030597","","","","","0.3236538836","0.2336030597","0.4419706984","0.1408207185","0.1652362889","0.04565222073","0.1279928094","0.2656196476","","","","","","","","74","J","1","","","35","main_expt"
"","bandit","115","472633","0.0-76.0-0.0","13614112","wem/bandit_double","AE608VRXK6M2E","both","6","3","322","","","","","","","1","1","0","0.1472348388","0.3317439785","","","","","0.3317439785","0.3110392291","0.4205940312","0.09539735145","0.1472348388","0.05036449293","0.09285608896","0.2309028503","","","","","","","","72","H","0","img/none_selected.jpg","","36","main_expt"
"","bandit","116","474441","0.0-77.0-0.0","13614112","wem/bandit_double","AE608VRXK6M2E","both","6","3","293","","","","","","","0","1","0","0.20581188","0.3620900841","","","","","0.3620900841","0.3354302382","0.4227305347","0.08867332122","0.20581188","0.04764774511","0.1251507517","0.1961267878","","","","","","","","72","H","0","img/none_selected.jpg","","37","main_expt"
"","bandit","117","476361","0.0-78.0-0.0","13614112","wem/bandit_double","AE608VRXK6M2E","both","6","3","411","","","","","","","0","0","1","0.2096070571","0.3649119955","","","","","0.3649119955","0.3359947902","0.3904174821","0.0804097964","0.2096070571","0.04692466818","0.1248439258","0.2197692452","","","","","","","","72","H","0","img/none_selected.jpg","","38","main_expt"
"","bandit","118","478129","0.0-79.0-0.0","13614112","wem/bandit_double","AE608VRXK6M2E","both","6","3","254","","","","","","","0","0","1","0.06150360576","0.3719467902","","","","","0.3993258453","0.3719467902","0.3704092514","0.1092906338","0.1888903691","0.06150360576","0.1192858938","0.1783178102","","","","","","","","74","J","1","","","39","main_expt"
"","bandit","119","479927","0.0-80.0-0.0","13614112","wem/bandit_double","AE608VRXK6M2E","both","6","3","285","","","","","","","0","1","0","0.1457630933","0.3250394812","","","","","0.43145226","0.37180955","0.3250394812","0.08771014895","0.1769314034","0.1025324214","0.1457630933","0.1354267005","","","","","","","","75","K","2","","","40","main_expt"
"","bandit","120","481983","0.0-81.0-0.0","13614112","wem/bandit_double","AE608VRXK6M2E","both","6","3","545","","","","","","","0","0","1","0.1788887836","0.3633775572","","","","","0.3925837484","0.3972707938","0.3633775572","0.1065106481","0.1764673912","0.1278282258","0.1788887836","0.1307301687","","","","","","","","75","K","2","","","41","main_expt"
"","bandit","121","483705","0.0-82.0-0.0","13614112","wem/bandit_double","AE608VRXK6M2E","both","6","3","209","","","","","","","0","0","1","0.1002459791","0.0926848955","","","","","0.4020613291","0.3981555674","0.3708570881","0.0926848955","0.1164002711","0.1144783829","0.1550439797","0.1002459791","","","","","","","","76","L","3","","","42","main_expt"
"","bandit","122","485654","0.0-83.0-0.0","13614112","wem/bandit_double","AE608VRXK6M2E","both","6","3","435","","","","","","","0","0","1","0.06131682752","0.09213729174","","","","","0.4199094288","0.3698022864","0.3852030547","0.09213729174","0.1248357276","0.148274456","0.1624336935","0.06131682752","","","","","","","","76","L","3","","","43","main_expt"
"","bandit","123","487525","0.0-84.0-0.0","13614112","wem/bandit_double","AE608VRXK6M2E","both","6","3","361","","","","","","","0","0","1","0.2610419313","0.3653477133","","","","","0.4362917367","0.3278340923","0.3653477133","0.0950319608","0.1801883524","0.1733993608","0.2610419313","0.05757194937","","","","","","","","75","K","2","","","44","main_expt"
"","bandit","124","489265","0.0-85.0-0.0","13614112","wem/bandit_double","AE608VRXK6M2E","both","6","3","225","","","","","","","0","0","1","0.1731137141","0.4004869948","","","","","0.4310393502","0.4004869948","0.3423722135","0.07917944011","0.1536252234","0.1731137141","0.2547096211","0.06317169253","","","","","","","","74","J","1","","","45","main_expt"
"","bandit","125","491064","0.0-86.0-0.0","13614112","wem/bandit_double","AE608VRXK6M2E","both","6","3","284","","","","","","","0","0","1","0.1453657368","0.4301719659","","","","","0.4301719659","0.4389658195","0.2713785315","0.08528552535","0.1453657368","0.2577534017","0.2690630982","0.08604650327","","","","","","","","72","H","0","img/none_selected.jpg","","46","main_expt"
"","bandit","126","494242","0.0-87.0-0.0","13614112","wem/bandit_double","AE608VRXK6M2E","both","6","3","1664","","","","","","","0","0","1","0.07503215105","0.08303267599","","","","","0.4274268526","0.4294918489","0.2675382036","0.08303267599","0.1163474927","0.2436059896","0.2613787364","0.07503215105","","","","","","","","76","L","3","","","47","main_expt"
"","bandit","127","496225","0.0-88.0-0.0","13614112","wem/bandit_double","AE608VRXK6M2E","both","6","3","470","","","","","","","1","0","0","0.2764851171","0.3006553151","","","","","0.4559220927","0.3948346084","0.3006553151","0.1183490009","0.1187671899","0.261356988","0.2764851171","0.09661626413","","","","","","","","75","K","2","","","48","main_expt"
"","bandit","128","498111","0.0-89.0-0.0","13614112","wem/bandit_double","AE608VRXK6M2E","both","6","3","377","","","","","","","0","1","0","0.2628846066","0.2865645246","","","","","0.4362936898","0.4226663974","0.2865645246","0.09831357925","0.1321787199","0.2707362224","0.2628846066","0.141419135","","","","","","","","75","K","2","","","49","main_expt"
"","bandit","129","500167","0.0-90.0-0.0","13614112","wem/bandit_double","AE608VRXK6M2E","both","6","3","543","","","","","","","1","0","0","0.3634831931","0.2842330123","","","","","0.4001593617","0.3943232949","0.2842330123","0.0896163698","0.1310663867","0.2733601765","0.3634831931","0.1341637883","","","","","","","","75","K","2","","","50","main_expt"
"","bandit","130","501952","0.0-91.0-0.0","13614112","wem/bandit_double","AE608VRXK6M2E","both","6","3","272","","","","","","","1","0","0","0.3771608335","0.2933637591","","","","","0.3737598101","0.3911898034","0.2933637591","0.08239790895","0.1450472339","0.2590969561","0.3771608335","0.1225974466","","","","","","","","75","K","2","","","51","main_expt"
"","bandit","131","503784","0.0-92.0-0.0","13614112","wem/bandit_double","AE608VRXK6M2E","both","6","3","318","","","","","","","0","0","1","0.3093307572","0.2802127762","","","","","0.3490564905","0.3897106723","0.2802127762","0.06509061927","0.1731775471","0.2515646212","0.3093307572","0.1145468474","","","","","","","","75","K","2","","","52","main_expt"
"","bandit","132","505582","0.0-93.0-0.0","13614112","wem/bandit_double","AE608VRXK6M2E","both","6","3","289","","","","","","","0","0","1","0.2990929044","0.2567133084","","","","","0.3606416198","0.3977919118","0.2567133084","0.05503049918","0.2258016315","0.2257746054","0.2990929044","0.1059564611","","","","","","","","75","K","2","","","53","main_expt"
"","bandit","133","507295","0.0-94.0-0.0","13614112","wem/bandit_double","AE608VRXK6M2E","both","6","3","198","","","","","","","0","1","0","0.2750925763","0.3803623479","","","","","0.3920172378","0.3803623479","0.304436262","0.06606451817","0.2172527187","0.2750925763","0.2221679908","0.1090017536","","","","","","","","74","J","1","","","54","main_expt"
"","bandit","134","509032","0.0-95.0-0.0","13614112","wem/bandit_double","AE608VRXK6M2E","both","6","3","228","","","","","","","1","0","0","0.3608357377","0.3898030924","","","","","0.3841867886","0.3898030924","0.3050376594","0.0812436444","0.1652356872","0.3608357377","0.1886471815","0.1249444004","","","","","","","","74","J","1","","","55","main_expt"
"","bandit","135","510744","0.0-96.0-0.0","13614112","wem/bandit_double","AE608VRXK6M2E","both","6","3","203","","","","","","","0","0","1","0.4022545085","0.4332266089","","","","","0.3752679739","0.4332266089","0.2874076515","0.05752214818","0.1576418272","0.4022545085","0.1973213641","0.09043885587","","","","","","","","74","J","1","","","56","main_expt"
"","bandit","136","512479","0.0-97.0-0.0","13614112","wem/bandit_double","AE608VRXK6M2E","both","6","3","223","","","","","","","1","1","0","0.3867568464","0.4598680415","","","","","0.3595388075","0.4598680415","0.2633226407","0.05957573693","0.180776926","0.3867568464","0.2207101474","0.07448640425","","","","","","","","74","J","1","","","57","main_expt"
"","bandit","137","514233","0.0-98.0-0.0","13614112","wem/bandit_double","AE608VRXK6M2E","both","6","3","238","","","","","","","1","1","0","0.3840355114","0.4510058242","","","","","0.2926617498","0.4510058242","0.282557186","0.08347810371","0.1489081552","0.3840355114","0.2480089655","0.09808879237","","","","","","","","74","J","1","","","58","main_expt"
"","bandit","138","516009","0.0-99.0-0.0","13614112","wem/bandit_double","AE608VRXK6M2E","both","6","3","260","","","","","","","1","0","0","0.3617876187","0.4587464736","","","","","0.2854140482","0.4587464736","0.2675679041","0.1166757522","0.125555473","0.3617876187","0.2667579505","0.0721355853","","","","","","","","74","J","1","","","59","main_expt"
"","bandit","139","517719","0.0-100.0-0.0","13614112","wem/bandit_double","AE608VRXK6M2E","both","6","3","197","","","","","","","1","1","0","0.3018070945","0.4534111386","","","","","0.2767785787","0.4534111386","0.2654645802","0.1223048521","0.1228814318","0.3018070945","0.2637313595","0.08871326978","","","","","","","","74","J","1","","","60","main_expt"
"","bandit","140","519462","0.0-101.0-0.0","13614112","wem/bandit_double","AE608VRXK6M2E","both","6","3","233","","","","","","","0","0","1","0.2687465691","0.4581751116","","","","","0.3110110239","0.4581751116","0.2326588137","0.1341525672","0.195834737","0.2687465691","0.2400462537","0.1472383223","","","","","","","","74","J","1","","","61","main_expt"
"","bandit","141","521201","0.0-102.0-0.0","13614112","wem/bandit_double","AE608VRXK6M2E","both","6","3","222","","","","","","","0","0","1","0.287622952","0.4447189615","","","","","0.2739379344","0.4447189615","0.2430345153","0.1748443247","0.1952904108","0.287622952","0.2396546157","0.1625866577","","","","","","","","74","J","1","","","62","main_expt"
"","bandit","142","522823","0.0-103.0-0.0","13614112","wem/bandit_double","AE608VRXK6M2E","both","6","3","110","","","","","","","0","0","1","0.187392073","0.2518438402","","","","","0.2518438402","0.4351057758","0.2682261916","0.1872250423","0.187392073","0.2060093557","0.2558687718","0.1196153378","","","","","","","","72","H","0","img/none_selected.jpg","","63","main_expt"
"","bandit","143","524645","0.0-104.0-0.0","13614112","wem/bandit_double","AE608VRXK6M2E","both","6","3","310","","","","","","","1","0","0","0.1025290435","0.1592276408","","","","","0.216118181","0.4559228662","0.3136585585","0.1592276408","0.1774517964","0.1865830226","0.1789331692","0.1025290435","","","","","","","","76","L","3","","","64","main_expt"
"","bandit","144","526382","0.0-105.0-0.0","13614112","wem/bandit_double","AE608VRXK6M2E","both","6","3","219","","","","","","","0","0","1","0.06637487434","0.1881419285","","","","","0.1961712117","0.4526438492","0.3208042698","0.1881419285","0.1956590225","0.2242960511","0.2041721298","0.06637487434","","","","","","","","76","L","3","","","65","main_expt"
"","bandit","145","528064","0.0-106.0-0.0","13614112","wem/bandit_double","AE608VRXK6M2E","both","6","3","167","","","","","","","0","0","1","0.09888809835","0.2075830042","","","","","0.1821057022","0.4604690516","0.3550213758","0.2075830042","0.1559932489","0.213739571","0.1083731131","0.09888809835","","","","","","","","76","L","3","","","66","main_expt"
"","bandit","146","530847","0.0-107.0-0.0","13614112","wem/bandit_double","AE608VRXK6M2E","both","6","3","1271","","","","","","","0","0","1","0.08148965902","0.2883445083","","","","","0.2221692745","0.4479534522","0.2883445083","0.210321401","0.1327283285","0.2463093088","0.08148965902","0.08542348091","","","","","","","","75","K","2","","","67","main_expt"
"","bandit","147","532560","0.0-108.0-0.0","13614112","wem/bandit_double","AE608VRXK6M2E","both","6","3","203","","","","","","","1","1","0","0.115871946","0.2492112051","","","","","0.2385328342","0.4420076102","0.2492112051","0.1740681144","0.1646421129","0.1863602012","0.115871946","0.05648132023","","","","","","","","75","K","2","","","68","main_expt"
"","bandit","148","534293","0.0-109.0-0.0","13614112","wem/bandit_double","AE608VRXK6M2E","both","6","3","220","","","","","","","0","0","1","0.1049465522","0.1725364023","","","","","0.2693988132","0.3840886122","0.1725364023","0.1495678232","0.1879918005","0.1481768435","0.1049465522","0.07427448495","","","","","","","","75","K","2","","","69","main_expt"
"","bandit","149","536016","0.0-110.0-0.0","13614112","wem/bandit_double","AE608VRXK6M2E","both","6","3","208","","","","","","","0","0","1","0.1224614501","0.2081322216","","","","","0.2633889128","0.3764426572","0.2081322216","0.1594524764","0.1708527721","0.2062415021","0.1224614501","0.1052870039","","","","","","","","75","K","2","","","70","main_expt"
"","bandit","150","537721","0.0-111.0-0.0","13614112","wem/bandit_double","AE608VRXK6M2E","both","6","3","192","","","","","","","0","0","1","0.2175562698","0.3925575972","","","","","0.2881785301","0.3925575972","0.2222096595","0.1308665948","0.1930923514","0.2175562698","0.1687358413","0.1114501371","","","","","","","","74","J","1","","","71","main_expt"
"","bandit","151","539976","0.0-112.0-0.0","13614112","wem/bandit_double","AE608VRXK6M2E","both","6","3","748","","","","","","","1","0","0","0.2289396243","0.3496752211","","","","","0.3496752211","0.4055717031","0.2276413934","0.1413665491","0.2289396243","0.2182173038","0.1902964731","0.1282799478","","","","","","","","72","H","0","img/none_selected.jpg","","72","main_expt"
"","bandit","152","541969","0.0-113.0-0.0","13614112","wem/bandit_double","AE608VRXK6M2E","both","6","3","478","","","","","","","1","1","0","0.2223781067","0.3662649551","","","","","0.3662649551","0.4313753627","0.202726327","0.1562096843","0.2223781067","0.1629952044","0.1764690901","0.1113050996","","","","","","","","72","H","0","img/none_selected.jpg","","73","main_expt"
"","bandit","153","543833","0.0-114.0-0.0","13614112","wem/bandit_double","AE608VRXK6M2E","both","6","3","348","","","","","","","0","0","1","0.1664819569","0.3318597218","","","","","0.3318597218","0.4294283137","0.2465356434","0.1601549975","0.1664819569","0.2291178652","0.1720288853","0.1573287606","","","","","","","","72","H","0","img/none_selected.jpg","","74","main_expt"
"","bandit","154","545569","0.0-115.0-0.0","13614112","wem/bandit_double","AE608VRXK6M2E","both","6","3","220","","","","","","","0","0","1","0.1157276324","0.3129946244","","","","","0.3129946244","0.4114775526","0.2780880013","0.1962365409","0.1157276324","0.2087405931","0.098780463","0.168318459","","","","","","","","72","H","0","img/none_selected.jpg","","75","main_expt"
"","bandit","155","547328","0.0-116.0-0.0","13614112","wem/bandit_double","AE608VRXK6M2E","both","6","3","241","","","","","","","0","0","1","0.1981976751","0.4038916894","","","","","0.3299880354","0.4038916894","0.230570622","0.2315068675","0.06912044911","0.1981976751","0.08192786134","0.131742089","","","","","","","","74","J","1","","","76","main_expt"
"","bandit","156","549065","0.0-117.0-0.0","13614112","wem/bandit_double","AE608VRXK6M2E","both","6","3","228","","","","","","","0","0","1","0.03620126105","0.1747897532","","","","","0.2704336052","0.4028298088","0.1747897532","0.1749603823","0.06151132513","0.2302368041","0.03620126105","0.1382621175","","","","","","","","75","K","2","","","77","main_expt"
"","bandit","157","550790","0.0-118.0-0.0","13614112","wem/bandit_double","AE608VRXK6M2E","both","6","3","213","","","","","","","1","1","0","0.1351161864","0.2091975686","","","","","0.2489008917","0.4004321452","0.2009150394","0.2091975686","0.08824794056","0.2538269909","0.03362754592","0.1351161864","","","","","","","","76","L","3","","","78","main_expt"
"","bandit","158","552550","0.0-119.0-0.0","13614112","wem/bandit_double","AE608VRXK6M2E","both","6","3","247","","","","","","","0","0","1","0.1125986002","0.2699334682","","","","","0.2182462247","0.3909827091","0.2090883318","0.2699334682","0.08425003046","0.221492582","0.03917851348","0.1125986002","","","","","","","","76","L","3","","","79","main_expt"
"","bandit","159","554456","0.0-120.0-0.0","13614112","wem/bandit_double","AE608VRXK6M2E","both","6","3","391","","","","","","","0","1","0","0.1071358869","0.2712134299","","","","","0.1591694045","0.4289339141","0.215522018","0.2712134299","0.1059393704","0.2126184008","0.06916691586","0.1071358869","","","","","","","","76","L","3","","","80","main_expt"
"","bandit","160","556259","0.0-121.0-0.0","13614112","wem/bandit_double","AE608VRXK6M2E","both","6","3","287","","","","","","","0","0","1","0.1410751298","0.2563236188","","","","","0.1661146317","0.4256341571","0.2655955182","0.2563236188","0.114990546","0.1803612399","0.1110223174","0.1410751298","","","","","","","","76","L","3","","","81","main_expt"
"","bandit","161","557934","0.0-122.0-0.0","13614112","wem/bandit_double","AE608VRXK6M2E","both","6","3","164","","","","","","","1","0","0","0.1518454263","0.2474856626","","","","","0.2249160828","0.4153375647","0.2642342948","0.2474856626","0.1246300745","0.1883980103","0.08899533144","0.1518454263","","","","","","","","76","L","3","","","82","main_expt"
"","bandit","162","559755","0.0-123.0-0.0","13614112","wem/bandit_double","AE608VRXK6M2E","both","6","3","306","","","","","","","0","0","1","0.1285150734","0.2338037125","","","","","0.2194800234","0.4239102097","0.2615040017","0.2338037125","0.1523433176","0.2099895667","0.1383499545","0.1285150734","","","","","","","","76","L","3","","","83","main_expt"
"","bandit","163","561616","0.0-124.0-0.0","13614112","wem/bandit_double","AE608VRXK6M2E","both","6","3","348","","","","","","","0","0","1","0.1083679187","0.2929655049","","","","","0.2020024956","0.4021041833","0.3136368113","0.2929655049","0.1230513595","0.1760666055","0.1815119679","0.1083679187","","","","","","","","76","L","3","","","84","main_expt"
"","bandit","164","563142","0.0-125.0-0.0","13614112","wem/bandit_double","AE608VRXK6M2E","both","6","3","13","","","","","","","0","0","1","0.2121304898","0.2433538552","","","","","0.1639230135","0.4322374594","0.2433538552","0.2755572306","0.1460595132","0.2077415988","0.2121304898","0.08985983991","","","","","","","","75","K","2","","","85","main_expt"
"","bandit","165","564757","0.0-126.0-0.0","13614112","wem/bandit_double","AE608VRXK6M2E","both","6","3","105","","","","","","","0","1","0","0.1931166697","0.2583740773","","","","","0.1423092638","0.4247618508","0.2583740773","0.2706615249","0.1578730034","0.1940704576","0.1931166697","0.08377758623","","","","","","","","75","K","2","","","86","main_expt"
"","bandit","166","566479","0.0-127.0-0.0","13614112","wem/bandit_double","AE608VRXK6M2E","both","6","3","206","","","","","","","1","0","0","0.1908876969","0.2656778135","","","","","0.1623313408","0.4130492334","0.2656778135","0.3259805539","0.1329566931","0.1920524506","0.1908876969","0.08340742779","","","","","","","","75","K","2","","","87","main_expt"
"","bandit","167","568119","0.0-128.0-0.0","13614112","wem/bandit_double","AE608VRXK6M2E","both","6","3","132","","","","","","","0","0","1","0.1727332377","0.2565525481","","","","","0.1459946163","0.3883747858","0.2565525481","0.3471137027","0.1156353122","0.2525081946","0.1727332377","0.06937011617","","","","","","","","75","K","2","","","88","main_expt"
"","bandit","168","569900","0.0-129.0-0.0","13614112","wem/bandit_double","AE608VRXK6M2E","both","6","3","258","","","","","","","0","0","1","0.1747664758","0.2471999074","","","","","0.1684807643","0.3950807547","0.2471999074","0.3715311126","0.1169245856","0.2476280913","0.1747664758","0.08556693901","","","","","","","","75","K","2","","","89","main_expt"
"","bandit","169","571544","0.0-130.0-0.0","13614112","wem/bandit_double","AE608VRXK6M2E","both","6","3","127","","","","","","","0","0","1","0.2476417222","0.420982679","","","","","0.1937692241","0.420982679","0.2204199549","0.3571728809","0.1276927611","0.2476417222","0.1302891894","0.1013294801","","","","","","","","74","J","1","","","90","main_expt"
"","bandit","170","573328","0.0-131.0-0.0","13614112","wem/bandit_double","AE608VRXK6M2E","both","6","3","269","","","","","","","0","1","0","0.1875867431","0.4012606491","","","","","0.1670397906","0.4012606491","0.2013548925","0.3348642023","0.1633868825","0.1875867431","0.1143331172","0.1567130635","","","","","","","","74","J","1","","","91","main_expt"
"","bandit","171","575119","0.0-132.0-0.0","13614112","wem/bandit_double","AE608VRXK6M2E","both","6","3","281","","","","","","","1","1","0","0.1804963823","0.3950870333","","","","","0.1936095216","0.3950870333","0.174921714","0.3551195155","0.2172033847","0.1804963823","0.1674068059","0.1214255195","","","","","","","","74","J","1","","","92","main_expt"
"","bandit","172","576926","0.0-133.0-0.0","13614112","wem/bandit_double","AE608VRXK6M2E","both","6","3","294","","","","","","","0","0","1","0.1468121695","0.3797372222","","","","","0.2399824117","0.3797372222","0.1972058505","0.3494458231","0.2178255547","0.1468121695","0.1405005834","0.1317465968","","","","","","","","74","J","1","","","93","main_expt"
"","bandit","173","578648","0.0-134.0-0.0","13614112","wem/bandit_double","AE608VRXK6M2E","both","6","3","207","","","","","","","1","0","0","0.1270151289","0.3346339076","","","","","0.242536602","0.3346339076","0.2144007407","0.3759818745","0.2058786334","0.1270151289","0.1338278818","0.1810196293","","","","","","","","74","J","1","","","94","main_expt"
"","bandit","174","580449","0.0-135.0-0.0","13614112","wem/bandit_double","AE608VRXK6M2E","both","6","3","292","","","","","","","0","1","0","0.1049494322","0.3433005441","","","","","0.3081296623","0.3433005441","0.2025691914","0.3467088588","0.2009860572","0.1049494322","0.16416917","0.1537803575","","","","","","","","74","J","1","","","95","main_expt"
"","bandit","175","582230","0.0-136.0-0.0","13614112","wem/bandit_double","AE608VRXK6M2E","both","6","3","267","","","","","","","0","0","1","0.1242023773","0.2900415689","","","","","0.371766452","0.2900415689","0.1750118246","0.3520186383","0.2792576191","0.1242023773","0.1075549125","0.2255368078","","","","","","","","74","J","1","","","96","main_expt"
"","bandit","176","583957","0.0-137.0-0.0","13614112","wem/bandit_double","AE608VRXK6M2E","both","6","3","213","","","","","","","0","1","0","0.291042229","0.3737721809","","","","","0.3737721809","0.3136050561","0.2433812568","0.342216001","0.291042229","0.101802889","0.07285617598","0.1881791955","","","","","","","","72","H","0","img/none_selected.jpg","","97","main_expt"
"","bandit","177","585840","0.0-138.0-0.0","13614112","wem/bandit_double","AE608VRXK6M2E","both","6","3","374","","","","","","","0","0","1","0.2919937097","0.3662625892","","","","","0.3662625892","0.3236610102","0.1834100281","0.3775958225","0.2919937097","0.08559904752","0.1128802937","0.1722186849","","","","","","","","72","H","0","img/none_selected.jpg","","98","main_expt"
"","bandit","178","587639","0.0-139.0-0.0","13614112","wem/bandit_double","AE608VRXK6M2E","both","6","3","290","","","","","","","1","0","0","0.338066437","0.3912879072","","","","","0.3912879072","0.3116662608","0.146161558","0.3490624926","0.338066437","0.04480153982","0.07338875894","0.2581810796","","","","","","","","72","H","0","img/none_selected.jpg","","99","main_expt"
"","bandit","179","589585","0.0-140.0-0.0","13614112","wem/bandit_double","AE608VRXK6M2E","both","6","3","430","","","","","","","0","1","0","0.3466775547","0.3916888764","","","","","0.3916888764","0.3806420769","0.1186266926","0.3418910903","0.3466775547","0.03694367041","0.06256672301","0.3094702251","","","","","","","","72","H","0","img/none_selected.jpg","","100","main_expt"
"","bandit","180","591386","0.0-141.0-0.0","13614112","wem/bandit_double","AE608VRXK6M2E","both","6","3","284","","","","","","","0","1","0","0.3776837944","0.3803758031","","","","","0.3803758031","0.3825052475","0.1467879228","0.3544055354","0.3776837944","0.02534596886","0.06765033746","0.3217449289","","","","","","","","72","H","0","img/none_selected.jpg","","101","main_expt"
"","bandit","181","593128","0.0-142.0-0.0","13614112","wem/bandit_double","AE608VRXK6M2E","both","6","3","227","","","","","","","1","0","0","0.3988278911","0.3685266224","","","","","0.3685266224","0.3799327693","0.1336514036","0.3580864163","0.3988278911","0.03456503798","0.08460413752","0.3656493725","","","","","","","","72","H","0","img/none_selected.jpg","","102","main_expt"
"","bandit","182","594902","0.0-143.0-0.0","13614112","wem/bandit_double","AE608VRXK6M2E","both","6","3","266","","","","","","","1","0","0","0.3642388176","0.3754978655","","","","","0.3754978655","0.3502018886","0.1325092095","0.336528594","0.3642388176","0.03116272615","0.1149622558","0.4097417878","","","","","","","","72","H","0","img/none_selected.jpg","","103","main_expt"
"","bandit","183","596517","0.0-144.0-0.0","13614112","wem/bandit_double","AE608VRXK6M2E","both","6","3","99","","","","","","","0","0","1","0.3059376685","0.4033056484","","","","","0.4033056484","0.3443431466","0.1162839287","0.3190078166","0.3059376685","0.04034009898","0.1223821921","0.4005896235","","","","","","","","72","H","0","img/none_selected.jpg","","104","main_expt"
"","bandit","184","598372","0.0-145.0-0.0","13614112","wem/bandit_double","AE608VRXK6M2E","both","6","3","334","","","","","","","0","0","1","0.06132200156","0.3551378046","","","","","0.3617388181","0.3551378046","0.115620258","0.3100940773","0.2658022239","0.06132200156","0.1302837569","0.3967946647","","","","","","","","74","J","1","","","105","main_expt"
"","bandit","185","600418","0.0-146.0-0.0","13614112","wem/bandit_double","AE608VRXK6M2E","both","6","3","529","","","","","","","0","0","1","0.03171667797","0.3177956882","","","","","0.3656875331","0.3177956882","0.1102569517","0.2964842485","0.2583534607","0.03171667797","0.1405927316","0.3920329447","","","","","","","","74","J","1","","","106","main_expt"
"","bandit","186","602673","0.0-147.0-0.0","13614112","wem/bandit_double","AE608VRXK6M2E","both","6","3","738","","","","","","","0","0","1","0.1835021143","0.110599846","","","","","0.3478183852","0.3463124521","0.110599846","0.3224579283","0.2402432731","0.06603394544","0.1835021143","0.3973329777","","","","","","","","75","K","2","","","107","main_expt"
"","bandit","187","604392","0.0-148.0-0.0","13614112","wem/bandit_double","AE608VRXK6M2E","both","6","3","205","","","","","","","1","0","0","0.3839010997","0.3365568187","","","","","0.3715517583","0.330790185","0.1647947233","0.3365568187","0.2364509509","0.08137973005","0.2124513917","0.3839010997","","","","","","","","76","L","3","","","108","main_expt"
"","bandit","188","606223","0.0-149.0-0.0","13614112","wem/bandit_double","AE608VRXK6M2E","both","6","3","316","","","","","","","1","0","0","0.3879107289","0.3200824859","","","","","0.3713851569","0.3259779601","0.146095753","0.3200824859","0.2164051194","0.04765661509","0.218007314","0.3879107289","","","","","","","","76","L","3","","","109","main_expt"
"","bandit","189","607969","0.0-150.0-0.0","13614112","wem/bandit_double","AE608VRXK6M2E","both","6","3","230","","","","","","","0","0","1","0.3989855113","0.3179471713","","","","","0.3401672382","0.3169053314","0.1691954855","0.3179471713","0.1611838666","0.06789381979","0.229469423","0.3989855113","","","","","","","","76","L","3","","","110","main_expt"
"","bandit","190","609759","0.0-151.0-0.0","13614112","wem/bandit_double","AE608VRXK6M2E","both","6","3","276","","","","","","","0","1","0","0.3959495959","0.3168158386","","","","","0.3242328008","0.342138516","0.1690298198","0.3168158386","0.2042622235","0.08972795074","0.2923436213","0.3959495959","","","","","","","","76","L","3","","","111","main_expt"
"","bandit","191","611536","0.0-152.0-0.0","13614112","wem/bandit_double","AE608VRXK6M2E","both","6","3","260","","","","","","","1","0","0","0.335596647","0.3551606626","","","","","0.2991119965","0.3597886873","0.2196992501","0.3551606626","0.2113733305","0.1176683061","0.2778802509","0.335596647","","","","","","","","76","L","3","","","112","main_expt"
"","bandit","192","613209","0.0-153.0-0.0","13614112","wem/bandit_double","AE608VRXK6M2E","both","6","3","156","","","","","","","0","0","1","0.2876347753","0.3615444015","","","","","0.3364281798","0.3580549124","0.2723467559","0.3615444015","0.220236308","0.1973953549","0.2852166322","0.2876347753","","","","","","","","76","L","3","","","113","main_expt"
"","bandit","193","614808","0.0-154.0-0.0","13614112","wem/bandit_double","AE608VRXK6M2E","both","6","3","85","","","","","","","0","0","1","0.2811359795","0.4043222556","","","","","0.3495122724","0.3556181037","0.2470985199","0.4043222556","0.2453392608","0.200840576","0.3222351196","0.2811359795","","","","","","","","76","L","3","","","114","main_expt"
"","bandit","194","617664","0.0-155.0-0.0","13614112","wem/bandit_double","AE608VRXK6M2E","both","6","3","1339","","","","","","","0","0","1","0.2311931225","0.324938203","","","","","0.324938203","0.3489042174","0.2482590513","0.4179696435","0.2311931225","0.2544006126","0.2865303103","0.2056035349","","","","","","","","72","H","0","img/none_selected.jpg","","115","main_expt"
"","bandit","195","619497","0.0-156.0-0.0","13614112","wem/bandit_double","AE608VRXK6M2E","both","6","3","315","","","","","","","0","1","0","0.2264812366","0.3466245191","","","","","0.3227512736","0.3466245191","0.1992012358","0.4324393975","0.2290532582","0.2264812366","0.1901772154","0.2435386161","","","","","","","","74","J","1","","","116","main_expt"
"","bandit","196","621354","0.0-157.0-0.0","13614112","wem/bandit_double","AE608VRXK6M2E","both","6","3","340","","","","","","","0","0","1","0.2535822563","0.3581754781","","","","","0.2585209305","0.3581754781","0.216355905","0.4290779421","0.2610634121","0.2535822563","0.1854727963","0.2523066444","","","","","","","","74","J","1","","","117","main_expt"
"","bandit","197","623435","0.0-158.0-0.0","13614112","wem/bandit_double","AE608VRXK6M2E","both","6","3","563","","","","","","","1","0","0","0.223078523","0.1715453935","","","","","0.2817260076","0.283939031","0.1715453935","0.4459264202","0.2915584027","0.288462609","0.223078523","0.258758296","","","","","","","","75","K","2","","","118","main_expt"
"","bandit","198","625233","0.0-159.0-0.0","13614112","wem/bandit_double","AE608VRXK6M2E","both","6","3","286","","","","","","","0","0","1","0.2157898803","0.1843456939","","","","","0.328214026","0.2992634423","0.1843456939","0.436995295","0.3240034744","0.3077733757","0.2157898803","0.2513882557","","","","","","","","75","K","2","","","119","main_expt"
"","bandit","199","627239","0.0-160.0-0.0","13614112","wem/bandit_double","AE608VRXK6M2E","both","6","3","489","","","","","","","0","0","1","0.2055853597","0.1848061615","","","","","0.3355603121","0.1878150733","0.1848061615","0.4151314625","0.3584552205","0.3470363664","0.2055853597","0.2178230887","","","","","","","","75","K","2","","","120","main_expt"
"","bandit","200","629081","0.0-161.0-0.0","13614112","wem/bandit_double","AE608VRXK6M2E","both","6","3","329","","","","","","","0","0","1","0.2249913612","0.4384064527","","","","","0.3829587724","0.1447458933","0.1679578636","0.4384064527","0.3392259721","0.36369082","0.2308362602","0.2249913612","","","","","","","","76","L","3","","","121","main_expt"
"","bandit","201","630866","0.0-162.0-0.0","13614112","wem/bandit_double","AE608VRXK6M2E","both","6","3","274","","","","","","","0","0","1","0.3211990091","0.3995678287","","","","","0.3995678287","0.1176060398","0.197295971","0.4417589501","0.3211990091","0.3740977319","0.1858821776","0.2135386538","","","","","","","","72","H","0","img/none_selected.jpg","","122","main_expt"
"","bandit","202","632705","0.0-163.0-0.0","13614112","wem/bandit_double","AE608VRXK6M2E","both","6","3","322","","","","","","","0","1","0","0.3082515077","0.3656739583","","","","","0.3656739583","0.1097677055","0.2184653352","0.4017154396","0.3082515077","0.3617230251","0.1948645322","0.2742148462","","","","","","","","72","H","0","img/none_selected.jpg","","123","main_expt"
"","bandit","203","634488","0.0-164.0-0.0","13614112","wem/bandit_double","AE608VRXK6M2E","both","6","3","267","","","","","","","1","1","0","0.3337980485","0.3862549257","","","","","0.3862549257","0.08048168986","0.2147868977","0.3619070526","0.3337980485","0.3189133642","0.1875433284","0.3092488957","","","","","","","","72","H","0","img/none_selected.jpg","","124","main_expt"
"","bandit","204","636344","0.0-165.0-0.0","13614112","wem/bandit_double","AE608VRXK6M2E","both","6","3","338","","","","","","","0","0","1","0.2815584253","0.3593796239","","","","","0.3593796239","0.07842900555","0.1667936559","0.3567490645","0.2815584253","0.3134342975","0.1805360773","0.2832498899","","","","","","","","72","H","0","img/none_selected.jpg","","125","main_expt"
"","bandit","205","638296","0.0-166.0-0.0","13614112","wem/bandit_double","AE608VRXK6M2E","both","6","3","435","","","","","","","0","0","1","0.2544389989","0.3413194209","","","","","0.3413194209","0.08318363027","0.1453295256","0.3558473019","0.2544389989","0.2889117865","0.2199741614","0.321902755","","","","","","","","72","H","0","img/none_selected.jpg","","126","main_expt"
"","bandit","206","640029","0.0-167.0-0.0","13614112","wem/bandit_double","AE608VRXK6M2E","both","6","3","220","","","","","","","0","0","1","0.3101500906","0.06812438963","","","","","0.3369929262","0.06812438963","0.1635755653","0.3543069734","0.217883989","0.3101500906","0.212963778","0.3163630435","","","","","","","","74","J","1","","","127","main_expt"
"","bandit","207","642024","0.0-168.0-0.0","13614112","wem/bandit_double","AE608VRXK6M2E","both","6","3","477","","","","","","","1","0","0","0.3257933697","0.08303766286","","","","","0.2922989636","0.08303766286","0.1872639566","0.3328374851","0.1941215274","0.3257933697","0.1853882534","0.3242789072","","","","","","","","74","J","1","","","128","main_expt"
"","bandit","208","643896","0.0-169.0-0.0","13614112","wem/bandit_double","AE608VRXK6M2E","both","6","3","354","","","","","","","0","0","1","0.2767822115","0.09047360051","","","","","0.3095146075","0.09047360051","0.2032718864","0.3238683282","0.2093197904","0.2767822115","0.1486900389","0.3430844202","","","","","","","","74","J","1","","","129","main_expt"
"","bandit","209","646194","0.0-170.0-0.0","13614112","wem/bandit_double","AE608VRXK6M2E","both","6","3","780","","","","","","","1","0","0","0.3389859305","0.131542256","","","","","0.3068425872","0.131542256","0.2025864764","0.2750329062","0.2325895014","0.3389859305","0.1581202816","0.3487272729","","","","","","","","74","J","1","","","130","main_expt"
"","bandit","210","647992","0.0-171.0-0.0","13614112","wem/bandit_double","AE608VRXK6M2E","both","6","3","281","","","","","","","1","0","0","0.2807576759","0.1492019489","","","","","0.3112504131","0.1492019489","0.2158584071","0.2751886228","0.2680880231","0.2807576759","0.1189605486","0.3850752379","","","","","","","","74","J","1","","","131","main_expt"
"","bandit","211","649830","0.0-172.0-0.0","13614112","wem/bandit_double","AE608VRXK6M2E","both","6","3","323","","","","","","","0","0","1","0.2044414959","0.1571188116","","","","","0.3595653039","0.1571188116","0.2105840197","0.2729729886","0.2053564998","0.2044414959","0.08638656351","0.3547422913","","","","","","","","74","J","1","","","132","main_expt"
"","bandit","212","652031","0.0-173.0-0.0","13614112","wem/bandit_double","AE608VRXK6M2E","both","6","3","689","","","","","","","0","0","1","0.104542274","0.2328486735","","","","","0.3873527377","0.2021073832","0.2328486735","0.3248088544","0.2102644512","0.2352631215","0.104542274","0.3256782816","","","","","","","","75","K","2","","","133","main_expt"
"","bandit","213","653767","0.0-174.0-0.0","13614112","wem/bandit_double","AE608VRXK6M2E","both","6","3","221","","","","","","","0","0","1","0.1401790922","0.2589092944","","","","","0.3973884711","0.2693148074","0.2589092944","0.3596446835","0.2028105977","0.2808822736","0.1401790922","0.2479378245","","","","","","","","75","K","2","","","134","main_expt"
"","bandit","214","655537","0.0-175.0-0.0","13614112","wem/bandit_double","AE608VRXK6M2E","both","6","3","254","","","","","","","0","0","1","0.24301602","0.318377279","","","","","0.4080523157","0.2625780805","0.2637326353","0.318377279","0.1556880781","0.3053704558","0.1818128853","0.24301602","","","","","","","","76","L","3","","","135","main_expt"
"","bandit","215","657394","0.0-176.0-0.0","13614112","wem/bandit_double","AE608VRXK6M2E","both","6","3","339","","","","","","","0","0","1","0.2630427063","0.3160887017","","","","","0.4176503084","0.2981707722","0.2718680576","0.3160887017","0.1428421262","0.3140058771","0.1583738081","0.2630427063","","","","","","","","76","L","3","","","136","main_expt"
"","bandit","216","659078","0.0-177.0-0.0","13614112","wem/bandit_double","AE608VRXK6M2E","both","6","3","169","","","","","","","0","0","1","0.323699752","0.3148158286","","","","","0.3859803947","0.3148158286","0.2919957672","0.2883225013","0.1039390038","0.323699752","0.1497920091","0.3053425806","","","","","","","","74","J","1","","","137","main_expt"
"","bandit","217","661030","0.0-178.0-0.0","13614112","wem/bandit_double","AE608VRXK6M2E","both","6","3","445","","","","","","","0","0","1","0.07132433681","0.358492916","","","","","0.358492916","0.3111523267","0.3193993407","0.3009152141","0.07132433681","0.3435108126","0.1128601551","0.3588623722","","","","","","","","72","H","0","img/none_selected.jpg","","138","main_expt"
"","bandit","218","662936","0.0-179.0-0.0","13614112","wem/bandit_double","AE608VRXK6M2E","both","6","3","388","","","","","","","0","0","1","0.1047165976","0.3608756281","","","","","0.3608756281","0.3034593298","0.3404434035","0.293720077","0.1047165976","0.3505637202","0.1073604677","0.2762704672","","","","","","","","72","H","0","img/none_selected.jpg","","139","main_expt"
"","bandit","219","664784","0.0-180.0-0.0","13614112","wem/bandit_double","AE608VRXK6M2E","both","6","3","332","","","","","","","1","0","0","0.4185251601","0.2507495005","","","","","0.3421836092","0.2507495005","0.3278052243","0.286059761","0.09043849554","0.4185251601","0.1376710563","0.2475753012","","","","","","","","74","J","1","","","140","main_expt"
"","bandit","220","666662","0.0-181.0-0.0","13614112","wem/bandit_double","AE608VRXK6M2E","both","6","3","372","","","","","","","0","0","1","0.4225289085","0.2220694513","","","","","0.3737340371","0.2220694513","0.3038906839","0.2931724706","0.05096505815","0.4225289085","0.1412662962","0.2436306075","","","","","","","","74","J","1","","","141","main_expt"
"","bandit","221","668456","0.0-182.0-0.0","13614112","wem/bandit_double","AE608VRXK6M2E","both","6","3","275","","","","","","","0","0","1","0.455259632","0.2119249064","","","","","0.3461121542","0.2119249064","0.2924195757","0.2182180164","0.02973759478","0.455259632","0.1543424817","0.1998899021","","","","","","","","74","J","1","","","142","main_expt"
"","bandit","222","671153","0.0-183.0-0.0","13614112","wem/bandit_double","AE608VRXK6M2E","both","6","3","1179","","","","","","","1","1","0","0.1552636118","0.2816149275","","","","","0.3305931074","0.2665135591","0.2816149275","0.2015475508","0.04457260366","0.4287003803","0.1552636118","0.2568100034","","","","","","","","75","K","2","","","143","main_expt"
"","bandit","223","672976","0.0-184.0-0.0","13614112","wem/bandit_double","AE608VRXK6M2E","both","6","3","307","","","","","","","0","1","0","0.2241753426","0.2355525614","","","","","0.3561039987","0.2854155153","0.2355525614","0.2074070562","0.04060115041","0.4260506414","0.2241753426","0.2859833531","","","","","","","","75","K","2","","","144","main_expt"
"","bandit","224","674711","0.0-185.0-0.0","13614112","wem/bandit_double","AE608VRXK6M2E","both","6","3","218","","","","","","","1","0","0","0.2484131349","0.2185662272","","","","","0.3648023512","0.2521048148","0.2185662272","0.1415368311","0.06712401514","0.4202170594","0.2484131349","0.2080640158","","","","","","","","75","K","2","","","145","main_expt"
"","bandit","225","676375","0.0-186.0-0.0","13614112","wem/bandit_double","AE608VRXK6M2E","both","6","3","147","","","","","","","1","0","0","0.2905032103","0.2209315791","","","","","0.3450315","0.2321266643","0.2209315791","0.1549520657","0.08780921534","0.4333226383","0.2905032103","0.2469639643","","","","","","","","75","K","2","","","146","main_expt"
"","bandit","226","678674","0.0-187.0-0.0","13614112","wem/bandit_double","AE608VRXK6M2E","both","6","3","780","","","","","","","0","0","1","0.2846703457","0.2889766311","","","","","0.2720321141","0.3159383216","0.2889766311","0.1469310363","0.1333368233","0.4340954059","0.2846703457","0.2169279296","","","","","","","","75","K","2","","","147","main_expt"
"","bandit","227","680367","0.0-188.0-0.0","13614112","wem/bandit_double","AE608VRXK6M2E","both","6","3","176","","","","","","","0","0","1","0.3010433131","0.2859466156","","","","","0.2598972664","0.2673485129","0.2859466156","0.1332828417","0.09264147873","0.3903754431","0.3010433131","0.1248284812","","","","","","","","75","K","2","","","148","main_expt"
"","bandit","228","682089","0.0-189.0-0.0","13614112","wem/bandit_double","AE608VRXK6M2E","both","6","3","206","","","","","","","1","0","0","0.1498862571","0.1102010463","","","","","0.2343157719","0.3348600541","0.2588478233","0.1102010463","0.123708687","0.4161192262","0.3421268102","0.1498862571","","","","","","","","76","L","3","","","149","main_expt"
"","bandit","229","683925","0.0-190.0-0.0","13614112","wem/bandit_double","AE608VRXK6M2E","both","6","3","321","","","","","","","0","1","0","0.2044632824","0.1356103494","","","","","0.2451363599","0.3659656834","0.2224653457","0.1356103494","0.1087811601","0.4545257836","0.3382865341","0.2044632824","","","","","","","","76","L","3","","","150","main_expt"
"","bandit","230","685999","0.0-191.0-0.0","13614112","wem/bandit_double","AE608VRXK6M2E","both","6","3","555","","","","","","","0","0","1","0.1630699797","0.1621229287","","","","","0.2053737132","0.36397653","0.2387237716","0.1621229287","0.1640336927","0.4553704948","0.3031951358","0.1630699797","","","","","","","","76","L","3","","","151","main_expt"
"","bandit","231","687911","0.0-192.0-0.0","13614112","wem/bandit_double","AE608VRXK6M2E","both","6","3","401","","","","","","","0","0","1","0.1534962237","0.1412745606","","","","","0.2396242378","0.3710672623","0.2519133504","0.1412745606","0.1474195158","0.4692720684","0.3163498213","0.1534962237","","","","","","","","76","L","3","","","152","main_expt"
"","bandit","232","689878","0.0-193.0-0.0","13614112","wem/bandit_double","AE608VRXK6M2E","both","6","3","442","","","","","","","1","0","0","0.4794448159","0.3828607765","","","","","0.2923277395","0.3828607765","0.3078499427","0.1707580034","0.1200421148","0.4794448159","0.3205280093","0.1506701345","","","","","","","","74","J","1","","","153","main_expt"
"","bandit","233","691711","0.0-194.0-0.0","13614112","wem/bandit_double","AE608VRXK6M2E","both","6","3","315","","","","","","","0","0","1","0.4762011242","0.3526468527","","","","","0.3166515581","0.3526468527","0.3283820497","0.1717455462","0.1295208369","0.4762011242","0.2780981807","0.1810992197","","","","","","","","74","J","1","","","154","main_expt"
"","bandit","234","693520","0.0-195.0-0.0","13614112","wem/bandit_double","AE608VRXK6M2E","both","6","3","297","","","","","","","1","1","0","0.4797315341","0.3865981945","","","","","0.3194616596","0.3865981945","0.3303057687","0.1785539081","0.1189574303","0.4797315341","0.2543788853","0.2574031695","","","","","","","","74","J","1","","","155","main_expt"
"","bandit","235","695327","0.0-196.0-0.0","13614112","wem/bandit_double","AE608VRXK6M2E","both","6","3","289","","","","","","","1","1","0","0.4815153028","0.4328422877","","","","","0.3767011333","0.4328422877","0.3178912443","0.2175815231","0.1511338071","0.4815153028","0.2601772157","0.1838662476","","","","","","","","74","J","1","","","156","main_expt"
"","bandit","236","697143","0.0-197.0-0.0","13614112","wem/bandit_double","AE608VRXK6M2E","both","6","3","297","","","","","","","0","0","1","0.4769669351","0.4224906378","","","","","0.3853144204","0.4224906378","0.3236874272","0.216674397","0.1494559257","0.4769669351","0.27050514","0.1951262555","","","","","","","","74","J","1","","","157","main_expt"
"","bandit","237","700584","0.0-198.0-0.0","13614112","wem/bandit_double","AE608VRXK6M2E","both","6","3","1925","","","","","","","0","0","1","0.4819637572","0.4428847078","","","","","0.3519128793","0.4428847078","0.3731337511","0.2184316938","0.1398300683","0.4819637572","0.2912044809","0.1711173681","","","","","","","","74","J","1","","","158","main_expt"
"","bandit","238","702808","0.0-199.0-0.0","13614112","wem/bandit_double","AE608VRXK6M2E","both","6","3","703","","","","","","","0","1","0","0.1482700517","0.3255157266","","","","","0.3255157266","0.4498083842","0.3758107074","0.2603966468","0.1482700517","0.4802617926","0.2863852675","0.1262927185","","","","","","","","72","H","0","img/none_selected.jpg","","159","main_expt"
"","bandit","239","705735","0.0-200.0-0.0","13614112","wem/bandit_double","AE608VRXK6M2E","both","6","3","1411","","","","","","","0","0","1","0.1327856751","0.379238532","","","","","0.379238532","0.4319550234","0.3494215766","0.2242017374","0.1327856751","0.4834703177","0.3188379944","0.1289005464","","","","","","","","72","H","0","img/none_selected.jpg","","160","main_expt"
"","bandit","240","708335","0.0-201.0-0.0","13614112","wem/bandit_double","AE608VRXK6M2E","both","6","3","1082","","","","","","","0","0","1","0.1936248495","0.3776335756","","","","","0.3776335756","0.4417514389","0.3327111917","0.2014027125","0.1936248495","0.4783639554","0.3918259889","0.07062595825","","","","","","","","72","H","0","img/none_selected.jpg","","161","main_expt"
"","bandit","241","712556","0.0-202.0-0.0","13614112","wem/bandit_double","AE608VRXK6M2E","both","6","3","2701","","","","","","","0","0","1","0.08554885259","0.2038621466","","","","","0.2955751891","0.4081293495","0.3171011618","0.2038621466","0.1917288119","0.4702379588","0.3825352776","0.08554885259","","","","","","","","76","L","3","","","162","main_expt"
"","bandit","242","714382","0.0-203.0-0.0","13614112","wem/bandit_double","AE608VRXK6M2E","both","6","3","304","","","","","","","0","0","1","0.05790820845","0.1238136799","","","","","0.30851492","0.4265776113","0.364183239","0.1238136799","0.2410074379","0.4761999765","0.3500114378","0.05790820845","","","","","","","","76","L","3","","","163","main_expt"
"","bandit","243","716157","0.0-204.0-0.0","13614112","wem/bandit_double","AE608VRXK6M2E","both","6","3","268","","","","","","","0","0","1","0.3138306729","0.3917374524","","","","","0.3074756362","0.427472809","0.3917374524","0.1104941302","0.2717164652","0.4683988395","0.3138306729","0.04744410613","","","","","","","","75","K","2","","","164","main_expt"
"","bandit","244","717992","0.0-205.0-0.0","13614112","wem/bandit_double","AE608VRXK6M2E","both","6","3","316","","","","","","","1","1","0","0.4594806004","0.4016343469","","","","","0.2743039079","0.4016343469","0.3629360172","0.1099358877","0.3360488911","0.4594806004","0.3066591237","0.07721988326","","","","","","","","74","J","1","","","165","main_expt"
"","bandit","245","720073","0.0-206.0-0.0","13614112","wem/bandit_double","AE608VRXK6M2E","both","6","3","568","","","","","","","1","1","0","0.4769271284","0.3578169927","","","","","0.2900226329","0.3578169927","0.3697042915","0.08082918558","0.3288768439","0.4769271284","0.359337808","0.09276645858","","","","","","","","74","J","1","","","166","main_expt"
"","bandit","246","727339","0.0-207.0-0.0","13614112","wem/bandit_double","AE608VRXK6M2E","both","6","3","5743","","","","","","","1","0","0","0.4824675089","0.3346076013","","","","","0.3444017494","0.3346076013","0.3626443337","0.08539074978","0.341079324","0.4824675089","0.3888119778","0.1092251717","","","","","","","","74","J","1","","","167","main_expt"
"","bandit","247","729303","0.0-208.0-0.0","13614112","wem/bandit_double","AE608VRXK6M2E","both","6","3","448","","","","","","","1","0","0","0.4731218304","0.36326211","","","","","0.3934904689","0.36326211","0.3488380128","0.1307687804","0.2972081376","0.4731218304","0.3188253523","0.09704797424","","","","","","","","74","J","1","","","168","main_expt"
"","bandit","248","731135","0.0-209.0-0.0","13614112","wem/bandit_double","AE608VRXK6M2E","both","6","3","314","","","","","","","0","0","1","0.4558692975","0.3389060657","","","","","0.3712778229","0.3389060657","0.3338465455","0.09435724838","0.2716537329","0.4558692975","0.3035082617","0.1131958007","","","","","","","","74","J","1","","","169","main_expt"
"","bandit","249","732912","0.0-210.0-0.0","13614112","wem/bandit_double","AE608VRXK6M2E","both","6","3","254","","","","","","","0","0","1","0.3705489528","0.3348119161","","","","","0.3348119161","0.3820287301","0.3675902536","0.09371103674","0.3705489528","0.424927817","0.3540810543","0.1636150477","","","","","","","","72","H","0","img/none_selected.jpg","","170","main_expt"
"","bandit","250","734743","0.0-211.0-0.0","13614112","wem/bandit_double","AE608VRXK6M2E","both","6","3","313","","","","","","","0","1","0","0.4254050478","0.3738350687","","","","","0.3697689907","0.3738350687","0.3663425941","0.0912992704","0.3259531709","0.4254050478","0.2912941695","0.1889182236","","","","","","","","74","J","1","","","171","main_expt"
"","bandit","251","736470","0.0-212.0-0.0","13614112","wem/bandit_double","AE608VRXK6M2E","both","6","3","210","","","","","","","0","0","1","0.4319935488","0.3449486646","","","","","0.3438364448","0.3449486646","0.3571019768","0.1053216192","0.3253578443","0.4319935488","0.2964718019","0.1494540944","","","","","","","","74","J","1","","","172","main_expt"
"","bandit","252","738242","0.0-213.0-0.0","13614112","wem/bandit_double","AE608VRXK6M2E","both","6","3","252","","","","","","","0","0","1","0.2411205861","0.383943734","","","","","0.4064517123","0.3754463001","0.383943734","0.1119971747","0.3133285256","0.4157756128","0.2411205861","0.1700291406","","","","","","","","75","K","2","","","173","main_expt"
"","bandit","253","740048","0.0-214.0-0.0","13614112","wem/bandit_double","AE608VRXK6M2E","both","6","3","288","","","","","","","0","0","1","0.2007600912","0.1049574405","","","","","0.4266345201","0.3983783957","0.378453819","0.1049574405","0.3470844982","0.3650518631","0.2132737127","0.2007600912","","","","","","","","76","L","3","","","174","main_expt"
"","bandit","254","742186","0.0-215.0-0.0","13614112","wem/bandit_double","AE608VRXK6M2E","both","6","3","621","","","","","","","0","1","0","0.3615725976","0.4413212306","","","","","0.4413212306","0.4176958341","0.3577460836","0.07351671593","0.3615725976","0.3583375904","0.2722172758","0.1613291475","","","","","","","","72","H","0","img/none_selected.jpg","","175","main_expt"
"","bandit","255","744038","0.0-216.0-0.0","13614112","wem/bandit_double","AE608VRXK6M2E","both","6","3","326","","","","","","","0","1","0","0.3592449917","0.438548454","","","","","0.438548454","0.4336280271","0.3346789668","0.06097876817","0.3592449917","0.3849487833","0.3158297255","0.1618540135","","","","","","","","72","H","0","img/none_selected.jpg","","176","main_expt"
"","bandit","256","745920","0.0-217.0-0.0","13614112","wem/bandit_double","AE608VRXK6M2E","both","6","3","370","","","","","","","0","0","1","0.3614776984","0.4350726265","","","","","0.4350726265","0.3863917124","0.3720341948","0.05873143133","0.3614776984","0.3741193846","0.3033070912","0.1337509382","","","","","","","","72","H","0","img/none_selected.jpg","","177","main_expt"
"","bandit","257","747742","0.0-218.0-0.0","13614112","wem/bandit_double","AE608VRXK6M2E","both","6","3","306","","","","","","","0","0","1","0.4042649322","0.4029859975","","","","","0.4029859975","0.3826512014","0.4243236705","0.07829718294","0.4042649322","0.3704436283","0.3070990366","0.172909152","","","","","","","","72","H","0","img/none_selected.jpg","","178","main_expt"
"","bandit","258","749545","0.0-219.0-0.0","13614112","wem/bandit_double","AE608VRXK6M2E","both","6","3","292","","","","","","","0","0","1","0.3718647044","0.3681046487","","","","","0.3738585124","0.3681046487","0.4396564102","0.05868413977","0.3626499081","0.3718647044","0.349206168","0.2306318455","","","","","","","","74","J","1","","","179","main_expt"
"","bandit","259","751241","0.0-220.0-0.0","13614112","wem/bandit_double","AE608VRXK6M2E","both","6","3","177","","","","","","","0","1","0","0.3533593609","0.4501825932","","","","","0.3884150149","0.374340785","0.4501825932","0.04540529238","0.365831292","0.3144845341","0.3533593609","0.2531752843","","","","","","","","75","K","2","","","180","main_expt"
"","bandit","260","753048","0.0-221.0-0.0","13614112","wem/bandit_double","AE608VRXK6M2E","both","6","3","285","","","","","","","1","0","0","0.3792633926","0.4527537228","","","","","0.3977335033","0.3844034803","0.4527537228","0.04810206047","0.3720079561","0.3328992573","0.3792633926","0.2995137733","","","","","","","","75","K","2","","","181","main_expt"
"","bandit","261","755015","0.0-222.0-0.0","13614112","wem/bandit_double","AE608VRXK6M2E","both","6","3","450","","","","","","","0","1","0","0.4170401524","0.4733821952","","","","","0.4194204302","0.3569363444","0.4733821952","0.0564969073","0.3747751333","0.3443004049","0.4170401524","0.2818604164","","","","","","","","75","K","2","","","182","main_expt"
"","bandit","262","757048","0.0-223.0-0.0","13614112","wem/bandit_double","AE608VRXK6M2E","both","6","3","513","","","","","","","0","1","0","0.4349898381","0.4741352064","","","","","0.4050300101","0.3930074682","0.4741352064","0.06674959941","0.3772869326","0.3572445505","0.4349898381","0.2706787236","","","","","","","","75","K","2","","","183","main_expt"
"","bandit","263","762624","0.0-224.0-0.0","13614112","wem/bandit_double","AE608VRXK6M2E","both","6","3","4059","","","","","","","1","0","0","0.4355724899","0.4835015011","","","","","0.4272992256","0.4105724965","0.4835015011","0.05730522946","0.3719200221","0.358140682","0.4355724899","0.2788381055","","","","","","","","75","K","2","","","184","main_expt"
"","bandit","264","764442","0.0-225.0-0.0","13614112","wem/bandit_double","AE608VRXK6M2E","both","6","3","297","","","","","","","0","0","1","0.443517249","0.4907566516","","","","","0.4213026748","0.4230276401","0.4907566516","0.0759668512","0.3759280431","0.2938856532","0.443517249","0.2591604306","","","","","","","","75","K","2","","","185","main_expt"
"","bandit","265","766272","0.0-226.0-0.0","13614112","wem/bandit_double","AE608VRXK6M2E","both","6","3","313","","","","","","","1","1","0","0.4185550765","0.4777100538","","","","","0.3729626057","0.4243078066","0.4777100538","0.0736669194","0.3686405037","0.2570442146","0.4185550765","0.1717283936","","","","","","","","75","K","2","","","186","main_expt"
"","bandit","266","768007","0.0-227.0-0.0","13614112","wem/bandit_double","AE608VRXK6M2E","both","6","3","215","","","","","","","0","0","1","0.4582246802","0.4751658893","","","","","0.4022080601","0.419104652","0.4751658893","0.1020870739","0.3693778387","0.2781151114","0.4582246802","0.1399016055","","","","","","","","75","K","2","","","187","main_expt"
"","bandit","267","769944","0.0-228.0-0.0","13614112","wem/bandit_double","AE608VRXK6M2E","both","6","3","419","","","","","","","0","1","0","0.4499637214","0.4711403756","","","","","0.4218987807","0.3917910895","0.4711403756","0.110066606","0.3858781765","0.2510368257","0.4499637214","0.116743447","","","","","","","","75","K","2","","","188","main_expt"
"","bandit","268","771654","0.0-229.0-0.0","13614112","wem/bandit_double","AE608VRXK6M2E","both","6","3","199","","","","","","","1","0","0","0.4681283031","0.4848283219","","","","","0.4284519853","0.3696037293","0.4848283219","0.1616324423","0.353665234","0.2299291889","0.4681283031","0.09810356538","","","","","","","","75","K","2","","","189","main_expt"
"","bandit","269","773248","0.0-230.0-0.0","13614112","wem/bandit_double","AE608VRXK6M2E","both","6","3","76","","","","","","","0","1","0","0.4672384316","0.4906713727","","","","","0.4104863902","0.3722688899","0.4906713727","0.1401199573","0.3702546744","0.2957770397","0.4672384316","0.1333212727","","","","","","","","75","K","2","","","190","main_expt"
"","bandit","270","774944","0.0-231.0-0.0","13614112","wem/bandit_double","AE608VRXK6M2E","both","6","3","176","","","","","","","1","1","0","0.4633056668","0.4944082075","","","","","0.4071825693","0.3956575009","0.4944082075","0.1782786715","0.3373283559","0.2806998676","0.4633056668","0.07289491444","","","","","","","","75","K","2","","","191","main_expt"
"","bandit","271","776686","0.0-232.0-0.0","13614112","wem/bandit_double","AE608VRXK6M2E","both","6","3","232","","","","","","","1","1","0","0.4701423021","0.4922337742","","","","","0.4172763132","0.3843500594","0.4922337742","0.203517815","0.3717228864","0.2578649702","0.4701423021","0.09060717316","","","","","","","","75","K","2","","","192","main_expt"
"","bandit","272","778438","0.0-233.0-0.0","13614112","wem/bandit_double","AE608VRXK6M2E","both","6","3","234","","","","","","","0","0","1","0.4625827917","0.4887356563","","","","","0.3965334946","0.3801723293","0.4887356563","0.172030281","0.3861484819","0.3019093773","0.4625827917","0.1038106097","","","","","","","","75","K","2","","","193","main_expt"
"","bandit","273","780045","0.0-234.0-0.0","13614112","wem/bandit_double","AE608VRXK6M2E","both","6","3","90","","","","","","","1","1","0","0.4480064119","0.4850955297","","","","","0.383316574","0.3871645121","0.4850955297","0.1813301739","0.3884838939","0.3028603149","0.4480064119","0.1222204007","","","","","","","","75","K","2","","","194","main_expt"
"","bandit","274","781801","0.0-235.0-0.0","13614112","wem/bandit_double","AE608VRXK6M2E","both","6","3","236","","","","","","","0","1","0","0.4263193963","0.4848341758","","","","","0.3965345796","0.3633903175","0.4848341758","0.2284295163","0.4058549971","0.2933095063","0.4263193963","0.1230179676","","","","","","","","75","K","2","","","195","main_expt"
"","bandit","275","783658","0.0-236.0-0.0","13614112","wem/bandit_double","AE608VRXK6M2E","both","6","3","338","","","","","","","1","0","0","0.4399191733","0.490049139","","","","","0.3978469093","0.3811675741","0.490049139","0.2501246714","0.3894648227","0.3333663608","0.4399191733","0.1972068901","","","","","","","","75","K","2","","","196","main_expt"
"","bandit","276","785488","0.0-237.0-0.0","13614112","wem/bandit_double","AE608VRXK6M2E","both","6","3","310","","","","","","","1","1","0","0.4303685687","0.4912643012","","","","","0.3172926233","0.3487868089","0.4912643012","0.3150809007","0.3452919481","0.3472763543","0.4303685687","0.2091218652","","","","","","","","75","K","2","","","197","main_expt"
"","bandit","277","787344","0.0-238.0-0.0","13614112","wem/bandit_double","AE608VRXK6M2E","both","6","3","338","","","","","","","0","0","1","0.4166638701","0.4793615714","","","","","0.3113170709","0.2986771554","0.4793615714","0.3442077965","0.3571156804","0.3420385624","0.4166638701","0.2316117542","","","","","","","","75","K","2","","","198","main_expt"
"","bandit","278","789063","0.0-239.0-0.0","13614112","wem/bandit_double","AE608VRXK6M2E","both","6","3","199","","","","","","","0","0","1","0.4166192342","0.4661622676","","","","","0.3066116159","0.3481418533","0.4661622676","0.3675051223","0.3761278261","0.3009927129","0.4166192342","0.1983173389","","","","","","","","75","K","2","","","199","main_expt"
"","bandit","279","790678","0.0-240.0-0.0","13614112","wem/bandit_double","AE608VRXK6M2E","both","6","3","105","","","","","","","0","0","1","0.2275108597","0.3044821291","","","","","0.2521122026","0.353319573","0.4479238565","0.3044821291","0.3623939384","0.2834367318","0.4065109498","0.2275108597","","","","","","","","76","L","3","","","200","main_expt"
"","bandit","280","793007","0.0-241.0-0.0","13614112","wem/bandit_double","AE608VRXK6M2E","both","6","3","816","","","","","","","1","0","0","0.2305195973","0.3676338631","","","","","0.2679963248","0.3676338631","0.4429166455","0.3013824411","0.3470966653","0.2305195973","0.4210367682","0.2753755663","","","","","","","","74","J","1","","","201","main_expt"
"","bandit","281","794944","0.0-242.0-0.0","13614112","wem/bandit_double","AE608VRXK6M2E","both","6","3","421","","","","","","","0","0","1","0.236439039","0.311657493","","","","","0.2076546236","0.311657493","0.442820363","0.3001954661","0.3738670455","0.236439039","0.4059774394","0.2867984519","","","","","","","","74","J","1","","","202","main_expt"
"","bandit","282","796776","0.0-243.0-0.0","13614112","wem/bandit_double","AE608VRXK6M2E","both","6","3","320","","","","","","","1","0","0","0.207292508","0.3364041998","","","","","0.1881707852","0.3364041998","0.4539008368","0.3189156814","0.4434414113","0.207292508","0.4217634448","0.227681123","","","","","","","","74","J","1","","","203","main_expt"
"","bandit","283","798545","0.0-244.0-0.0","13614112","wem/bandit_double","AE608VRXK6M2E","both","6","3","249","","","","","","","1","0","0","0.2706274655","0.3148670147","","","","","0.2057853427","0.3148670147","0.4163307037","0.3162062407","0.4363530878","0.2706274655","0.417590799","0.2421814767","","","","","","","","74","J","1","","","204","main_expt"
"","bandit","284","800281","0.0-245.0-0.0","13614112","wem/bandit_double","AE608VRXK6M2E","both","6","3","214","","","","","","","0","0","1","0.2688171721","0.3293187519","","","","","0.2564451259","0.3293187519","0.4045388199","0.347278619","0.4390009565","0.2688171721","0.3892328218","0.2250127273","","","","","","","","74","J","1","","","205","main_expt"
"","bandit","285","801902","0.0-246.0-0.0","13614112","wem/bandit_double","AE608VRXK6M2E","both","6","3","104","","","","","","","0","0","1","0.2774640617","0.2705077244","","","","","0.3082896296","0.2705077244","0.4083422121","0.2970129147","0.4606838579","0.2774640617","0.3877758809","0.2148063869","","","","","","","","74","J","1","","","206","main_expt"
"","bandit","286","803794","0.0-247.0-0.0","13614112","wem/bandit_double","AE608VRXK6M2E","both","6","3","380","","","","","","","1","0","0","0.4679198071","0.3235103938","","","","","0.3235103938","0.3083591011","0.4033585138","0.3331481178","0.4679198071","0.31303597","0.3344078408","0.2370073307","","","","","","","","72","H","0","img/none_selected.jpg","","207","main_expt"
"","bandit","287","805591","0.0-248.0-0.0","13614112","wem/bandit_double","AE608VRXK6M2E","both","6","3","285","","","","","","","1","0","0","0.4731710197","0.3563539536","","","","","0.3563539536","0.2489273718","0.3753320851","0.3195917859","0.4731710197","0.3187850143","0.3285414067","0.1736764344","","","","","","","","72","H","0","img/none_selected.jpg","","208","main_expt"
"","bandit","288","807783","0.0-249.0-0.0","13614112","wem/bandit_double","AE608VRXK6M2E","both","6","3","675","","","","","","","1","0","0","0.472507437","0.3821305916","","","","","0.3821305916","0.2224321457","0.3864970555","0.3642345195","0.472507437","0.3031297305","0.337659841","0.2033963155","","","","","","","","72","H","0","img/none_selected.jpg","","209","main_expt"
"","bandit","289","809689","0.0-250.0-0.0","13614112","wem/bandit_double","AE608VRXK6M2E","both","6","3","386","","","","","","","0","0","1","0.4759946166","0.4067483812","","","","","0.4067483812","0.2184729634","0.3894881908","0.3518797164","0.4759946166","0.3593083662","0.322880172","0.1849029676","","","","","","","","72","H","0","img/none_selected.jpg","","210","main_expt"
"","bandit","290","811582","0.0-251.0-0.0","13614112","wem/bandit_double","AE608VRXK6M2E","both","6","3","376","","","","","","","1","1","0","0.4838002785","0.376825818","","","","","0.376825818","0.2178464352","0.4052823736","0.3781537602","0.4838002785","0.3758292662","0.3440981268","0.08033524441","","","","","","","","72","H","0","img/none_selected.jpg","","211","main_expt"
"","bandit","291","813449","0.0-252.0-0.0","13614112","wem/bandit_double","AE608VRXK6M2E","both","6","3","346","","","","","","","1","0","0","0.4871609062","0.3481764155","","","","","0.3481764155","0.1644702768","0.3783189977","0.3773353051","0.4871609062","0.3771764803","0.3135232579","0.1024936548","","","","","","","","72","H","0","img/none_selected.jpg","","212","main_expt"
"","bandit","292","815233","0.0-253.0-0.0","13614112","wem/bandit_double","AE608VRXK6M2E","both","6","3","263","","","","","","","0","0","1","0.4829725273","0.3239198888","","","","","0.3239198888","0.1271660564","0.3804187243","0.3448860985","0.4829725273","0.3935517348","0.328558382","0.1380366818","","","","","","","","72","H","0","img/none_selected.jpg","","213","main_expt"
"","bandit","293","816904","0.0-254.0-0.0","13614112","wem/bandit_double","AE608VRXK6M2E","both","6","3","153","","","","","","","0","1","0","0.4742933803","0.3592643085","","","","","0.3592643085","0.1368129038","0.3964056757","0.3622000499","0.4742933803","0.3792377037","0.3024402918","0.1206441992","","","","","","","","72","H","0","img/none_selected.jpg","","214","main_expt"
"","bandit","294","818673","0.0-255.0-0.0","13614112","wem/bandit_double","AE608VRXK6M2E","both","6","3","240","","","","","","","0","0","1","0.4754417465","0.3482739819","","","","","0.3482739819","0.07615368859","0.3939862607","0.3408682726","0.4754417465","0.3364308411","0.3024001881","0.1320715796","","","","","","","","72","H","0","img/none_selected.jpg","","215","main_expt"
"","bandit","295","820311","0.0-256.0-0.0","13614112","wem/bandit_double","AE608VRXK6M2E","both","6","3","120","","","","","","","1","0","0","0.4764866221","0.2972527025","","","","","0.2972527025","0.07711559412","0.4062496234","0.328819006","0.4764866221","0.3348871659","0.2975117226","0.1152906885","","","","","","","","72","H","0","img/none_selected.jpg","","216","main_expt"
