"consent","trial_type","trial_index","time_elapsed","internal_node_id","subjID","study","MID","cond","drift1","drift2","rt","responses","key_press","expt_phase","like","value","connected","gems","bombs","no_reward","GemPrChosen","BombPrChosen","GainOverPainPr_0","GainOverPainPr_1","GainOverPainPr_2","GainOverPainPr_3","LosePr_0","LosePr_1","LosePr_2","LosePr_3","WinPr_0","WinPr_1","WinPr_2","WinPr_3","Q0","Q1","Q2","gender","age","ethnicity","target","respCharCode","respKey","respChoiceNum","respChoice","practice","trial_counter","trial_label"
"INL_behavioral_consent_30min_online.html","consent","0","34731","0.0-0.0","28805773","wem/bandit_double","A1QQIZ2A5TZ5MR","both","4","5","","","","","","","","","","","","","","","","","","","","","","","","","","","","","","","","","","","","","",""
"","survey-text","1","42585","0.0-1.0","28805773","wem/bandit_double","A1QQIZ2A5TZ5MR","both","4","5","6841","{""Q0"":""A1QQIZ2A5TZ5MR""}","","","","","","","","","","","","","","","","","","","","","","","","","","","","","","","","","","","",""
"","text","2","61423","0.0-2.0","28805773","wem/bandit_double","A1QQIZ2A5TZ5MR","both","4","5","17831","","32","","","","","","","","","","","","","","","","","","","","","","","","","","","","","","","","","","",""
"","text","3","75161","0.0-3.0","28805773","wem/bandit_double","A1QQIZ2A5TZ5MR","both","4","5","13736","","32","","","","","","","","","","","","","","","","","","","","","","","","","","","","","","","","","","",""
"","text","4","144963","0.0-4.0","28805773","wem/bandit_double","A1QQIZ2A5TZ5MR","both","4","5","69800","","32","","","","","","","","","","","","","","","","","","","","","","","","","","","","","","","","","","",""
"","text","5","169380","0.0-5.0","28805773","wem/bandit_double","A1QQIZ2A5TZ5MR","both","4","5","24415","","32","","","","","","","","","","","","","","","","","","","","","","","","","","","","","","","","","","",""
"","text","6","193901","0.0-6.0","28805773","wem/bandit_double","A1QQIZ2A5TZ5MR","both","4","5","24520","","32","","","","","","","","","","","","","","","","","","","","","","","","","","","","","","","","","","",""
"","text","7","227461","0.0-7.0","28805773","wem/bandit_double","A1QQIZ2A5TZ5MR","both","4","5","33559","","32","","","","","","","","","","","","","","","","","","","","","","","","","","","","","","","","","","",""
"","identification","8","262611","0.0-8.0-0.0","28805773","wem/bandit_double","A1QQIZ2A5TZ5MR","both","4","5","35124","","","","6","6","6","","","","","","","","","","","","","","","","","","","","","","","","the village of Zur","","","","","","",""
"","identification","9","308356","0.0-8.0-1.0","28805773","wem/bandit_double","A1QQIZ2A5TZ5MR","both","4","5","44725","","","","0","0","1","","","","","","","","","","","","","","","","","","","","","","","","the village of Nyx","","","","","","",""
"","text","10","333065","0.0-9.0","28805773","wem/bandit_double","A1QQIZ2A5TZ5MR","both","4","5","23704","","32","","","","","","","","","","","","","","","","","","","","","","","","","","","","","","","","","","",""
"","text","11","347186","0.0-10.0","28805773","wem/bandit_double","A1QQIZ2A5TZ5MR","both","4","5","14118","","32","","","","","","","","","","","","","","","","","","","","","","","","","","","","","","","","","","",""
"","text","12","359618","0.0-11.0","28805773","wem/bandit_double","A1QQIZ2A5TZ5MR","both","4","5","12430","","32","","","","","","","","","","","","","","","","","","","","","","","","","","","","","","","","","","",""
"","text","13","376555","0.0-12.0","28805773","wem/bandit_double","A1QQIZ2A5TZ5MR","both","4","5","16935","","32","","","","","","","","","","","","","","","","","","","","","","","","","","","","","","","","","","",""
"","text","14","391810","0.0-13.0","28805773","wem/bandit_double","A1QQIZ2A5TZ5MR","both","4","5","15252","","32","","","","","","","","","","","","","","","","","","","","","","","","","","","","","","","","","","",""
"","bandit","15","396072","0.0-14.0-0.0","28805773","wem/bandit_double","A1QQIZ2A5TZ5MR","both","4","5","2745","","","","","","","1","0","0","1","0","","","","","0","","","","1","","","","","","","","","","","74","J","0","img/none_selected_demo.jpg","true","0",""
"","bandit","16","399805","0.0-15.0-0.0","28805773","wem/bandit_double","A1QQIZ2A5TZ5MR","both","4","5","2221","","","","","","","0","1","0","0","1","","","","","1","","","","0","","","","","","","","","","","75","K","0","img/none_selected_demo.jpg","true","0",""
"","text","17","425348","0.0-16.0","28805773","wem/bandit_double","A1QQIZ2A5TZ5MR","both","4","5","25541","","32","","","","","","","","","","","","","","","","","","","","","","","","","","","","","","","","","","",""
"","text","18","444804","0.0-17.0","28805773","wem/bandit_double","A1QQIZ2A5TZ5MR","both","4","5","19455","","32","","","","","","","","","","","","","","","","","","","","","","","","","","","","","","","","","","",""
"","text","19","467827","0.0-18.0","28805773","wem/bandit_double","A1QQIZ2A5TZ5MR","both","4","5","23021","","32","","","","","","","","","","","","","","","","","","","","","","","","","","","","","","","","","","",""
"","text","20","489005","0.0-19.0","28805773","wem/bandit_double","A1QQIZ2A5TZ5MR","both","4","5","21175","","32","","","","","","","","","","","","","","","","","","","","","","","","","","","","","","","","","","",""
"","bandit","21","495835","0.0-20.0-0.0","28805773","wem/bandit_double","A1QQIZ2A5TZ5MR","both","4","5","5314","","","","","","","0","0","1","0.2","0","","","","","0","0","","","0.8","0.2","","","","","","","","","","75","K","1","","true","0","80_20_practice"
"","bandit","22","499795","0.0-20.0-1.0","28805773","wem/bandit_double","A1QQIZ2A5TZ5MR","both","4","5","2445","","","","","","","0","0","1","0.2","0","","","","","0","0","","","0.8","0.2","","","","","","","","","","75","K","1","","true","0","80_20_practice"
"","bandit","23","502909","0.0-20.0-2.0","28805773","wem/bandit_double","A1QQIZ2A5TZ5MR","both","4","5","1599","","","","","","","0","0","1","0.2","0","","","","","0","0","","","0.8","0.2","","","","","","","","","","75","K","1","","true","0","80_20_practice"
"","bandit","24","505515","0.0-20.0-3.0","28805773","wem/bandit_double","A1QQIZ2A5TZ5MR","both","4","5","1092","","","","","","","0","0","1","0.2","0","","","","","0","0","","","0.8","0.2","","","","","","","","","","75","K","1","","true","0","80_20_practice"
"","bandit","25","507978","0.0-20.0-4.0","28805773","wem/bandit_double","A1QQIZ2A5TZ5MR","both","4","5","949","","","","","","","1","0","0","0.8","0","","","","","0","0","","","0.8","0.2","","","","","","","","","","74","J","0","img/none_selected_demo.jpg","true","0","80_20_practice"
"","bandit","26","510484","0.0-20.0-5.0","28805773","wem/bandit_double","A1QQIZ2A5TZ5MR","both","4","5","997","","","","","","","1","0","0","0.8","0","","","","","0","0","","","0.8","0.2","","","","","","","","","","74","J","0","img/none_selected_demo.jpg","true","0","80_20_practice"
"","bandit","27","512796","0.0-20.0-6.0","28805773","wem/bandit_double","A1QQIZ2A5TZ5MR","both","4","5","796","","","","","","","0","0","1","0.8","0","","","","","0","0","","","0.8","0.2","","","","","","","","","","74","J","0","img/none_selected_demo.jpg","true","0","80_20_practice"
"","bandit","28","515002","0.0-20.0-7.0","28805773","wem/bandit_double","A1QQIZ2A5TZ5MR","both","4","5","694","","","","","","","1","0","0","0.8","0","","","","","0","0","","","0.8","0.2","","","","","","","","","","74","J","0","img/none_selected_demo.jpg","true","0","80_20_practice"
"","bandit","29","517321","0.0-20.0-8.0","28805773","wem/bandit_double","A1QQIZ2A5TZ5MR","both","4","5","805","","","","","","","1","0","0","0.8","0","","","","","0","0","","","0.8","0.2","","","","","","","","","","74","J","0","img/none_selected_demo.jpg","true","0","80_20_practice"
"","bandit","30","519530","0.0-20.0-9.0","28805773","wem/bandit_double","A1QQIZ2A5TZ5MR","both","4","5","692","","","","","","","1","0","0","0.8","0","","","","","0","0","","","0.8","0.2","","","","","","","","","","74","J","0","img/none_selected_demo.jpg","true","0","80_20_practice"
"","bandit","31","521696","0.0-20.0-10.0","28805773","wem/bandit_double","A1QQIZ2A5TZ5MR","both","4","5","655","","","","","","","1","0","0","0.8","0","","","","","0","0","","","0.8","0.2","","","","","","","","","","74","J","0","img/none_selected_demo.jpg","true","0","80_20_practice"
"","bandit","32","524170","0.0-20.0-11.0","28805773","wem/bandit_double","A1QQIZ2A5TZ5MR","both","4","5","962","","","","","","","1","0","0","0.8","0","","","","","0","0","","","0.8","0.2","","","","","","","","","","74","J","0","img/none_selected_demo.jpg","true","0","80_20_practice"
"","bandit","33","526597","0.0-20.0-12.0","28805773","wem/bandit_double","A1QQIZ2A5TZ5MR","both","4","5","914","","","","","","","1","0","0","0.8","0","","","","","0","0","","","0.8","0.2","","","","","","","","","","74","J","0","img/none_selected_demo.jpg","true","0","80_20_practice"
"","bandit","34","528887","0.0-20.0-13.0","28805773","wem/bandit_double","A1QQIZ2A5TZ5MR","both","4","5","779","","","","","","","1","0","0","0.8","0","","","","","0","0","","","0.8","0.2","","","","","","","","","","74","J","0","img/none_selected_demo.jpg","true","0","80_20_practice"
"","bandit","35","531033","0.0-20.0-14.0","28805773","wem/bandit_double","A1QQIZ2A5TZ5MR","both","4","5","634","","","","","","","1","0","0","0.8","0","","","","","0","0","","","0.8","0.2","","","","","","","","","","74","J","0","img/none_selected_demo.jpg","true","0","80_20_practice"
"","bandit","36","533010","0.0-20.0-15.0","28805773","wem/bandit_double","A1QQIZ2A5TZ5MR","both","4","5","465","","","","","","","1","0","0","0.8","0","","","","","0","0","","","0.8","0.2","","","","","","","","","","74","J","0","img/none_selected_demo.jpg","true","0","80_20_practice"
"","bandit","37","534979","0.0-20.0-16.0","28805773","wem/bandit_double","A1QQIZ2A5TZ5MR","both","4","5","455","","","","","","","1","0","0","0.8","0","","","","","0","0","","","0.8","0.2","","","","","","","","","","74","J","0","img/none_selected_demo.jpg","true","0","80_20_practice"
"","bandit","38","536946","0.0-20.0-17.0","28805773","wem/bandit_double","A1QQIZ2A5TZ5MR","both","4","5","455","","","","","","","1","0","0","0.8","0","","","","","0","0","","","0.8","0.2","","","","","","","","","","74","J","0","img/none_selected_demo.jpg","true","0","80_20_practice"
"","bandit","39","539189","0.0-20.0-18.0","28805773","wem/bandit_double","A1QQIZ2A5TZ5MR","both","4","5","726","","","","","","","1","0","0","0.8","0","","","","","0","0","","","0.8","0.2","","","","","","","","","","74","J","0","img/none_selected_demo.jpg","true","0","80_20_practice"
"","bandit","40","541497","0.0-20.0-19.0","28805773","wem/bandit_double","A1QQIZ2A5TZ5MR","both","4","5","795","","","","","","","1","0","0","0.8","0","","","","","0","0","","","0.8","0.2","","","","","","","","","","74","J","0","img/none_selected_demo.jpg","true","0","80_20_practice"
"","text","41","547448","0.0-21.0","28805773","wem/bandit_double","A1QQIZ2A5TZ5MR","both","4","5","5947","","32","","","","","","","","","","","","","","","","","","","","","","","","","","","","","","","","","","",""
"","bandit","42","550187","0.0-22.0-0.0","28805773","wem/bandit_double","A1QQIZ2A5TZ5MR","both","4","5","1226","","","","","","","1","0","0","1","0","","","","","0","1","","","1","0","","","","","","","","","","74","J","0","img/none_selected_demo.jpg","true","0",""
"","text","43","570832","0.0-23.0","28805773","wem/bandit_double","A1QQIZ2A5TZ5MR","both","4","5","20642","","32","","","","","","","","","","","","","","","","","","","","","","","","","","","","","","","","","","",""
"","text","44","580462","0.0-24.0","28805773","wem/bandit_double","A1QQIZ2A5TZ5MR","both","4","5","9628","","32","","","","","","","","","","","","","","","","","","","","","","","","","","","","","","","","","","",""
"","text","45","595385","0.0-25.0","28805773","wem/bandit_double","A1QQIZ2A5TZ5MR","both","4","5","14920","","32","","","","","","","","","","","","","","","","","","","","","","","","","","","","","","","","","","",""
"","text","46","601511","0.0-26.0","28805773","wem/bandit_double","A1QQIZ2A5TZ5MR","both","4","5","6124","","32","","","","","","","","","","","","","","","","","","","","","","","","","","","","","","","","","","",""
"","text","47","633370","0.0-27.0","28805773","wem/bandit_double","A1QQIZ2A5TZ5MR","both","4","5","31856","","32","","","","","","","","","","","","","","","","","","","","","","","","","","","","","","","","","","",""
"","text","48","649850","0.0-28.0","28805773","wem/bandit_double","A1QQIZ2A5TZ5MR","both","4","5","16478","","32","","","","","","","","","","","","","","","","","","","","","","","","","","","","","","","","","","",""
"","text","49","666859","0.0-29.0","28805773","wem/bandit_double","A1QQIZ2A5TZ5MR","both","4","5","17006","","32","","","","","","","","","","","","","","","","","","","","","","","","","","","","","","","","","","",""
"","text","50","674714","0.0-30.0","28805773","wem/bandit_double","A1QQIZ2A5TZ5MR","both","4","5","7853","","32","","","","","","","","","","","","","","","","","","","","","","","","","","","","","","","","","","",""
"","text","51","685883","0.0-31.0","28805773","wem/bandit_double","A1QQIZ2A5TZ5MR","both","4","5","11167","","32","","","","","","","","","","","","","","","","","","","","","","","","","","","","","","","","","","",""
"","text","52","691394","0.0-32.0","28805773","wem/bandit_double","A1QQIZ2A5TZ5MR","both","4","5","5508","","32","","","","","","","","","","","","","","","","","","","","","","","","","","","","","","","","","","",""
"","text","53","693210","0.0-33.0","28805773","wem/bandit_double","A1QQIZ2A5TZ5MR","both","4","5","1812","","32","","","","","","","","","","","","","","","","","","","","","","","","","","","","","","","","","","",""
"","text","54","698028","0.0-34.0","28805773","wem/bandit_double","A1QQIZ2A5TZ5MR","both","4","5","4814","","32","","","","","","","","","","","","","","","","","","","","","","","","","","","","","","","","","","",""
"","bandit","55","702093","0.0-35.0-0.0","28805773","wem/bandit_double","A1QQIZ2A5TZ5MR","both","4","5","2553","","","","","","","1","0","0","0.8","0.8","","","","","0.8","0.2","0.6","0.2","0.8","0.2","0.6","0.2","","","","","","","","72","H","0","img/none_selected.jpg","true","0","full_practice"
"","bandit","56","705335","0.0-35.0-1.0","28805773","wem/bandit_double","A1QQIZ2A5TZ5MR","both","4","5","1728","","","","","","","1","0","0","0.8","0.8","","","","","0.8","0.2","0.6","0.2","0.8","0.2","0.6","0.2","","","","","","","","72","H","0","img/none_selected.jpg","true","0","full_practice"
"","bandit","57","708465","0.0-35.0-2.0","28805773","wem/bandit_double","A1QQIZ2A5TZ5MR","both","4","5","1615","","","","","","","0","0","1","0.2","0.2","","","","","0.8","0.2","0.6","0.2","0.8","0.2","0.6","0.2","","","","","","","","74","J","1","","true","0","full_practice"
"","bandit","58","710706","0.0-35.0-3.0","28805773","wem/bandit_double","A1QQIZ2A5TZ5MR","both","4","5","726","","","","","","","0","0","1","0.2","0.2","","","","","0.8","0.2","0.6","0.2","0.8","0.2","0.6","0.2","","","","","","","","74","J","1","","true","0","full_practice"
"","bandit","59","713897","0.0-35.0-4.0","28805773","wem/bandit_double","A1QQIZ2A5TZ5MR","both","4","5","1675","","","","","","","1","0","0","0.6","0.6","","","","","0.8","0.2","0.6","0.2","0.8","0.2","0.6","0.2","","","","","","","","75","K","2","","true","0","full_practice"
"","bandit","60","716191","0.0-35.0-5.0","28805773","wem/bandit_double","A1QQIZ2A5TZ5MR","both","4","5","782","","","","","","","1","0","0","0.6","0.6","","","","","0.8","0.2","0.6","0.2","0.8","0.2","0.6","0.2","","","","","","","","75","K","2","","true","0","full_practice"
"","bandit","61","719079","0.0-35.0-6.0","28805773","wem/bandit_double","A1QQIZ2A5TZ5MR","both","4","5","1376","","","","","","","1","0","0","0.2","0.2","","","","","0.8","0.2","0.6","0.2","0.8","0.2","0.6","0.2","","","","","","","","76","L","3","","true","0","full_practice"
"","bandit","62","721298","0.0-35.0-7.0","28805773","wem/bandit_double","A1QQIZ2A5TZ5MR","both","4","5","705","","","","","","","1","0","0","0.2","0.2","","","","","0.8","0.2","0.6","0.2","0.8","0.2","0.6","0.2","","","","","","","","76","L","3","","true","0","full_practice"
"","bandit","63","724199","0.0-35.0-8.0","28805773","wem/bandit_double","A1QQIZ2A5TZ5MR","both","4","5","1387","","","","","","","1","1","0","0.8","0.8","","","","","0.8","0.2","0.6","0.2","0.8","0.2","0.6","0.2","","","","","","","","72","H","0","img/none_selected.jpg","true","0","full_practice"
"","bandit","64","726856","0.0-35.0-9.0","28805773","wem/bandit_double","A1QQIZ2A5TZ5MR","both","4","5","1143","","","","","","","0","1","0","0.8","0.8","","","","","0.8","0.2","0.6","0.2","0.8","0.2","0.6","0.2","","","","","","","","72","H","0","img/none_selected.jpg","true","0","full_practice"
"","bandit","65","729955","0.0-35.0-10.0","28805773","wem/bandit_double","A1QQIZ2A5TZ5MR","both","4","5","1590","","","","","","","0","0","1","0.6","0.6","","","","","0.8","0.2","0.6","0.2","0.8","0.2","0.6","0.2","","","","","","","","75","K","2","","true","0","full_practice"
"","bandit","66","732109","0.0-35.0-11.0","28805773","wem/bandit_double","A1QQIZ2A5TZ5MR","both","4","5","646","","","","","","","1","1","0","0.6","0.6","","","","","0.8","0.2","0.6","0.2","0.8","0.2","0.6","0.2","","","","","","","","75","K","2","","true","0","full_practice"
"","bandit","67","734656","0.0-35.0-12.0","28805773","wem/bandit_double","A1QQIZ2A5TZ5MR","both","4","5","1034","","","","","","","1","1","0","0.6","0.6","","","","","0.8","0.2","0.6","0.2","0.8","0.2","0.6","0.2","","","","","","","","75","K","2","","true","0","full_practice"
"","bandit","68","737384","0.0-35.0-13.0","28805773","wem/bandit_double","A1QQIZ2A5TZ5MR","both","4","5","1215","","","","","","","0","0","1","0.2","0.2","","","","","0.8","0.2","0.6","0.2","0.8","0.2","0.6","0.2","","","","","","","","76","L","3","","true","0","full_practice"
"","bandit","69","739424","0.0-35.0-14.0","28805773","wem/bandit_double","A1QQIZ2A5TZ5MR","both","4","5","525","","","","","","","0","0","1","0.2","0.2","","","","","0.8","0.2","0.6","0.2","0.8","0.2","0.6","0.2","","","","","","","","76","L","3","","true","0","full_practice"
"","bandit","70","741375","0.0-35.0-15.0","28805773","wem/bandit_double","A1QQIZ2A5TZ5MR","both","4","5","439","","","","","","","0","1","0","0.2","0.2","","","","","0.8","0.2","0.6","0.2","0.8","0.2","0.6","0.2","","","","","","","","76","L","3","","true","0","full_practice"
"","bandit","71","743962","0.0-35.0-16.0","28805773","wem/bandit_double","A1QQIZ2A5TZ5MR","both","4","5","1072","","","","","","","0","0","1","0.2","0.2","","","","","0.8","0.2","0.6","0.2","0.8","0.2","0.6","0.2","","","","","","","","74","J","1","","true","0","full_practice"
"","bandit","72","746657","0.0-35.0-17.0","28805773","wem/bandit_double","A1QQIZ2A5TZ5MR","both","4","5","1182","","","","","","","0","0","1","0.2","0.2","","","","","0.8","0.2","0.6","0.2","0.8","0.2","0.6","0.2","","","","","","","","74","J","1","","true","0","full_practice"
"","bandit","73","748718","0.0-35.0-18.0","28805773","wem/bandit_double","A1QQIZ2A5TZ5MR","both","4","5","551","","","","","","","0","0","1","0.2","0.2","","","","","0.8","0.2","0.6","0.2","0.8","0.2","0.6","0.2","","","","","","","","74","J","1","","true","0","full_practice"
"","bandit","74","750975","0.0-35.0-19.0","28805773","wem/bandit_double","A1QQIZ2A5TZ5MR","both","4","5","745","","","","","","","1","1","0","0.8","0.8","","","","","0.8","0.2","0.6","0.2","0.8","0.2","0.6","0.2","","","","","","","","72","H","0","img/none_selected.jpg","true","0","full_practice"
"","text","75","756181","0.0-36.0","28805773","wem/bandit_double","A1QQIZ2A5TZ5MR","both","4","5","5198","","32","","","","","","","","","","","","","","","","","","","","","","","","","","","","","","","","","","",""
"","text","76","774374","0.0-37.0","28805773","wem/bandit_double","A1QQIZ2A5TZ5MR","both","4","5","17185","","32","","","","","","","","","","","","","","","","","","","","","","","","","","","","","","","","","","",""
"","text","77","789175","0.0-38.0","28805773","wem/bandit_double","A1QQIZ2A5TZ5MR","both","4","5","14798","","32","","","","","","","","","","","","","","","","","","","","","","","","","","","","","","","","","","",""
"","text","78","800288","0.0-39.0","28805773","wem/bandit_double","A1QQIZ2A5TZ5MR","both","4","5","11111","","32","","","","","","","","","","","","","","","","","","","","","","","","","","","","","","","","","","",""
"","text","79","806869","0.0-40.0","28805773","wem/bandit_double","A1QQIZ2A5TZ5MR","both","4","5","6578","","32","","","","","","","","","","","","","","","","","","","","","","","","","","","","","","","","","","",""
"","bandit","80","811315","0.0-41.0-0.0","28805773","wem/bandit_double","A1QQIZ2A5TZ5MR","both","4","5","2931","","","","","","","1","0","0","0.3894728165","0.3340388524","","","","","0.3340388524","0.3897275569","0.1165465043","0.4265570961","0.3894728165","0.3242650943","0.3525715257","0.2771551185","","","","","","","","72","H","0","img/none_selected.jpg","","1","main_expt"
"","bandit","81","813875","0.0-42.0-0.0","28805773","wem/bandit_double","A1QQIZ2A5TZ5MR","both","4","5","1047","","","","","","","0","0","1","0.363660736","0.3223834482","","","","","0.3223834482","0.3911966266","0.08371899021","0.4177099958","0.363660736","0.3296228245","0.390153736","0.3030893157","","","","","","","","72","H","0","img/none_selected.jpg","","2","main_expt"
"","bandit","82","816198","0.0-43.0-0.0","28805773","wem/bandit_double","A1QQIZ2A5TZ5MR","both","4","5","806","","","","","","","0","0","1","0.3842171554","0.3585509001","","","","","0.3585509001","0.4074861021","0.04339790364","0.4192185534","0.3842171554","0.3102780753","0.3725447061","0.3211059343","","","","","","","","72","H","0","img/none_selected.jpg","","3","main_expt"
"","bandit","83","818042","0.0-44.0-0.0","28805773","wem/bandit_double","A1QQIZ2A5TZ5MR","both","4","5","331","","","","","","","1","0","0","0.2749892112","0.3965638453","","","","","0.3416436242","0.3965638453","0.04073472785","0.4241610434","0.3831963053","0.2749892112","0.3431524481","0.2804386453","","","","","","","","74","J","1","","","4","main_expt"
"","bandit","84","819955","0.0-45.0-0.0","28805773","wem/bandit_double","A1QQIZ2A5TZ5MR","both","4","5","399","","","","","","","1","0","0","0.3037824898","0.3688269119","","","","","0.3444758892","0.3688269119","0.04731773769","0.4284837315","0.4056596471","0.3037824898","0.3448007793","0.2609559086","","","","","","","","74","J","1","","","5","main_expt"
"","bandit","85","821991","0.0-46.0-0.0","28805773","wem/bandit_double","A1QQIZ2A5TZ5MR","both","4","5","526","","","","","","","1","0","0","0.3217417103","0.3865867917","","","","","0.3574177426","0.3865867917","0.05617088868","0.4328708062","0.4409946319","0.3217417103","0.3980888019","0.2259287768","","","","","","","","74","J","1","","","6","main_expt"
"","bandit","86","824627","0.0-47.0-0.0","28805773","wem/bandit_double","A1QQIZ2A5TZ5MR","both","4","5","1123","","","","","","","0","0","1","0.3693121862","0.05606577856","","","","","0.3634052143","0.4294719924","0.05606577856","0.4176545671","0.3821747998","0.3018715163","0.3693121862","0.2433618728","","","","","","","","75","K","2","","","7","main_expt"
"","bandit","87","826529","0.0-48.0-0.0","28805773","wem/bandit_double","A1QQIZ2A5TZ5MR","both","4","5","390","","","","","","","0","0","1","0.2933697555","0.09244853328","","","","","0.3675420607","0.4210378118","0.09244853328","0.4022395488","0.3841844813","0.3643645816","0.2933697555","0.2025356769","","","","","","","","75","K","2","","","8","main_expt"
"","bandit","88","828463","0.0-49.0-0.0","28805773","wem/bandit_double","A1QQIZ2A5TZ5MR","both","4","5","424","","","","","","","0","0","1","0.3036212831","0.1271341085","","","","","0.3921196104","0.4502112583","0.1271341085","0.3929004949","0.3412237964","0.3418610374","0.3036212831","0.1441028094","","","","","","","","75","K","2","","","9","main_expt"
"","bandit","89","830351","0.0-50.0-0.0","28805773","wem/bandit_double","A1QQIZ2A5TZ5MR","both","4","5","372","","","","","","","0","0","1","0.1736005971","0.3863711448","","","","","0.4026182126","0.4452653155","0.1370717255","0.3863711448","0.3256420777","0.3190157878","0.308020301","0.1736005971","","","","","","","","76","L","3","","","10","main_expt"
"","bandit","90","832289","0.0-51.0-0.0","28805773","wem/bandit_double","A1QQIZ2A5TZ5MR","both","4","5","426","","","","","","","0","0","1","0.1836365694","0.4205849279","","","","","0.3543069494","0.4352349267","0.1275050207","0.4205849279","0.3514007431","0.2998731478","0.3065973113","0.1836365694","","","","","","","","76","L","3","","","11","main_expt"
"","bandit","91","834162","0.0-52.0-0.0","28805773","wem/bandit_double","A1QQIZ2A5TZ5MR","both","4","5","360","","","","","","","0","0","1","0.2143869662","0.4525069231","","","","","0.3504097904","0.4029030639","0.122317004","0.4525069231","0.3722032088","0.2942822571","0.3271859636","0.2143869662","","","","","","","","76","L","3","","","12","main_expt"
"","bandit","92","836347","0.0-53.0-0.0","28805773","wem/bandit_double","A1QQIZ2A5TZ5MR","both","4","5","672","","","","","","","1","0","0","0.3009212619","0.4198147105","","","","","0.2787441393","0.4198147105","0.1251711411","0.4485799753","0.3681707299","0.3009212619","0.2761076709","0.1637139448","","","","","","","","74","J","1","","","13","main_expt"
"","bandit","93","838271","0.0-54.0-0.0","28805773","wem/bandit_double","A1QQIZ2A5TZ5MR","both","4","5","406","","","","","","","1","1","0","0.3227424667","0.3761312174","","","","","0.2723245106","0.3761312174","0.1380641988","0.4504049656","0.3528222564","0.3227424667","0.2311164494","0.1488535162","","","","","","","","74","J","1","","","14","main_expt"
"","bandit","94","840395","0.0-55.0-0.0","28805773","wem/bandit_double","A1QQIZ2A5TZ5MR","both","4","5","610","","","","","","","0","1","0","0.3547546862","0.4017507227","","","","","0.3687644442","0.4017507227","0.2010812313","0.4281165459","0.3738838661","0.3547546862","0.2905977425","0.1332411271","","","","","","","","74","J","1","","","15","main_expt"
"","bandit","95","842315","0.0-56.0-0.0","28805773","wem/bandit_double","A1QQIZ2A5TZ5MR","both","4","5","406","","","","","","","1","1","0","0.3241157583","0.3859888637","","","","","0.3992289848","0.3859888637","0.1747275657","0.4035101098","0.3385239332","0.3241157583","0.2924554969","0.09882415698","","","","","","","","74","J","1","","","16","main_expt"
"","bandit","96","844405","0.0-57.0-0.0","28805773","wem/bandit_double","A1QQIZ2A5TZ5MR","both","4","5","573","","","","","","","0","1","0","0.3363410386","0.3706978481","","","","","0.4067061876","0.3706978481","0.1816524112","0.4063691663","0.3111355138","0.3363410386","0.3114836302","0.1069157009","","","","","","","","74","J","1","","","17","main_expt"
"","bandit","97","846332","0.0-58.0-0.0","28805773","wem/bandit_double","A1QQIZ2A5TZ5MR","both","4","5","413","","","","","","","1","1","0","0.3880947854","0.3323991027","","","","","0.3969002131","0.3323991027","0.1700798448","0.4201618032","0.3487767647","0.3880947854","0.3215333475","0.134958137","","","","","","","","74","J","1","","","18","main_expt"
"","bandit","98","848290","0.0-59.0-0.0","28805773","wem/bandit_double","A1QQIZ2A5TZ5MR","both","4","5","446","","","","","","","0","0","1","0.4116912081","0.3301718366","","","","","0.3930099592","0.3301718366","0.1998500639","0.3868389751","0.3010303499","0.4116912081","0.2733398822","0.1230418706","","","","","","","","74","J","1","","","19","main_expt"
"","bandit","99","850226","0.0-60.0-0.0","28805773","wem/bandit_double","A1QQIZ2A5TZ5MR","both","4","5","423","","","","","","","0","0","1","0.3973894305","0.3714618997","","","","","0.3791602553","0.3714618997","0.2418808817","0.3868875991","0.2907203997","0.3973894305","0.2351410235","0.09866604889","","","","","","","","74","J","1","","","20","main_expt"
"","bandit","100","852178","0.0-61.0-0.0","28805773","wem/bandit_double","A1QQIZ2A5TZ5MR","both","4","5","440","","","","","","","0","0","1","0.369037109","0.3621694591","","","","","0.4127515201","0.3621694591","0.2293341009","0.4253770554","0.3088108907","0.369037109","0.2257810982","0.1021222834","","","","","","","","74","J","1","","","21","main_expt"
"","bandit","101","854348","0.0-62.0-0.0","28805773","wem/bandit_double","A1QQIZ2A5TZ5MR","both","4","5","656","","","","","","","0","1","0","0.349202701","0.4164833055","","","","","0.4164833055","0.3648829928","0.2074184163","0.4285762007","0.349202701","0.4179468344","0.2221856846","0.1234138809","","","","","","","","72","H","0","img/none_selected.jpg","","22","main_expt"
"","bandit","102","856282","0.0-63.0-0.0","28805773","wem/bandit_double","A1QQIZ2A5TZ5MR","both","4","5","421","","","","","","","0","0","1","0.3785068464","0.4143027846","","","","","0.4143027846","0.2856994719","0.1832507358","0.4082522222","0.3785068464","0.4276062926","0.2127124712","0.1030640584","","","","","","","","72","H","0","img/none_selected.jpg","","23","main_expt"
"","bandit","103","858227","0.0-64.0-0.0","28805773","wem/bandit_double","A1QQIZ2A5TZ5MR","both","4","5","431","","","","","","","1","0","0","0.4012919653","0.3649270698","","","","","0.3649270698","0.3152516524","0.1469425149","0.4027270218","0.4012919653","0.4078122208","0.1882566648","0.1261035851","","","","","","","","72","H","0","img/none_selected.jpg","","24","main_expt"
"","bandit","104","860127","0.0-65.0-0.0","28805773","wem/bandit_double","A1QQIZ2A5TZ5MR","both","4","5","383","","","","","","","0","0","1","0.400899794","0.392676409","","","","","0.392676409","0.2778145345","0.102794739","0.4100212433","0.400899794","0.3950411191","0.1273223766","0.1796705612","","","","","","","","72","H","0","img/none_selected.jpg","","25","main_expt"
"","bandit","105","862064","0.0-66.0-0.0","28805773","wem/bandit_double","A1QQIZ2A5TZ5MR","both","4","5","426","","","","","","","1","1","0","0.4126274585","0.4031565401","","","","","0.4031565401","0.3170506137","0.1173732637","0.4190791169","0.4126274585","0.4322303329","0.15747458","0.2414651519","","","","","","","","72","H","0","img/none_selected.jpg","","26","main_expt"
"","bandit","106","863997","0.0-67.0-0.0","28805773","wem/bandit_double","A1QQIZ2A5TZ5MR","both","4","5","418","","","","","","","0","0","1","0.3992263875","0.4245959001","","","","","0.4245959001","0.3223143746","0.08835016803","0.4527212376","0.3992263875","0.4353643722","0.1442684908","0.2005374927","","","","","","","","72","H","0","img/none_selected.jpg","","27","main_expt"
"","bandit","107","865735","0.0-68.0-0.0","28805773","wem/bandit_double","A1QQIZ2A5TZ5MR","both","4","5","220","","","","","","","0","1","0","0.3846584236","0.4232885055","","","","","0.4232885055","0.3234472479","0.1134440288","0.4480998813","0.3846584236","0.4464017809","0.2255404594","0.3197257227","","","","","","","","72","H","0","img/none_selected.jpg","","28","main_expt"
"","bandit","108","868165","0.0-69.0-0.0","28805773","wem/bandit_double","A1QQIZ2A5TZ5MR","both","4","5","914","","","","","","","0","1","0","0.2730951691","0.1982905849","","","","","0.4495512981","0.2881425904","0.1982905849","0.4628669208","0.3561298134","0.4417109462","0.2730951691","0.3141869899","","","","","","","","75","K","2","","","29","main_expt"
"","bandit","109","870035","0.0-70.0-0.0","28805773","wem/bandit_double","A1QQIZ2A5TZ5MR","both","4","5","356","","","","","","","1","0","0","0.2890412698","0.2366655967","","","","","0.4485299892","0.2326555855","0.2366655967","0.4565655028","0.3101363315","0.4065908859","0.2890412698","0.3445991012","","","","","","","","75","K","2","","","30","main_expt"
"","bandit","110","871921","0.0-71.0-0.0","28805773","wem/bandit_double","A1QQIZ2A5TZ5MR","both","4","5","376","","","","","","","0","0","1","0.3309226042","0.1622470467","","","","","0.4599237238","0.2364604256","0.1622470467","0.4686031056","0.3322219809","0.3954582793","0.3309226042","0.3456655029","","","","","","","","75","K","2","","","31","main_expt"
"","bandit","111","873747","0.0-72.0-0.0","28805773","wem/bandit_double","A1QQIZ2A5TZ5MR","both","4","5","312","","","","","","","1","0","0","0.3519301717","0.1771911602","","","","","0.4508116693","0.2451982598","0.1771911602","0.4659582456","0.3516269472","0.3716723047","0.3519301717","0.3826172224","","","","","","","","75","K","2","","","32","main_expt"
"","bandit","112","875741","0.0-73.0-0.0","28805773","wem/bandit_double","A1QQIZ2A5TZ5MR","both","4","5","479","","","","","","","0","0","1","0.3414953842","0.1622836308","","","","","0.45101727","0.2360369815","0.1622836308","0.4810757035","0.3852085553","0.3799724366","0.3414953842","0.3804083149","","","","","","","","75","K","2","","","33","main_expt"
"","bandit","113","877883","0.0-74.0-0.0","28805773","wem/bandit_double","A1QQIZ2A5TZ5MR","both","4","5","629","","","","","","","1","0","0","0.3808178469","0.4842727378","","","","","0.4340174653","0.2317763892","0.1655985557","0.4842727378","0.4196644934","0.409480615","0.2938412915","0.3808178469","","","","","","","","76","L","3","","","34","main_expt"
"","bandit","114","879799","0.0-75.0-0.0","28805773","wem/bandit_double","A1QQIZ2A5TZ5MR","both","4","5","399","","","","","","","1","0","0","0.376129724","0.4745470136","","","","","0.4040147441","0.2527891731","0.1492797185","0.4745470136","0.420891004","0.3869649509","0.2256616696","0.376129724","","","","","","","","76","L","3","","","35","main_expt"
"","bandit","115","881647","0.0-76.0-0.0","28805773","wem/bandit_double","A1QQIZ2A5TZ5MR","both","4","5","331","","","","","","","0","1","0","0.4027809904","0.4440965139","","","","","0.4268829696","0.2641283143","0.1504543003","0.4440965139","0.3808881167","0.3045389962","0.2525957923","0.4027809904","","","","","","","","76","L","3","","","36","main_expt"
"","bandit","116","883665","0.0-77.0-0.0","28805773","wem/bandit_double","A1QQIZ2A5TZ5MR","both","4","5","507","","","","","","","0","0","1","0.3715556026","0.4544425755","","","","","0.4562327564","0.2309310423","0.1064249526","0.4544425755","0.3634360393","0.2954217214","0.2333373749","0.3715556026","","","","","","","","76","L","3","","","37","main_expt"
"","bandit","117","885519","0.0-78.0-0.0","28805773","wem/bandit_double","A1QQIZ2A5TZ5MR","both","4","5","337","","","","","","","1","1","0","0.354842885","0.4700138218","","","","","0.4481627861","0.2093170459","0.1346530267","0.4700138218","0.3432691328","0.2749906923","0.2126884676","0.354842885","","","","","","","","76","L","3","","","38","main_expt"
"","bandit","118","887493","0.0-79.0-0.0","28805773","wem/bandit_double","A1QQIZ2A5TZ5MR","both","4","5","458","","","","","","","1","0","0","0.3066825603","0.466948448","","","","","0.4475890948","0.1398625959","0.1303494481","0.466948448","0.3113322025","0.2911873598","0.212498526","0.3066825603","","","","","","","","76","L","3","","","39","main_expt"
"","bandit","119","889377","0.0-80.0-0.0","28805773","wem/bandit_double","A1QQIZ2A5TZ5MR","both","4","5","374","","","","","","","1","0","0","0.3208648015","0.4679256248","","","","","0.4501575696","0.09690087606","0.1492074344","0.4679256248","0.3298138996","0.3066149412","0.2031275136","0.3208648015","","","","","","","","76","L","3","","","40","main_expt"
"","bandit","120","891448","0.0-81.0-0.0","28805773","wem/bandit_double","A1QQIZ2A5TZ5MR","both","4","5","561","","","","","","","0","1","0","0.2774570704","0.445537573","","","","","0.4121884666","0.1129569356","0.1370672299","0.445537573","0.3590557929","0.2612722093","0.2409224204","0.2774570704","","","","","","","","76","L","3","","","41","main_expt"
"","bandit","121","894124","0.0-82.0-0.0","28805773","wem/bandit_double","A1QQIZ2A5TZ5MR","both","4","5","1163","","","","","","","0","1","0","0.3455434044","0.4379939247","","","","","0.4379939247","0.1227033228","0.08144147181","0.4521531226","0.3455434044","0.2579482203","0.2166695961","0.3092882543","","","","","","","","72","H","0","img/none_selected.jpg","","42","main_expt"
"","bandit","122","896123","0.0-83.0-0.0","28805773","wem/bandit_double","A1QQIZ2A5TZ5MR","both","4","5","485","","","","","","","1","1","0","0.4020043176","0.4271747655","","","","","0.4271747655","0.08393287497","0.06793865388","0.4695072217","0.4020043176","0.2232302517","0.2314197793","0.3161251671","","","","","","","","72","H","0","img/none_selected.jpg","","43","main_expt"
"","bandit","123","898124","0.0-84.0-0.0","28805773","wem/bandit_double","A1QQIZ2A5TZ5MR","both","4","5","486","","","","","","","1","0","0","0.4088695108","0.4480494518","","","","","0.4480494518","0.06260074275","0.05295344446","0.4807409838","0.4088695108","0.2435669349","0.1889371852","0.3032549762","","","","","","","","72","H","0","img/none_selected.jpg","","44","main_expt"
"","bandit","124","900007","0.0-85.0-0.0","28805773","wem/bandit_double","A1QQIZ2A5TZ5MR","both","4","5","366","","","","","","","0","1","0","0.3914045207","0.4269729589","","","","","0.4269729589","0.08062123592","0.02744239742","0.4507048108","0.3914045207","0.1885724617","0.2152104473","0.3012359134","","","","","","","","72","H","0","img/none_selected.jpg","","45","main_expt"
"","bandit","125","902020","0.0-86.0-0.0","28805773","wem/bandit_double","A1QQIZ2A5TZ5MR","both","4","5","499","","","","","","","0","0","1","0.3682142312","0.4475746277","","","","","0.4475746277","0.1110847749","0.02347437243","0.4382321206","0.3682142312","0.104230756","0.2260726972","0.2994346937","","","","","","","","72","H","0","img/none_selected.jpg","","46","main_expt"
"","bandit","126","903939","0.0-87.0-0.0","28805773","wem/bandit_double","A1QQIZ2A5TZ5MR","both","4","5","406","","","","","","","1","1","0","0.3462276735","0.4295618238","","","","","0.4295618238","0.05346849493","0.02418160198","0.4393937913","0.3462276735","0.09013225529","0.2330399618","0.3169549043","","","","","","","","72","H","0","img/none_selected.jpg","","47","main_expt"
"","bandit","127","905872","0.0-88.0-0.0","28805773","wem/bandit_double","A1QQIZ2A5TZ5MR","both","4","5","417","","","","","","","1","0","0","0.3501405617","0.4431907244","","","","","0.4431907244","0.04499733497","0.01182676654","0.440318131","0.3501405617","0.1066227192","0.2769685944","0.3137179834","","","","","","","","72","H","0","img/none_selected.jpg","","48","main_expt"
"","bandit","128","907722","0.0-89.0-0.0","28805773","wem/bandit_double","A1QQIZ2A5TZ5MR","both","4","5","337","","","","","","","0","1","0","0.3607669766","0.4187732916","","","","","0.4187732916","0.07378534534","0.0186287842","0.4362102412","0.3607669766","0.1273062614","0.2954986192","0.3026837323","","","","","","","","72","H","0","img/none_selected.jpg","","49","main_expt"
"","bandit","129","909724","0.0-90.0-0.0","28805773","wem/bandit_double","A1QQIZ2A5TZ5MR","both","4","5","489","","","","","","","0","0","1","0.2730110453","0.02550629551","","","","","0.356579213","0.06168845619","0.02550629551","0.44488671","0.3776327681","0.08158159543","0.2730110453","0.2690248343","","","","","","","","75","K","2","","","50","main_expt"
"","bandit","130","912877","0.0-91.0-0.0","28805773","wem/bandit_double","A1QQIZ2A5TZ5MR","both","4","5","1637","","","","","","","0","0","1","0.2672659715","0.04366809707","","","","","0.2629404955","0.1062028567","0.04366809707","0.4633405548","0.3922012959","0.08035098666","0.2672659715","0.2407215714","","","","","","","","75","K","2","","","51","main_expt"
"","bandit","131","914862","0.0-92.0-0.0","28805773","wem/bandit_double","A1QQIZ2A5TZ5MR","both","4","5","470","","","","","","","0","0","1","0.1007468434","0.1379608546","","","","","0.2919747068","0.1379608546","0.04357168116","0.4528043762","0.3532085343","0.1007468434","0.2552972095","0.2758158767","","","","","","","","74","J","1","","","52","main_expt"
"","bandit","132","916726","0.0-93.0-0.0","28805773","wem/bandit_double","A1QQIZ2A5TZ5MR","both","4","5","346","","","","","","","0","0","1","0.1479770317","0.1356826849","","","","","0.3809901122","0.1356826849","0.03899227154","0.4390431751","0.3597378762","0.1479770317","0.1954439593","0.2661511239","","","","","","","","74","J","1","","","53","main_expt"
"","bandit","133","918543","0.0-94.0-0.0","28805773","wem/bandit_double","A1QQIZ2A5TZ5MR","both","4","5","301","","","","","","","0","0","1","0.1250298759","0.04009146386","","","","","0.3452518694","0.1038772241","0.04009146386","0.4549270822","0.3553644404","0.1450389045","0.1250298759","0.250303373","","","","","","","","75","K","2","","","54","main_expt"
"","bandit","134","920443","0.0-95.0-0.0","28805773","wem/bandit_double","A1QQIZ2A5TZ5MR","both","4","5","387","","","","","","","0","0","1","0.1850572083","0.4710341864","","","","","0.3263112327","0.1689791829","0.0155768565","0.4710341864","0.3427354451","0.1678096349","0.1224949652","0.1850572083","","","","","","","","76","L","3","","","55","main_expt"
"","bandit","135","922623","0.0-96.0-0.0","28805773","wem/bandit_double","A1QQIZ2A5TZ5MR","both","4","5","664","","","","","","","0","0","1","0.3158877586","0.3308963945","","","","","0.3308963945","0.1108888145","0.02112461672","0.4745834276","0.3158877586","0.1748395718","0.1312048923","0.2410157884","","","","","","","","72","H","0","img/none_selected.jpg","","56","main_expt"
"","bandit","136","924452","0.0-97.0-0.0","28805773","wem/bandit_double","A1QQIZ2A5TZ5MR","both","4","5","314","","","","","","","1","0","0","0.3224611445","0.3150326571","","","","","0.3150326571","0.1206542402","0.0126553198","0.489318572","0.3224611445","0.146986137","0.14452077","0.2657224069","","","","","","","","72","H","0","img/none_selected.jpg","","57","main_expt"
"","bandit","137","926333","0.0-98.0-0.0","28805773","wem/bandit_double","A1QQIZ2A5TZ5MR","both","4","5","366","","","","","","","1","0","0","0.3378672788","0.3049116772","","","","","0.3049116772","0.09707343937","0.01131359515","0.480037986","0.3378672788","0.1316135006","0.1198415177","0.2361308133","","","","","","","","72","H","0","img/none_selected.jpg","","58","main_expt"
"","bandit","138","928377","0.0-99.0-0.0","28805773","wem/bandit_double","A1QQIZ2A5TZ5MR","both","4","5","527","","","","","","","1","1","0","0.3438075972","0.3050987947","","","","","0.3050987947","0.1044384952","0.01030075821","0.4593461039","0.3438075972","0.1776120447","0.1674914914","0.2078360154","","","","","","","","72","H","0","img/none_selected.jpg","","59","main_expt"
"","bandit","139","930204","0.0-100.0-0.0","28805773","wem/bandit_double","A1QQIZ2A5TZ5MR","both","4","5","314","","","","","","","0","1","0","0.2950987239","0.3274009355","","","","","0.3274009355","0.08890369623","0.005868957973","0.446051488","0.2950987239","0.2034864675","0.147959707","0.2256957235","","","","","","","","72","H","0","img/none_selected.jpg","","60","main_expt"
"","bandit","140","932065","0.0-101.0-0.0","28805773","wem/bandit_double","A1QQIZ2A5TZ5MR","both","4","5","341","","","","","","","0","1","0","0.2939622289","0.3428943983","","","","","0.3428943983","0.08921221942","0.004361943215","0.4391285327","0.2939622289","0.1325668513","0.1217284172","0.2713547376","","","","","","","","72","H","0","img/none_selected.jpg","","61","main_expt"
"","bandit","141","933950","0.0-102.0-0.0","28805773","wem/bandit_double","A1QQIZ2A5TZ5MR","both","4","5","368","","","","","","","1","1","0","0.2907096119","0.3549763931","","","","","0.3549763931","0.09812025034","0.005208412743","0.4063883723","0.2907096119","0.125492747","0.1392905859","0.2800078023","","","","","","","","72","H","0","img/none_selected.jpg","","62","main_expt"
"","bandit","142","935745","0.0-103.0-0.0","28805773","wem/bandit_double","A1QQIZ2A5TZ5MR","both","4","5","276","","","","","","","0","0","1","0.2696382907","0.3496678451","","","","","0.3496678451","0.09006279409","0.006461011255","0.4330387396","0.2696382907","0.1081989139","0.1953314019","0.362183352","","","","","","","","72","H","0","img/none_selected.jpg","","63","main_expt"
"","bandit","143","937560","0.0-104.0-0.0","28805773","wem/bandit_double","A1QQIZ2A5TZ5MR","both","4","5","297","","","","","","","0","0","1","0.2496415039","0.3188537263","","","","","0.3188537263","0.1118976224","0.01267926231","0.4207902426","0.2496415039","0.09104284411","0.2618523415","0.3354395381","","","","","","","","72","H","0","img/none_selected.jpg","","64","main_expt"
"","bandit","144","940732","0.0-105.0-0.0","28805773","wem/bandit_double","A1QQIZ2A5TZ5MR","both","4","5","1657","","","","","","","0","0","1","0.1264903162","0.1053817613","","","","","0.3191795336","0.1053817613","0.009732787917","0.3719582347","0.2364994079","0.1264903162","0.2686672798","0.2893845237","","","","","","","","74","J","1","","","65","main_expt"
"","bandit","145","942553","0.0-106.0-0.0","28805773","wem/bandit_double","A1QQIZ2A5TZ5MR","both","4","5","303","","","","","","","0","0","1","0.1665937301","0.1307356695","","","","","0.268616347","0.1307356695","0.01092542651","0.3748569955","0.2541683514","0.1665937301","0.2451656397","0.2355717356","","","","","","","","74","J","1","","","66","main_expt"
"","bandit","146","944480","0.0-107.0-0.0","28805773","wem/bandit_double","A1QQIZ2A5TZ5MR","both","4","5","410","","","","","","","0","0","1","0.2445320338","0.02125534741","","","","","0.259194563","0.1418436428","0.02125534741","0.335252031","0.2985471382","0.1740025863","0.2445320338","0.2848755716","","","","","","","","75","K","2","","","67","main_expt"
"","bandit","147","946134","0.0-108.0-0.0","28805773","wem/bandit_double","A1QQIZ2A5TZ5MR","both","4","5","139","","","","","","","1","0","0","0.2261158315","0.02360283027","","","","","0.2281204868","0.1459089566","0.02360283027","0.3199157278","0.3391290389","0.2300011382","0.2261158315","0.3341158043","","","","","","","","75","K","2","","","68","main_expt"
"","bandit","148","947915","0.0-109.0-0.0","28805773","wem/bandit_double","A1QQIZ2A5TZ5MR","both","4","5","269","","","","","","","0","0","1","0.1627286519","0.02539305756","","","","","0.2195844169","0.1809721424","0.02539305756","0.3068525281","0.3114764975","0.1768594062","0.1627286519","0.3253412689","","","","","","","","75","K","2","","","69","main_expt"
"","bandit","149","949685","0.0-110.0-0.0","28805773","wem/bandit_double","A1QQIZ2A5TZ5MR","both","4","5","257","","","","","","","1","0","0","0.3280915152","0.3181076016","","","","","0.1883338509","0.1784068974","0.05014388586","0.3181076016","0.3056328376","0.1906145184","0.1301009224","0.3280915152","","","","","","","","76","L","3","","","70","main_expt"
"","bandit","150","951518","0.0-111.0-0.0","28805773","wem/bandit_double","A1QQIZ2A5TZ5MR","both","4","5","318","","","","","","","1","1","0","0.3772643828","0.2926426422","","","","","0.1639708178","0.1973023396","0.04209054697","0.2926426422","0.3445325487","0.1451664327","0.1356707761","0.3772643828","","","","","","","","76","L","3","","","71","main_expt"
"","bandit","151","953319","0.0-112.0-0.0","28805773","wem/bandit_double","A1QQIZ2A5TZ5MR","both","4","5","285","","","","","","","0","0","1","0.4074174212","0.2380263643","","","","","0.1312842785","0.2436342847","0.05611199342","0.2380263643","0.364612409","0.1091447996","0.1045412551","0.4074174212","","","","","","","","76","L","3","","","72","main_expt"
"","bandit","152","955002","0.0-113.0-0.0","28805773","wem/bandit_double","A1QQIZ2A5TZ5MR","both","4","5","172","","","","","","","0","0","1","0.3736299767","0.2407197948","","","","","0.1805041857","0.1992173182","0.05293238473","0.2407197948","0.4454774056","0.1248737042","0.0867882282","0.3736299767","","","","","","","","76","L","3","","","73","main_expt"
"","bandit","153","957228","0.0-114.0-0.0","28805773","wem/bandit_double","A1QQIZ2A5TZ5MR","both","4","5","713","","","","","","","1","0","0","0.1073746888","0.2347098304","","","","","0.1739557812","0.2347098304","0.0318456884","0.2317468449","0.4492830973","0.1073746888","0.1018359722","0.383211712","","","","","","","","74","J","1","","","74","main_expt"
"","bandit","154","959063","0.0-115.0-0.0","28805773","wem/bandit_double","A1QQIZ2A5TZ5MR","both","4","5","318","","","","","","","0","1","0","0.1051395745","0.2641442137","","","","","0.2434916027","0.2641442137","0.03873230677","0.2545997551","0.449321966","0.1051395745","0.09443707336","0.3681962321","","","","","","","","74","J","1","","","75","main_expt"
"","bandit","155","960921","0.0-116.0-0.0","28805773","wem/bandit_double","A1QQIZ2A5TZ5MR","both","4","5","340","","","","","","","0","0","1","0.09171451076","0.3192644053","","","","","0.2438468568","0.3192644053","0.03304947682","0.2890845388","0.4299726132","0.09171451076","0.08768691443","0.3574328021","","","","","","","","74","J","1","","","76","main_expt"
"","bandit","156","962644","0.0-117.0-0.0","28805773","wem/bandit_double","A1QQIZ2A5TZ5MR","both","4","5","210","","","","","","","0","0","1","0.1256070833","0.3351132613","","","","","0.2425324642","0.3351132613","0.02607887458","0.2386362654","0.4349340462","0.1256070833","0.07744448812","0.4041720962","","","","","","","","74","J","1","","","77","main_expt"
"","bandit","157","964526","0.0-118.0-0.0","28805773","wem/bandit_double","A1QQIZ2A5TZ5MR","both","4","5","368","","","","","","","0","1","0","0.4112950215","0.205588479","","","","","0.205588479","0.3086784207","0.02492981692","0.2673679704","0.4112950215","0.1398604905","0.05712631425","0.4000946746","","","","","","","","72","H","0","img/none_selected.jpg","","78","main_expt"
"","bandit","158","966377","0.0-119.0-0.0","28805773","wem/bandit_double","A1QQIZ2A5TZ5MR","both","4","5","332","","","","","","","0","0","1","0.4123046053","0.213062191","","","","","0.213062191","0.3076482073","0.01824110002","0.2813811921","0.4123046053","0.1303191282","0.03981704588","0.425248604","","","","","","","","72","H","0","img/none_selected.jpg","","79","main_expt"
"","bandit","159","967997","0.0-120.0-0.0","28805773","wem/bandit_double","A1QQIZ2A5TZ5MR","both","4","5","105","","","","","","","1","0","0","0.4345430878","0.1852926048","","","","","0.1852926048","0.3605025214","0.0202176162","0.2419447949","0.4345430878","0.1491340647","0.02961196177","0.4263383456","","","","","","","","72","H","0","img/none_selected.jpg","","80","main_expt"
"","bandit","160","969872","0.0-121.0-0.0","28805773","wem/bandit_double","A1QQIZ2A5TZ5MR","both","4","5","358","","","","","","","0","0","1","0.4255274095","0.2332942271","","","","","0.2332942271","0.3286166321","0.0252752587","0.323481111","0.4255274095","0.1484119081","0.0408206899","0.4377411966","","","","","","","","72","H","0","img/none_selected.jpg","","81","main_expt"
"","bandit","161","972351","0.0-122.0-0.0","28805773","wem/bandit_double","A1QQIZ2A5TZ5MR","both","4","5","962","","","","","","","1","0","0","0.4266934287","0.2087797338","","","","","0.2087797338","0.3459677762","0.05668457717","0.3097244961","0.4266934287","0.135460029","0.03491361241","0.4263216968","","","","","","","","72","H","0","img/none_selected.jpg","","82","main_expt"
"","bandit","162","974237","0.0-123.0-0.0","28805773","wem/bandit_double","A1QQIZ2A5TZ5MR","both","4","5","373","","","","","","","0","0","1","0.4321646522","0.2049979043","","","","","0.2049979043","0.3092751195","0.07760530004","0.2787498647","0.4321646522","0.09497461961","0.01881925386","0.4536492548","","","","","","","","72","H","0","img/none_selected.jpg","","83","main_expt"
"","bandit","163","975816","0.0-124.0-0.0","28805773","wem/bandit_double","A1QQIZ2A5TZ5MR","both","4","5","60","","","","","","","1","0","0","0.43129245","0.2151780091","","","","","0.2151780091","0.3044630387","0.03696005566","0.2589524449","0.43129245","0.0956585677","0.03441768066","0.4344769981","","","","","","","","72","H","0","img/none_selected.jpg","","84","main_expt"
"","bandit","164","978736","0.0-125.0-0.0","28805773","wem/bandit_double","A1QQIZ2A5TZ5MR","both","4","5","1404","","","","","","","0","0","1","0.4307495417","0.1497615914","","","","","0.1497615914","0.2812480587","0.04177257934","0.2769318636","0.4307495417","0.08427930603","0.04015732792","0.4167097255","","","","","","","","72","H","0","img/none_selected.jpg","","85","main_expt"
"","bandit","165","981697","0.0-126.0-0.0","28805773","wem/bandit_double","A1QQIZ2A5TZ5MR","both","4","5","1444","","","","","","","0","1","0","0.0462821445","0.0385770192","","","","","0.1223687677","0.2506532223","0.0385770192","0.2849222391","0.4327415212","0.09540141202","0.0462821445","0.4215971904","","","","","","","","75","K","2","","","86","main_expt"
"","bandit","166","983682","0.0-127.0-0.0","28805773","wem/bandit_double","A1QQIZ2A5TZ5MR","both","4","5","474","","","","","","","0","0","1","0.07236867375","0.03720252147","","","","","0.1472857413","0.2269900387","0.03720252147","0.3131087309","0.4507305815","0.06504543429","0.07236867375","0.3962725568","","","","","","","","75","K","2","","","87","main_expt"
"","bandit","167","985674","0.0-128.0-0.0","28805773","wem/bandit_double","A1QQIZ2A5TZ5MR","both","4","5","473","","","","","","","1","0","0","0.1132918069","0.06746059371","","","","","0.1252586248","0.1504729919","0.06746059371","0.3038587512","0.4571393315","0.05894337134","0.1132918069","0.4038430626","","","","","","","","75","K","2","","","88","main_expt"
"","bandit","168","987955","0.0-129.0-0.0","28805773","wem/bandit_double","A1QQIZ2A5TZ5MR","both","4","5","758","","","","","","","0","1","0","0.4247877058","0.3308022157","","","","","0.1194927994","0.1382070302","0.04069757945","0.3308022157","0.4639779763","0.06803635399","0.1466354559","0.4247877058","","","","","","","","76","L","3","","","89","main_expt"
"","bandit","169","989806","0.0-130.0-0.0","28805773","wem/bandit_double","A1QQIZ2A5TZ5MR","both","4","5","337","","","","","","","0","0","1","0.4196700557","0.3574922351","","","","","0.1589750007","0.1364765349","0.07325379503","0.3574922351","0.4620017245","0.09657856289","0.1746819083","0.4196700557","","","","","","","","76","L","3","","","90","main_expt"
"","bandit","170","991815","0.0-131.0-0.0","28805773","wem/bandit_double","A1QQIZ2A5TZ5MR","both","4","5","495","","","","","","","1","0","0","0.1864657318","0.06877471811","","","","","0.1859960426","0.09318196272","0.06877471811","0.3729517688","0.4492963398","0.08522031428","0.1864657318","0.401758082","","","","","","","","75","K","2","","","91","main_expt"
"","bandit","171","993703","0.0-132.0-0.0","28805773","wem/bandit_double","A1QQIZ2A5TZ5MR","both","4","5","371","","","","","","","1","0","0","0.2124622091","0.04115987362","","","","","0.192419488","0.06946097624","0.04115987362","0.398352994","0.462009279","0.07078380504","0.2124622091","0.3422099147","","","","","","","","75","K","2","","","92","main_expt"
"","bandit","172","995507","0.0-133.0-0.0","28805773","wem/bandit_double","A1QQIZ2A5TZ5MR","both","4","5","292","","","","","","","0","0","1","0.245786276","0.07078892783","","","","","0.1716033463","0.08102832817","0.07078892783","0.4135860398","0.4363090379","0.0564278809","0.245786276","0.3279059742","","","","","","","","75","K","2","","","93","main_expt"
"","bandit","173","997063","0.0-134.0-0.0","28805773","wem/bandit_double","A1QQIZ2A5TZ5MR","both","4","5","39","","","","","","","1","1","0","0.3155724737","0.3786880174","","","","","0.1935897604","0.1271360848","0.05572868433","0.3786880174","0.4457519602","0.06067733924","0.2316759231","0.3155724737","","","","","","","","76","L","3","","","94","main_expt"
"","bandit","174","998892","0.0-135.0-0.0","28805773","wem/bandit_double","A1QQIZ2A5TZ5MR","both","4","5","315","","","","","","","0","0","1","0.3519625041","0.3823424718","","","","","0.2193228015","0.1097592989","0.05056929995","0.3823424718","0.4231248902","0.08632751489","0.2231756969","0.3519625041","","","","","","","","76","L","3","","","95","main_expt"
"","bandit","175","1002241","0.0-136.0-0.0","28805773","wem/bandit_double","A1QQIZ2A5TZ5MR","both","4","5","1834","","","","","","","0","0","1","0.08481729553","0.1085490834","","","","","0.3262643469","0.1085490834","0.04159874267","0.3642725552","0.4210676831","0.08481729553","0.1957128212","0.3661455107","","","","","","","","74","J","1","","","96","main_expt"
"","bandit","176","1004079","0.0-137.0-0.0","28805773","wem/bandit_double","A1QQIZ2A5TZ5MR","both","4","5","321","","","","","","","0","0","1","0.08386440452","0.1049812554","","","","","0.3207405496","0.1049812554","0.03654451862","0.3197717944","0.4022895305","0.08386440452","0.1638116915","0.3558031673","","","","","","","","74","J","1","","","97","main_expt"
"","bandit","177","1006522","0.0-138.0-0.0","28805773","wem/bandit_double","A1QQIZ2A5TZ5MR","both","4","5","923","","","","","","","0","0","1","0.4187351015","0.3712856991","","","","","0.3712856991","0.08177978443","0.04190300095","0.2514424369","0.4187351015","0.0940701929","0.1405816365","0.3558230887","","","","","","","","72","H","0","img/none_selected.jpg","","98","main_expt"
"","bandit","178","1008134","0.0-139.0-0.0","28805773","wem/bandit_double","A1QQIZ2A5TZ5MR","both","4","5","98","","","","","","","1","0","0","0.3981340028","0.3740145378","","","","","0.3740145378","0.07574087804","0.08742990617","0.2926772137","0.3981340028","0.1285058524","0.1435678602","0.3064708089","","","","","","","","72","H","0","img/none_selected.jpg","","99","main_expt"
"","bandit","179","1010090","0.0-140.0-0.0","28805773","wem/bandit_double","A1QQIZ2A5TZ5MR","both","4","5","437","","","","","","","0","0","1","0.3520446815","0.3776295542","","","","","0.3776295542","0.07829319678","0.08966523481","0.234485335","0.3520446815","0.065882019","0.1478754355","0.352498313","","","","","","","","72","H","0","img/none_selected.jpg","","100","main_expt"
"","bandit","180","1012308","0.0-141.0-0.0","28805773","wem/bandit_double","A1QQIZ2A5TZ5MR","both","4","5","698","","","","","","","0","0","1","0.1532559328","0.07849065771","","","","","0.3592666398","0.07919243683","0.07849065771","0.250352175","0.3715523215","0.05692140794","0.1532559328","0.3511810171","","","","","","","","75","K","2","","","101","main_expt"
"","bandit","181","1015007","0.0-142.0-0.0","28805773","wem/bandit_double","A1QQIZ2A5TZ5MR","both","4","5","1185","","","","","","","0","0","1","0.15857411","0.1054267613","","","","","0.3412191773","0.1052753188","0.1054267613","0.2139972863","0.3966955113","0.04322280369","0.15857411","0.3246867477","","","","","","","","75","K","2","","","102","main_expt"
"","bandit","182","1016934","0.0-143.0-0.0","28805773","wem/bandit_double","A1QQIZ2A5TZ5MR","both","4","5","413","","","","","","","1","0","0","0.2827689756","0.20092706","","","","","0.3133100433","0.1248526142","0.1120981937","0.20092706","0.3865714765","0.05121437093","0.1552377357","0.2827689756","","","","","","","","76","L","3","","","103","main_expt"
"","bandit","183","1019088","0.0-144.0-0.0","28805773","wem/bandit_double","A1QQIZ2A5TZ5MR","both","4","5","638","","","","","","","0","0","1","0.3307995119","0.2305366804","","","","","0.3219148419","0.142969925","0.1034740879","0.2305366804","0.3440646931","0.06548077564","0.1584193753","0.3307995119","","","","","","","","76","L","3","","","104","main_expt"
"","bandit","184","1021221","0.0-145.0-0.0","28805773","wem/bandit_double","A1QQIZ2A5TZ5MR","both","4","5","620","","","","","","","0","0","1","0.3078297571","0.2102135581","","","","","0.3300892518","0.13947254","0.07597240327","0.2102135581","0.330981063","0.07577357845","0.192058402","0.3078297571","","","","","","","","76","L","3","","","105","main_expt"
"","bandit","185","1023697","0.0-146.0-0.0","28805773","wem/bandit_double","A1QQIZ2A5TZ5MR","both","4","5","959","","","","","","","0","0","1","0.09041352565","0.1329526997","","","","","0.3401839058","0.1329526997","0.1124257427","0.2219457329","0.3317280627","0.09041352565","0.1562344916","0.3202685942","","","","","","","","74","J","1","","","106","main_expt"
"","bandit","186","1025638","0.0-147.0-0.0","28805773","wem/bandit_double","A1QQIZ2A5TZ5MR","both","4","5","427","","","","","","","0","0","1","0.1184921167","0.1727290233","","","","","0.3784706915","0.1727290233","0.1133168519","0.3048423019","0.2760665195","0.1184921167","0.1493116313","0.3163418234","","","","","","","","74","J","1","","","107","main_expt"
"","bandit","187","1027356","0.0-148.0-0.0","28805773","wem/bandit_double","A1QQIZ2A5TZ5MR","both","4","5","206","","","","","","","0","0","1","0.1057615429","0.1864487031","","","","","0.3945753887","0.1864487031","0.1752395656","0.258150515","0.2826301941","0.1057615429","0.1357435498","0.3425943818","","","","","","","","74","J","1","","","108","main_expt"
"","bandit","188","1029066","0.0-149.0-0.0","28805773","wem/bandit_double","A1QQIZ2A5TZ5MR","both","4","5","191","","","","","","","0","1","0","0.318117281","0.356827327","","","","","0.356827327","0.2463216238","0.1862973424","0.1859129148","0.318117281","0.1464484126","0.1164074326","0.2852030557","","","","","","","","72","H","0","img/none_selected.jpg","","109","main_expt"
"","bandit","189","1030698","0.0-150.0-0.0","28805773","wem/bandit_double","A1QQIZ2A5TZ5MR","both","4","5","113","","","","","","","1","0","0","0.3358587519","0.2344179837","","","","","0.2344179837","0.2431522628","0.2015845776","0.1371624404","0.3358587519","0.1641354829","0.1444451916","0.3392406975","","","","","","","","72","H","0","img/none_selected.jpg","","110","main_expt"
"","bandit","190","1032642","0.0-151.0-0.0","28805773","wem/bandit_double","A1QQIZ2A5TZ5MR","both","4","5","428","","","","","","","1","0","0","0.3031660534","0.2644823096","","","","","0.2644823096","0.1757476643","0.2003651753","0.1258232978","0.3031660534","0.1386891192","0.09905323685","0.3023411017","","","","","","","","72","H","0","img/none_selected.jpg","","111","main_expt"
"","bandit","191","1034373","0.0-152.0-0.0","28805773","wem/bandit_double","A1QQIZ2A5TZ5MR","both","4","5","217","","","","","","","0","0","1","0.2773548355","0.28311182","","","","","0.28311182","0.2451518953","0.21392293","0.1529967373","0.2773548355","0.1847512065","0.09652445584","0.296849772","","","","","","","","72","H","0","img/none_selected.jpg","","112","main_expt"
"","bandit","192","1036574","0.0-153.0-0.0","28805773","wem/bandit_double","A1QQIZ2A5TZ5MR","both","4","5","686","","","","","","","0","0","1","0.2370758425","0.2413269532","","","","","0.2413269532","0.2407836715","0.1606798039","0.148248117","0.2370758425","0.1304555333","0.09961189632","0.2673419259","","","","","","","","72","H","0","img/none_selected.jpg","","113","main_expt"
"","bandit","193","1038489","0.0-154.0-0.0","28805773","wem/bandit_double","A1QQIZ2A5TZ5MR","both","4","5","398","","","","","","","1","0","0","0.1821928837","0.3100969134","","","","","0.3100969134","0.3099317417","0.2095980235","0.1562208239","0.1821928837","0.1770102637","0.1036139638","0.2670531803","","","","","","","","72","H","0","img/none_selected.jpg","","114","main_expt"
"","bandit","194","1040345","0.0-155.0-0.0","28805773","wem/bandit_double","A1QQIZ2A5TZ5MR","both","4","5","338","","","","","","","0","1","0","0.1315453283","0.329842252","","","","","0.329842252","0.3180754701","0.2550279667","0.2138032898","0.1315453283","0.1564651975","0.0968506792","0.2825009356","","","","","","","","72","H","0","img/none_selected.jpg","","115","main_expt"
"","bandit","195","1043688","0.0-156.0-0.0","28805773","wem/bandit_double","A1QQIZ2A5TZ5MR","both","4","5","1829","","","","","","","0","0","1","0.1102777544","0.3223706096","","","","","0.3223706096","0.2919742107","0.2471764387","0.2331260325","0.1102777544","0.1665702367","0.08782875681","0.3237719372","","","","","","","","72","H","0","img/none_selected.jpg","","116","main_expt"
"","bandit","196","1046337","0.0-157.0-0.0","28805773","wem/bandit_double","A1QQIZ2A5TZ5MR","both","4","5","1132","","","","","","","0","0","1","0.1101610351","0.3098408215","","","","","0.3098408215","0.2799774295","0.2730878341","0.1826309729","0.1101610351","0.1530687496","0.06031800864","0.3154846423","","","","","","","","72","H","0","img/none_selected.jpg","","117","main_expt"
"","bandit","197","1049107","0.0-158.0-0.0","28805773","wem/bandit_double","A1QQIZ2A5TZ5MR","both","4","5","1250","","","","","","","0","1","0","0.05633053331","0.2071462199","","","","","0.2974554567","0.2646714695","0.2071462199","0.1511269107","0.122460482","0.1674206906","0.05633053331","0.2584508078","","","","","","","","75","K","2","","","118","main_expt"
"","bandit","198","1050758","0.0-159.0-0.0","28805773","wem/bandit_double","A1QQIZ2A5TZ5MR","both","4","5","138","","","","","","","0","0","1","0.07530514027","0.2275232499","","","","","0.3598468986","0.3179839519","0.2275232499","0.1559979654","0.1451868924","0.1990215448","0.07530514027","0.2141905193","","","","","","","","75","K","2","","","119","main_expt"
"","bandit","199","1052352","0.0-160.0-0.0","28805773","wem/bandit_double","A1QQIZ2A5TZ5MR","both","4","5","80","","","","","","","0","0","1","0.09639595661","0.2767559596","","","","","0.2984373086","0.3302262658","0.2767559596","0.1463004055","0.09092593383","0.2208640619","0.09639595661","0.2341954374","","","","","","","","75","K","2","","","120","main_expt"
"","bandit","200","1054598","0.0-161.0-0.0","28805773","wem/bandit_double","A1QQIZ2A5TZ5MR","both","4","5","732","","","","","","","0","0","1","0.1421799471","0.3448590315","","","","","0.2973090059","0.3500549905","0.3448590315","0.1418195479","0.1080456108","0.2602917539","0.1421799471","0.1886372651","","","","","","","","75","K","2","","","121","main_expt"
"","bandit","201","1056721","0.0-162.0-0.0","28805773","wem/bandit_double","A1QQIZ2A5TZ5MR","both","4","5","605","","","","","","","0","1","0","0.1624760489","0.3593301016","","","","","0.3382791822","0.2686616284","0.3593301016","0.1270782113","0.1169053248","0.2512498235","0.1624760489","0.1597592322","","","","","","","","75","K","2","","","122","main_expt"
"","bandit","202","1059332","0.0-163.0-0.0","28805773","wem/bandit_double","A1QQIZ2A5TZ5MR","both","4","5","1099","","","","","","","0","1","0","0.1640214383","0.3680529171","","","","","0.3154347028","0.2277230314","0.3680529171","0.1207154071","0.1571594809","0.2266242761","0.1640214383","0.1895266442","","","","","","","","75","K","2","","","123","main_expt"
"","bandit","203","1062128","0.0-164.0-0.0","28805773","wem/bandit_double","A1QQIZ2A5TZ5MR","both","4","5","1279","","","","","","","0","0","1","0.2014340991","0.3476523483","","","","","0.2966737815","0.3287090939","0.3476523483","0.1229329119","0.2231804049","0.2373824638","0.2014340991","0.2042850732","","","","","","","","75","K","2","","","124","main_expt"
"","bandit","204","1064432","0.0-165.0-0.0","28805773","wem/bandit_double","A1QQIZ2A5TZ5MR","both","4","5","790","","","","","","","0","0","1","0.2229229076","0.3564603465","","","","","0.3094831126","0.3687339586","0.3564603465","0.09241122996","0.2232794356","0.2538727107","0.2229229076","0.1812515389","","","","","","","","75","K","2","","","125","main_expt"
"","bandit","205","1066702","0.0-166.0-0.0","28805773","wem/bandit_double","A1QQIZ2A5TZ5MR","both","4","5","754","","","","","","","0","0","1","0.2324712723","0.3550684458","","","","","0.2488993205","0.3836195774","0.3550684458","0.08418962236","0.2316903634","0.290219491","0.2324712723","0.1694736183","","","","","","","","75","K","2","","","126","main_expt"
"","bandit","206","1070457","0.0-167.0-0.0","28805773","wem/bandit_double","A1QQIZ2A5TZ5MR","both","4","5","2237","","","","","","","0","0","1","0.1624528765","0.154715772","","","","","0.1953487027","0.3617365958","0.3235559827","0.154715772","0.2337524142","0.2542505169","0.2628391623","0.1624528765","","","","","","","","76","L","3","","","127","main_expt"
"","bandit","207","1072496","0.0-168.0-0.0","28805773","wem/bandit_double","A1QQIZ2A5TZ5MR","both","4","5","523","","","","","","","0","0","1","0.1632982916","0.1556709078","","","","","0.2171889907","0.3235283493","0.312087491","0.1556709078","0.2198210178","0.2582316027","0.2654356302","0.1632982916","","","","","","","","76","L","3","","","128","main_expt"
"","bandit","208","1074661","0.0-169.0-0.0","28805773","wem/bandit_double","A1QQIZ2A5TZ5MR","both","4","5","647","","","","","","","0","0","1","0.2264598068","0.1214200615","","","","","0.2467699801","0.3453830546","0.2843272188","0.1214200615","0.2280168395","0.3267566011","0.2070569149","0.2264598068","","","","","","","","76","L","3","","","129","main_expt"
"","bandit","209","1076951","0.0-170.0-0.0","28805773","wem/bandit_double","A1QQIZ2A5TZ5MR","both","4","5","775","","","","","","","0","1","0","0.3323271388","0.3242747857","","","","","0.2814443482","0.3242747857","0.2128416856","0.1377283829","0.243895296","0.3323271388","0.2579182239","0.202760285","","","","","","","","74","J","1","","","130","main_expt"
"","bandit","210","1079282","0.0-171.0-0.0","28805773","wem/bandit_double","A1QQIZ2A5TZ5MR","both","4","5","814","","","","","","","0","0","1","0.2666668646","0.3417201858","","","","","0.2834176508","0.3417201858","0.2403879813","0.1397421628","0.2164454501","0.2666668646","0.2329110821","0.1585094705","","","","","","","","74","J","1","","","131","main_expt"
"","bandit","211","1081415","0.0-172.0-0.0","28805773","wem/bandit_double","A1QQIZ2A5TZ5MR","both","4","5","620","","","","","","","0","0","1","0.2359119393","0.3498614837","","","","","0.2429908031","0.3498614837","0.2811421594","0.1061875113","0.200468731","0.2359119393","0.2400232435","0.1304261544","","","","","","","","74","J","1","","","132","main_expt"
"","bandit","212","1084309","0.0-173.0-0.0","28805773","wem/bandit_double","A1QQIZ2A5TZ5MR","both","4","5","1373","","","","","","","0","1","0","0.2540740643","0.3134828643","","","","","0.3053559495","0.3134828643","0.3002858371","0.07774811701","0.2038597077","0.2540740643","0.2084798617","0.09339990826","","","","","","","","74","J","1","","","133","main_expt"
"","bandit","213","1086765","0.0-174.0-0.0","28805773","wem/bandit_double","A1QQIZ2A5TZ5MR","both","4","5","937","","","","","","","0","0","1","0.2414927735","0.3554593188","","","","","0.2693478067","0.3554593188","0.277406375","0.08211281178","0.2263269307","0.2414927735","0.2034544","0.08524612959","","","","","","","","74","J","1","","","134","main_expt"
"","bandit","214","1089219","0.0-175.0-0.0","28805773","wem/bandit_double","A1QQIZ2A5TZ5MR","both","4","5","937","","","","","","","0","0","1","0.2632369982","0.3150900126","","","","","0.3369166079","0.3150900126","0.2897147582","0.1123817552","0.2686469146","0.2632369982","0.2088958693","0.0622033461","","","","","","","","74","J","1","","","135","main_expt"
"","bandit","215","1091136","0.0-176.0-0.0","28805773","wem/bandit_double","A1QQIZ2A5TZ5MR","both","4","5","401","","","","","","","1","0","0","0.3170393738","0.268603144","","","","","0.268603144","0.3199395785","0.3590576628","0.1478339482","0.3170393738","0.3032623762","0.2573758916","0.05632890875","","","","","","","","72","H","0","img/none_selected.jpg","","136","main_expt"
"","bandit","216","1093225","0.0-177.0-0.0","28805773","wem/bandit_double","A1QQIZ2A5TZ5MR","both","4","5","574","","","","","","","0","0","1","0.338962466","0.2373427956","","","","","0.2373427956","0.33362357","0.3822427384","0.1374936615","0.338962466","0.2984046037","0.2467438462","0.06052980877","","","","","","","","72","H","0","img/none_selected.jpg","","137","main_expt"
"","bandit","217","1095199","0.0-178.0-0.0","28805773","wem/bandit_double","A1QQIZ2A5TZ5MR","both","4","5","460","","","","","","","1","1","0","0.3586643031","0.2206869265","","","","","0.2206869265","0.3611324022","0.3410071165","0.159761955","0.3586643031","0.3110629865","0.2221944767","0.1038497792","","","","","","","","72","H","0","img/none_selected.jpg","","138","main_expt"
"","bandit","218","1097171","0.0-179.0-0.0","28805773","wem/bandit_double","A1QQIZ2A5TZ5MR","both","4","5","454","","","","","","","1","0","0","0.3430902759","0.2177966349","","","","","0.2177966349","0.3504145086","0.3738014659","0.1363721132","0.3430902759","0.3048373826","0.2750517365","0.08561062373","","","","","","","","72","H","0","img/none_selected.jpg","","139","main_expt"
"","bandit","219","1099172","0.0-180.0-0.0","28805773","wem/bandit_double","A1QQIZ2A5TZ5MR","both","4","5","482","","","","","","","1","0","0","0.3777112835","0.2387685432","","","","","0.2387685432","0.309774603","0.422575493","0.1031445192","0.3777112835","0.3163642845","0.277474309","0.08025295029","","","","","","","","72","H","0","img/none_selected.jpg","","140","main_expt"
"","bandit","220","1101133","0.0-181.0-0.0","28805773","wem/bandit_double","A1QQIZ2A5TZ5MR","both","4","5","441","","","","","","","0","0","1","0.4276051364","0.2575087366","","","","","0.2575087366","0.3506531288","0.4439129864","0.09805286369","0.4276051364","0.2213861514","0.2932007391","0.09309891757","","","","","","","","72","H","0","img/none_selected.jpg","","141","main_expt"
"","bandit","221","1103042","0.0-182.0-0.0","28805773","wem/bandit_double","A1QQIZ2A5TZ5MR","both","4","5","392","","","","","","","0","1","0","0.4312347149","0.2392038972","","","","","0.2392038972","0.2965027242","0.4323802182","0.1149002948","0.4312347149","0.2492613222","0.3001807938","0.1107976638","","","","","","","","72","H","0","img/none_selected.jpg","","142","main_expt"
"","bandit","222","1105184","0.0-183.0-0.0","28805773","wem/bandit_double","A1QQIZ2A5TZ5MR","both","4","5","628","","","","","","","0","0","1","0.386657586","0.2216470548","","","","","0.2216470548","0.2087517366","0.4358412593","0.1209542099","0.386657586","0.2645663874","0.3640878437","0.09575525052","","","","","","","","72","H","0","img/none_selected.jpg","","143","main_expt"
"","bandit","223","1107628","0.0-184.0-0.0","28805773","wem/bandit_double","A1QQIZ2A5TZ5MR","both","4","5","928","","","","","","","0","0","1","0.3409851627","0.2224896139","","","","","0.2224896139","0.2313605626","0.4407373256","0.1202521083","0.3409851627","0.2928215939","0.2706796495","0.07222794989","","","","","","","","72","H","0","img/none_selected.jpg","","144","main_expt"
"","bandit","224","1110682","0.0-185.0-0.0","28805773","wem/bandit_double","A1QQIZ2A5TZ5MR","both","4","5","1537","","","","","","","0","0","1","0.2359726437","0.4661091035","","","","","0.1925605464","0.1785565547","0.4661091035","0.1619743669","0.3538709708","0.3178979655","0.2359726437","0.03203798906","","","","","","","","75","K","2","","","145","main_expt"
"","bandit","225","1112670","0.0-186.0-0.0","28805773","wem/bandit_double","A1QQIZ2A5TZ5MR","both","4","5","468","","","","","","","1","1","0","0.2200332621","0.4637097668","","","","","0.2069800611","0.1770660648","0.4637097668","0.1664631043","0.2745956728","0.2850957273","0.2200332621","0.03073079809","","","","","","","","75","K","2","","","146","main_expt"
"","bandit","226","1114746","0.0-187.0-0.0","28805773","wem/bandit_double","A1QQIZ2A5TZ5MR","both","4","5","559","","","","","","","1","1","0","0.1957794229","0.4700491642","","","","","0.2489662189","0.1063371611","0.4700491642","0.1669241763","0.2375793476","0.2483519338","0.1957794229","0.05105424151","","","","","","","","75","K","2","","","147","main_expt"
"","bandit","227","1117282","0.0-188.0-0.0","28805773","wem/bandit_double","A1QQIZ2A5TZ5MR","both","4","5","1021","","","","","","","0","1","0","0.1790722045","0.4648109734","","","","","0.1946464158","0.1216370817","0.4648109734","0.1581456949","0.2954602587","0.2309770791","0.1790722045","0.04045355104","","","","","","","","75","K","2","","","148","main_expt"
"","bandit","228","1119558","0.0-189.0-0.0","28805773","wem/bandit_double","A1QQIZ2A5TZ5MR","both","4","5","756","","","","","","","0","0","1","0.2189150546","0.4635511513","","","","","0.1826562491","0.1024256959","0.4635511513","0.1698392466","0.3435099865","0.1759049641","0.2189150546","0.06416506337","","","","","","","","75","K","2","","","149","main_expt"
"","bandit","229","1121851","0.0-190.0-0.0","28805773","wem/bandit_double","A1QQIZ2A5TZ5MR","both","4","5","776","","","","","","","1","0","0","0.2119229637","0.4445017148","","","","","0.1750473563","0.1371094633","0.4445017148","0.2140114634","0.268900415","0.1910702346","0.2119229637","0.07819388902","","","","","","","","75","K","2","","","150","main_expt"
"","bandit","230","1124051","0.0-191.0-0.0","28805773","wem/bandit_double","A1QQIZ2A5TZ5MR","both","4","5","682","","","","","","","0","0","1","0.2472398003","0.4434799742","","","","","0.1109536645","0.1702433702","0.4434799742","0.2392960001","0.2326488896","0.1799178466","0.2472398003","0.1186979887","","","","","","","","75","K","2","","","151","main_expt"
"","bandit","231","1126106","0.0-192.0-0.0","28805773","wem/bandit_double","A1QQIZ2A5TZ5MR","both","4","5","538","","","","","","","0","0","1","0.2148428051","0.4451665291","","","","","0.1143086707","0.1860489046","0.4451665291","0.2095863317","0.2768057641","0.1826140084","0.2148428051","0.1084773402","","","","","","","","75","K","2","","","152","main_expt"
"","bandit","232","1129167","0.0-193.0-0.0","28805773","wem/bandit_double","A1QQIZ2A5TZ5MR","both","4","5","1539","","","","","","","0","1","0","0.1598057249","0.4401532833","","","","","0.1236290712","0.2117094388","0.4401532833","0.2543258611","0.2997660112","0.147924298","0.1598057249","0.1314289417","","","","","","","","75","K","2","","","153","main_expt"
"","bandit","233","1131530","0.0-194.0-0.0","28805773","wem/bandit_double","A1QQIZ2A5TZ5MR","both","4","5","847","","","","","","","0","1","0","0.1489099923","0.4516855879","","","","","0.1600695342","0.2072389033","0.4516855879","0.2602259906","0.3196464983","0.1388357139","0.1489099923","0.1354051011","","","","","","","","75","K","2","","","154","main_expt"
"","bandit","234","1134081","0.0-195.0-0.0","28805773","wem/bandit_double","A1QQIZ2A5TZ5MR","both","4","5","1035","","","","","","","0","0","1","0.1502541116","0.4480264808","","","","","0.1770288166","0.1986333914","0.4480264808","0.2750581274","0.3141654429","0.1658398244","0.1502541116","0.1085215933","","","","","","","","75","K","2","","","155","main_expt"
"","bandit","235","1136143","0.0-196.0-0.0","28805773","wem/bandit_double","A1QQIZ2A5TZ5MR","both","4","5","550","","","","","","","0","0","1","0.1605084188","0.4260414265","","","","","0.1761817894","0.2054640346","0.4260414265","0.2438045727","0.2667217688","0.1104921729","0.1605084188","0.1383379057","","","","","","","","75","K","2","","","156","main_expt"
"","bandit","236","1138082","0.0-197.0-0.0","28805773","wem/bandit_double","A1QQIZ2A5TZ5MR","both","4","5","422","","","","","","","0","0","1","0.1684101418","0.4365201507","","","","","0.1998830888","0.1810715383","0.4365201507","0.2857025143","0.2867075714","0.09530810267","0.1684101418","0.1428990181","","","","","","","","75","K","2","","","157","main_expt"
"","bandit","237","1141004","0.0-198.0-0.0","28805773","wem/bandit_double","A1QQIZ2A5TZ5MR","both","4","5","1405","","","","","","","0","1","0","0.07455979893","0.2887719476","","","","","0.2150354531","0.2118906364","0.4076244479","0.2887719476","0.2788639118","0.1211627972","0.1807688322","0.07455979893","","","","","","","","76","L","3","","","158","main_expt"
"","bandit","238","1143092","0.0-199.0-0.0","28805773","wem/bandit_double","A1QQIZ2A5TZ5MR","both","4","5","570","","","","","","","0","1","0","0.1009372764","0.2859462397","","","","","0.2221069796","0.2293976715","0.403953851","0.2859462397","0.3020710819","0.1012897464","0.1516426412","0.1009372764","","","","","","","","76","L","3","","","159","main_expt"
"","bandit","239","1145603","0.0-200.0-0.0","28805773","wem/bandit_double","A1QQIZ2A5TZ5MR","both","4","5","995","","","","","","","0","1","0","0.05118862797","0.207432816","","","","","0.2627335039","0.2186051381","0.4282135537","0.207432816","0.3404227007","0.1188035868","0.1638698877","0.05118862797","","","","","","","","76","L","3","","","160","main_expt"
"","bandit","240","1148007","0.0-201.0-0.0","28805773","wem/bandit_double","A1QQIZ2A5TZ5MR","both","4","5","890","","","","","","","0","0","1","0.05265847637","0.1611694724","","","","","0.2922457848","0.2175927206","0.4479073124","0.1611694724","0.2876249865","0.1606836622","0.1645359983","0.05265847637","","","","","","","","76","L","3","","","161","main_expt"
"","bandit","241","1150902","0.0-202.0-0.0","28805773","wem/bandit_double","A1QQIZ2A5TZ5MR","both","4","5","1376","","","","","","","0","0","1","0.2401308511","0.3040212123","","","","","0.3040212123","0.2370404117","0.4456201243","0.14378348","0.2401308511","0.1859884171","0.2509918509","0.07938684611","","","","","","","","72","H","0","img/none_selected.jpg","","162","main_expt"
"","bandit","242","1153440","0.0-203.0-0.0","28805773","wem/bandit_double","A1QQIZ2A5TZ5MR","both","4","5","1024","","","","","","","1","0","0","0.2528258464","0.2778780432","","","","","0.2933359027","0.2778780432","0.4384930657","0.1707099899","0.2486605046","0.2528258464","0.1883685458","0.0970900163","","","","","","","","74","J","1","","","163","main_expt"
"","bandit","243","1155588","0.0-204.0-0.0","28805773","wem/bandit_double","A1QQIZ2A5TZ5MR","both","4","5","630","","","","","","","1","1","0","0.2515292425","0.2643388611","","","","","0.2388203062","0.2643388611","0.4231568034","0.1933693166","0.22675384","0.2515292425","0.2179532334","0.07401968201","","","","","","","","74","J","1","","","164","main_expt"
"","bandit","244","1158470","0.0-205.0-0.0","28805773","wem/bandit_double","A1QQIZ2A5TZ5MR","both","4","5","1362","","","","","","","0","1","0","0.2068970429","0.1967204453","","","","","0.2646204916","0.1967204453","0.4412535734","0.2406324952","0.2841151948","0.2068970429","0.2143704678","0.06633104104","","","","","","","","74","J","1","","","165","main_expt"
"","bandit","245","1160573","0.0-206.0-0.0","28805773","wem/bandit_double","A1QQIZ2A5TZ5MR","both","4","5","586","","","","","","","0","0","1","0.1413778631","0.1567937345","","","","","0.2591758032","0.1567937345","0.438364003","0.2650462377","0.2842980464","0.1413778631","0.2175899085","0.05309652092","","","","","","","","74","J","1","","","166","main_expt"
"","bandit","246","1162469","0.0-207.0-0.0","28805773","wem/bandit_double","A1QQIZ2A5TZ5MR","both","4","5","379","","","","","","","0","0","1","0.1999497975","0.1201482918","","","","","0.1955934818","0.1201482918","0.4290991351","0.245875583","0.3007590714","0.1999497975","0.2137120923","0.07357446968","","","","","","","","74","J","1","","","167","main_expt"
"","bandit","247","1164298","0.0-208.0-0.0","28805773","wem/bandit_double","A1QQIZ2A5TZ5MR","both","4","5","314","","","","","","","1","1","0","0.2884936601","0.2090603634","","","","","0.2090603634","0.0936051119","0.4510860662","0.257303599","0.2884936601","0.1696145944","0.2331560811","0.1054325378","","","","","","","","72","H","0","img/none_selected.jpg","","168","main_expt"
"","bandit","248","1166319","0.0-209.0-0.0","28805773","wem/bandit_double","A1QQIZ2A5TZ5MR","both","4","5","499","","","","","","","0","1","0","0.2803439438","0.2678479696","","","","","0.2678479696","0.08775096918","0.4491424364","0.2993732043","0.2803439438","0.1338518967","0.2367963754","0.08536867429","","","","","","","","72","H","0","img/none_selected.jpg","","169","main_expt"
"","bandit","249","1168327","0.0-210.0-0.0","28805773","wem/bandit_double","A1QQIZ2A5TZ5MR","both","4","5","488","","","","","","","0","1","0","0.3010437192","0.2532125956","","","","","0.2532125956","0.06743429675","0.4332244901","0.3388977639","0.3010437192","0.1307598277","0.2378050175","0.1083432756","","","","","","","","72","H","0","img/none_selected.jpg","","170","main_expt"
"","bandit","250","1170427","0.0-211.0-0.0","28805773","wem/bandit_double","A1QQIZ2A5TZ5MR","both","4","5","583","","","","","","","1","0","0","0.3243802095","0.2568627054","","","","","0.2568627054","0.05979118822","0.4405036994","0.2947926635","0.3243802095","0.1200375331","0.2253696972","0.09185370626","","","","","","","","72","H","0","img/none_selected.jpg","","171","main_expt"
"","bandit","251","1172537","0.0-212.0-0.0","28805773","wem/bandit_double","A1QQIZ2A5TZ5MR","both","4","5","590","","","","","","","0","1","0","0.3140094691","0.2451563353","","","","","0.2451563353","0.03200499914","0.4358521759","0.2892529657","0.3140094691","0.07514546963","0.2903394368","0.09458096772","","","","","","","","72","H","0","img/none_selected.jpg","","172","main_expt"
"","bandit","252","1174446","0.0-213.0-0.0","28805773","wem/bandit_double","A1QQIZ2A5TZ5MR","both","4","5","389","","","","","","","0","0","1","0.2433770114","0.3003395367","","","","","0.3003395367","0.04613358223","0.4471617722","0.2571917514","0.2433770114","0.07704486673","0.2384828248","0.1016296913","","","","","","","","72","H","0","img/none_selected.jpg","","173","main_expt"
"","bandit","253","1176524","0.0-214.0-0.0","28805773","wem/bandit_double","A1QQIZ2A5TZ5MR","both","4","5","562","","","","","","","0","0","1","0.2080779891","0.2545998681","","","","","0.2545998681","0.05969677181","0.4560251174","0.244173221","0.2080779891","0.04061738922","0.2823111034","0.117107939","","","","","","","","72","H","0","img/none_selected.jpg","","174","main_expt"
"","bandit","254","1178337","0.0-215.0-0.0","28805773","wem/bandit_double","A1QQIZ2A5TZ5MR","both","4","5","291","","","","","","","0","0","1","0.02968316822","0.05930066603","","","","","0.3383135611","0.05930066603","0.4379349024","0.2038098688","0.2211365803","0.02968316822","0.292147578","0.1254773658","","","","","","","","74","J","1","","","175","main_expt"
"","bandit","255","1180179","0.0-216.0-0.0","28805773","wem/bandit_double","A1QQIZ2A5TZ5MR","both","4","5","327","","","","","","","1","1","0","0.04419366322","0.08110879181","","","","","0.3880627729","0.08110879181","0.4328841116","0.2053823003","0.231280906","0.04419366322","0.2928295457","0.1518856622","","","","","","","","74","J","1","","","176","main_expt"
"","bandit","256","1182132","0.0-217.0-0.0","28805773","wem/bandit_double","A1QQIZ2A5TZ5MR","both","4","5","435","","","","","","","0","0","1","0.04140429262","0.07611568943","","","","","0.3920994557","0.07611568943","0.3965365967","0.2193083282","0.1689881391","0.04140429262","0.297241693","0.1502483312","","","","","","","","74","J","1","","","177","main_expt"
"","bandit","257","1184077","0.0-218.0-0.0","28805773","wem/bandit_double","A1QQIZ2A5TZ5MR","both","4","5","427","","","","","","","0","1","0","0.06103489621","0.1220467165","","","","","0.3882277994","0.1220467165","0.3899234309","0.1904263594","0.1699404395","0.06103489621","0.276241128","0.2073149786","","","","","","","","74","J","1","","","178","main_expt"
"","bandit","258","1185940","0.0-219.0-0.0","28805773","wem/bandit_double","A1QQIZ2A5TZ5MR","both","4","5","344","","","","","","","0","0","1","0.053608248","0.1698853315","","","","","0.3939691408","0.1698853315","0.4238443777","0.2212788648","0.1571972967","0.053608248","0.2405339857","0.1928578162","","","","","","","","74","J","1","","","179","main_expt"
"","bandit","259","1187815","0.0-220.0-0.0","28805773","wem/bandit_double","A1QQIZ2A5TZ5MR","both","4","5","355","","","","","","","0","0","1","0.06289379635","0.1374762061","","","","","0.4074656662","0.1374762061","0.4487400994","0.2640717145","0.1567782565","0.06289379635","0.233428307","0.1412953234","","","","","","","","74","J","1","","","180","main_expt"
"","bandit","260","1189983","0.0-221.0-0.0","28805773","wem/bandit_double","A1QQIZ2A5TZ5MR","both","4","5","647","","","","","","","0","1","0","0.1459310114","0.4314573438","","","","","0.3724421945","0.09961924189","0.4314573438","0.2426483564","0.1492691696","0.07748386732","0.1459310114","0.1258774719","","","","","","","","75","K","2","","","181","main_expt"
"","bandit","261","1191855","0.0-222.0-0.0","28805773","wem/bandit_double","A1QQIZ2A5TZ5MR","both","4","5","352","","","","","","","0","0","1","0.1796360657","0.4458059303","","","","","0.2998177931","0.1391043194","0.4458059303","0.2001563476","0.1609613705","0.096714051","0.1796360657","0.1121960069","","","","","","","","75","K","2","","","182","main_expt"
"","bandit","262","1193843","0.0-223.0-0.0","28805773","wem/bandit_double","A1QQIZ2A5TZ5MR","both","4","5","474","","","","","","","0","0","1","0.1907874973","0.4485460149","","","","","0.3629728763","0.1336424596","0.4485460149","0.2167094124","0.1982891881","0.05351369794","0.1907874973","0.08335286121","","","","","","","","75","K","2","","","183","main_expt"
"","bandit","263","1195964","0.0-224.0-0.0","28805773","wem/bandit_double","A1QQIZ2A5TZ5MR","both","4","5","604","","","","","","","0","0","1","0.1085923678","0.2402813617","","","","","0.3763603645","0.115911235","0.4078350507","0.2402813617","0.1703318442","0.08854511538","0.1451627339","0.1085923678","","","","","","","","76","L","3","","","184","main_expt"
"","bandit","264","1197843","0.0-225.0-0.0","28805773","wem/bandit_double","A1QQIZ2A5TZ5MR","both","4","5","363","","","","","","","0","0","1","0.1113654269","0.2745112141","","","","","0.3472982705","0.1394203739","0.3805788675","0.2745112141","0.09566746086","0.136385666","0.1692531577","0.1113654269","","","","","","","","76","L","3","","","185","main_expt"
"","bandit","265","1200033","0.0-226.0-0.0","28805773","wem/bandit_double","A1QQIZ2A5TZ5MR","both","4","5","676","","","","","","","0","1","0","0.1254261761","0.3095995051","","","","","0.3095995051","0.1557479742","0.4236809331","0.2774566956","0.1254261761","0.1848043888","0.1885113298","0.1383531569","","","","","","","","72","H","0","img/none_selected.jpg","","186","main_expt"
"","bandit","266","1201868","0.0-227.0-0.0","28805773","wem/bandit_double","A1QQIZ2A5TZ5MR","both","4","5","318","","","","","","","0","1","0","0.1081798115","0.2567332284","","","","","0.2567332284","0.1823611596","0.4058627081","0.2876011691","0.1081798115","0.1640989128","0.2088125345","0.1739713275","","","","","","","","72","H","0","img/none_selected.jpg","","187","main_expt"
"","bandit","267","1203903","0.0-228.0-0.0","28805773","wem/bandit_double","A1QQIZ2A5TZ5MR","both","4","5","517","","","","","","","0","0","1","0.08529062399","0.2555256861","","","","","0.2555256861","0.1854179297","0.3913346521","0.2947112378","0.08529062399","0.1301402021","0.2228369986","0.1926366302","","","","","","","","72","H","0","img/none_selected.jpg","","188","main_expt"
"","bandit","268","1205775","0.0-229.0-0.0","28805773","wem/bandit_double","A1QQIZ2A5TZ5MR","both","4","5","353","","","","","","","0","0","1","0.1980942663","0.1875645599","","","","","0.2009875262","0.1875645599","0.3760164219","0.2581494","0.07250281893","0.1980942663","0.2567428292","0.2499935398","","","","","","","","74","J","1","","","189","main_expt"
"","bandit","269","1207668","0.0-230.0-0.0","28805773","wem/bandit_double","A1QQIZ2A5TZ5MR","both","4","5","377","","","","","","","0","0","1","0.07895395147","0.2055488595","","","","","0.2055488595","0.2018323604","0.3327352817","0.1756323468","0.07895395147","0.1842725295","0.3177850294","0.2367317824","","","","","","","","72","H","0","img/none_selected.jpg","","190","main_expt"
"","bandit","270","1209521","0.0-231.0-0.0","28805773","wem/bandit_double","A1QQIZ2A5TZ5MR","both","4","5","330","","","","","","","1","0","0","0.2087081259","0.221094727","","","","","0.1506387864","0.221094727","0.3015177445","0.2521570866","0.06204701637","0.2087081259","0.2876912335","0.2515026666","","","","","","","","74","J","1","","","191","main_expt"
"","bandit","271","1211446","0.0-232.0-0.0","28805773","wem/bandit_double","A1QQIZ2A5TZ5MR","both","4","5","407","","","","","","","0","0","1","0.1800110976","0.2320570195","","","","","0.2027442266","0.2320570195","0.2773298268","0.2964739449","0.064067899","0.1800110976","0.2383873749","0.2451916405","","","","","","","","74","J","1","","","192","main_expt"
"","bandit","272","1213480","0.0-233.0-0.0","28805773","wem/bandit_double","A1QQIZ2A5TZ5MR","both","4","5","513","","","","","","","1","0","0","0.1286650472","0.1969137872","","","","","0.1969137872","0.2948950962","0.2836613797","0.2612966838","0.1286650472","0.1519186298","0.24690957","0.2353451433","","","","","","","","72","H","0","img/none_selected.jpg","","193","main_expt"
"","bandit","273","1215391","0.0-234.0-0.0","28805773","wem/bandit_double","A1QQIZ2A5TZ5MR","both","4","5","392","","","","","","","0","0","1","0.1746490116","0.2114994946","","","","","0.2114994946","0.2602906927","0.2799350415","0.3292914436","0.1746490116","0.1431656489","0.2728455101","0.307075739","","","","","","","","72","H","0","img/none_selected.jpg","","194","main_expt"
"","bandit","274","1217275","0.0-235.0-0.0","28805773","wem/bandit_double","A1QQIZ2A5TZ5MR","both","4","5","368","","","","","","","0","0","1","0.1868251083","0.1771499101","","","","","0.2467939011","0.1771499101","0.2068597772","0.4070308407","0.129035247","0.1868251083","0.2421292151","0.3011001907","","","","","","","","74","J","1","","","195","main_expt"
"","bandit","275","1220104","0.0-236.0-0.0","28805773","wem/bandit_double","A1QQIZ2A5TZ5MR","both","4","5","1309","","","","","","","1","1","0","0.2598052724","0.2679469531","","","","","0.2731811988","0.1746274925","0.2679469531","0.3494820729","0.09052040682","0.176624335","0.2598052724","0.2861216794","","","","","","","","75","K","2","","","196","main_expt"
"","bandit","276","1222352","0.0-237.0-0.0","28805773","wem/bandit_double","A1QQIZ2A5TZ5MR","both","4","5","728","","","","","","","0","0","1","0.2540930088","0.2448078588","","","","","0.2512114903","0.193224684","0.2448078588","0.3571939809","0.08675464884","0.2383323772","0.2540930088","0.2121549007","","","","","","","","75","K","2","","","197","main_expt"
"","bandit","277","1224499","0.0-238.0-0.0","28805773","wem/bandit_double","A1QQIZ2A5TZ5MR","both","4","5","627","","","","","","","0","0","1","0.260618614","0.1771509929","","","","","0.190651112","0.1771509929","0.2433987968","0.382430028","0.09429549835","0.260618614","0.2460150375","0.260340052","","","","","","","","74","J","1","","","198","main_expt"
"","bandit","278","1226439","0.0-239.0-0.0","28805773","wem/bandit_double","A1QQIZ2A5TZ5MR","both","4","5","421","","","","","","","0","0","1","0.2217343644","0.2653624242","","","","","0.1701189695","0.2466668772","0.2653624242","0.3353474301","0.09303778716","0.2935067364","0.2217343644","0.3009562829","","","","","","","","75","K","2","","","199","main_expt"
"","bandit","279","1228428","0.0-240.0-0.0","28805773","wem/bandit_double","A1QQIZ2A5TZ5MR","both","4","5","472","","","","","","","0","1","0","0.2830302048","0.2551376492","","","","","0.1656975488","0.2477816141","0.2551376492","0.3321976498","0.07354084322","0.362920627","0.2830302048","0.3430896668","","","","","","","","75","K","2","","","200","main_expt"
"","bandit","280","1230342","0.0-241.0-0.0","28805773","wem/bandit_double","A1QQIZ2A5TZ5MR","both","4","5","396","","","","","","","1","0","0","0.3175621279","0.2660639347","","","","","0.1647298582","0.2744817861","0.2660639347","0.3218117355","0.08115367452","0.3119044903","0.3175621279","0.2973668079","","","","","","","","75","K","2","","","201","main_expt"
"","bandit","281","1232207","0.0-242.0-0.0","28805773","wem/bandit_double","A1QQIZ2A5TZ5MR","both","4","5","346","","","","","","","0","0","1","0.3049471546","0.2220900594","","","","","0.1242041815","0.3043062986","0.2220900594","0.2949214693","0.0774842685","0.3095695708","0.3049471546","0.3219337599","","","","","","","","75","K","2","","","202","main_expt"
"","bandit","282","1235180","0.0-243.0-0.0","28805773","wem/bandit_double","A1QQIZ2A5TZ5MR","both","4","5","1450","","","","","","","0","0","1","0.3229991028","0.300077299","","","","","0.1684487429","0.272185569","0.1543353204","0.300077299","0.09704724367","0.3005459379","0.2975042969","0.3229991028","","","","","","","","76","L","3","","","203","main_expt"
"","bandit","283","1237089","0.0-244.0-0.0","28805773","wem/bandit_double","A1QQIZ2A5TZ5MR","both","4","5","388","","","","","","","0","0","1","0.3077995671","0.2866085977","","","","","0.1666409686","0.2610767704","0.1605482003","0.2866085977","0.1224111047","0.3116824409","0.2268457719","0.3077995671","","","","","","","","76","L","3","","","204","main_expt"
"","bandit","284","1239112","0.0-245.0-0.0","28805773","wem/bandit_double","A1QQIZ2A5TZ5MR","both","4","5","503","","","","","","","0","0","1","0.3070199156","0.2695546272","","","","","0.2197286508","0.2832615928","0.1406914754","0.2695546272","0.1627664319","0.3291635812","0.2582085449","0.3070199156","","","","","","","","76","L","3","","","205","main_expt"
"","bandit","285","1240769","0.0-246.0-0.0","28805773","wem/bandit_double","A1QQIZ2A5TZ5MR","both","4","5","135","","","","","","","0","0","1","0.1604236747","0.2754509052","","","","","0.2754509052","0.300913322","0.1138947463","0.2622178416","0.1604236747","0.4008790519","0.2841247045","0.3109683939","","","","","","","","72","H","0","img/none_selected.jpg","","206","main_expt"
"","bandit","286","1243262","0.0-247.0-0.0","28805773","wem/bandit_double","A1QQIZ2A5TZ5MR","both","4","5","975","","","","","","","0","0","1","0.126388554","0.2664869377","","","","","0.2664869377","0.3260258847","0.1096702189","0.2498186578","0.126388554","0.4202180382","0.3333225396","0.2845075958","","","","","","","","72","H","0","img/none_selected.jpg","","207","main_expt"
"","bandit","287","1245117","0.0-248.0-0.0","28805773","wem/bandit_double","A1QQIZ2A5TZ5MR","both","4","5","338","","","","","","","0","0","1","0.4168586074","0.3173829003","","","","","0.2686565688","0.3173829003","0.09922356593","0.2335358635","0.1602309633","0.4168586074","0.290219871","0.2419557814","","","","","","","","74","J","1","","","208","main_expt"
"","bandit","288","1246937","0.0-249.0-0.0","28805773","wem/bandit_double","A1QQIZ2A5TZ5MR","both","4","5","299","","","","","","","1","1","0","0.3426384504","0.101567507","","","","","0.2380255957","0.3153846937","0.101567507","0.2638942681","0.2009997365","0.3949328033","0.3426384504","0.2449545816","","","","","","","","75","K","2","","","209","main_expt"
"","bandit","289","1248828","0.0-250.0-0.0","28805773","wem/bandit_double","A1QQIZ2A5TZ5MR","both","4","5","375","","","","","","","0","0","1","0.2932754766","0.08675379402","","","","","0.2507768727","0.3010876552","0.08675379402","0.2526926237","0.1997114924","0.41782505","0.2932754766","0.2176860071","","","","","","","","75","K","2","","","210","main_expt"
"","bandit","290","1251288","0.0-251.0-0.0","28805773","wem/bandit_double","A1QQIZ2A5TZ5MR","both","4","5","940","","","","","","","1","1","0","0.4377941382","0.2864900033","","","","","0.2685142319","0.2864900033","0.07512021269","0.2740367769","0.2631807131","0.4377941382","0.2522206247","0.2460847292","","","","","","","","74","J","1","","","211","main_expt"
"","bandit","291","1253254","0.0-252.0-0.0","28805773","wem/bandit_double","A1QQIZ2A5TZ5MR","both","4","5","448","","","","","","","1","0","0","0.4619006446","0.3163372434","","","","","0.260511483","0.3163372434","0.08144254236","0.2440836191","0.2008991105","0.4619006446","0.2323705111","0.2017704833","","","","","","","","74","J","1","","","212","main_expt"
"","bandit","292","1255271","0.0-253.0-0.0","28805773","wem/bandit_double","A1QQIZ2A5TZ5MR","both","4","5","499","","","","","","","1","0","0","0.4508737721","0.2701305136","","","","","0.2579605047","0.2701305136","0.06585574052","0.2341903104","0.1656487101","0.4508737721","0.2815580385","0.1891715169","","","","","","","","74","J","1","","","213","main_expt"
