"consent","trial_type","trial_index","time_elapsed","internal_node_id","subjID","study","MID","cond","drift1","drift2","rt","responses","key_press","expt_phase","like","value","connected","gems","bombs","no_reward","GemPrChosen","BombPrChosen","GainOverPainPr_0","GainOverPainPr_1","GainOverPainPr_2","GainOverPainPr_3","LosePr_0","LosePr_1","LosePr_2","LosePr_3","WinPr_0","WinPr_1","WinPr_2","WinPr_3","Q0","Q1","Q2","gender","age","ethnicity","target","respCharCode","respKey","respChoiceNum","respChoice","practice","trial_counter","trial_label"
"INL_behavioral_consent_30min_online.html","consent","0","6765","0.0-0.0","36961399","wem/bandit_double","A23KAJRDVCVGOE","both","6","3","","","","","","","","","","","","","","","","","","","","","","","","","","","","","","","","","","","","","",""
"","survey-text","1","10765","0.0-1.0","36961399","wem/bandit_double","A23KAJRDVCVGOE","both","6","3","2975","{""Q0"":""A23KAJRDVCVGOE""}","","","","","","","","","","","","","","","","","","","","","","","","","","","","","","","","","","","",""
"","text","2","24624","0.0-2.0","36961399","wem/bandit_double","A23KAJRDVCVGOE","both","6","3","12850","","32","","","","","","","","","","","","","","","","","","","","","","","","","","","","","","","","","","",""
"","text","3","32563","0.0-3.0","36961399","wem/bandit_double","A23KAJRDVCVGOE","both","6","3","7935","","32","","","","","","","","","","","","","","","","","","","","","","","","","","","","","","","","","","",""
"","text","4","53416","0.0-4.0","36961399","wem/bandit_double","A23KAJRDVCVGOE","both","6","3","20849","","32","","","","","","","","","","","","","","","","","","","","","","","","","","","","","","","","","","",""
"","text","5","61619","0.0-5.0","36961399","wem/bandit_double","A23KAJRDVCVGOE","both","6","3","8198","","32","","","","","","","","","","","","","","","","","","","","","","","","","","","","","","","","","","",""
"","text","6","67348","0.0-6.0","36961399","wem/bandit_double","A23KAJRDVCVGOE","both","6","3","5725","","32","","","","","","","","","","","","","","","","","","","","","","","","","","","","","","","","","","",""
"","text","7","72876","0.0-7.0","36961399","wem/bandit_double","A23KAJRDVCVGOE","both","6","3","5523","","32","","","","","","","","","","","","","","","","","","","","","","","","","","","","","","","","","","",""
"","identification","8","78585","0.0-8.0-0.0","36961399","wem/bandit_double","A23KAJRDVCVGOE","both","6","3","5652","","","","6","5","5","","","","","","","","","","","","","","","","","","","","","","","","the village of Zur","","","","","","",""
"","identification","9","83312","0.0-8.0-1.0","36961399","wem/bandit_double","A23KAJRDVCVGOE","both","6","3","3683","","","","3","2","3","","","","","","","","","","","","","","","","","","","","","","","","the village of Nyx","","","","","","",""
"","text","10","88857","0.0-9.0","36961399","wem/bandit_double","A23KAJRDVCVGOE","both","6","3","4540","","32","","","","","","","","","","","","","","","","","","","","","","","","","","","","","","","","","","",""
"","text","11","91601","0.0-10.0","36961399","wem/bandit_double","A23KAJRDVCVGOE","both","6","3","2738","","32","","","","","","","","","","","","","","","","","","","","","","","","","","","","","","","","","","",""
"","text","12","96257","0.0-11.0","36961399","wem/bandit_double","A23KAJRDVCVGOE","both","6","3","4650","","32","","","","","","","","","","","","","","","","","","","","","","","","","","","","","","","","","","",""
"","text","13","98293","0.0-12.0","36961399","wem/bandit_double","A23KAJRDVCVGOE","both","6","3","2029","","32","","","","","","","","","","","","","","","","","","","","","","","","","","","","","","","","","","",""
"","text","14","102118","0.0-13.0","36961399","wem/bandit_double","A23KAJRDVCVGOE","both","6","3","3820","","32","","","","","","","","","","","","","","","","","","","","","","","","","","","","","","","","","","",""
"","bandit","15","107049","0.0-14.0-0.0","36961399","wem/bandit_double","A23KAJRDVCVGOE","both","6","3","3408","","","","","","","1","0","0","1","0","","","","","0","","","","1","","","","","","","","","","","74","J","0","img/none_selected_demo.jpg","true","0",""
"","bandit","16","112269","0.0-15.0-0.0","36961399","wem/bandit_double","A23KAJRDVCVGOE","both","6","3","3641","","","","","","","0","1","0","0","1","","","","","1","","","","0","","","","","","","","","","","75","K","0","img/none_selected_demo.jpg","true","0",""
"","text","17","117435","0.0-16.0","36961399","wem/bandit_double","A23KAJRDVCVGOE","both","6","3","5158","","32","","","","","","","","","","","","","","","","","","","","","","","","","","","","","","","","","","",""
"","text","18","120107","0.0-17.0","36961399","wem/bandit_double","A23KAJRDVCVGOE","both","6","3","2667","","32","","","","","","","","","","","","","","","","","","","","","","","","","","","","","","","","","","",""
"","text","19","121970","0.0-18.0","36961399","wem/bandit_double","A23KAJRDVCVGOE","both","6","3","1857","","32","","","","","","","","","","","","","","","","","","","","","","","","","","","","","","","","","","",""
"","text","20","125710","0.0-19.0","36961399","wem/bandit_double","A23KAJRDVCVGOE","both","6","3","3736","","32","","","","","","","","","","","","","","","","","","","","","","","","","","","","","","","","","","",""
"","bandit","21","128990","0.0-20.0-0.0","36961399","wem/bandit_double","A23KAJRDVCVGOE","both","6","3","1762","","","","","","","1","0","0","0.8","0","","","","","0","0","","","0.8","0.2","","","","","","","","","","74","J","0","img/none_selected_demo.jpg","true","0","80_20_practice"
"","bandit","22","133889","0.0-20.0-1.0","36961399","wem/bandit_double","A23KAJRDVCVGOE","both","6","3","3383","","","","","","","1","0","0","0.8","0","","","","","0","0","","","0.8","0.2","","","","","","","","","","74","J","0","img/none_selected_demo.jpg","true","0","80_20_practice"
"","bandit","23","135898","0.0-20.0-2.0","36961399","wem/bandit_double","A23KAJRDVCVGOE","both","6","3","494","","","","","","","1","0","0","0.8","0","","","","","0","0","","","0.8","0.2","","","","","","","","","","74","J","0","img/none_selected_demo.jpg","true","0","80_20_practice"
"","bandit","24","137699","0.0-20.0-3.0","36961399","wem/bandit_double","A23KAJRDVCVGOE","both","6","3","283","","","","","","","1","0","0","0.8","0","","","","","0","0","","","0.8","0.2","","","","","","","","","","74","J","0","img/none_selected_demo.jpg","true","0","80_20_practice"
"","bandit","25","139663","0.0-20.0-4.0","36961399","wem/bandit_double","A23KAJRDVCVGOE","both","6","3","374","","","","","","","0","0","1","0.8","0","","","","","0","0","","","0.8","0.2","","","","","","","","","","74","J","0","img/none_selected_demo.jpg","true","0","80_20_practice"
"","bandit","26","141952","0.0-20.0-5.0","36961399","wem/bandit_double","A23KAJRDVCVGOE","both","6","3","771","","","","","","","1","0","0","0.8","0","","","","","0","0","","","0.8","0.2","","","","","","","","","","74","J","0","img/none_selected_demo.jpg","true","0","80_20_practice"
"","bandit","27","143752","0.0-20.0-6.0","36961399","wem/bandit_double","A23KAJRDVCVGOE","both","6","3","283","","","","","","","0","0","1","0.8","0","","","","","0","0","","","0.8","0.2","","","","","","","","","","74","J","0","img/none_selected_demo.jpg","true","0","80_20_practice"
"","bandit","28","145600","0.0-20.0-7.0","36961399","wem/bandit_double","A23KAJRDVCVGOE","both","6","3","247","","","","","","","0","0","1","0.8","0","","","","","0","0","","","0.8","0.2","","","","","","","","","","74","J","0","img/none_selected_demo.jpg","true","0","80_20_practice"
"","bandit","29","147644","0.0-20.0-8.0","36961399","wem/bandit_double","A23KAJRDVCVGOE","both","6","3","525","","","","","","","0","0","1","0.2","0","","","","","0","0","","","0.8","0.2","","","","","","","","","","75","K","1","","true","0","80_20_practice"
"","bandit","30","149450","0.0-20.0-9.0","36961399","wem/bandit_double","A23KAJRDVCVGOE","both","6","3","283","","","","","","","1","0","0","0.8","0","","","","","0","0","","","0.8","0.2","","","","","","","","","","74","J","0","img/none_selected_demo.jpg","true","0","80_20_practice"
"","bandit","31","151271","0.0-20.0-10.0","36961399","wem/bandit_double","A23KAJRDVCVGOE","both","6","3","302","","","","","","","1","0","0","0.8","0","","","","","0","0","","","0.8","0.2","","","","","","","","","","74","J","0","img/none_selected_demo.jpg","true","0","80_20_practice"
"","bandit","32","153120","0.0-20.0-11.0","36961399","wem/bandit_double","A23KAJRDVCVGOE","both","6","3","336","","","","","","","1","0","0","0.8","0","","","","","0","0","","","0.8","0.2","","","","","","","","","","74","J","0","img/none_selected_demo.jpg","true","0","80_20_practice"
"","bandit","33","154774","0.0-20.0-12.0","36961399","wem/bandit_double","A23KAJRDVCVGOE","both","6","3","135","","","","","","","1","0","0","0.8","0","","","","","0","0","","","0.8","0.2","","","","","","","","","","74","J","0","img/none_selected_demo.jpg","true","0","80_20_practice"
"","bandit","34","156579","0.0-20.0-13.0","36961399","wem/bandit_double","A23KAJRDVCVGOE","both","6","3","290","","","","","","","1","0","0","0.8","0","","","","","0","0","","","0.8","0.2","","","","","","","","","","74","J","0","img/none_selected_demo.jpg","true","0","80_20_practice"
"","bandit","35","158820","0.0-20.0-14.0","36961399","wem/bandit_double","A23KAJRDVCVGOE","both","6","3","724","","","","","","","0","0","1","0.8","0","","","","","0","0","","","0.8","0.2","","","","","","","","","","74","J","0","img/none_selected_demo.jpg","true","0","80_20_practice"
"","bandit","36","160853","0.0-20.0-15.0","36961399","wem/bandit_double","A23KAJRDVCVGOE","both","6","3","519","","","","","","","0","0","1","0.2","0","","","","","0","0","","","0.8","0.2","","","","","","","","","","75","K","1","","true","0","80_20_practice"
"","bandit","37","162688","0.0-20.0-16.0","36961399","wem/bandit_double","A23KAJRDVCVGOE","both","6","3","319","","","","","","","1","0","0","0.8","0","","","","","0","0","","","0.8","0.2","","","","","","","","","","74","J","0","img/none_selected_demo.jpg","true","0","80_20_practice"
"","bandit","38","164738","0.0-20.0-17.0","36961399","wem/bandit_double","A23KAJRDVCVGOE","both","6","3","530","","","","","","","1","0","0","0.8","0","","","","","0","0","","","0.8","0.2","","","","","","","","","","74","J","0","img/none_selected_demo.jpg","true","0","80_20_practice"
"","bandit","39","166586","0.0-20.0-18.0","36961399","wem/bandit_double","A23KAJRDVCVGOE","both","6","3","331","","","","","","","1","0","0","0.8","0","","","","","0","0","","","0.8","0.2","","","","","","","","","","74","J","0","img/none_selected_demo.jpg","true","0","80_20_practice"
"","bandit","40","168741","0.0-20.0-19.0","36961399","wem/bandit_double","A23KAJRDVCVGOE","both","6","3","639","","","","","","","1","0","0","0.8","0","","","","","0","0","","","0.8","0.2","","","","","","","","","","74","J","0","img/none_selected_demo.jpg","true","0","80_20_practice"
"","text","41","176736","0.0-21.0","36961399","wem/bandit_double","A23KAJRDVCVGOE","both","6","3","7986","","32","","","","","","","","","","","","","","","","","","","","","","","","","","","","","","","","","","",""
"","bandit","42","179061","0.0-22.0-0.0","36961399","wem/bandit_double","A23KAJRDVCVGOE","both","6","3","765","","","","","","","1","0","0","1","0","","","","","0","1","","","1","0","","","","","","","","","","74","J","0","img/none_selected_demo.jpg","true","0",""
"","text","43","193055","0.0-23.0","36961399","wem/bandit_double","A23KAJRDVCVGOE","both","6","3","13989","","74","","","","","","","","","","","","","","","","","","","","","","","","","","","","","","","","","","",""
"","text","44","199680","0.0-24.0","36961399","wem/bandit_double","A23KAJRDVCVGOE","both","6","3","6618","","32","","","","","","","","","","","","","","","","","","","","","","","","","","","","","","","","","","",""
"","text","45","201697","0.0-25.0","36961399","wem/bandit_double","A23KAJRDVCVGOE","both","6","3","2012","","32","","","","","","","","","","","","","","","","","","","","","","","","","","","","","","","","","","",""
"","text","46","204622","0.0-26.0","36961399","wem/bandit_double","A23KAJRDVCVGOE","both","6","3","2920","","32","","","","","","","","","","","","","","","","","","","","","","","","","","","","","","","","","","",""
"","text","47","207610","0.0-27.0","36961399","wem/bandit_double","A23KAJRDVCVGOE","both","6","3","2983","","32","","","","","","","","","","","","","","","","","","","","","","","","","","","","","","","","","","",""
"","text","48","208963","0.0-28.0","36961399","wem/bandit_double","A23KAJRDVCVGOE","both","6","3","1348","","32","","","","","","","","","","","","","","","","","","","","","","","","","","","","","","","","","","",""
"","text","49","212103","0.0-29.0","36961399","wem/bandit_double","A23KAJRDVCVGOE","both","6","3","3134","","32","","","","","","","","","","","","","","","","","","","","","","","","","","","","","","","","","","",""
"","text","50","215651","0.0-30.0","36961399","wem/bandit_double","A23KAJRDVCVGOE","both","6","3","3541","","32","","","","","","","","","","","","","","","","","","","","","","","","","","","","","","","","","","",""
"","text","51","219054","0.0-31.0","36961399","wem/bandit_double","A23KAJRDVCVGOE","both","6","3","3399","","32","","","","","","","","","","","","","","","","","","","","","","","","","","","","","","","","","","",""
"","text","52","222155","0.0-32.0","36961399","wem/bandit_double","A23KAJRDVCVGOE","both","6","3","3095","","32","","","","","","","","","","","","","","","","","","","","","","","","","","","","","","","","","","",""
"","text","53","223207","0.0-33.0","36961399","wem/bandit_double","A23KAJRDVCVGOE","both","6","3","1044","","32","","","","","","","","","","","","","","","","","","","","","","","","","","","","","","","","","","",""
"","text","54","225104","0.0-34.0","36961399","wem/bandit_double","A23KAJRDVCVGOE","both","6","3","1889","","32","","","","","","","","","","","","","","","","","","","","","","","","","","","","","","","","","","",""
"","bandit","55","228372","0.0-35.0-0.0","36961399","wem/bandit_double","A23KAJRDVCVGOE","both","6","3","1753","","","","","","","1","1","0","0.6","0.6","","","","","0.8","0.2","0.6","0.2","0.8","0.2","0.6","0.2","","","","","","","","75","K","2","","true","0","full_practice"
"","bandit","56","230078","0.0-35.0-1.0","36961399","wem/bandit_double","A23KAJRDVCVGOE","both","6","3","178","","","","","","","0","1","0","0.2","0.2","","","","","0.8","0.2","0.6","0.2","0.8","0.2","0.6","0.2","","","","","","","","74","J","1","","true","0","full_practice"
"","bandit","57","234153","0.0-35.0-2.0","36961399","wem/bandit_double","A23KAJRDVCVGOE","both","6","3","2530","","","","","","","1","1","0","0.8","0.8","","","","","0.8","0.2","0.6","0.2","0.8","0.2","0.6","0.2","","","","","","","","72","H","0","img/none_selected.jpg","true","0","full_practice"
"","bandit","58","236247","0.0-35.0-3.0","36961399","wem/bandit_double","A23KAJRDVCVGOE","both","6","3","578","","","","","","","1","1","0","0.8","0.8","","","","","0.8","0.2","0.6","0.2","0.8","0.2","0.6","0.2","","","","","","","","72","H","0","img/none_selected.jpg","true","0","full_practice"
"","bandit","59","238358","0.0-35.0-4.0","36961399","wem/bandit_double","A23KAJRDVCVGOE","both","6","3","594","","","","","","","1","1","0","0.8","0.8","","","","","0.8","0.2","0.6","0.2","0.8","0.2","0.6","0.2","","","","","","","","72","H","0","img/none_selected.jpg","true","0","full_practice"
"","bandit","60","240380","0.0-35.0-5.0","36961399","wem/bandit_double","A23KAJRDVCVGOE","both","6","3","503","","","","","","","0","1","0","0.8","0.8","","","","","0.8","0.2","0.6","0.2","0.8","0.2","0.6","0.2","","","","","","","","72","H","0","img/none_selected.jpg","true","0","full_practice"
"","bandit","61","242947","0.0-35.0-6.0","36961399","wem/bandit_double","A23KAJRDVCVGOE","both","6","3","1050","","","","","","","0","0","1","0.2","0.2","","","","","0.8","0.2","0.6","0.2","0.8","0.2","0.6","0.2","","","","","","","","76","L","3","","true","0","full_practice"
"","bandit","62","245040","0.0-35.0-7.0","36961399","wem/bandit_double","A23KAJRDVCVGOE","both","6","3","579","","","","","","","1","0","0","0.2","0.2","","","","","0.8","0.2","0.6","0.2","0.8","0.2","0.6","0.2","","","","","","","","76","L","3","","true","0","full_practice"
"","bandit","63","248378","0.0-35.0-8.0","36961399","wem/bandit_double","A23KAJRDVCVGOE","both","6","3","1817","","","","","","","0","0","1","0.2","0.2","","","","","0.8","0.2","0.6","0.2","0.8","0.2","0.6","0.2","","","","","","","","74","J","1","","true","0","full_practice"
"","bandit","64","250469","0.0-35.0-9.0","36961399","wem/bandit_double","A23KAJRDVCVGOE","both","6","3","575","","","","","","","1","1","0","0.8","0.8","","","","","0.8","0.2","0.6","0.2","0.8","0.2","0.6","0.2","","","","","","","","72","H","0","img/none_selected.jpg","true","0","full_practice"
"","bandit","65","253575","0.0-35.0-10.0","36961399","wem/bandit_double","A23KAJRDVCVGOE","both","6","3","1584","","","","","","","0","0","1","0.2","0.2","","","","","0.8","0.2","0.6","0.2","0.8","0.2","0.6","0.2","","","","","","","","74","J","1","","true","0","full_practice"
"","bandit","66","257389","0.0-35.0-11.0","36961399","wem/bandit_double","A23KAJRDVCVGOE","both","6","3","2297","","","","","","","1","1","0","0.6","0.6","","","","","0.8","0.2","0.6","0.2","0.8","0.2","0.6","0.2","","","","","","","","75","K","2","","true","0","full_practice"
"","bandit","67","260377","0.0-35.0-12.0","36961399","wem/bandit_double","A23KAJRDVCVGOE","both","6","3","1472","","","","","","","1","1","0","0.6","0.6","","","","","0.8","0.2","0.6","0.2","0.8","0.2","0.6","0.2","","","","","","","","75","K","2","","true","0","full_practice"
"","bandit","68","266926","0.0-35.0-13.0","36961399","wem/bandit_double","A23KAJRDVCVGOE","both","6","3","5029","","","","","","","1","1","0","0.6","0.6","","","","","0.8","0.2","0.6","0.2","0.8","0.2","0.6","0.2","","","","","","","","75","K","2","","true","0","full_practice"
"","bandit","69","269170","0.0-35.0-14.0","36961399","wem/bandit_double","A23KAJRDVCVGOE","both","6","3","725","","","","","","","0","0","1","0.2","0.2","","","","","0.8","0.2","0.6","0.2","0.8","0.2","0.6","0.2","","","","","","","","76","L","3","","true","0","full_practice"
"","bandit","70","273660","0.0-35.0-15.0","36961399","wem/bandit_double","A23KAJRDVCVGOE","both","6","3","2973","","","","","","","1","0","0","0.2","0.2","","","","","0.8","0.2","0.6","0.2","0.8","0.2","0.6","0.2","","","","","","","","76","L","3","","true","0","full_practice"
"","bandit","71","275598","0.0-35.0-16.0","36961399","wem/bandit_double","A23KAJRDVCVGOE","both","6","3","379","","","","","","","0","1","0","0.6","0.6","","","","","0.8","0.2","0.6","0.2","0.8","0.2","0.6","0.2","","","","","","","","75","K","2","","true","0","full_practice"
"","bandit","72","277377","0.0-35.0-17.0","36961399","wem/bandit_double","A23KAJRDVCVGOE","both","6","3","264","","","","","","","0","0","1","0.2","0.2","","","","","0.8","0.2","0.6","0.2","0.8","0.2","0.6","0.2","","","","","","","","74","J","1","","true","0","full_practice"
"","bandit","73","279100","0.0-35.0-18.0","36961399","wem/bandit_double","A23KAJRDVCVGOE","both","6","3","207","","","","","","","1","1","0","0.8","0.8","","","","","0.8","0.2","0.6","0.2","0.8","0.2","0.6","0.2","","","","","","","","72","H","0","img/none_selected.jpg","true","0","full_practice"
"","bandit","74","280875","0.0-35.0-19.0","36961399","wem/bandit_double","A23KAJRDVCVGOE","both","6","3","259","","","","","","","1","1","0","0.8","0.8","","","","","0.8","0.2","0.6","0.2","0.8","0.2","0.6","0.2","","","","","","","","72","H","0","img/none_selected.jpg","true","0","full_practice"
"","text","75","287949","0.0-36.0","36961399","wem/bandit_double","A23KAJRDVCVGOE","both","6","3","7058","","32","","","","","","","","","","","","","","","","","","","","","","","","","","","","","","","","","","",""
"","text","76","302172","0.0-37.0","36961399","wem/bandit_double","A23KAJRDVCVGOE","both","6","3","13214","","32","","","","","","","","","","","","","","","","","","","","","","","","","","","","","","","","","","",""
"","text","77","303697","0.0-38.0","36961399","wem/bandit_double","A23KAJRDVCVGOE","both","6","3","1518","","32","","","","","","","","","","","","","","","","","","","","","","","","","","","","","","","","","","",""
"","text","78","306670","0.0-39.0","36961399","wem/bandit_double","A23KAJRDVCVGOE","both","6","3","2966","","32","","","","","","","","","","","","","","","","","","","","","","","","","","","","","","","","","","",""
"","text","79","311301","0.0-40.0","36961399","wem/bandit_double","A23KAJRDVCVGOE","both","6","3","4625","","32","","","","","","","","","","","","","","","","","","","","","","","","","","","","","","","","","","",""
"","bandit","80","313816","0.0-41.0-0.0","36961399","wem/bandit_double","A23KAJRDVCVGOE","both","6","3","998","","","","","","","0","1","0","0.06094066238","0.4870892339","","","","","0.4870892339","0.07685641067","0.1646489015","0.1426046982","0.06094066238","0.1734470434","0.4656478179","0.1720655487","","","","","","","","72","H","0","img/none_selected.jpg","","1","main_expt"
"","bandit","81","315354","0.0-42.0-0.0","36961399","wem/bandit_double","A23KAJRDVCVGOE","both","6","3","22","","","","","","","1","0","0","0.1582158198","0.08388143876","","","","","0.4875162112","0.08388143876","0.2180431119","0.1597004976","0.04941180107","0.1582158198","0.4661883906","0.1607886358","","","","","","","","74","J","1","","","2","main_expt"
"","bandit","82","317088","0.0-43.0-0.0","36961399","wem/bandit_double","A23KAJRDVCVGOE","both","6","3","194","","","","","","","0","0","1","0.1264016625","0.06528774038","","","","","0.4909945117","0.06528774038","0.2294217256","0.1381850853","0.09066711981","0.1264016625","0.4608397999","0.1825924006","","","","","","","","74","J","1","","","3","main_expt"
"","bandit","83","319887","0.0-44.0-0.0","36961399","wem/bandit_double","A23KAJRDVCVGOE","both","6","3","1280","","","","","","","0","0","1","0.4568511376","0.2162119515","","","","","0.482579304","0.07987899881","0.2162119515","0.1787932262","0.07815644495","0.1212924903","0.4568511376","0.1572982515","","","","","","","","75","K","2","","","4","main_expt"
"","bandit","84","321832","0.0-45.0-0.0","36961399","wem/bandit_double","A23KAJRDVCVGOE","both","6","3","428","","","","","","","0","0","1","0.1873501432","0.1795032464","","","","","0.4887913002","0.0432391811","0.2246316054","0.1795032464","0.06547040057","0.1603104869","0.4576747282","0.1873501432","","","","","","","","76","L","3","","","5","main_expt"
"","bandit","85","323787","0.0-46.0-0.0","36961399","wem/bandit_double","A23KAJRDVCVGOE","both","6","3","440","","","","","","","0","0","1","0.1916070739","0.03467601655","","","","","0.4887860333","0.03467601655","0.2061018479","0.164375756","0.09500806419","0.1916070739","0.4673201091","0.1484719509","","","","","","","","74","J","1","","","6","main_expt"
"","bandit","86","325588","0.0-47.0-0.0","36961399","wem/bandit_double","A23KAJRDVCVGOE","both","6","3","281","","","","","","","0","1","0","0.1156714339","0.4901971563","","","","","0.4901971563","0.05033951668","0.1795347326","0.204957223","0.1156714339","0.1624213819","0.4671816856","0.1368680622","","","","","","","","72","H","0","img/none_selected.jpg","","7","main_expt"
"","bandit","87","327443","0.0-48.0-0.0","36961399","wem/bandit_double","A23KAJRDVCVGOE","both","6","3","314","","","","","","","0","0","1","0.1529627983","0.07676355645","","","","","0.4862230721","0.07676355645","0.1290452752","0.2162036531","0.08939878806","0.1529627983","0.4577650209","0.1412197478","","","","","","","","74","J","1","","","8","main_expt"
"","bandit","88","329231","0.0-49.0-0.0","36961399","wem/bandit_double","A23KAJRDVCVGOE","both","6","3","269","","","","","","","0","1","0","0.1285241668","0.2167418122","","","","","0.4759730645","0.08620859221","0.1559184374","0.2167418122","0.1379609943","0.1638779","0.4538037209","0.1285241668","","","","","","","","76","L","3","","","9","main_expt"
"","bandit","89","330981","0.0-50.0-0.0","36961399","wem/bandit_double","A23KAJRDVCVGOE","both","6","3","229","","","","","","","1","1","0","0.4567906288","0.1381514788","","","","","0.4560980466","0.1103839657","0.1381514788","0.1607923637","0.08892925829","0.1682184418","0.4567906288","0.1137500729","","","","","","","","75","K","2","","","10","main_expt"
"","bandit","90","332744","0.0-51.0-0.0","36961399","wem/bandit_double","A23KAJRDVCVGOE","both","6","3","242","","","","","","","0","0","1","0.4707556997","0.1271140015","","","","","0.4775116046","0.1334948588","0.1271140015","0.1386410957","0.1053961985","0.1511948373","0.4707556997","0.1134058804","","","","","","","","75","K","2","","","11","main_expt"
"","bandit","91","334486","0.0-52.0-0.0","36961399","wem/bandit_double","A23KAJRDVCVGOE","both","6","3","219","","","","","","","1","0","0","0.4534589675","0.1854664659","","","","","0.4705073552","0.1535602519","0.1854664659","0.1718380738","0.1267534428","0.2144966391","0.4534589675","0.1358134986","","","","","","","","75","K","2","","","12","main_expt"
"","bandit","92","336389","0.0-53.0-0.0","36961399","wem/bandit_double","A23KAJRDVCVGOE","both","6","3","255","","","","","","","0","0","1","0.4474824422","0.1869952656","","","","","0.4851887342","0.127854239","0.1869952656","0.1686303413","0.1179877152","0.1443049275","0.4474824422","0.1105925571","","","","","","","","75","K","2","","","13","main_expt"
"","bandit","93","338215","0.0-54.0-0.0","36961399","wem/bandit_double","A23KAJRDVCVGOE","both","6","3","266","","","","","","","1","0","0","0.4125602811","0.2035171393","","","","","0.4731273917","0.1507911491","0.2035171393","0.1460019496","0.1300626215","0.149160688","0.4125602811","0.09057326494","","","","","","","","75","K","2","","","14","main_expt"
"","bandit","94","340131","0.0-55.0-0.0","36961399","wem/bandit_double","A23KAJRDVCVGOE","both","6","3","364","","","","","","","0","0","1","0.3715785473","0.2800299461","","","","","0.4585867004","0.1741212098","0.2800299461","0.1667614464","0.1129073675","0.1525333278","0.3715785473","0.05963436345","","","","","","","","75","K","2","","","15","main_expt"
"","bandit","95","341796","0.0-56.0-0.0","36961399","wem/bandit_double","A23KAJRDVCVGOE","both","6","3","148","","","","","","","0","1","0","0.1437253933","0.1918308831","","","","","0.4366533258","0.1918308831","0.2725454461","0.1973644546","0.1132840383","0.1437253933","0.3670357029","0.03970917029","","","","","","","","74","J","1","","","16","main_expt"
"","bandit","96","343753","0.0-57.0-0.0","36961399","wem/bandit_double","A23KAJRDVCVGOE","both","6","3","441","","","","","","","0","0","1","0.1530786807","0.4405228744","","","","","0.4405228744","0.1950212473","0.1570621471","0.1873415792","0.1530786807","0.1191274054","0.333794799","0.03301664506","","","","","","","","72","H","0","img/none_selected.jpg","","17","main_expt"
"","bandit","97","345570","0.0-58.0-0.0","36961399","wem/bandit_double","A23KAJRDVCVGOE","both","6","3","237","","","","","","","0","0","1","0.0325619","0.1875860444","","","","","0.4678551263","0.2094813194","0.1968188506","0.1875860444","0.1367655081","0.1231388663","0.3720862831","0.0325619","","","","","","","","76","L","3","","","18","main_expt"
"","bandit","98","348284","0.0-59.0-0.0","36961399","wem/bandit_double","A23KAJRDVCVGOE","both","6","3","1010","","","","","","","0","1","0","0.1014962652","0.2628959394","","","","","0.466140525","0.2628959394","0.2439518204","0.1988439388","0.1519969922","0.1014962652","0.3940248177","0.05136562407","","","","","","","","74","J","1","","","19","main_expt"
"","bandit","99","349837","0.0-60.0-0.0","36961399","wem/bandit_double","A23KAJRDVCVGOE","both","6","3","22","","","","","","","0","0","1","0.3980303587","0.2806117898","","","","","0.4094087999","0.2116504525","0.2806117898","0.1813993393","0.2344823222","0.1184271466","0.3980303587","0.05620034239","","","","","","","","75","K","2","","","20","main_expt"
"","bandit","100","351716","0.0-61.0-0.0","36961399","wem/bandit_double","A23KAJRDVCVGOE","both","6","3","362","","","","","","","0","0","1","0.04865895453","0.2012004452","","","","","0.4386974508","0.1904426465","0.2658005831","0.2012004452","0.2227593861","0.1434190777","0.405953395","0.04865895453","","","","","","","","76","L","3","","","21","main_expt"
"","bandit","101","353636","0.0-62.0-0.0","36961399","wem/bandit_double","A23KAJRDVCVGOE","both","6","3","313","","","","","","","0","0","1","0.1831098024","0.4505723784","","","","","0.4505723784","0.1581796968","0.2774390086","0.1958646163","0.1831098024","0.1323354157","0.37898799","0.05276066643","","","","","","","","72","H","0","img/none_selected.jpg","","22","main_expt"
"","bandit","102","355190","0.0-63.0-0.0","36961399","wem/bandit_double","A23KAJRDVCVGOE","both","6","3","16","","","","","","","1","0","0","0.1384191998","0.2039009352","","","","","0.4568000239","0.2039009352","0.2795917474","0.2626819079","0.1660310818","0.1384191998","0.3661255489","0.05284133488","","","","","","","","74","J","1","","","23","main_expt"
"","bandit","103","356966","0.0-64.0-0.0","36961399","wem/bandit_double","A23KAJRDVCVGOE","both","6","3","260","","","","","","","0","0","1","0.1395593146","0.228339491","","","","","0.4518339256","0.228339491","0.2981059477","0.2906682881","0.1400827643","0.1395593146","0.3576379461","0.0333904923","","","","","","","","74","J","1","","","24","main_expt"
"","bandit","104","358767","0.0-65.0-0.0","36961399","wem/bandit_double","A23KAJRDVCVGOE","both","6","3","281","","","","","","","0","0","1","0.1696236693","0.2602465224","","","","","0.4120159309","0.2602465224","0.3272059922","0.3270173502","0.2022937807","0.1696236693","0.3346121782","0.04666446392","","","","","","","","74","J","1","","","25","main_expt"
"","bandit","105","360409","0.0-66.0-0.0","36961399","wem/bandit_double","A23KAJRDVCVGOE","both","6","3","124","","","","","","","1","0","0","0.3790434843","0.3369826645","","","","","0.4134154185","0.1939420306","0.3369826645","0.2951289915","0.1725383963","0.1754084838","0.3790434843","0.04067930801","","","","","","","","75","K","2","","","26","main_expt"
"","bandit","106","362241","0.0-67.0-0.0","36961399","wem/bandit_double","A23KAJRDVCVGOE","both","6","3","312","","","","","","","0","0","1","0.3744762435","0.2531212506","","","","","0.4031068294","0.2387331149","0.2531212506","0.3520126272","0.1735642386","0.118483546","0.3744762435","0.03070036018","","","","","","","","75","K","2","","","27","main_expt"
"","bandit","107","364068","0.0-68.0-0.0","36961399","wem/bandit_double","A23KAJRDVCVGOE","both","6","3","308","","","","","","","0","0","1","0.02292460278","0.3369287003","","","","","0.4305883772","0.2183458617","0.2170461037","0.3369287003","0.149532802","0.1259847853","0.3650769418","0.02292460278","","","","","","","","76","L","3","","","28","main_expt"
"","bandit","108","366177","0.0-69.0-0.0","36961399","wem/bandit_double","A23KAJRDVCVGOE","both","6","3","530","","","","","","","0","0","1","0.3299345172","0.2346211465","","","","","0.4383329838","0.2151501268","0.2346211465","0.3591799128","0.1597785082","0.1072727049","0.3299345172","0.03476379039","","","","","","","","75","K","2","","","29","main_expt"
"","bandit","109","367959","0.0-70.0-0.0","36961399","wem/bandit_double","A23KAJRDVCVGOE","both","6","3","264","","","","","","","0","0","1","0.07952930744","0.2267233056","","","","","0.4233276099","0.2267233056","0.2450860663","0.3324285477","0.1978771271","0.07952930744","0.3010095271","0.04211589453","","","","","","","","74","J","1","","","30","main_expt"
"","bandit","110","369720","0.0-71.0-0.0","36961399","wem/bandit_double","A23KAJRDVCVGOE","both","6","3","243","","","","","","","0","1","0","0.1928768267","0.4016185005","","","","","0.4016185005","0.2663701676","0.2141169407","0.327032362","0.1928768267","0.09691030242","0.331530841","0.04495483672","","","","","","","","72","H","0","img/none_selected.jpg","","31","main_expt"
"","bandit","111","374822","0.0-72.0-0.0","36961399","wem/bandit_double","A23KAJRDVCVGOE","both","6","3","3582","","","","","","","0","0","1","0.1338720944","0.275969473","","","","","0.4134940178","0.275969473","0.2347854155","0.3230905041","0.1511047494","0.1338720944","0.3469043085","0.04126869591","","","","","","","","74","J","1","","","32","main_expt"
"","bandit","112","376738","0.0-73.0-0.0","36961399","wem/bandit_double","A23KAJRDVCVGOE","both","6","3","396","","","","","","","1","0","0","0.02396570111","0.2969008969","","","","","0.4331174495","0.3365270118","0.246596708","0.2969008969","0.09247049486","0.1428203538","0.2778139242","0.02396570111","","","","","","","","76","L","3","","","33","main_expt"
"","bandit","113","378602","0.0-74.0-0.0","36961399","wem/bandit_double","A23KAJRDVCVGOE","both","6","3","259","","","","","","","0","0","1","0.03561151332","0.2536392951","","","","","0.4454497031","0.2916301021","0.1914370393","0.2536392951","0.1127946788","0.1258169527","0.236883459","0.03561151332","","","","","","","","76","L","3","","","34","main_expt"
"","bandit","114","380885","0.0-75.0-0.0","36961399","wem/bandit_double","A23KAJRDVCVGOE","both","6","3","764","","","","","","","0","0","1","0.1279928094","0.4419706984","","","","","0.4419706984","0.3236538836","0.1408207185","0.2336030597","0.1279928094","0.1652362889","0.2656196476","0.04565222073","","","","","","","","72","H","0","img/none_selected.jpg","","35","main_expt"
"","bandit","115","382840","0.0-76.0-0.0","36961399","wem/bandit_double","A23KAJRDVCVGOE","both","6","3","437","","","","","","","0","0","1","0.1472348388","0.3317439785","","","","","0.4205940312","0.3317439785","0.09539735145","0.3110392291","0.09285608896","0.1472348388","0.2309028503","0.05036449293","","","","","","","","74","J","1","","","36","main_expt"
"","bandit","116","384671","0.0-77.0-0.0","36961399","wem/bandit_double","A23KAJRDVCVGOE","both","6","3","296","","","","","","","0","1","0","0.1961267878","0.08867332122","","","","","0.4227305347","0.3620900841","0.08867332122","0.3354302382","0.1251507517","0.20581188","0.1961267878","0.04764774511","","","","","","","","75","K","2","","","37","main_expt"
"","bandit","117","386445","0.0-78.0-0.0","36961399","wem/bandit_double","A23KAJRDVCVGOE","both","6","3","253","","","","","","","0","0","1","0.04692466818","0.3359947902","","","","","0.3904174821","0.3649119955","0.0804097964","0.3359947902","0.1248439258","0.2096070571","0.2197692452","0.04692466818","","","","","","","","76","L","3","","","38","main_expt"
"","bandit","118","388194","0.0-79.0-0.0","36961399","wem/bandit_double","A23KAJRDVCVGOE","both","6","3","231","","","","","","","0","0","1","0.1783178102","0.1092906338","","","","","0.3704092514","0.3993258453","0.1092906338","0.3719467902","0.1192858938","0.1888903691","0.1783178102","0.06150360576","","","","","","","","75","K","2","","","39","main_expt"
"","bandit","119","389975","0.0-80.0-0.0","36961399","wem/bandit_double","A23KAJRDVCVGOE","both","6","3","261","","","","","","","0","1","0","0.1025324214","0.37180955","","","","","0.3250394812","0.43145226","0.08771014895","0.37180955","0.1457630933","0.1769314034","0.1354267005","0.1025324214","","","","","","","","76","L","3","","","40","main_expt"
"","bandit","120","391682","0.0-81.0-0.0","36961399","wem/bandit_double","A23KAJRDVCVGOE","both","6","3","185","","","","","","","0","0","1","0.1788887836","0.3633775572","","","","","0.3633775572","0.3925837484","0.1065106481","0.3972707938","0.1788887836","0.1764673912","0.1307301687","0.1278282258","","","","","","","","72","H","0","img/none_selected.jpg","","41","main_expt"
"","bandit","121","393333","0.0-82.0-0.0","36961399","wem/bandit_double","A23KAJRDVCVGOE","both","6","3","115","","","","","","","0","1","0","0.1164002711","0.4020613291","","","","","0.3708570881","0.4020613291","0.0926848955","0.3981555674","0.1550439797","0.1164002711","0.1002459791","0.1144783829","","","","","","","","74","J","1","","","42","main_expt"
"","bandit","122","394898","0.0-83.0-0.0","36961399","wem/bandit_double","A23KAJRDVCVGOE","both","6","3","41","","","","","","","0","0","1","0.06131682752","0.09213729174","","","","","0.3852030547","0.4199094288","0.09213729174","0.3698022864","0.1624336935","0.1248357276","0.06131682752","0.148274456","","","","","","","","75","K","2","","","43","main_expt"
"","bandit","123","396430","0.0-84.0-0.0","36961399","wem/bandit_double","A23KAJRDVCVGOE","both","6","3","7","","","","","","","0","1","0","0.1733993608","0.3278340923","","","","","0.3653477133","0.4362917367","0.0950319608","0.3278340923","0.2610419313","0.1801883524","0.05757194937","0.1733993608","","","","","","","","76","L","3","","","44","main_expt"
"","bandit","124","398221","0.0-85.0-0.0","36961399","wem/bandit_double","A23KAJRDVCVGOE","both","6","3","219","","","","","","","0","0","1","0.2547096211","0.3423722135","","","","","0.3423722135","0.4310393502","0.07917944011","0.4004869948","0.2547096211","0.1536252234","0.06317169253","0.1731137141","","","","","","","","72","H","0","img/none_selected.jpg","","45","main_expt"
"","bandit","125","400144","0.0-86.0-0.0","36961399","wem/bandit_double","A23KAJRDVCVGOE","both","6","3","406","","","","","","","0","0","1","0.2690630982","0.2713785315","","","","","0.2713785315","0.4301719659","0.08528552535","0.4389658195","0.2690630982","0.1453657368","0.08604650327","0.2577534017","","","","","","","","72","H","0","img/none_selected.jpg","","46","main_expt"
"","bandit","126","401878","0.0-87.0-0.0","36961399","wem/bandit_double","A23KAJRDVCVGOE","both","6","3","215","","","","","","","0","1","0","0.1163474927","0.4274268526","","","","","0.2675382036","0.4274268526","0.08303267599","0.4294918489","0.2613787364","0.1163474927","0.07503215105","0.2436059896","","","","","","","","74","J","1","","","47","main_expt"
"","bandit","127","403764","0.0-88.0-0.0","36961399","wem/bandit_double","A23KAJRDVCVGOE","both","6","3","364","","","","","","","0","1","0","0.261356988","0.3948346084","","","","","0.3006553151","0.4559220927","0.1183490009","0.3948346084","0.2764851171","0.1187671899","0.09661626413","0.261356988","","","","","","","","76","L","3","","","48","main_expt"
"","bandit","128","405579","0.0-89.0-0.0","36961399","wem/bandit_double","A23KAJRDVCVGOE","both","6","3","257","","","","","","","0","0","1","0.141419135","0.09831357925","","","","","0.2865645246","0.4362936898","0.09831357925","0.4226663974","0.2628846066","0.1321787199","0.141419135","0.2707362224","","","","","","","","75","K","2","","","49","main_expt"
"","bandit","129","407346","0.0-90.0-0.0","36961399","wem/bandit_double","A23KAJRDVCVGOE","both","6","3","250","","","","","","","0","0","1","0.1341637883","0.0896163698","","","","","0.2842330123","0.4001593617","0.0896163698","0.3943232949","0.3634831931","0.1310663867","0.1341637883","0.2733601765","","","","","","","","75","K","2","","","50","main_expt"
"","bandit","130","408944","0.0-91.0-0.0","36961399","wem/bandit_double","A23KAJRDVCVGOE","both","6","3","78","","","","","","","0","0","1","0.1450472339","0.3737598101","","","","","0.2933637591","0.3737598101","0.08239790895","0.3911898034","0.3771608335","0.1450472339","0.1225974466","0.2590969561","","","","","","","","74","J","1","","","51","main_expt"
"","bandit","131","410912","0.0-92.0-0.0","36961399","wem/bandit_double","A23KAJRDVCVGOE","both","6","3","446","","","","","","","0","0","1","0.3093307572","0.2802127762","","","","","0.2802127762","0.3490564905","0.06509061927","0.3897106723","0.3093307572","0.1731775471","0.1145468474","0.2515646212","","","","","","","","72","H","0","img/none_selected.jpg","","52","main_expt"
"","bandit","132","412812","0.0-93.0-0.0","36961399","wem/bandit_double","A23KAJRDVCVGOE","both","6","3","376","","","","","","","0","0","1","0.2257746054","0.3977919118","","","","","0.2567133084","0.3606416198","0.05503049918","0.3977919118","0.2990929044","0.2258016315","0.1059564611","0.2257746054","","","","","","","","76","L","3","","","53","main_expt"
"","bandit","133","414528","0.0-94.0-0.0","36961399","wem/bandit_double","A23KAJRDVCVGOE","both","6","3","195","","","","","","","0","0","1","0.1090017536","0.06606451817","","","","","0.304436262","0.3920172378","0.06606451817","0.3803623479","0.2221679908","0.2172527187","0.1090017536","0.2750925763","","","","","","","","75","K","2","","","54","main_expt"
"","bandit","134","416417","0.0-95.0-0.0","36961399","wem/bandit_double","A23KAJRDVCVGOE","both","6","3","367","","","","","","","0","0","1","0.3608357377","0.3898030924","","","","","0.3050376594","0.3841867886","0.0812436444","0.3898030924","0.1886471815","0.1652356872","0.1249444004","0.3608357377","","","","","","","","76","L","3","","","55","main_expt"
"","bandit","135","418245","0.0-96.0-0.0","36961399","wem/bandit_double","A23KAJRDVCVGOE","both","6","3","297","","","","","","","0","0","1","0.09043885587","0.05752214818","","","","","0.2874076515","0.3752679739","0.05752214818","0.4332266089","0.1973213641","0.1576418272","0.09043885587","0.4022545085","","","","","","","","75","K","2","","","56","main_expt"
"","bandit","136","420049","0.0-97.0-0.0","36961399","wem/bandit_double","A23KAJRDVCVGOE","both","6","3","286","","","","","","","0","0","1","0.180776926","0.3595388075","","","","","0.2633226407","0.3595388075","0.05957573693","0.4598680415","0.2207101474","0.180776926","0.07448640425","0.3867568464","","","","","","","","74","J","1","","","57","main_expt"
"","bandit","137","422181","0.0-98.0-0.0","36961399","wem/bandit_double","A23KAJRDVCVGOE","both","6","3","540","","","","","","","0","0","1","0.2480089655","0.282557186","","","","","0.282557186","0.2926617498","0.08347810371","0.4510058242","0.2480089655","0.1489081552","0.09808879237","0.3840355114","","","","","","","","72","H","0","img/none_selected.jpg","","58","main_expt"
"","bandit","138","424052","0.0-99.0-0.0","36961399","wem/bandit_double","A23KAJRDVCVGOE","both","6","3","350","","","","","","","0","1","0","0.3617876187","0.4587464736","","","","","0.2675679041","0.2854140482","0.1166757522","0.4587464736","0.2667579505","0.125555473","0.0721355853","0.3617876187","","","","","","","","76","L","3","","","59","main_expt"
"","bandit","139","425976","0.0-100.0-0.0","36961399","wem/bandit_double","A23KAJRDVCVGOE","both","6","3","404","","","","","","","0","0","1","0.08871326978","0.1223048521","","","","","0.2654645802","0.2767785787","0.1223048521","0.4534111386","0.2637313595","0.1228814318","0.08871326978","0.3018070945","","","","","","","","75","K","2","","","60","main_expt"
"","bandit","140","427754","0.0-101.0-0.0","36961399","wem/bandit_double","A23KAJRDVCVGOE","both","6","3","259","","","","","","","0","0","1","0.195834737","0.3110110239","","","","","0.2326588137","0.3110110239","0.1341525672","0.4581751116","0.2400462537","0.195834737","0.1472383223","0.2687465691","","","","","","","","74","J","1","","","61","main_expt"
"","bandit","141","429807","0.0-102.0-0.0","36961399","wem/bandit_double","A23KAJRDVCVGOE","both","6","3","536","","","","","","","0","0","1","0.2396546157","0.2430345153","","","","","0.2430345153","0.2739379344","0.1748443247","0.4447189615","0.2396546157","0.1952904108","0.1625866577","0.287622952","","","","","","","","72","H","0","img/none_selected.jpg","","62","main_expt"
"","bandit","142","431837","0.0-103.0-0.0","36961399","wem/bandit_double","A23KAJRDVCVGOE","both","6","3","509","","","","","","","1","0","0","0.2558687718","0.2682261916","","","","","0.2682261916","0.2518438402","0.1872250423","0.4351057758","0.2558687718","0.187392073","0.1196153378","0.2060093557","","","","","","","","72","H","0","img/none_selected.jpg","","63","main_expt"
"","bandit","143","433958","0.0-104.0-0.0","36961399","wem/bandit_double","A23KAJRDVCVGOE","both","6","3","600","","","","","","","0","1","0","0.1789331692","0.3136585585","","","","","0.3136585585","0.216118181","0.1592276408","0.4559228662","0.1789331692","0.1774517964","0.1025290435","0.1865830226","","","","","","","","72","H","0","img/none_selected.jpg","","64","main_expt"
"","bandit","144","435755","0.0-105.0-0.0","36961399","wem/bandit_double","A23KAJRDVCVGOE","both","6","3","273","","","","","","","0","0","1","0.1956590225","0.1961712117","","","","","0.3208042698","0.1961712117","0.1881419285","0.4526438492","0.2041721298","0.1956590225","0.06637487434","0.2242960511","","","","","","","","74","J","1","","","65","main_expt"
"","bandit","145","437599","0.0-106.0-0.0","36961399","wem/bandit_double","A23KAJRDVCVGOE","both","6","3","308","","","","","","","0","1","0","0.213739571","0.4604690516","","","","","0.3550213758","0.1821057022","0.2075830042","0.4604690516","0.1083731131","0.1559932489","0.09888809835","0.213739571","","","","","","","","76","L","3","","","66","main_expt"
"","bandit","146","439358","0.0-107.0-0.0","36961399","wem/bandit_double","A23KAJRDVCVGOE","both","6","3","239","","","","","","","0","0","1","0.08542348091","0.210321401","","","","","0.2883445083","0.2221692745","0.210321401","0.4479534522","0.08148965902","0.1327283285","0.08542348091","0.2463093088","","","","","","","","75","K","2","","","67","main_expt"
"","bandit","147","441018","0.0-108.0-0.0","36961399","wem/bandit_double","A23KAJRDVCVGOE","both","6","3","117","","","","","","","0","1","0","0.1646421129","0.2385328342","","","","","0.2492112051","0.2385328342","0.1740681144","0.4420076102","0.115871946","0.1646421129","0.05648132023","0.1863602012","","","","","","","","74","J","1","","","68","main_expt"
"","bandit","148","442566","0.0-109.0-0.0","36961399","wem/bandit_double","A23KAJRDVCVGOE","both","6","3","21","","","","","","","0","0","1","0.1049465522","0.1725364023","","","","","0.1725364023","0.2693988132","0.1495678232","0.3840886122","0.1049465522","0.1879918005","0.07427448495","0.1481768435","","","","","","","","72","H","0","img/none_selected.jpg","","69","main_expt"
"","bandit","149","444470","0.0-110.0-0.0","36961399","wem/bandit_double","A23KAJRDVCVGOE","both","6","3","386","","","","","","","0","1","0","0.2062415021","0.3764426572","","","","","0.2081322216","0.2633889128","0.1594524764","0.3764426572","0.1224614501","0.1708527721","0.1052870039","0.2062415021","","","","","","","","76","L","3","","","70","main_expt"
"","bandit","150","446361","0.0-111.0-0.0","36961399","wem/bandit_double","A23KAJRDVCVGOE","both","6","3","263","","","","","","","0","0","1","0.1114501371","0.1308665948","","","","","0.2222096595","0.2881785301","0.1308665948","0.3925575972","0.1687358413","0.1930923514","0.1114501371","0.2175562698","","","","","","","","75","K","2","","","71","main_expt"
"","bandit","151","447974","0.0-112.0-0.0","36961399","wem/bandit_double","A23KAJRDVCVGOE","both","6","3","94","","","","","","","0","0","1","0.1282799478","0.1413665491","","","","","0.2276413934","0.3496752211","0.1413665491","0.4055717031","0.1902964731","0.2289396243","0.1282799478","0.2182173038","","","","","","","","75","K","2","","","72","main_expt"
"","bandit","152","449522","0.0-113.0-0.0","36961399","wem/bandit_double","A23KAJRDVCVGOE","both","6","3","25","","","","","","","0","0","1","0.1113050996","0.1562096843","","","","","0.202726327","0.3662649551","0.1562096843","0.4313753627","0.1764690901","0.2223781067","0.1113050996","0.1629952044","","","","","","","","75","K","2","","","73","main_expt"
"","bandit","153","451867","0.0-114.0-0.0","36961399","wem/bandit_double","A23KAJRDVCVGOE","both","6","3","825","","","","","","","0","0","1","0.2291178652","0.4294283137","","","","","0.2465356434","0.3318597218","0.1601549975","0.4294283137","0.1720288853","0.1664819569","0.1573287606","0.2291178652","","","","","","","","76","L","3","","","74","main_expt"
"","bandit","154","453779","0.0-115.0-0.0","36961399","wem/bandit_double","A23KAJRDVCVGOE","both","6","3","388","","","","","","","0","0","1","0.2087405931","0.4114775526","","","","","0.2780880013","0.3129946244","0.1962365409","0.4114775526","0.098780463","0.1157276324","0.168318459","0.2087405931","","","","","","","","76","L","3","","","75","main_expt"
"","bandit","155","456265","0.0-116.0-0.0","36961399","wem/bandit_double","A23KAJRDVCVGOE","both","6","3","966","","","","","","","0","0","1","0.06912044911","0.3299880354","","","","","0.230570622","0.3299880354","0.2315068675","0.4038916894","0.08192786134","0.06912044911","0.131742089","0.1981976751","","","","","","","","74","J","1","","","76","main_expt"
"","bandit","156","458054","0.0-117.0-0.0","36961399","wem/bandit_double","A23KAJRDVCVGOE","both","6","3","265","","","","","","","0","0","1","0.03620126105","0.1747897532","","","","","0.1747897532","0.2704336052","0.1749603823","0.4028298088","0.03620126105","0.06151132513","0.1382621175","0.2302368041","","","","","","","","72","H","0","img/none_selected.jpg","","77","main_expt"
"","bandit","157","460185","0.0-118.0-0.0","36961399","wem/bandit_double","A23KAJRDVCVGOE","both","6","3","603","","","","","","","1","0","0","0.08824794056","0.2489008917","","","","","0.2009150394","0.2489008917","0.2091975686","0.4004321452","0.03362754592","0.08824794056","0.1351161864","0.2538269909","","","","","","","","74","J","1","","","78","main_expt"
"","bandit","158","462102","0.0-119.0-0.0","36961399","wem/bandit_double","A23KAJRDVCVGOE","both","6","3","386","","","","","","","0","1","0","0.08425003046","0.2182462247","","","","","0.2090883318","0.2182462247","0.2699334682","0.3909827091","0.03917851348","0.08425003046","0.1125986002","0.221492582","","","","","","","","74","J","1","","","79","main_expt"
"","bandit","159","463823","0.0-120.0-0.0","36961399","wem/bandit_double","A23KAJRDVCVGOE","both","6","3","203","","","","","","","0","0","1","0.1059393704","0.1591694045","","","","","0.215522018","0.1591694045","0.2712134299","0.4289339141","0.06916691586","0.1059393704","0.1071358869","0.2126184008","","","","","","","","74","J","1","","","80","main_expt"
"","bandit","160","465548","0.0-121.0-0.0","36961399","wem/bandit_double","A23KAJRDVCVGOE","both","6","3","126","","","","","","","1","1","0","0.1110223174","0.2655955182","","","","","0.2655955182","0.1661146317","0.2563236188","0.4256341571","0.1110223174","0.114990546","0.1410751298","0.1803612399","","","","","","","","72","H","0","img/none_selected.jpg","","81","main_expt"
"","bandit","161","467187","0.0-122.0-0.0","36961399","wem/bandit_double","A23KAJRDVCVGOE","both","6","3","119","","","","","","","0","0","1","0.08899533144","0.2642342948","","","","","0.2642342948","0.2249160828","0.2474856626","0.4153375647","0.08899533144","0.1246300745","0.1518454263","0.1883980103","","","","","","","","72","H","0","img/none_selected.jpg","","82","main_expt"
"","bandit","162","468954","0.0-123.0-0.0","36961399","wem/bandit_double","A23KAJRDVCVGOE","both","6","3","248","","","","","","","0","0","1","0.1285150734","0.2338037125","","","","","0.2615040017","0.2194800234","0.2338037125","0.4239102097","0.1383499545","0.1523433176","0.1285150734","0.2099895667","","","","","","","","75","K","2","","","83","main_expt"
"","bandit","163","470933","0.0-124.0-0.0","36961399","wem/bandit_double","A23KAJRDVCVGOE","both","6","3","457","","","","","","","0","0","1","0.1760666055","0.4021041833","","","","","0.3136368113","0.2020024956","0.2929655049","0.4021041833","0.1815119679","0.1230513595","0.1083679187","0.1760666055","","","","","","","","76","L","3","","","84","main_expt"
"","bandit","164","472707","0.0-125.0-0.0","36961399","wem/bandit_double","A23KAJRDVCVGOE","both","6","3","247","","","","","","","0","1","0","0.2121304898","0.2433538552","","","","","0.2433538552","0.1639230135","0.2755572306","0.4322374594","0.2121304898","0.1460595132","0.08985983991","0.2077415988","","","","","","","","72","H","0","img/none_selected.jpg","","85","main_expt"
"","bandit","165","474631","0.0-126.0-0.0","36961399","wem/bandit_double","A23KAJRDVCVGOE","both","6","3","330","","","","","","","0","0","1","0.1578730034","0.1423092638","","","","","0.2583740773","0.1423092638","0.2706615249","0.4247618508","0.1931166697","0.1578730034","0.08377758623","0.1940704576","","","","","","","","74","J","1","","","86","main_expt"
"","bandit","166","476471","0.0-127.0-0.0","36961399","wem/bandit_double","A23KAJRDVCVGOE","both","6","3","315","","","","","","","0","0","1","0.1329566931","0.1623313408","","","","","0.2656778135","0.1623313408","0.3259805539","0.4130492334","0.1908876969","0.1329566931","0.08340742779","0.1920524506","","","","","","","","74","J","1","","","87","main_expt"
"","bandit","167","478247","0.0-128.0-0.0","36961399","wem/bandit_double","A23KAJRDVCVGOE","both","6","3","250","","","","","","","1","0","0","0.1727332377","0.2565525481","","","","","0.2565525481","0.1459946163","0.3471137027","0.3883747858","0.1727332377","0.1156353122","0.06937011617","0.2525081946","","","","","","","","72","H","0","img/none_selected.jpg","","88","main_expt"
"","bandit","168","480044","0.0-129.0-0.0","36961399","wem/bandit_double","A23KAJRDVCVGOE","both","6","3","265","","","","","","","0","0","1","0.1747664758","0.2471999074","","","","","0.2471999074","0.1684807643","0.3715311126","0.3950807547","0.1747664758","0.1169245856","0.08556693901","0.2476280913","","","","","","","","72","H","0","img/none_selected.jpg","","89","main_expt"
"","bandit","169","481834","0.0-130.0-0.0","36961399","wem/bandit_double","A23KAJRDVCVGOE","both","6","3","267","","","","","","","0","0","1","0.2476417222","0.420982679","","","","","0.2204199549","0.1937692241","0.3571728809","0.420982679","0.1302891894","0.1276927611","0.1013294801","0.2476417222","","","","","","","","76","L","3","","","90","main_expt"
"","bandit","170","483486","0.0-131.0-0.0","36961399","wem/bandit_double","A23KAJRDVCVGOE","both","6","3","128","","","","","","","0","1","0","0.1143331172","0.2013548925","","","","","0.2013548925","0.1670397906","0.3348642023","0.4012606491","0.1143331172","0.1633868825","0.1567130635","0.1875867431","","","","","","","","72","H","0","img/none_selected.jpg","","91","main_expt"
"","bandit","171","485295","0.0-132.0-0.0","36961399","wem/bandit_double","A23KAJRDVCVGOE","both","6","3","224","","","","","","","1","0","0","0.1804963823","0.3950870333","","","","","0.174921714","0.1936095216","0.3551195155","0.3950870333","0.1674068059","0.2172033847","0.1214255195","0.1804963823","","","","","","","","76","L","3","","","92","main_expt"
"","bandit","172","486925","0.0-133.0-0.0","36961399","wem/bandit_double","A23KAJRDVCVGOE","both","6","3","96","","","","","","","1","1","0","0.1468121695","0.3797372222","","","","","0.1972058505","0.2399824117","0.3494458231","0.3797372222","0.1405005834","0.2178255547","0.1317465968","0.1468121695","","","","","","","","76","L","3","","","93","main_expt"
"","bandit","173","488659","0.0-134.0-0.0","36961399","wem/bandit_double","A23KAJRDVCVGOE","both","6","3","212","","","","","","","0","0","1","0.1270151289","0.3346339076","","","","","0.2144007407","0.242536602","0.3759818745","0.3346339076","0.1338278818","0.2058786334","0.1810196293","0.1270151289","","","","","","","","76","L","3","","","94","main_expt"
"","bandit","174","490290","0.0-135.0-0.0","36961399","wem/bandit_double","A23KAJRDVCVGOE","both","6","3","24","","","","","","","0","0","1","0.1049494322","0.3433005441","","","","","0.2025691914","0.3081296623","0.3467088588","0.3433005441","0.16416917","0.2009860572","0.1537803575","0.1049494322","","","","","","","","76","L","3","","","95","main_expt"
"","bandit","175","491955","0.0-136.0-0.0","36961399","wem/bandit_double","A23KAJRDVCVGOE","both","6","3","145","","","","","","","1","0","0","0.1242023773","0.2900415689","","","","","0.1750118246","0.371766452","0.3520186383","0.2900415689","0.1075549125","0.2792576191","0.2255368078","0.1242023773","","","","","","","","76","L","3","","","96","main_expt"
"","bandit","176","493718","0.0-137.0-0.0","36961399","wem/bandit_double","A23KAJRDVCVGOE","both","6","3","232","","","","","","","0","0","1","0.101802889","0.3136050561","","","","","0.2433812568","0.3737721809","0.342216001","0.3136050561","0.07285617598","0.291042229","0.1881791955","0.101802889","","","","","","","","76","L","3","","","97","main_expt"
"","bandit","177","495399","0.0-138.0-0.0","36961399","wem/bandit_double","A23KAJRDVCVGOE","both","6","3","158","","","","","","","1","0","0","0.2919937097","0.3662625892","","","","","0.1834100281","0.3662625892","0.3775958225","0.3236610102","0.1128802937","0.2919937097","0.1722186849","0.08559904752","","","","","","","","74","J","1","","","98","main_expt"
"","bandit","178","497058","0.0-139.0-0.0","36961399","wem/bandit_double","A23KAJRDVCVGOE","both","6","3","111","","","","","","","0","0","1","0.338066437","0.3912879072","","","","","0.146161558","0.3912879072","0.3490624926","0.3116662608","0.07338875894","0.338066437","0.2581810796","0.04480153982","","","","","","","","74","J","1","","","99","main_expt"
"","bandit","179","498862","0.0-140.0-0.0","36961399","wem/bandit_double","A23KAJRDVCVGOE","both","6","3","284","","","","","","","0","0","1","0.3094702251","0.3418910903","","","","","0.1186266926","0.3916888764","0.3418910903","0.3806420769","0.06256672301","0.3466775547","0.3094702251","0.03694367041","","","","","","","","75","K","2","","","100","main_expt"
"","bandit","180","500565","0.0-141.0-0.0","36961399","wem/bandit_double","A23KAJRDVCVGOE","both","6","3","184","","","","","","","1","1","0","0.3776837944","0.3803758031","","","","","0.1467879228","0.3803758031","0.3544055354","0.3825052475","0.06765033746","0.3776837944","0.3217449289","0.02534596886","","","","","","","","74","J","1","","","101","main_expt"
"","bandit","181","502248","0.0-142.0-0.0","36961399","wem/bandit_double","A23KAJRDVCVGOE","both","6","3","156","","","","","","","1","1","0","0.3988278911","0.3685266224","","","","","0.1336514036","0.3685266224","0.3580864163","0.3799327693","0.08460413752","0.3988278911","0.3656493725","0.03456503798","","","","","","","","74","J","1","","","102","main_expt"
"","bandit","182","503943","0.0-143.0-0.0","36961399","wem/bandit_double","A23KAJRDVCVGOE","both","6","3","175","","","","","","","0","0","1","0.3642388176","0.3754978655","","","","","0.1325092095","0.3754978655","0.336528594","0.3502018886","0.1149622558","0.3642388176","0.4097417878","0.03116272615","","","","","","","","74","J","1","","","103","main_expt"
"","bandit","183","505752","0.0-144.0-0.0","36961399","wem/bandit_double","A23KAJRDVCVGOE","both","6","3","290","","","","","","","0","0","1","0.1223821921","0.1162839287","","","","","0.1162839287","0.4033056484","0.3190078166","0.3443431466","0.1223821921","0.3059376685","0.4005896235","0.04034009898","","","","","","","","72","H","0","img/none_selected.jpg","","104","main_expt"
"","bandit","184","507362","0.0-145.0-0.0","36961399","wem/bandit_double","A23KAJRDVCVGOE","both","6","3","89","","","","","","","0","1","0","0.06132200156","0.3551378046","","","","","0.115620258","0.3617388181","0.3100940773","0.3551378046","0.1302837569","0.2658022239","0.3967946647","0.06132200156","","","","","","","","76","L","3","","","105","main_expt"
"","bandit","185","509212","0.0-146.0-0.0","36961399","wem/bandit_double","A23KAJRDVCVGOE","both","6","3","279","","","","","","","1","0","0","0.1405927316","0.1102569517","","","","","0.1102569517","0.3656875331","0.2964842485","0.3177956882","0.1405927316","0.2583534607","0.3920329447","0.03171667797","","","","","","","","72","H","0","img/none_selected.jpg","","106","main_expt"
"","bandit","186","511117","0.0-147.0-0.0","36961399","wem/bandit_double","A23KAJRDVCVGOE","both","6","3","383","","","","","","","0","0","1","0.1835021143","0.110599846","","","","","0.110599846","0.3478183852","0.3224579283","0.3463124521","0.1835021143","0.2402432731","0.3973329777","0.06603394544","","","","","","","","72","H","0","img/none_selected.jpg","","107","main_expt"
"","bandit","187","512951","0.0-148.0-0.0","36961399","wem/bandit_double","A23KAJRDVCVGOE","both","6","3","310","","","","","","","1","0","0","0.2124513917","0.1647947233","","","","","0.1647947233","0.3715517583","0.3365568187","0.330790185","0.2124513917","0.2364509509","0.3839010997","0.08137973005","","","","","","","","72","H","0","img/none_selected.jpg","","108","main_expt"
"","bandit","188","514940","0.0-149.0-0.0","36961399","wem/bandit_double","A23KAJRDVCVGOE","both","6","3","344","","","","","","","0","1","0","0.218007314","0.146095753","","","","","0.146095753","0.3713851569","0.3200824859","0.3259779601","0.218007314","0.2164051194","0.3879107289","0.04765661509","","","","","","","","72","H","0","img/none_selected.jpg","","109","main_expt"
"","bandit","189","516667","0.0-150.0-0.0","36961399","wem/bandit_double","A23KAJRDVCVGOE","both","6","3","208","","","","","","","0","1","0","0.06789381979","0.3169053314","","","","","0.1691954855","0.3401672382","0.3179471713","0.3169053314","0.229469423","0.1611838666","0.3989855113","0.06789381979","","","","","","","","76","L","3","","","110","main_expt"
"","bandit","190","518587","0.0-151.0-0.0","36961399","wem/bandit_double","A23KAJRDVCVGOE","both","6","3","269","","","","","","","1","0","0","0.2923436213","0.1690298198","","","","","0.1690298198","0.3242328008","0.3168158386","0.342138516","0.2923436213","0.2042622235","0.3959495959","0.08972795074","","","","","","","","72","H","0","img/none_selected.jpg","","111","main_expt"
"","bandit","191","520286","0.0-152.0-0.0","36961399","wem/bandit_double","A23KAJRDVCVGOE","both","6","3","177","","","","","","","1","0","0","0.2113733305","0.2991119965","","","","","0.2196992501","0.2991119965","0.3551606626","0.3597886873","0.2778802509","0.2113733305","0.335596647","0.1176683061","","","","","","","","74","J","1","","","112","main_expt"
"","bandit","192","522032","0.0-153.0-0.0","36961399","wem/bandit_double","A23KAJRDVCVGOE","both","6","3","219","","","","","","","1","0","0","0.220236308","0.3364281798","","","","","0.2723467559","0.3364281798","0.3615444015","0.3580549124","0.2852166322","0.220236308","0.2876347753","0.1973953549","","","","","","","","74","J","1","","","113","main_expt"
"","bandit","193","523908","0.0-154.0-0.0","36961399","wem/bandit_double","A23KAJRDVCVGOE","both","6","3","350","","","","","","","0","0","1","0.2453392608","0.3495122724","","","","","0.2470985199","0.3495122724","0.4043222556","0.3556181037","0.3222351196","0.2453392608","0.2811359795","0.200840576","","","","","","","","74","J","1","","","114","main_expt"
"","bandit","194","525565","0.0-155.0-0.0","36961399","wem/bandit_double","A23KAJRDVCVGOE","both","6","3","136","","","","","","","0","1","0","0.2865303103","0.2482590513","","","","","0.2482590513","0.324938203","0.4179696435","0.3489042174","0.2865303103","0.2311931225","0.2056035349","0.2544006126","","","","","","","","72","H","0","img/none_selected.jpg","","115","main_expt"
"","bandit","195","527440","0.0-156.0-0.0","36961399","wem/bandit_double","A23KAJRDVCVGOE","both","6","3","242","","","","","","","1","0","0","0.2264812366","0.3466245191","","","","","0.1992012358","0.3227512736","0.4324393975","0.3466245191","0.1901772154","0.2290532582","0.2435386161","0.2264812366","","","","","","","","76","L","3","","","116","main_expt"
"","bandit","196","529100","0.0-157.0-0.0","36961399","wem/bandit_double","A23KAJRDVCVGOE","both","6","3","140","","","","","","","1","1","0","0.2535822563","0.3581754781","","","","","0.216355905","0.2585209305","0.4290779421","0.3581754781","0.1854727963","0.2610634121","0.2523066444","0.2535822563","","","","","","","","76","L","3","","","117","main_expt"
"","bandit","197","530888","0.0-158.0-0.0","36961399","wem/bandit_double","A23KAJRDVCVGOE","both","6","3","256","","","","","","","0","1","0","0.288462609","0.283939031","","","","","0.1715453935","0.2817260076","0.4459264202","0.283939031","0.223078523","0.2915584027","0.258758296","0.288462609","","","","","","","","76","L","3","","","118","main_expt"
"","bandit","198","532758","0.0-159.0-0.0","36961399","wem/bandit_double","A23KAJRDVCVGOE","both","6","3","238","","","","","","","1","1","0","0.2513882557","0.436995295","","","","","0.1843456939","0.328214026","0.436995295","0.2992634423","0.2157898803","0.3240034744","0.2513882557","0.3077733757","","","","","","","","75","K","2","","","119","main_expt"
"","bandit","199","534641","0.0-160.0-0.0","36961399","wem/bandit_double","A23KAJRDVCVGOE","both","6","3","361","","","","","","","0","1","0","0.2178230887","0.4151314625","","","","","0.1848061615","0.3355603121","0.4151314625","0.1878150733","0.2055853597","0.3584552205","0.2178230887","0.3470363664","","","","","","","","75","K","2","","","120","main_expt"
"","bandit","200","536405","0.0-161.0-0.0","36961399","wem/bandit_double","A23KAJRDVCVGOE","both","6","3","240","","","","","","","1","0","0","0.36369082","0.1447458933","","","","","0.1679578636","0.3829587724","0.4384064527","0.1447458933","0.2308362602","0.3392259721","0.2249913612","0.36369082","","","","","","","","76","L","3","","","121","main_expt"
"","bandit","201","538185","0.0-162.0-0.0","36961399","wem/bandit_double","A23KAJRDVCVGOE","both","6","3","256","","","","","","","0","0","1","0.3740977319","0.1176060398","","","","","0.197295971","0.3995678287","0.4417589501","0.1176060398","0.1858821776","0.3211990091","0.2135386538","0.3740977319","","","","","","","","76","L","3","","","122","main_expt"
"","bandit","202","540032","0.0-163.0-0.0","36961399","wem/bandit_double","A23KAJRDVCVGOE","both","6","3","315","","","","","","","0","0","1","0.2742148462","0.4017154396","","","","","0.2184653352","0.3656739583","0.4017154396","0.1097677055","0.1948645322","0.3082515077","0.2742148462","0.3617230251","","","","","","","","75","K","2","","","123","main_expt"
"","bandit","203","541956","0.0-164.0-0.0","36961399","wem/bandit_double","A23KAJRDVCVGOE","both","6","3","404","","","","","","","1","0","0","0.3337980485","0.3862549257","","","","","0.2147868977","0.3862549257","0.3619070526","0.08048168986","0.1875433284","0.3337980485","0.3092488957","0.3189133642","","","","","","","","74","J","1","","","124","main_expt"
"","bandit","204","543946","0.0-165.0-0.0","36961399","wem/bandit_double","A23KAJRDVCVGOE","both","6","3","461","","","","","","","0","0","1","0.1805360773","0.1667936559","","","","","0.1667936559","0.3593796239","0.3567490645","0.07842900555","0.1805360773","0.2815584253","0.2832498899","0.3134342975","","","","","","","","72","H","0","img/none_selected.jpg","","125","main_expt"
"","bandit","205","545676","0.0-166.0-0.0","36961399","wem/bandit_double","A23KAJRDVCVGOE","both","6","3","203","","","","","","","0","0","1","0.2544389989","0.3413194209","","","","","0.1453295256","0.3413194209","0.3558473019","0.08318363027","0.2199741614","0.2544389989","0.321902755","0.2889117865","","","","","","","","74","J","1","","","126","main_expt"
"","bandit","206","547410","0.0-167.0-0.0","36961399","wem/bandit_double","A23KAJRDVCVGOE","both","6","3","213","","","","","","","0","0","1","0.3163630435","0.3543069734","","","","","0.1635755653","0.3369929262","0.3543069734","0.06812438963","0.212963778","0.217883989","0.3163630435","0.3101500906","","","","","","","","75","K","2","","","127","main_expt"
"","bandit","207","549178","0.0-168.0-0.0","36961399","wem/bandit_double","A23KAJRDVCVGOE","both","6","3","246","","","","","","","0","0","1","0.1853882534","0.1872639566","","","","","0.1872639566","0.2922989636","0.3328374851","0.08303766286","0.1853882534","0.1941215274","0.3242789072","0.3257933697","","","","","","","","72","H","0","img/none_selected.jpg","","128","main_expt"
"","bandit","208","550974","0.0-169.0-0.0","36961399","wem/bandit_double","A23KAJRDVCVGOE","both","6","3","271","","","","","","","0","1","0","0.2093197904","0.3095146075","","","","","0.2032718864","0.3095146075","0.3238683282","0.09047360051","0.1486900389","0.2093197904","0.3430844202","0.2767822115","","","","","","","","74","J","1","","","129","main_expt"
"","bandit","209","552757","0.0-170.0-0.0","36961399","wem/bandit_double","A23KAJRDVCVGOE","both","6","3","262","","","","","","","0","0","1","0.3389859305","0.131542256","","","","","0.2025864764","0.3068425872","0.2750329062","0.131542256","0.1581202816","0.2325895014","0.3487272729","0.3389859305","","","","","","","","76","L","3","","","130","main_expt"
"","bandit","210","554545","0.0-171.0-0.0","36961399","wem/bandit_double","A23KAJRDVCVGOE","both","6","3","261","","","","","","","0","1","0","0.2680880231","0.3112504131","","","","","0.2158584071","0.3112504131","0.2751886228","0.1492019489","0.1189605486","0.2680880231","0.3850752379","0.2807576759","","","","","","","","74","J","1","","","131","main_expt"
"","bandit","211","556354","0.0-172.0-0.0","36961399","wem/bandit_double","A23KAJRDVCVGOE","both","6","3","284","","","","","","","0","0","1","0.2044414959","0.1571188116","","","","","0.2105840197","0.3595653039","0.2729729886","0.1571188116","0.08638656351","0.2053564998","0.3547422913","0.2044414959","","","","","","","","76","L","3","","","132","main_expt"
"","bandit","212","558368","0.0-173.0-0.0","36961399","wem/bandit_double","A23KAJRDVCVGOE","both","6","3","489","","","","","","","0","1","0","0.2352631215","0.2021073832","","","","","0.2328486735","0.3873527377","0.3248088544","0.2021073832","0.104542274","0.2102644512","0.3256782816","0.2352631215","","","","","","","","76","L","3","","","133","main_expt"
"","bandit","213","560289","0.0-174.0-0.0","36961399","wem/bandit_double","A23KAJRDVCVGOE","both","6","3","395","","","","","","","1","0","0","0.2808822736","0.2693148074","","","","","0.2589092944","0.3973884711","0.3596446835","0.2693148074","0.1401790922","0.2028105977","0.2479378245","0.2808822736","","","","","","","","76","L","3","","","134","main_expt"
"","bandit","214","562299","0.0-175.0-0.0","36961399","wem/bandit_double","A23KAJRDVCVGOE","both","6","3","487","","","","","","","0","0","1","0.3053704558","0.2625780805","","","","","0.2637326353","0.4080523157","0.318377279","0.2625780805","0.1818128853","0.1556880781","0.24301602","0.3053704558","","","","","","","","76","L","3","","","135","main_expt"
"","bandit","215","564106","0.0-176.0-0.0","36961399","wem/bandit_double","A23KAJRDVCVGOE","both","6","3","261","","","","","","","0","1","0","0.3140058771","0.2981707722","","","","","0.2718680576","0.4176503084","0.3160887017","0.2981707722","0.1583738081","0.1428421262","0.2630427063","0.3140058771","","","","","","","","76","L","3","","","136","main_expt"
"","bandit","216","565933","0.0-177.0-0.0","36961399","wem/bandit_double","A23KAJRDVCVGOE","both","6","3","305","","","","","","","0","1","0","0.3053425806","0.2883225013","","","","","0.2919957672","0.3859803947","0.2883225013","0.3148158286","0.1497920091","0.1039390038","0.3053425806","0.323699752","","","","","","","","75","K","2","","","137","main_expt"
"","bandit","217","567948","0.0-178.0-0.0","36961399","wem/bandit_double","A23KAJRDVCVGOE","both","6","3","495","","","","","","","0","0","1","0.3435108126","0.3111523267","","","","","0.3193993407","0.358492916","0.3009152141","0.3111523267","0.1128601551","0.07132433681","0.3588623722","0.3435108126","","","","","","","","76","L","3","","","138","main_expt"
"","bandit","218","569742","0.0-179.0-0.0","36961399","wem/bandit_double","A23KAJRDVCVGOE","both","6","3","271","","","","","","","0","1","0","0.3505637202","0.3034593298","","","","","0.3404434035","0.3608756281","0.293720077","0.3034593298","0.1073604677","0.1047165976","0.2762704672","0.3505637202","","","","","","","","76","L","3","","","139","main_expt"
"","bandit","219","571623","0.0-180.0-0.0","36961399","wem/bandit_double","A23KAJRDVCVGOE","both","6","3","305","","","","","","","0","0","1","0.4185251601","0.2507495005","","","","","0.3278052243","0.3421836092","0.286059761","0.2507495005","0.1376710563","0.09043849554","0.2475753012","0.4185251601","","","","","","","","76","L","3","","","140","main_expt"
"","bandit","220","573543","0.0-181.0-0.0","36961399","wem/bandit_double","A23KAJRDVCVGOE","both","6","3","379","","","","","","","1","0","0","0.4225289085","0.2220694513","","","","","0.3038906839","0.3737340371","0.2931724706","0.2220694513","0.1412662962","0.05096505815","0.2436306075","0.4225289085","","","","","","","","76","L","3","","","141","main_expt"
"","bandit","221","575421","0.0-182.0-0.0","36961399","wem/bandit_double","A23KAJRDVCVGOE","both","6","3","357","","","","","","","0","1","0","0.02973759478","0.3461121542","","","","","0.2924195757","0.3461121542","0.2182180164","0.2119249064","0.1543424817","0.02973759478","0.1998899021","0.455259632","","","","","","","","74","J","1","","","142","main_expt"
"","bandit","222","577721","0.0-183.0-0.0","36961399","wem/bandit_double","A23KAJRDVCVGOE","both","6","3","761","","","","","","","0","0","1","0.1552636118","0.2816149275","","","","","0.2816149275","0.3305931074","0.2015475508","0.2665135591","0.1552636118","0.04457260366","0.2568100034","0.4287003803","","","","","","","","72","H","0","img/none_selected.jpg","","143","main_expt"
"","bandit","223","579939","0.0-184.0-0.0","36961399","wem/bandit_double","A23KAJRDVCVGOE","both","6","3","693","","","","","","","1","0","0","0.2241753426","0.2355525614","","","","","0.2355525614","0.3561039987","0.2074070562","0.2854155153","0.2241753426","0.04060115041","0.2859833531","0.4260506414","","","","","","","","72","H","0","img/none_selected.jpg","","144","main_expt"
"","bandit","224","581856","0.0-185.0-0.0","36961399","wem/bandit_double","A23KAJRDVCVGOE","both","6","3","391","","","","","","","0","0","1","0.2484131349","0.2185662272","","","","","0.2185662272","0.3648023512","0.1415368311","0.2521048148","0.2484131349","0.06712401514","0.2080640158","0.4202170594","","","","","","","","72","H","0","img/none_selected.jpg","","145","main_expt"
"","bandit","225","583631","0.0-186.0-0.0","36961399","wem/bandit_double","A23KAJRDVCVGOE","both","6","3","250","","","","","","","0","0","1","0.4333226383","0.2321266643","","","","","0.2209315791","0.3450315","0.1549520657","0.2321266643","0.2905032103","0.08780921534","0.2469639643","0.4333226383","","","","","","","","76","L","3","","","146","main_expt"
"","bandit","226","585293","0.0-187.0-0.0","36961399","wem/bandit_double","A23KAJRDVCVGOE","both","6","3","130","","","","","","","0","1","0","0.2846703457","0.2889766311","","","","","0.2889766311","0.2720321141","0.1469310363","0.3159383216","0.2846703457","0.1333368233","0.2169279296","0.4340954059","","","","","","","","72","H","0","img/none_selected.jpg","","147","main_expt"
"","bandit","227","587201","0.0-188.0-0.0","36961399","wem/bandit_double","A23KAJRDVCVGOE","both","6","3","383","","","","","","","0","0","1","0.1248284812","0.1332828417","","","","","0.2859466156","0.2598972664","0.1332828417","0.2673485129","0.3010433131","0.09264147873","0.1248284812","0.3903754431","","","","","","","","75","K","2","","","148","main_expt"
"","bandit","228","589405","0.0-189.0-0.0","36961399","wem/bandit_double","A23KAJRDVCVGOE","both","6","3","680","","","","","","","0","0","1","0.4161192262","0.3348600541","","","","","0.2588478233","0.2343157719","0.1102010463","0.3348600541","0.3421268102","0.123708687","0.1498862571","0.4161192262","","","","","","","","76","L","3","","","149","main_expt"
"","bandit","229","591459","0.0-190.0-0.0","36961399","wem/bandit_double","A23KAJRDVCVGOE","both","6","3","530","","","","","","","0","0","1","0.3382865341","0.2224653457","","","","","0.2224653457","0.2451363599","0.1356103494","0.3659656834","0.3382865341","0.1087811601","0.2044632824","0.4545257836","","","","","","","","72","H","0","img/none_selected.jpg","","150","main_expt"
"","bandit","230","593615","0.0-191.0-0.0","36961399","wem/bandit_double","A23KAJRDVCVGOE","both","6","3","634","","","","","","","1","0","0","0.3031951358","0.2387237716","","","","","0.2387237716","0.2053737132","0.1621229287","0.36397653","0.3031951358","0.1640336927","0.1630699797","0.4553704948","","","","","","","","72","H","0","img/none_selected.jpg","","151","main_expt"
"","bandit","231","595560","0.0-192.0-0.0","36961399","wem/bandit_double","A23KAJRDVCVGOE","both","6","3","423","","","","","","","0","0","1","0.3163498213","0.2519133504","","","","","0.2519133504","0.2396242378","0.1412745606","0.3710672623","0.3163498213","0.1474195158","0.1534962237","0.4692720684","","","","","","","","72","H","0","img/none_selected.jpg","","152","main_expt"
"","bandit","232","597969","0.0-193.0-0.0","36961399","wem/bandit_double","A23KAJRDVCVGOE","both","6","3","885","","","","","","","0","0","1","0.4794448159","0.3828607765","","","","","0.3078499427","0.2923277395","0.1707580034","0.3828607765","0.3205280093","0.1200421148","0.1506701345","0.4794448159","","","","","","","","76","L","3","","","153","main_expt"
"","bandit","233","599728","0.0-194.0-0.0","36961399","wem/bandit_double","A23KAJRDVCVGOE","both","6","3","234","","","","","","","0","0","1","0.4762011242","0.3526468527","","","","","0.3283820497","0.3166515581","0.1717455462","0.3526468527","0.2780981807","0.1295208369","0.1810992197","0.4762011242","","","","","","","","76","L","3","","","154","main_expt"
"","bandit","234","601900","0.0-195.0-0.0","36961399","wem/bandit_double","A23KAJRDVCVGOE","both","6","3","647","","","","","","","0","0","1","0.2574031695","0.1785539081","","","","","0.3303057687","0.3194616596","0.1785539081","0.3865981945","0.2543788853","0.1189574303","0.2574031695","0.4797315341","","","","","","","","75","K","2","","","155","main_expt"
"","bandit","235","603645","0.0-196.0-0.0","36961399","wem/bandit_double","A23KAJRDVCVGOE","both","6","3","222","","","","","","","0","0","1","0.2601772157","0.3178912443","","","","","0.3178912443","0.3767011333","0.2175815231","0.4328422877","0.2601772157","0.1511338071","0.1838662476","0.4815153028","","","","","","","","72","H","0","img/none_selected.jpg","","156","main_expt"
"","bandit","236","605182","0.0-197.0-0.0","36961399","wem/bandit_double","A23KAJRDVCVGOE","both","6","3","6","","","","","","","0","0","1","0.27050514","0.3236874272","","","","","0.3236874272","0.3853144204","0.216674397","0.4224906378","0.27050514","0.1494559257","0.1951262555","0.4769669351","","","","","","","","72","H","0","img/none_selected.jpg","","157","main_expt"
"","bandit","237","606945","0.0-198.0-0.0","36961399","wem/bandit_double","A23KAJRDVCVGOE","both","6","3","240","","","","","","","0","0","1","0.1398300683","0.3519128793","","","","","0.3731337511","0.3519128793","0.2184316938","0.4428847078","0.2912044809","0.1398300683","0.1711173681","0.4819637572","","","","","","","","74","J","1","","","158","main_expt"
"","bandit","238","609250","0.0-199.0-0.0","36961399","wem/bandit_double","A23KAJRDVCVGOE","both","6","3","783","","","","","","","0","0","1","0.1482700517","0.3255157266","","","","","0.3758107074","0.3255157266","0.2603966468","0.4498083842","0.2863852675","0.1482700517","0.1262927185","0.4802617926","","","","","","","","74","J","1","","","159","main_expt"
"","bandit","239","611444","0.0-200.0-0.0","36961399","wem/bandit_double","A23KAJRDVCVGOE","both","6","3","670","","","","","","","0","0","1","0.3188379944","0.3494215766","","","","","0.3494215766","0.379238532","0.2242017374","0.4319550234","0.3188379944","0.1327856751","0.1289005464","0.4834703177","","","","","","","","72","H","0","img/none_selected.jpg","","160","main_expt"
"","bandit","240","613307","0.0-201.0-0.0","36961399","wem/bandit_double","A23KAJRDVCVGOE","both","6","3","98","","","","","","","1","1","0","0.3918259889","0.3327111917","","","","","0.3327111917","0.3776335756","0.2014027125","0.4417514389","0.3918259889","0.1936248495","0.07062595825","0.4783639554","","","","","","","","72","H","0","img/none_selected.jpg","","161","main_expt"
"","bandit","241","615437","0.0-202.0-0.0","36961399","wem/bandit_double","A23KAJRDVCVGOE","both","6","3","604","","","","","","","0","0","1","0.3825352776","0.3171011618","","","","","0.3171011618","0.2955751891","0.2038621466","0.4081293495","0.3825352776","0.1917288119","0.08554885259","0.4702379588","","","","","","","","72","H","0","img/none_selected.jpg","","162","main_expt"
"","bandit","242","617245","0.0-203.0-0.0","36961399","wem/bandit_double","A23KAJRDVCVGOE","both","6","3","261","","","","","","","1","0","0","0.05790820845","0.1238136799","","","","","0.364183239","0.30851492","0.1238136799","0.4265776113","0.3500114378","0.2410074379","0.05790820845","0.4761999765","","","","","","","","75","K","2","","","163","main_expt"
"","bandit","243","619145","0.0-204.0-0.0","36961399","wem/bandit_double","A23KAJRDVCVGOE","both","6","3","376","","","","","","","0","0","1","0.04744410613","0.1104941302","","","","","0.3917374524","0.3074756362","0.1104941302","0.427472809","0.3138306729","0.2717164652","0.04744410613","0.4683988395","","","","","","","","75","K","2","","","164","main_expt"
"","bandit","244","621376","0.0-205.0-0.0","36961399","wem/bandit_double","A23KAJRDVCVGOE","both","6","3","574","","","","","","","0","1","0","0.07721988326","0.1099358877","","","","","0.3629360172","0.2743039079","0.1099358877","0.4016343469","0.3066591237","0.3360488911","0.07721988326","0.4594806004","","","","","","","","75","K","2","","","165","main_expt"
"","bandit","245","623343","0.0-206.0-0.0","36961399","wem/bandit_double","A23KAJRDVCVGOE","both","6","3","443","","","","","","","0","0","1","0.4769271284","0.3578169927","","","","","0.3697042915","0.2900226329","0.08082918558","0.3578169927","0.359337808","0.3288768439","0.09276645858","0.4769271284","","","","","","","","76","L","3","","","166","main_expt"
"","bandit","246","625272","0.0-207.0-0.0","36961399","wem/bandit_double","A23KAJRDVCVGOE","both","6","3","405","","","","","","","0","0","1","0.1092251717","0.08539074978","","","","","0.3626443337","0.3444017494","0.08539074978","0.3346076013","0.3888119778","0.341079324","0.1092251717","0.4824675089","","","","","","","","75","K","2","","","167","main_expt"
"","bandit","247","626951","0.0-208.0-0.0","36961399","wem/bandit_double","A23KAJRDVCVGOE","both","6","3","157","","","","","","","0","0","1","0.2972081376","0.3934904689","","","","","0.3488380128","0.3934904689","0.1307687804","0.36326211","0.3188253523","0.2972081376","0.09704797424","0.4731218304","","","","","","","","74","J","1","","","168","main_expt"
"","bandit","248","628618","0.0-209.0-0.0","36961399","wem/bandit_double","A23KAJRDVCVGOE","both","6","3","76","","","","","","","0","0","1","0.3035082617","0.3338465455","","","","","0.3338465455","0.3712778229","0.09435724838","0.3389060657","0.3035082617","0.2716537329","0.1131958007","0.4558692975","","","","","","","","72","H","0","img/none_selected.jpg","","169","main_expt"
"","bandit","249","630420","0.0-210.0-0.0","36961399","wem/bandit_double","A23KAJRDVCVGOE","both","6","3","278","","","","","","","0","0","1","0.424927817","0.3820287301","","","","","0.3675902536","0.3348119161","0.09371103674","0.3820287301","0.3540810543","0.3705489528","0.1636150477","0.424927817","","","","","","","","76","L","3","","","170","main_expt"
"","bandit","250","632634","0.0-211.0-0.0","36961399","wem/bandit_double","A23KAJRDVCVGOE","both","6","3","639","","","","","","","1","0","0","0.4254050478","0.3738350687","","","","","0.3663425941","0.3697689907","0.0912992704","0.3738350687","0.2912941695","0.3259531709","0.1889182236","0.4254050478","","","","","","","","76","L","3","","","171","main_expt"
"","bandit","251","634318","0.0-212.0-0.0","36961399","wem/bandit_double","A23KAJRDVCVGOE","both","6","3","160","","","","","","","1","0","0","0.4319935488","0.3449486646","","","","","0.3571019768","0.3438364448","0.1053216192","0.3449486646","0.2964718019","0.3253578443","0.1494540944","0.4319935488","","","","","","","","76","L","3","","","172","main_expt"
"","bandit","252","636262","0.0-213.0-0.0","36961399","wem/bandit_double","A23KAJRDVCVGOE","both","6","3","328","","","","","","","0","1","0","0.4157756128","0.3754463001","","","","","0.383943734","0.4064517123","0.1119971747","0.3754463001","0.2411205861","0.3133285256","0.1700291406","0.4157756128","","","","","","","","76","L","3","","","173","main_expt"
"","bandit","253","638010","0.0-214.0-0.0","36961399","wem/bandit_double","A23KAJRDVCVGOE","both","6","3","219","","","","","","","1","0","0","0.3650518631","0.3983783957","","","","","0.378453819","0.4266345201","0.1049574405","0.3983783957","0.2132737127","0.3470844982","0.2007600912","0.3650518631","","","","","","","","76","L","3","","","174","main_expt"
"","bandit","254","639805","0.0-215.0-0.0","36961399","wem/bandit_double","A23KAJRDVCVGOE","both","6","3","274","","","","","","","0","0","1","0.3583375904","0.4176958341","","","","","0.3577460836","0.4413212306","0.07351671593","0.4176958341","0.2722172758","0.3615725976","0.1613291475","0.3583375904","","","","","","","","76","L","3","","","175","main_expt"
"","bandit","255","641491","0.0-216.0-0.0","36961399","wem/bandit_double","A23KAJRDVCVGOE","both","6","3","166","","","","","","","0","0","1","0.3849487833","0.4336280271","","","","","0.3346789668","0.438548454","0.06097876817","0.4336280271","0.3158297255","0.3592449917","0.1618540135","0.3849487833","","","","","","","","76","L","3","","","176","main_expt"
"","bandit","256","643627","0.0-217.0-0.0","36961399","wem/bandit_double","A23KAJRDVCVGOE","both","6","3","612","","","","","","","0","0","1","0.3741193846","0.3863917124","","","","","0.3720341948","0.4350726265","0.05873143133","0.3863917124","0.3033070912","0.3614776984","0.1337509382","0.3741193846","","","","","","","","76","L","3","","","177","main_expt"
"","bandit","257","645608","0.0-218.0-0.0","36961399","wem/bandit_double","A23KAJRDVCVGOE","both","6","3","374","","","","","","","0","0","1","0.172909152","0.07829718294","","","","","0.4243236705","0.4029859975","0.07829718294","0.3826512014","0.3070990366","0.4042649322","0.172909152","0.3704436283","","","","","","","","75","K","2","","","178","main_expt"
"","bandit","258","647585","0.0-219.0-0.0","36961399","wem/bandit_double","A23KAJRDVCVGOE","both","6","3","455","","","","","","","0","0","1","0.3626499081","0.3738585124","","","","","0.4396564102","0.3738585124","0.05868413977","0.3681046487","0.349206168","0.3626499081","0.2306318455","0.3718647044","","","","","","","","74","J","1","","","179","main_expt"
"","bandit","259","649881","0.0-220.0-0.0","36961399","wem/bandit_double","A23KAJRDVCVGOE","both","6","3","773","","","","","","","1","0","0","0.3533593609","0.4501825932","","","","","0.4501825932","0.3884150149","0.04540529238","0.374340785","0.3533593609","0.365831292","0.2531752843","0.3144845341","","","","","","","","72","H","0","img/none_selected.jpg","","180","main_expt"
"","bandit","260","651734","0.0-221.0-0.0","36961399","wem/bandit_double","A23KAJRDVCVGOE","both","6","3","327","","","","","","","1","0","0","0.3792633926","0.4527537228","","","","","0.4527537228","0.3977335033","0.04810206047","0.3844034803","0.3792633926","0.3720079561","0.2995137733","0.3328992573","","","","","","","","72","H","0","img/none_selected.jpg","","181","main_expt"
"","bandit","261","653673","0.0-222.0-0.0","36961399","wem/bandit_double","A23KAJRDVCVGOE","both","6","3","315","","","","","","","0","1","0","0.4170401524","0.4733821952","","","","","0.4733821952","0.4194204302","0.0564969073","0.3569363444","0.4170401524","0.3747751333","0.2818604164","0.3443004049","","","","","","","","72","H","0","img/none_selected.jpg","","182","main_expt"
"","bandit","262","655532","0.0-223.0-0.0","36961399","wem/bandit_double","A23KAJRDVCVGOE","both","6","3","334","","","","","","","0","1","0","0.4349898381","0.4741352064","","","","","0.4741352064","0.4050300101","0.06674959941","0.3930074682","0.4349898381","0.3772869326","0.2706787236","0.3572445505","","","","","","","","72","H","0","img/none_selected.jpg","","183","main_expt"
"","bandit","263","657378","0.0-224.0-0.0","36961399","wem/bandit_double","A23KAJRDVCVGOE","both","6","3","320","","","","","","","1","0","0","0.3719200221","0.4272992256","","","","","0.4835015011","0.4272992256","0.05730522946","0.4105724965","0.4355724899","0.3719200221","0.2788381055","0.358140682","","","","","","","","74","J","1","","","184","main_expt"
"","bandit","264","659335","0.0-225.0-0.0","36961399","wem/bandit_double","A23KAJRDVCVGOE","both","6","3","317","","","","","","","1","1","0","0.3759280431","0.4213026748","","","","","0.4907566516","0.4213026748","0.0759668512","0.4230276401","0.443517249","0.3759280431","0.2591604306","0.2938856532","","","","","","","","74","J","1","","","185","main_expt"
"","bandit","265","661123","0.0-226.0-0.0","36961399","wem/bandit_double","A23KAJRDVCVGOE","both","6","3","260","","","","","","","0","0","1","0.3686405037","0.3729626057","","","","","0.4777100538","0.3729626057","0.0736669194","0.4243078066","0.4185550765","0.3686405037","0.1717283936","0.2570442146","","","","","","","","74","J","1","","","186","main_expt"
"","bandit","266","663006","0.0-227.0-0.0","36961399","wem/bandit_double","A23KAJRDVCVGOE","both","6","3","357","","","","","","","1","1","0","0.4582246802","0.4751658893","","","","","0.4751658893","0.4022080601","0.1020870739","0.419104652","0.4582246802","0.3693778387","0.1399016055","0.2781151114","","","","","","","","72","H","0","img/none_selected.jpg","","187","main_expt"
"","bandit","267","664834","0.0-228.0-0.0","36961399","wem/bandit_double","A23KAJRDVCVGOE","both","6","3","302","","","","","","","0","0","1","0.4499637214","0.4711403756","","","","","0.4711403756","0.4218987807","0.110066606","0.3917910895","0.4499637214","0.3858781765","0.116743447","0.2510368257","","","","","","","","72","H","0","img/none_selected.jpg","","188","main_expt"
"","bandit","268","667295","0.0-229.0-0.0","36961399","wem/bandit_double","A23KAJRDVCVGOE","both","6","3","834","","","","","","","0","0","1","0.4681283031","0.4848283219","","","","","0.4848283219","0.4284519853","0.1616324423","0.3696037293","0.4681283031","0.353665234","0.09810356538","0.2299291889","","","","","","","","72","H","0","img/none_selected.jpg","","189","main_expt"
"","bandit","269","669216","0.0-230.0-0.0","36961399","wem/bandit_double","A23KAJRDVCVGOE","both","6","3","397","","","","","","","0","0","1","0.2957770397","0.3722688899","","","","","0.4906713727","0.4104863902","0.1401199573","0.3722688899","0.4672384316","0.3702546744","0.1333212727","0.2957770397","","","","","","","","76","L","3","","","190","main_expt"
"","bandit","270","671279","0.0-231.0-0.0","36961399","wem/bandit_double","A23KAJRDVCVGOE","both","6","3","479","","","","","","","0","0","1","0.07289491444","0.1782786715","","","","","0.4944082075","0.4071825693","0.1782786715","0.3956575009","0.4633056668","0.3373283559","0.07289491444","0.2806998676","","","","","","","","75","K","2","","","191","main_expt"
"","bandit","271","673113","0.0-232.0-0.0","36961399","wem/bandit_double","A23KAJRDVCVGOE","both","6","3","309","","","","","","","0","1","0","0.3717228864","0.4172763132","","","","","0.4922337742","0.4172763132","0.203517815","0.3843500594","0.4701423021","0.3717228864","0.09060717316","0.2578649702","","","","","","","","74","J","1","","","192","main_expt"
"","bandit","272","675314","0.0-233.0-0.0","36961399","wem/bandit_double","A23KAJRDVCVGOE","both","6","3","560","","","","","","","1","1","0","0.4625827917","0.4887356563","","","","","0.4887356563","0.3965334946","0.172030281","0.3801723293","0.4625827917","0.3861484819","0.1038106097","0.3019093773","","","","","","","","72","H","0","img/none_selected.jpg","","193","main_expt"
"","bandit","273","677546","0.0-234.0-0.0","36961399","wem/bandit_double","A23KAJRDVCVGOE","both","6","3","704","","","","","","","1","0","0","0.4480064119","0.4850955297","","","","","0.4850955297","0.383316574","0.1813301739","0.3871645121","0.4480064119","0.3884838939","0.1222204007","0.3028603149","","","","","","","","72","H","0","img/none_selected.jpg","","194","main_expt"
"","bandit","274","679949","0.0-235.0-0.0","36961399","wem/bandit_double","A23KAJRDVCVGOE","both","6","3","877","","","","","","","1","0","0","0.4263193963","0.4848341758","","","","","0.4848341758","0.3965345796","0.2284295163","0.3633903175","0.4263193963","0.4058549971","0.1230179676","0.2933095063","","","","","","","","72","H","0","img/none_selected.jpg","","195","main_expt"
"","bandit","275","682176","0.0-236.0-0.0","36961399","wem/bandit_double","A23KAJRDVCVGOE","both","6","3","701","","","","","","","0","1","0","0.4399191733","0.490049139","","","","","0.490049139","0.3978469093","0.2501246714","0.3811675741","0.4399191733","0.3894648227","0.1972068901","0.3333663608","","","","","","","","72","H","0","img/none_selected.jpg","","196","main_expt"
"","bandit","276","684146","0.0-237.0-0.0","36961399","wem/bandit_double","A23KAJRDVCVGOE","both","6","3","438","","","","","","","0","0","1","0.4303685687","0.4912643012","","","","","0.4912643012","0.3172926233","0.3150809007","0.3487868089","0.4303685687","0.3452919481","0.2091218652","0.3472763543","","","","","","","","72","H","0","img/none_selected.jpg","","197","main_expt"
"","bandit","277","686291","0.0-238.0-0.0","36961399","wem/bandit_double","A23KAJRDVCVGOE","both","6","3","458","","","","","","","0","1","0","0.4166638701","0.4793615714","","","","","0.4793615714","0.3113170709","0.3442077965","0.2986771554","0.4166638701","0.3571156804","0.2316117542","0.3420385624","","","","","","","","72","H","0","img/none_selected.jpg","","198","main_expt"
"","bandit","278","688624","0.0-239.0-0.0","36961399","wem/bandit_double","A23KAJRDVCVGOE","both","6","3","775","","","","","","","1","1","0","0.4166192342","0.4661622676","","","","","0.4661622676","0.3066116159","0.3675051223","0.3481418533","0.4166192342","0.3761278261","0.1983173389","0.3009927129","","","","","","","","72","H","0","img/none_selected.jpg","","199","main_expt"
"","bandit","279","690843","0.0-240.0-0.0","36961399","wem/bandit_double","A23KAJRDVCVGOE","both","6","3","692","","","","","","","1","0","0","0.2834367318","0.353319573","","","","","0.4479238565","0.2521122026","0.3044821291","0.353319573","0.4065109498","0.3623939384","0.2275108597","0.2834367318","","","","","","","","76","L","3","","","200","main_expt"
"","bandit","280","692986","0.0-241.0-0.0","36961399","wem/bandit_double","A23KAJRDVCVGOE","both","6","3","618","","","","","","","0","0","1","0.3470966653","0.2679963248","","","","","0.4429166455","0.2679963248","0.3013824411","0.3676338631","0.4210367682","0.3470966653","0.2753755663","0.2305195973","","","","","","","","74","J","1","","","201","main_expt"
"","bandit","281","695387","0.0-242.0-0.0","36961399","wem/bandit_double","A23KAJRDVCVGOE","both","6","3","775","","","","","","","0","1","0","0.4059774394","0.442820363","","","","","0.442820363","0.2076546236","0.3001954661","0.311657493","0.4059774394","0.3738670455","0.2867984519","0.236439039","","","","","","","","72","H","0","img/none_selected.jpg","","202","main_expt"
"","bandit","282","697404","0.0-243.0-0.0","36961399","wem/bandit_double","A23KAJRDVCVGOE","both","6","3","491","","","","","","","1","0","0","0.4217634448","0.4539008368","","","","","0.4539008368","0.1881707852","0.3189156814","0.3364041998","0.4217634448","0.4434414113","0.227681123","0.207292508","","","","","","","","72","H","0","img/none_selected.jpg","","203","main_expt"
"","bandit","283","699542","0.0-244.0-0.0","36961399","wem/bandit_double","A23KAJRDVCVGOE","both","6","3","613","","","","","","","0","0","1","0.417590799","0.4163307037","","","","","0.4163307037","0.2057853427","0.3162062407","0.3148670147","0.417590799","0.4363530878","0.2421814767","0.2706274655","","","","","","","","72","H","0","img/none_selected.jpg","","204","main_expt"
"","bandit","284","701470","0.0-245.0-0.0","36961399","wem/bandit_double","A23KAJRDVCVGOE","both","6","3","400","","","","","","","0","1","0","0.2250127273","0.347278619","","","","","0.4045388199","0.2564451259","0.347278619","0.3293187519","0.3892328218","0.4390009565","0.2250127273","0.2688171721","","","","","","","","75","K","2","","","205","main_expt"
"","bandit","285","703415","0.0-246.0-0.0","36961399","wem/bandit_double","A23KAJRDVCVGOE","both","6","3","393","","","","","","","0","0","1","0.2148063869","0.2970129147","","","","","0.4083422121","0.3082896296","0.2970129147","0.2705077244","0.3877758809","0.4606838579","0.2148063869","0.2774640617","","","","","","","","75","K","2","","","206","main_expt"
"","bandit","286","705332","0.0-247.0-0.0","36961399","wem/bandit_double","A23KAJRDVCVGOE","both","6","3","389","","","","","","","0","1","0","0.31303597","0.3083591011","","","","","0.4033585138","0.3235103938","0.3331481178","0.3083591011","0.3344078408","0.4679198071","0.2370073307","0.31303597","","","","","","","","76","L","3","","","207","main_expt"
"","bandit","287","707444","0.0-248.0-0.0","36961399","wem/bandit_double","A23KAJRDVCVGOE","both","6","3","587","","","","","","","0","0","1","0.3187850143","0.2489273718","","","","","0.3753320851","0.3563539536","0.3195917859","0.2489273718","0.3285414067","0.4731710197","0.1736764344","0.3187850143","","","","","","","","76","L","3","","","208","main_expt"
"","bandit","288","709413","0.0-249.0-0.0","36961399","wem/bandit_double","A23KAJRDVCVGOE","both","6","3","440","","","","","","","0","1","0","0.472507437","0.3821305916","","","","","0.3864970555","0.3821305916","0.3642345195","0.2224321457","0.337659841","0.472507437","0.2033963155","0.3031297305","","","","","","","","74","J","1","","","209","main_expt"
"","bandit","289","711439","0.0-250.0-0.0","36961399","wem/bandit_double","A23KAJRDVCVGOE","both","6","3","500","","","","","","","1","0","0","0.322880172","0.3894881908","","","","","0.3894881908","0.4067483812","0.3518797164","0.2184729634","0.322880172","0.4759946166","0.1849029676","0.3593083662","","","","","","","","72","H","0","img/none_selected.jpg","","210","main_expt"
"","bandit","290","713593","0.0-251.0-0.0","36961399","wem/bandit_double","A23KAJRDVCVGOE","both","6","3","627","","","","","","","0","1","0","0.3440981268","0.4052823736","","","","","0.4052823736","0.376825818","0.3781537602","0.2178464352","0.3440981268","0.4838002785","0.08033524441","0.3758292662","","","","","","","","72","H","0","img/none_selected.jpg","","211","main_expt"
"","bandit","291","715591","0.0-252.0-0.0","36961399","wem/bandit_double","A23KAJRDVCVGOE","both","6","3","402","","","","","","","1","1","0","0.3771764803","0.1644702768","","","","","0.3783189977","0.3481764155","0.3773353051","0.1644702768","0.3135232579","0.4871609062","0.1024936548","0.3771764803","","","","","","","","76","L","3","","","212","main_expt"
"","bandit","292","717627","0.0-253.0-0.0","36961399","wem/bandit_double","A23KAJRDVCVGOE","both","6","3","508","","","","","","","1","1","0","0.328558382","0.3804187243","","","","","0.3804187243","0.3239198888","0.3448860985","0.1271660564","0.328558382","0.4829725273","0.1380366818","0.3935517348","","","","","","","","72","H","0","img/none_selected.jpg","","213","main_expt"
"","bandit","293","719458","0.0-254.0-0.0","36961399","wem/bandit_double","A23KAJRDVCVGOE","both","6","3","303","","","","","","","0","1","0","0.3024402918","0.3964056757","","","","","0.3964056757","0.3592643085","0.3622000499","0.1368129038","0.3024402918","0.4742933803","0.1206441992","0.3792377037","","","","","","","","72","H","0","img/none_selected.jpg","","214","main_expt"
