"consent","trial_type","trial_index","time_elapsed","internal_node_id","subjID","study","MID","cond","drift1","drift2","rt","responses","key_press","expt_phase","like","value","connected","gems","bombs","no_reward","GemPrChosen","BombPrChosen","GainOverPainPr_0","GainOverPainPr_1","GainOverPainPr_2","GainOverPainPr_3","LosePr_0","LosePr_1","LosePr_2","LosePr_3","WinPr_0","WinPr_1","WinPr_2","WinPr_3","Q0","Q1","Q2","gender","age","ethnicity","target","respCharCode","respKey","respChoiceNum","respChoice","practice","trial_counter","trial_label"
"INL_behavioral_consent_30min_online.html","consent","0","23536","0.0-0.0","41097897","wem/bandit_double","A3PRZRK9IC5CBI","both","7","2","","","","","","","","","","","","","","","","","","","","","","","","","","","","","","","","","","","","","",""
"","survey-text","1","35456","0.0-1.0","41097897","wem/bandit_double","A3PRZRK9IC5CBI","both","7","2","10915","{""Q0"":""A3PRZRK9IC5CBI""}","","","","","","","","","","","","","","","","","","","","","","","","","","","","","","","","","","","",""
"","text","2","45183","0.0-2.0","41097897","wem/bandit_double","A3PRZRK9IC5CBI","both","7","2","8724","","32","","","","","","","","","","","","","","","","","","","","","","","","","","","","","","","","","","",""
"","text","3","54902","0.0-3.0","41097897","wem/bandit_double","A3PRZRK9IC5CBI","both","7","2","9717","","32","","","","","","","","","","","","","","","","","","","","","","","","","","","","","","","","","","",""
"","text","4","76159","0.0-4.0","41097897","wem/bandit_double","A3PRZRK9IC5CBI","both","7","2","21255","","32","","","","","","","","","","","","","","","","","","","","","","","","","","","","","","","","","","",""
"","text","5","91462","0.0-5.0","41097897","wem/bandit_double","A3PRZRK9IC5CBI","both","7","2","15301","","32","","","","","","","","","","","","","","","","","","","","","","","","","","","","","","","","","","",""
"","text","6","108111","0.0-6.0","41097897","wem/bandit_double","A3PRZRK9IC5CBI","both","7","2","16647","","32","","","","","","","","","","","","","","","","","","","","","","","","","","","","","","","","","","",""
"","text","7","116278","0.0-7.0","41097897","wem/bandit_double","A3PRZRK9IC5CBI","both","7","2","8166","","32","","","","","","","","","","","","","","","","","","","","","","","","","","","","","","","","","","",""
"","identification","8","124296","0.0-8.0-0.0","41097897","wem/bandit_double","A3PRZRK9IC5CBI","both","7","2","8008","","","","6","6","6","","","","","","","","","","","","","","","","","","","","","","","","the village of Zur","","","","","","",""
"","identification","9","131768","0.0-8.0-1.0","41097897","wem/bandit_double","A3PRZRK9IC5CBI","both","7","2","6461","","","","3","3","3","","","","","","","","","","","","","","","","","","","","","","","","the village of Nyx","","","","","","",""
"","text","10","138629","0.0-9.0","41097897","wem/bandit_double","A3PRZRK9IC5CBI","both","7","2","5859","","32","","","","","","","","","","","","","","","","","","","","","","","","","","","","","","","","","","",""
"","text","11","140669","0.0-10.0","41097897","wem/bandit_double","A3PRZRK9IC5CBI","both","7","2","2039","","32","","","","","","","","","","","","","","","","","","","","","","","","","","","","","","","","","","",""
"","text","12","147581","0.0-11.0","41097897","wem/bandit_double","A3PRZRK9IC5CBI","both","7","2","6911","","32","","","","","","","","","","","","","","","","","","","","","","","","","","","","","","","","","","",""
"","text","13","150509","0.0-12.0","41097897","wem/bandit_double","A3PRZRK9IC5CBI","both","7","2","2926","","32","","","","","","","","","","","","","","","","","","","","","","","","","","","","","","","","","","",""
"","text","14","155581","0.0-13.0","41097897","wem/bandit_double","A3PRZRK9IC5CBI","both","7","2","5071","","32","","","","","","","","","","","","","","","","","","","","","","","","","","","","","","","","","","",""
"","bandit","15","159998","0.0-14.0-0.0","41097897","wem/bandit_double","A3PRZRK9IC5CBI","both","7","2","2909","","","","","","","1","0","0","1","0","","","","","0","","","","1","","","","","","","","","","","74","J","0","img/none_selected_demo.jpg","true","0",""
"","bandit","16","163308","0.0-15.0-0.0","41097897","wem/bandit_double","A3PRZRK9IC5CBI","both","7","2","1805","","","","","","","0","1","0","0","1","","","","","1","","","","0","","","","","","","","","","","75","K","0","img/none_selected_demo.jpg","true","0",""
"","text","17","172101","0.0-16.0","41097897","wem/bandit_double","A3PRZRK9IC5CBI","both","7","2","8792","","32","","","","","","","","","","","","","","","","","","","","","","","","","","","","","","","","","","",""
"","text","18","182918","0.0-17.0","41097897","wem/bandit_double","A3PRZRK9IC5CBI","both","7","2","10815","","32","","","","","","","","","","","","","","","","","","","","","","","","","","","","","","","","","","",""
"","text","19","189621","0.0-18.0","41097897","wem/bandit_double","A3PRZRK9IC5CBI","both","7","2","6702","","32","","","","","","","","","","","","","","","","","","","","","","","","","","","","","","","","","","",""
"","text","20","195078","0.0-19.0","41097897","wem/bandit_double","A3PRZRK9IC5CBI","both","7","2","5455","","32","","","","","","","","","","","","","","","","","","","","","","","","","","","","","","","","","","",""
"","bandit","21","199757","0.0-20.0-0.0","41097897","wem/bandit_double","A3PRZRK9IC5CBI","both","7","2","3173","","","","","","","1","0","0","0.8","0","","","","","0","0","","","0.8","0.2","","","","","","","","","","74","J","0","img/none_selected_demo.jpg","true","0","80_20_practice"
"","bandit","22","202605","0.0-20.0-1.0","41097897","wem/bandit_double","A3PRZRK9IC5CBI","both","7","2","1343","","","","","","","0","0","1","0.8","0","","","","","0","0","","","0.8","0.2","","","","","","","","","","74","J","0","img/none_selected_demo.jpg","true","0","80_20_practice"
"","bandit","23","204894","0.0-20.0-2.0","41097897","wem/bandit_double","A3PRZRK9IC5CBI","both","7","2","783","","","","","","","1","0","0","0.8","0","","","","","0","0","","","0.8","0.2","","","","","","","","","","74","J","0","img/none_selected_demo.jpg","true","0","80_20_practice"
"","bandit","24","207286","0.0-20.0-3.0","41097897","wem/bandit_double","A3PRZRK9IC5CBI","both","7","2","887","","","","","","","0","0","1","0.2","0","","","","","0","0","","","0.8","0.2","","","","","","","","","","75","K","1","","true","0","80_20_practice"
"","bandit","25","209796","0.0-20.0-4.0","41097897","wem/bandit_double","A3PRZRK9IC5CBI","both","7","2","1006","","","","","","","0","0","1","0.2","0","","","","","0","0","","","0.8","0.2","","","","","","","","","","75","K","1","","true","0","80_20_practice"
"","bandit","26","211572","0.0-20.0-5.0","41097897","wem/bandit_double","A3PRZRK9IC5CBI","both","7","2","271","","","","","","","1","0","0","0.8","0","","","","","0","0","","","0.8","0.2","","","","","","","","","","74","J","0","img/none_selected_demo.jpg","true","0","80_20_practice"
"","bandit","27","213406","0.0-20.0-6.0","41097897","wem/bandit_double","A3PRZRK9IC5CBI","both","7","2","328","","","","","","","0","0","1","0.8","0","","","","","0","0","","","0.8","0.2","","","","","","","","","","74","J","0","img/none_selected_demo.jpg","true","0","80_20_practice"
"","bandit","28","215199","0.0-20.0-7.0","41097897","wem/bandit_double","A3PRZRK9IC5CBI","both","7","2","285","","","","","","","1","0","0","0.8","0","","","","","0","0","","","0.8","0.2","","","","","","","","","","74","J","0","img/none_selected_demo.jpg","true","0","80_20_practice"
"","bandit","29","217310","0.0-20.0-8.0","41097897","wem/bandit_double","A3PRZRK9IC5CBI","both","7","2","605","","","","","","","0","0","1","0.8","0","","","","","0","0","","","0.8","0.2","","","","","","","","","","74","J","0","img/none_selected_demo.jpg","true","0","80_20_practice"
"","bandit","30","219157","0.0-20.0-9.0","41097897","wem/bandit_double","A3PRZRK9IC5CBI","both","7","2","342","","","","","","","1","0","0","0.8","0","","","","","0","0","","","0.8","0.2","","","","","","","","","","74","J","0","img/none_selected_demo.jpg","true","0","80_20_practice"
"","bandit","31","221134","0.0-20.0-10.0","41097897","wem/bandit_double","A3PRZRK9IC5CBI","both","7","2","471","","","","","","","0","0","1","0.2","0","","","","","0","0","","","0.8","0.2","","","","","","","","","","75","K","1","","true","0","80_20_practice"
"","bandit","32","222916","0.0-20.0-11.0","41097897","wem/bandit_double","A3PRZRK9IC5CBI","both","7","2","278","","","","","","","1","0","0","0.2","0","","","","","0","0","","","0.8","0.2","","","","","","","","","","75","K","1","","true","0","80_20_practice"
"","bandit","33","224661","0.0-20.0-12.0","41097897","wem/bandit_double","A3PRZRK9IC5CBI","both","7","2","240","","","","","","","1","0","0","0.8","0","","","","","0","0","","","0.8","0.2","","","","","","","","","","74","J","0","img/none_selected_demo.jpg","true","0","80_20_practice"
"","bandit","34","226573","0.0-20.0-13.0","41097897","wem/bandit_double","A3PRZRK9IC5CBI","both","7","2","407","","","","","","","1","0","0","0.8","0","","","","","0","0","","","0.8","0.2","","","","","","","","","","74","J","0","img/none_selected_demo.jpg","true","0","80_20_practice"
"","bandit","35","228389","0.0-20.0-14.0","41097897","wem/bandit_double","A3PRZRK9IC5CBI","both","7","2","311","","","","","","","1","0","0","0.8","0","","","","","0","0","","","0.8","0.2","","","","","","","","","","74","J","0","img/none_selected_demo.jpg","true","0","80_20_practice"
"","bandit","36","230166","0.0-20.0-15.0","41097897","wem/bandit_double","A3PRZRK9IC5CBI","both","7","2","271","","","","","","","1","0","0","0.8","0","","","","","0","0","","","0.8","0.2","","","","","","","","","","74","J","0","img/none_selected_demo.jpg","true","0","80_20_practice"
"","bandit","37","232237","0.0-20.0-16.0","41097897","wem/bandit_double","A3PRZRK9IC5CBI","both","7","2","566","","","","","","","1","0","0","0.8","0","","","","","0","0","","","0.8","0.2","","","","","","","","","","74","J","0","img/none_selected_demo.jpg","true","0","80_20_practice"
"","bandit","38","233974","0.0-20.0-17.0","41097897","wem/bandit_double","A3PRZRK9IC5CBI","both","7","2","231","","","","","","","1","0","0","0.8","0","","","","","0","0","","","0.8","0.2","","","","","","","","","","74","J","0","img/none_selected_demo.jpg","true","0","80_20_practice"
"","bandit","39","235709","0.0-20.0-18.0","41097897","wem/bandit_double","A3PRZRK9IC5CBI","both","7","2","230","","","","","","","1","0","0","0.8","0","","","","","0","0","","","0.8","0.2","","","","","","","","","","74","J","0","img/none_selected_demo.jpg","true","0","80_20_practice"
"","bandit","40","237548","0.0-20.0-19.0","41097897","wem/bandit_double","A3PRZRK9IC5CBI","both","7","2","334","","","","","","","1","0","0","0.8","0","","","","","0","0","","","0.8","0.2","","","","","","","","","","74","J","0","img/none_selected_demo.jpg","true","0","80_20_practice"
"","text","41","243910","0.0-21.0","41097897","wem/bandit_double","A3PRZRK9IC5CBI","both","7","2","6359","","32","","","","","","","","","","","","","","","","","","","","","","","","","","","","","","","","","","",""
"","bandit","42","247677","0.0-22.0-0.0","41097897","wem/bandit_double","A3PRZRK9IC5CBI","both","7","2","2262","","","","","","","1","0","0","1","0","","","","","0","1","","","1","0","","","","","","","","","","74","J","0","img/none_selected_demo.jpg","true","0",""
"","text","43","254790","0.0-23.0","41097897","wem/bandit_double","A3PRZRK9IC5CBI","both","7","2","7111","","32","","","","","","","","","","","","","","","","","","","","","","","","","","","","","","","","","","",""
"","text","44","258910","0.0-24.0","41097897","wem/bandit_double","A3PRZRK9IC5CBI","both","7","2","4118","","32","","","","","","","","","","","","","","","","","","","","","","","","","","","","","","","","","","",""
"","text","45","262973","0.0-25.0","41097897","wem/bandit_double","A3PRZRK9IC5CBI","both","7","2","4061","","32","","","","","","","","","","","","","","","","","","","","","","","","","","","","","","","","","","",""
"","text","46","267261","0.0-26.0","41097897","wem/bandit_double","A3PRZRK9IC5CBI","both","7","2","4287","","32","","","","","","","","","","","","","","","","","","","","","","","","","","","","","","","","","","",""
"","text","47","274725","0.0-27.0","41097897","wem/bandit_double","A3PRZRK9IC5CBI","both","7","2","7463","","32","","","","","","","","","","","","","","","","","","","","","","","","","","","","","","","","","","",""
"","text","48","286742","0.0-28.0","41097897","wem/bandit_double","A3PRZRK9IC5CBI","both","7","2","12014","","32","","","","","","","","","","","","","","","","","","","","","","","","","","","","","","","","","","",""
"","text","49","298789","0.0-29.0","41097897","wem/bandit_double","A3PRZRK9IC5CBI","both","7","2","12045","","32","","","","","","","","","","","","","","","","","","","","","","","","","","","","","","","","","","",""
"","text","50","305541","0.0-30.0","41097897","wem/bandit_double","A3PRZRK9IC5CBI","both","7","2","6751","","32","","","","","","","","","","","","","","","","","","","","","","","","","","","","","","","","","","",""
"","text","51","310661","0.0-31.0","41097897","wem/bandit_double","A3PRZRK9IC5CBI","both","7","2","5119","","32","","","","","","","","","","","","","","","","","","","","","","","","","","","","","","","","","","",""
"","text","52","317252","0.0-32.0","41097897","wem/bandit_double","A3PRZRK9IC5CBI","both","7","2","6590","","32","","","","","","","","","","","","","","","","","","","","","","","","","","","","","","","","","","",""
"","text","53","319797","0.0-33.0","41097897","wem/bandit_double","A3PRZRK9IC5CBI","both","7","2","2542","","32","","","","","","","","","","","","","","","","","","","","","","","","","","","","","","","","","","",""
"","text","54","326262","0.0-34.0","41097897","wem/bandit_double","A3PRZRK9IC5CBI","both","7","2","6463","","32","","","","","","","","","","","","","","","","","","","","","","","","","","","","","","","","","","",""
"","bandit","55","328870","0.0-35.0-0.0","41097897","wem/bandit_double","A3PRZRK9IC5CBI","both","7","2","1102","","","","","","","0","1","0","0.8","0.8","","","","","0.8","0.2","0.6","0.2","0.8","0.2","0.6","0.2","","","","","","","","72","H","0","img/none_selected.jpg","true","0","full_practice"
"","bandit","56","331437","0.0-35.0-1.0","41097897","wem/bandit_double","A3PRZRK9IC5CBI","both","7","2","1062","","","","","","","0","0","1","0.2","0.2","","","","","0.8","0.2","0.6","0.2","0.8","0.2","0.6","0.2","","","","","","","","74","J","1","","true","0","full_practice"
"","bandit","57","333237","0.0-35.0-2.0","41097897","wem/bandit_double","A3PRZRK9IC5CBI","both","7","2","295","","","","","","","1","1","0","0.2","0.2","","","","","0.8","0.2","0.6","0.2","0.8","0.2","0.6","0.2","","","","","","","","74","J","1","","true","0","full_practice"
"","bandit","58","335742","0.0-35.0-3.0","41097897","wem/bandit_double","A3PRZRK9IC5CBI","both","7","2","998","","","","","","","0","0","1","0.2","0.2","","","","","0.8","0.2","0.6","0.2","0.8","0.2","0.6","0.2","","","","","","","","74","J","1","","true","0","full_practice"
"","bandit","59","337973","0.0-35.0-4.0","41097897","wem/bandit_double","A3PRZRK9IC5CBI","both","7","2","724","","","","","","","0","0","1","0.2","0.2","","","","","0.8","0.2","0.6","0.2","0.8","0.2","0.6","0.2","","","","","","","","76","L","3","","true","0","full_practice"
"","bandit","60","339909","0.0-35.0-5.0","41097897","wem/bandit_double","A3PRZRK9IC5CBI","both","7","2","431","","","","","","","0","1","0","0.6","0.6","","","","","0.8","0.2","0.6","0.2","0.8","0.2","0.6","0.2","","","","","","","","75","K","2","","true","0","full_practice"
"","bandit","61","341748","0.0-35.0-6.0","41097897","wem/bandit_double","A3PRZRK9IC5CBI","both","7","2","335","","","","","","","0","0","1","0.2","0.2","","","","","0.8","0.2","0.6","0.2","0.8","0.2","0.6","0.2","","","","","","","","74","J","1","","true","0","full_practice"
"","bandit","62","343533","0.0-35.0-7.0","41097897","wem/bandit_double","A3PRZRK9IC5CBI","both","7","2","279","","","","","","","1","1","0","0.8","0.8","","","","","0.8","0.2","0.6","0.2","0.8","0.2","0.6","0.2","","","","","","","","72","H","0","img/none_selected.jpg","true","0","full_practice"
"","bandit","63","345245","0.0-35.0-8.0","41097897","wem/bandit_double","A3PRZRK9IC5CBI","both","7","2","206","","","","","","","1","1","0","0.8","0.8","","","","","0.8","0.2","0.6","0.2","0.8","0.2","0.6","0.2","","","","","","","","72","H","0","img/none_selected.jpg","true","0","full_practice"
"","bandit","64","346989","0.0-35.0-9.0","41097897","wem/bandit_double","A3PRZRK9IC5CBI","both","7","2","238","","","","","","","1","1","0","0.8","0.8","","","","","0.8","0.2","0.6","0.2","0.8","0.2","0.6","0.2","","","","","","","","72","H","0","img/none_selected.jpg","true","0","full_practice"
"","bandit","65","348597","0.0-35.0-10.0","41097897","wem/bandit_double","A3PRZRK9IC5CBI","both","7","2","102","","","","","","","1","1","0","0.8","0.8","","","","","0.8","0.2","0.6","0.2","0.8","0.2","0.6","0.2","","","","","","","","72","H","0","img/none_selected.jpg","true","0","full_practice"
"","bandit","66","350375","0.0-35.0-11.0","41097897","wem/bandit_double","A3PRZRK9IC5CBI","both","7","2","270","","","","","","","1","0","0","0.8","0.8","","","","","0.8","0.2","0.6","0.2","0.8","0.2","0.6","0.2","","","","","","","","72","H","0","img/none_selected.jpg","true","0","full_practice"
"","bandit","67","352110","0.0-35.0-12.0","41097897","wem/bandit_double","A3PRZRK9IC5CBI","both","7","2","229","","","","","","","1","0","0","0.8","0.8","","","","","0.8","0.2","0.6","0.2","0.8","0.2","0.6","0.2","","","","","","","","72","H","0","img/none_selected.jpg","true","0","full_practice"
"","bandit","68","353819","0.0-35.0-13.0","41097897","wem/bandit_double","A3PRZRK9IC5CBI","both","7","2","206","","","","","","","1","1","0","0.8","0.8","","","","","0.8","0.2","0.6","0.2","0.8","0.2","0.6","0.2","","","","","","","","72","H","0","img/none_selected.jpg","true","0","full_practice"
"","bandit","69","355557","0.0-35.0-14.0","41097897","wem/bandit_double","A3PRZRK9IC5CBI","both","7","2","231","","","","","","","0","1","0","0.8","0.8","","","","","0.8","0.2","0.6","0.2","0.8","0.2","0.6","0.2","","","","","","","","72","H","0","img/none_selected.jpg","true","0","full_practice"
"","bandit","70","357243","0.0-35.0-15.0","41097897","wem/bandit_double","A3PRZRK9IC5CBI","both","7","2","182","","","","","","","0","1","0","0.8","0.8","","","","","0.8","0.2","0.6","0.2","0.8","0.2","0.6","0.2","","","","","","","","72","H","0","img/none_selected.jpg","true","0","full_practice"
"","bandit","71","359151","0.0-35.0-16.0","41097897","wem/bandit_double","A3PRZRK9IC5CBI","both","7","2","401","","","","","","","1","1","0","0.8","0.8","","","","","0.8","0.2","0.6","0.2","0.8","0.2","0.6","0.2","","","","","","","","72","H","0","img/none_selected.jpg","true","0","full_practice"
"","bandit","72","361036","0.0-35.0-17.0","41097897","wem/bandit_double","A3PRZRK9IC5CBI","both","7","2","381","","","","","","","1","1","0","0.8","0.8","","","","","0.8","0.2","0.6","0.2","0.8","0.2","0.6","0.2","","","","","","","","72","H","0","img/none_selected.jpg","true","0","full_practice"
"","bandit","73","362949","0.0-35.0-18.0","41097897","wem/bandit_double","A3PRZRK9IC5CBI","both","7","2","406","","","","","","","1","1","0","0.8","0.8","","","","","0.8","0.2","0.6","0.2","0.8","0.2","0.6","0.2","","","","","","","","72","H","0","img/none_selected.jpg","true","0","full_practice"
"","bandit","74","364676","0.0-35.0-19.0","41097897","wem/bandit_double","A3PRZRK9IC5CBI","both","7","2","223","","","","","","","1","0","0","0.8","0.8","","","","","0.8","0.2","0.6","0.2","0.8","0.2","0.6","0.2","","","","","","","","72","H","0","img/none_selected.jpg","true","0","full_practice"
"","text","75","369078","0.0-36.0","41097897","wem/bandit_double","A3PRZRK9IC5CBI","both","7","2","4398","","32","","","","","","","","","","","","","","","","","","","","","","","","","","","","","","","","","","",""
"","text","76","382392","0.0-37.0","41097897","wem/bandit_double","A3PRZRK9IC5CBI","both","7","2","12310","","32","","","","","","","","","","","","","","","","","","","","","","","","","","","","","","","","","","",""
"","text","77","389501","0.0-38.0","41097897","wem/bandit_double","A3PRZRK9IC5CBI","both","7","2","7108","","32","","","","","","","","","","","","","","","","","","","","","","","","","","","","","","","","","","",""
"","text","78","395710","0.0-39.0","41097897","wem/bandit_double","A3PRZRK9IC5CBI","both","7","2","6207","","32","","","","","","","","","","","","","","","","","","","","","","","","","","","","","","","","","","",""
"","text","79","402581","0.0-40.0","41097897","wem/bandit_double","A3PRZRK9IC5CBI","both","7","2","6870","","32","","","","","","","","","","","","","","","","","","","","","","","","","","","","","","","","","","",""
"","bandit","80","406069","0.0-41.0-0.0","41097897","wem/bandit_double","A3PRZRK9IC5CBI","both","7","2","1981","","","","","","","0","0","1","0.01738065524","0.4781977867","","","","","0.4781977867","0.362799796","0.326135308","0.3653736811","0.01738065524","0.1952616071","0.06530018083","0.1480066451","","","","","","","","72","H","0","img/none_selected.jpg","","1","main_expt"
"","bandit","81","408021","0.0-42.0-0.0","41097897","wem/bandit_double","A3PRZRK9IC5CBI","both","7","2","447","","","","","","","0","1","0","0.0196943787","0.4765481994","","","","","0.4765481994","0.3891507205","0.3564958201","0.3999069229","0.0196943787","0.1652234336","0.1011701763","0.1053714073","","","","","","","","72","H","0","img/none_selected.jpg","","2","main_expt"
"","bandit","82","409757","0.0-43.0-0.0","41097897","wem/bandit_double","A3PRZRK9IC5CBI","both","7","2","230","","","","","","","0","1","0","0.01678573497","0.4722158263","","","","","0.4722158263","0.3151339382","0.3309056029","0.4363582421","0.01678573497","0.1347382479","0.09486719381","0.1460078221","","","","","","","","72","H","0","img/none_selected.jpg","","3","main_expt"
"","bandit","83","411468","0.0-44.0-0.0","41097897","wem/bandit_double","A3PRZRK9IC5CBI","both","7","2","207","","","","","","","0","0","1","0.1684625442","0.250648122","","","","","0.4609570051","0.250648122","0.308467875","0.4300921111","0.02981965743","0.1684625442","0.06705802814","0.1866138214","","","","","","","","74","J","1","","","4","main_expt"
"","bandit","84","413373","0.0-45.0-0.0","41097897","wem/bandit_double","A3PRZRK9IC5CBI","both","7","2","398","","","","","","","0","1","0","0.0822298525","0.3349995635","","","","","0.4707799186","0.2382585344","0.3349995635","0.3863220662","0.02600208211","0.1792029032","0.0822298525","0.2445348717","","","","","","","","75","K","2","","","5","main_expt"
"","bandit","85","415117","0.0-46.0-0.0","41097897","wem/bandit_double","A3PRZRK9IC5CBI","both","7","2","239","","","","","","","0","0","1","0.2546962146","0.4192648028","","","","","0.4676743975","0.2088101903","0.3743101545","0.4192648028","0.02332436933","0.2153873139","0.09162209411","0.2546962146","","","","","","","","76","L","3","","","6","main_expt"
"","bandit","86","417492","0.0-47.0-0.0","41097897","wem/bandit_double","A3PRZRK9IC5CBI","both","7","2","871","","","","","","","0","0","1","0.02864040813","0.4767364015","","","","","0.4767364015","0.1884279889","0.377506125","0.4218548145","0.02864040813","0.1757762721","0.1028820098","0.2344841702","","","","","","","","72","H","0","img/none_selected.jpg","","7","main_expt"
"","bandit","87","419309","0.0-48.0-0.0","41097897","wem/bandit_double","A3PRZRK9IC5CBI","both","7","2","312","","","","","","","0","1","0","0.02951264166","0.4837409877","","","","","0.4837409877","0.2297930851","0.3452849142","0.4298914749","0.02951264166","0.2241229746","0.1532270122","0.2473344203","","","","","","","","72","H","0","img/none_selected.jpg","","8","main_expt"
"","bandit","88","421038","0.0-49.0-0.0","41097897","wem/bandit_double","A3PRZRK9IC5CBI","both","7","2","220","","","","","","","0","0","1","0.02997011939","0.4825212187","","","","","0.4825212187","0.2219539873","0.2713567333","0.4215440671","0.02997011939","0.2199426203","0.2131450397","0.2642160399","","","","","","","","72","H","0","img/none_selected.jpg","","9","main_expt"
"","bandit","89","422884","0.0-50.0-0.0","41097897","wem/bandit_double","A3PRZRK9IC5CBI","both","7","2","341","","","","","","","0","0","1","0.1520686932","0.2398128751","","","","","0.4791264729","0.2398128751","0.2712708503","0.3991616263","0.02489651457","0.1520686932","0.2985754635","0.2104627424","","","","","","","","74","J","1","","","10","main_expt"
"","bandit","90","424533","0.0-51.0-0.0","41097897","wem/bandit_double","A3PRZRK9IC5CBI","both","7","2","143","","","","","","","0","0","1","0.2013349999","0.2551733424","","","","","0.4762013833","0.2551733424","0.2635531688","0.4002673883","0.01651058827","0.2013349999","0.2924640086","0.219372878","","","","","","","","74","J","1","","","11","main_expt"
"","bandit","91","426269","0.0-52.0-0.0","41097897","wem/bandit_double","A3PRZRK9IC5CBI","both","7","2","231","","","","","","","0","0","1","0.3264291113","0.2669056975","","","","","0.4729837645","0.2593424883","0.2669056975","0.368629831","0.02341729431","0.2156800105","0.3264291113","0.2105839871","","","","","","","","75","K","2","","","12","main_expt"
"","bandit","92","427980","0.0-53.0-0.0","41097897","wem/bandit_double","A3PRZRK9IC5CBI","both","7","2","205","","","","","","","1","0","0","0.3254913314","0.3204456557","","","","","0.4749786695","0.2493591627","0.3204456557","0.4189726289","0.0257410372","0.1833947696","0.3254913314","0.2511698571","","","","","","","","75","K","2","","","13","main_expt"
"","bandit","93","429620","0.0-54.0-0.0","41097897","wem/bandit_double","A3PRZRK9IC5CBI","both","7","2","135","","","","","","","0","1","0","0.3428504842","0.3466526728","","","","","0.4810115094","0.2686446846","0.3466526728","0.4352425359","0.02570014082","0.243643366","0.3428504842","0.2158977649","","","","","","","","75","K","2","","","14","main_expt"
"","bandit","94","431334","0.0-55.0-0.0","41097897","wem/bandit_double","A3PRZRK9IC5CBI","both","7","2","207","","","","","","","1","1","0","0.3244047679","0.3736671224","","","","","0.4705329286","0.2690169042","0.3736671224","0.3819090161","0.04268316416","0.2265365198","0.3244047679","0.2762480727","","","","","","","","75","K","2","","","15","main_expt"
"","bandit","95","433109","0.0-56.0-0.0","41097897","wem/bandit_double","A3PRZRK9IC5CBI","both","7","2","269","","","","","","","1","0","0","0.3025313629","0.3778143907","","","","","0.4687419894","0.2518303543","0.3778143907","0.3737760256","0.04667408308","0.2484951132","0.3025313629","0.3202890724","","","","","","","","75","K","2","","","16","main_expt"
"","bandit","96","434853","0.0-57.0-0.0","41097897","wem/bandit_double","A3PRZRK9IC5CBI","both","7","2","239","","","","","","","0","0","1","0.3291216938","0.3845750066","","","","","0.4594180265","0.2406549936","0.3845750066","0.4151791473","0.0506688767","0.2570267238","0.3291216938","0.3680552247","","","","","","","","75","K","2","","","17","main_expt"
"","bandit","97","436588","0.0-58.0-0.0","41097897","wem/bandit_double","A3PRZRK9IC5CBI","both","7","2","230","","","","","","","1","0","0","0.2987881532","0.4041286345","","","","","0.425397146","0.2670149403","0.4041286345","0.4137363134","0.02988526167","0.287418789","0.2987881532","0.3968593921","","","","","","","","75","K","2","","","18","main_expt"
"","bandit","98","438317","0.0-59.0-0.0","41097897","wem/bandit_double","A3PRZRK9IC5CBI","both","7","2","223","","","","","","","0","0","1","0.281207523","0.4127350431","","","","","0.4201246927","0.2658482338","0.4127350431","0.4084056464","0.03476350355","0.2338710899","0.281207523","0.4192996399","","","","","","","","75","K","2","","","19","main_expt"
"","bandit","99","440029","0.0-60.0-0.0","41097897","wem/bandit_double","A3PRZRK9IC5CBI","both","7","2","207","","","","","","","0","1","0","0.291129981","0.4107359536","","","","","0.3954271328","0.2452433766","0.4107359536","0.4129175496","0.0233687216","0.2335293464","0.291129981","0.4362768361","","","","","","","","75","K","2","","","20","main_expt"
"","bandit","100","441701","0.0-61.0-0.0","41097897","wem/bandit_double","A3PRZRK9IC5CBI","both","7","2","167","","","","","","","0","1","0","0.2729578326","0.3954861765","","","","","0.4196431029","0.2298761452","0.3954861765","0.3888488162","0.01272547494","0.2434826965","0.2729578326","0.4599691003","","","","","","","","75","K","2","","","21","main_expt"
"","bandit","101","443444","0.0-62.0-0.0","41097897","wem/bandit_double","A3PRZRK9IC5CBI","both","7","2","237","","","","","","","0","0","1","0.44353765","0.3873149631","","","","","0.3843335182","0.266827693","0.3805979297","0.3873149631","0.01739491555","0.2702300591","0.2805141014","0.44353765","","","","","","","","76","L","3","","","22","main_expt"
"","bandit","102","445051","0.0-63.0-0.0","41097897","wem/bandit_double","A3PRZRK9IC5CBI","both","7","2","103","","","","","","","1","0","0","0.4105594395","0.3659772031","","","","","0.3839977458","0.2519769849","0.425451992","0.3659772031","0.006692102231","0.2424740502","0.3016389313","0.4105594395","","","","","","","","76","L","3","","","23","main_expt"
"","bandit","103","446788","0.0-64.0-0.0","41097897","wem/bandit_double","A3PRZRK9IC5CBI","both","7","2","232","","","","","","","1","1","0","0.4243351486","0.3594327093","","","","","0.3338939571","0.2447613107","0.4699447661","0.3594327093","0.01209419849","0.1754503809","0.2475621169","0.4243351486","","","","","","","","76","L","3","","","24","main_expt"
"","bandit","104","448500","0.0-65.0-0.0","41097897","wem/bandit_double","A3PRZRK9IC5CBI","both","7","2","206","","","","","","","1","1","0","0.4172780312","0.3719143394","","","","","0.324486952","0.2350413847","0.4484050393","0.3719143394","0.009734580702","0.2023019753","0.2607476102","0.4172780312","","","","","","","","76","L","3","","","25","main_expt"
"","bandit","105","450237","0.0-66.0-0.0","41097897","wem/bandit_double","A3PRZRK9IC5CBI","both","7","2","232","","","","","","","1","0","0","0.3981062588","0.3690014044","","","","","0.3095710384","0.207774486","0.4190234423","0.3690014044","0.008596148908","0.1887270612","0.292589008","0.3981062588","","","","","","","","76","L","3","","","26","main_expt"
"","bandit","106","451893","0.0-67.0-0.0","41097897","wem/bandit_double","A3PRZRK9IC5CBI","both","7","2","149","","","","","","","0","1","0","0.3889188119","0.3940030818","","","","","0.3355629191","0.2164182795","0.4251478254","0.3940030818","0.01380650739","0.2526986378","0.2978950393","0.3889188119","","","","","","","","76","L","3","","","27","main_expt"
"","bandit","107","453539","0.0-68.0-0.0","41097897","wem/bandit_double","A3PRZRK9IC5CBI","both","7","2","142","","","","","","","1","0","0","0.3699095679","0.4111080327","","","","","0.3668681485","0.2164031865","0.4287328697","0.4111080327","0.01160852189","0.2536033627","0.337392419","0.3699095679","","","","","","","","76","L","3","","","28","main_expt"
"","bandit","108","455252","0.0-69.0-0.0","41097897","wem/bandit_double","A3PRZRK9IC5CBI","both","7","2","206","","","","","","","0","0","1","0.4087832773","0.41290056","","","","","0.343198694","0.2770000278","0.4106025245","0.41290056","0.02858314752","0.258258936","0.3830759015","0.4087832773","","","","","","","","76","L","3","","","29","main_expt"
"","bandit","109","456955","0.0-70.0-0.0","41097897","wem/bandit_double","A3PRZRK9IC5CBI","both","7","2","198","","","","","","","1","0","0","0.4162513677","0.3937480262","","","","","0.326069126","0.2354797847","0.3942494676","0.3937480262","0.0265596094","0.3152574144","0.3778881599","0.4162513677","","","","","","","","76","L","3","","","30","main_expt"
"","bandit","110","458677","0.0-71.0-0.0","41097897","wem/bandit_double","A3PRZRK9IC5CBI","both","7","2","215","","","","","","","1","1","0","0.43337534","0.3997016236","","","","","0.3390127419","0.2692030882","0.4285056211","0.3997016236","0.02828816112","0.3508579725","0.3585458117","0.43337534","","","","","","","","76","L","3","","","31","main_expt"
"","bandit","111","460421","0.0-72.0-0.0","41097897","wem/bandit_double","A3PRZRK9IC5CBI","both","7","2","238","","","","","","","1","0","0","0.4399105216","0.3574295763","","","","","0.3360649894","0.2471118655","0.4249454459","0.3574295763","0.03857304495","0.3902021543","0.3511664436","0.4399105216","","","","","","","","76","L","3","","","32","main_expt"
"","bandit","112","462148","0.0-73.0-0.0","41097897","wem/bandit_double","A3PRZRK9IC5CBI","both","7","2","222","","","","","","","0","0","1","0.3859623535","0.3877818659","","","","","0.3052602024","0.2879199001","0.416417765","0.3877818659","0.02642959278","0.4112626521","0.3924960189","0.3859623535","","","","","","","","76","L","3","","","33","main_expt"
"","bandit","113","463869","0.0-74.0-0.0","41097897","wem/bandit_double","A3PRZRK9IC5CBI","both","7","2","214","","","","","","","0","1","0","0.4231921331","0.3799496232","","","","","0.3594788954","0.3180115212","0.4623714429","0.3799496232","0.06800028167","0.3912589523","0.3713907517","0.4231921331","","","","","","","","76","L","3","","","34","main_expt"
"","bandit","114","465444","0.0-75.0-0.0","41097897","wem/bandit_double","A3PRZRK9IC5CBI","both","7","2","70","","","","","","","0","0","1","0.3929004689","0.4591977302","","","","","0.380235832","0.2524306687","0.4591977302","0.3577573403","0.05710280771","0.3663646496","0.3929004689","0.3950458867","","","","","","","","75","K","2","","","35","main_expt"
"","bandit","115","467068","0.0-76.0-0.0","41097897","wem/bandit_double","A3PRZRK9IC5CBI","both","7","2","119","","","","","","","0","0","1","0.3045225128","0.2351869563","","","","","0.3459989602","0.2351869563","0.4686235256","0.3895375856","0.07756943076","0.3045225128","0.3820467604","0.4005306787","","","","","","","","74","J","1","","","36","main_expt"
"","bandit","116","468821","0.0-77.0-0.0","41097897","wem/bandit_double","A3PRZRK9IC5CBI","both","7","2","247","","","","","","","0","0","1","0.3972735937","0.3783527007","","","","","0.3320905149","0.2629170466","0.4571547709","0.3783527007","0.06074629621","0.2806474599","0.3948022939","0.3972735937","","","","","","","","76","L","3","","","37","main_expt"
"","bandit","117","470564","0.0-78.0-0.0","41097897","wem/bandit_double","A3PRZRK9IC5CBI","both","7","2","239","","","","","","","1","0","0","0.38339591","0.284076782","","","","","0.3471020919","0.3090194305","0.4688430709","0.284076782","0.07063042774","0.3558759705","0.3769579019","0.38339591","","","","","","","","76","L","3","","","38","main_expt"
"","bandit","118","472285","0.0-79.0-0.0","41097897","wem/bandit_double","A3PRZRK9IC5CBI","both","7","2","215","","","","","","","0","0","1","0.3906354184","0.3388972186","","","","","0.3401763967","0.2845371228","0.4612923778","0.3388972186","0.06209293178","0.3194138052","0.4030344636","0.3906354184","","","","","","","","76","L","3","","","39","main_expt"
"","bandit","119","473989","0.0-80.0-0.0","41097897","wem/bandit_double","A3PRZRK9IC5CBI","both","7","2","199","","","","","","","0","0","1","0.3623676206","0.2663655232","","","","","0.3260487483","0.3076259244","0.4576194683","0.2663655232","0.06952578958","0.3549086085","0.3622335218","0.3623676206","","","","","","","","76","L","3","","","40","main_expt"
"","bandit","120","476461","0.0-81.0-0.0","41097897","wem/bandit_double","A3PRZRK9IC5CBI","both","7","2","966","","","","","","","1","0","0","0.1291245709","0.3390218734","","","","","0.3390218734","0.2888769276","0.4473921051","0.2608266697","0.1291245709","0.3452113815","0.3911596719","0.3873704927","","","","","","","","72","H","0","img/none_selected.jpg","","41","main_expt"
"","bandit","121","478197","0.0-82.0-0.0","41097897","wem/bandit_double","A3PRZRK9IC5CBI","both","7","2","229","","","","","","","0","0","1","0.1174523948","0.2889680017","","","","","0.2889680017","0.2639198141","0.425470286","0.2287676803","0.1174523948","0.3522960267","0.3921858285","0.359823116","","","","","","","","72","H","0","img/none_selected.jpg","","42","main_expt"
"","bandit","122","480028","0.0-83.0-0.0","41097897","wem/bandit_double","A3PRZRK9IC5CBI","both","7","2","325","","","","","","","0","0","1","0.1201484523","0.2784828801","","","","","0.2784828801","0.2255441472","0.4030522017","0.2043112358","0.1201484523","0.3093122096","0.3831213528","0.3710191411","","","","","","","","72","H","0","img/none_selected.jpg","","43","main_expt"
"","bandit","123","481829","0.0-84.0-0.0","41097897","wem/bandit_double","A3PRZRK9IC5CBI","both","7","2","294","","","","","","","0","1","0","0.09958360536","0.2805729819","","","","","0.2805729819","0.2050272072","0.4106315797","0.1957049551","0.09958360536","0.3026159556","0.3518708159","0.3874065465","","","","","","","","72","H","0","img/none_selected.jpg","","44","main_expt"
"","bandit","124","483652","0.0-85.0-0.0","41097897","wem/bandit_double","A3PRZRK9IC5CBI","both","7","2","318","","","","","","","0","1","0","0.05173655998","0.2195119073","","","","","0.2195119073","0.239455925","0.4258527362","0.2207366272","0.05173655998","0.3336294247","0.3122870636","0.3851533971","","","","","","","","72","H","0","img/none_selected.jpg","","45","main_expt"
"","bandit","125","485372","0.0-86.0-0.0","41097897","wem/bandit_double","A3PRZRK9IC5CBI","both","7","2","214","","","","","","","0","0","1","0.05945041096","0.2657932304","","","","","0.2657932304","0.2414778298","0.4425966235","0.1727988076","0.05945041096","0.3400222736","0.2635721956","0.4055883719","","","","","","","","72","H","0","img/none_selected.jpg","","46","main_expt"
"","bandit","126","487078","0.0-87.0-0.0","41097897","wem/bandit_double","A3PRZRK9IC5CBI","both","7","2","197","","","","","","","1","0","0","0.328707825","0.1884211613","","","","","0.2678398397","0.1884211613","0.4428977597","0.1446735631","0.04375763727","0.328707825","0.2856785865","0.3671593179","","","","","","","","74","J","1","","","47","main_expt"
"","bandit","127","488844","0.0-88.0-0.0","41097897","wem/bandit_double","A3PRZRK9IC5CBI","both","7","2","261","","","","","","","0","0","1","0.3307690822","0.1755274282","","","","","0.2866904938","0.1755274282","0.4479964269","0.1681765936","0.0666370861","0.3307690822","0.2649087478","0.3198203038","","","","","","","","74","J","1","","","48","main_expt"
"","bandit","128","490548","0.0-89.0-0.0","41097897","wem/bandit_double","A3PRZRK9IC5CBI","both","7","2","198","","","","","","","0","0","1","0.3438067684","0.1646396384","","","","","0.2803848884","0.1646396384","0.4660387519","0.1473883531","0.08266213623","0.3438067684","0.2462979357","0.3111357295","","","","","","","","74","J","1","","","49","main_expt"
"","bandit","129","492062","0.0-90.0-0.0","41097897","wem/bandit_double","A3PRZRK9IC5CBI","both","7","2","6","","","","","","","0","0","1","0.4037002216","0.2024226619","","","","","0.2587411269","0.2024226619","0.4345757832","0.1378170987","0.08795051988","0.4037002216","0.2490076798","0.3196682981","","","","","","","","74","J","1","","","50","main_expt"
"","bandit","130","493764","0.0-91.0-0.0","41097897","wem/bandit_double","A3PRZRK9IC5CBI","both","7","2","195","","","","","","","1","0","0","0.305209751","0.4450950844","","","","","0.2212901065","0.1976760068","0.4450950844","0.1430360168","0.07533366945","0.3557518394","0.305209751","0.3088596379","","","","","","","","75","K","2","","","51","main_expt"
"","bandit","131","495549","0.0-92.0-0.0","41097897","wem/bandit_double","A3PRZRK9IC5CBI","both","7","2","279","","","","","","","1","0","0","0.3087204988","0.4475354499","","","","","0.236006857","0.1796352224","0.4475354499","0.1731798725","0.06506638851","0.3254324358","0.3087204988","0.3060924957","","","","","","","","75","K","2","","","52","main_expt"
"","bandit","132","497229","0.0-93.0-0.0","41097897","wem/bandit_double","A3PRZRK9IC5CBI","both","7","2","172","","","","","","","1","0","0","0.2984188648","0.4627294295","","","","","0.2660825342","0.2451732725","0.4627294295","0.1312409056","0.06562792832","0.2952150256","0.2984188648","0.3229319808","","","","","","","","75","K","2","","","53","main_expt"
"","bandit","133","498780","0.0-94.0-0.0","41097897","wem/bandit_double","A3PRZRK9IC5CBI","both","7","2","45","","","","","","","0","0","1","0.3353917468","0.44829207","","","","","0.2458345041","0.2621482643","0.44829207","0.1862053218","0.04630081711","0.300320608","0.3353917468","0.3280138586","","","","","","","","75","K","2","","","54","main_expt"
"","bandit","134","500381","0.0-95.0-0.0","41097897","wem/bandit_double","A3PRZRK9IC5CBI","both","7","2","93","","","","","","","1","0","0","0.3259144651","0.4505537928","","","","","0.2265690781","0.2441780383","0.4505537928","0.1733563037","0.03868373719","0.2985084879","0.3259144651","0.2777260571","","","","","","","","75","K","2","","","55","main_expt"
"","bandit","135","502110","0.0-96.0-0.0","41097897","wem/bandit_double","A3PRZRK9IC5CBI","both","7","2","220","","","","","","","1","0","0","0.3259049121","0.4686400132","","","","","0.2741820357","0.199729785","0.4686400132","0.1728369204","0.06235362297","0.2607009345","0.3259049121","0.1791004868","","","","","","","","75","K","2","","","56","main_expt"
"","bandit","136","503763","0.0-97.0-0.0","41097897","wem/bandit_double","A3PRZRK9IC5CBI","both","7","2","148","","","","","","","0","1","0","0.3687904078","0.4572679106","","","","","0.2937641054","0.1945085845","0.4572679106","0.09176359954","0.04639461243","0.2565854794","0.3687904078","0.2182265394","","","","","","","","75","K","2","","","57","main_expt"
"","bandit","137","505523","0.0-98.0-0.0","41097897","wem/bandit_double","A3PRZRK9IC5CBI","both","7","2","255","","","","","","","1","0","0","0.3422038875","0.4300169527","","","","","0.2949827607","0.2614759052","0.4300169527","0.04991422033","0.08954448139","0.319121847","0.3422038875","0.2970860181","","","","","","","","75","K","2","","","58","main_expt"
"","bandit","138","507325","0.0-99.0-0.0","41097897","wem/bandit_double","A3PRZRK9IC5CBI","both","7","2","293","","","","","","","1","1","0","0.3771421139","0.4050829606","","","","","0.2710075273","0.2426118991","0.4050829606","0.053239915","0.07390342289","0.3269923399","0.3771421139","0.3249685468","","","","","","","","75","K","2","","","59","main_expt"
"","bandit","139","509052","0.0-100.0-0.0","41097897","wem/bandit_double","A3PRZRK9IC5CBI","both","7","2","221","","","","","","","0","0","1","0.3620124399","0.4070720156","","","","","0.2766623035","0.2623750897","0.4070720156","0.06994226662","0.05801548519","0.3150968823","0.3620124399","0.2931470039","","","","","","","","75","K","2","","","60","main_expt"
"","bandit","140","510915","0.0-101.0-0.0","41097897","wem/bandit_double","A3PRZRK9IC5CBI","both","7","2","357","","","","","","","1","0","0","0.3958116198","0.3895400789","","","","","0.2574592035","0.2139103784","0.3895400789","0.07064832373","0.07333263924","0.324539239","0.3958116198","0.2646536279","","","","","","","","75","K","2","","","61","main_expt"
"","bandit","141","512723","0.0-102.0-0.0","41097897","wem/bandit_double","A3PRZRK9IC5CBI","both","7","2","302","","","","","","","0","0","1","0.3615218546","0.4050708951","","","","","0.2425209234","0.2566580444","0.4050708951","0.08925217872","0.07563430262","0.3066306166","0.3615218546","0.242461968","","","","","","","","75","K","2","","","62","main_expt"
"","bandit","142","514484","0.0-103.0-0.0","41097897","wem/bandit_double","A3PRZRK9IC5CBI","both","7","2","253","","","","","","","0","0","1","0.3574266064","0.3765761212","","","","","0.2294211584","0.2393402704","0.3765761212","0.08505035955","0.06826526778","0.3068900116","0.3574266064","0.2206683029","","","","","","","","75","K","2","","","63","main_expt"
"","bandit","143","516189","0.0-104.0-0.0","41097897","wem/bandit_double","A3PRZRK9IC5CBI","both","7","2","196","","","","","","","0","0","1","0.3541915859","0.3859881554","","","","","0.2350173232","0.300105392","0.3859881554","0.09892528285","0.1175271989","0.2936494982","0.3541915859","0.2288959862","","","","","","","","75","K","2","","","64","main_expt"
"","bandit","144","517907","0.0-105.0-0.0","41097897","wem/bandit_double","A3PRZRK9IC5CBI","both","7","2","213","","","","","","","1","0","0","0.2346523549","0.1428545766","","","","","0.2775473173","0.2584268813","0.3817039273","0.1428545766","0.1273865191","0.290236101","0.3339820985","0.2346523549","","","","","","","","76","L","3","","","65","main_expt"
"","bandit","145","519642","0.0-106.0-0.0","41097897","wem/bandit_double","A3PRZRK9IC5CBI","both","7","2","230","","","","","","","0","0","1","0.1881688105","0.120440259","","","","","0.298861572","0.2536378703","0.3622232449","0.120440259","0.09075088943","0.2512036594","0.3195467083","0.1881688105","","","","","","","","76","L","3","","","66","main_expt"
"","bandit","146","521459","0.0-107.0-0.0","41097897","wem/bandit_double","A3PRZRK9IC5CBI","both","7","2","310","","","","","","","0","0","1","0.231043846","0.2019700983","","","","","0.3043747659","0.2548884231","0.3768721334","0.2019700983","0.08077075725","0.263747572","0.3477383846","0.231043846","","","","","","","","76","L","3","","","67","main_expt"
"","bandit","147","523182","0.0-108.0-0.0","41097897","wem/bandit_double","A3PRZRK9IC5CBI","both","7","2","214","","","","","","","0","0","1","0.2576664243","0.1467862533","","","","","0.2533072519","0.2105458193","0.3826604183","0.1467862533","0.08810311296","0.2892519303","0.3365352069","0.2576664243","","","","","","","","76","L","3","","","68","main_expt"
"","bandit","148","524972","0.0-109.0-0.0","41097897","wem/bandit_double","A3PRZRK9IC5CBI","both","7","2","282","","","","","","","0","0","1","0.2383664846","0.2901666962","","","","","0.2451677402","0.2901666962","0.3981811202","0.09022805221","0.1260156682","0.2383664846","0.3148812039","0.2183283259","","","","","","","","74","J","1","","","69","main_expt"
"","bandit","149","526659","0.0-110.0-0.0","41097897","wem/bandit_double","A3PRZRK9IC5CBI","both","7","2","181","","","","","","","1","0","0","0.2497111545","0.2973761433","","","","","0.2403061491","0.2973761433","0.3936557204","0.1128827508","0.08773951932","0.2497111545","0.3154014692","0.2260484764","","","","","","","","74","J","1","","","70","main_expt"
"","bandit","150","528378","0.0-111.0-0.0","41097897","wem/bandit_double","A3PRZRK9IC5CBI","both","7","2","213","","","","","","","0","0","1","0.2095843002","0.2737706179","","","","","0.1917576795","0.2737706179","0.3949471057","0.1184182172","0.1154304285","0.2095843002","0.219815459","0.3196469567","","","","","","","","74","J","1","","","71","main_expt"
"","bandit","151","529979","0.0-112.0-0.0","41097897","wem/bandit_double","A3PRZRK9IC5CBI","both","7","2","95","","","","","","","1","0","0","0.1972488467","0.3005227265","","","","","0.1894079546","0.3005227265","0.3888869603","0.1038133506","0.10097247","0.1972488467","0.2623730272","0.3644141189","","","","","","","","74","J","1","","","72","main_expt"
"","bandit","152","531670","0.0-113.0-0.0","41097897","wem/bandit_double","A3PRZRK9IC5CBI","both","7","2","181","","","","","","","0","0","1","0.15494396","0.3205676235","","","","","0.235909594","0.3205676235","0.4015056825","0.07830871569","0.0746930591","0.15494396","0.2639805735","0.4081842109","","","","","","","","74","J","1","","","73","main_expt"
"","bandit","153","533258","0.0-114.0-0.0","41097897","wem/bandit_double","A3PRZRK9IC5CBI","both","7","2","83","","","","","","","0","1","0","0.1324790415","0.3040473008","","","","","0.2772030277","0.3040473008","0.4200542591","0.09226686474","0.1124392477","0.1324790415","0.2770925356","0.4506698749","","","","","","","","74","J","1","","","74","main_expt"
"","bandit","154","534923","0.0-115.0-0.0","41097897","wem/bandit_double","A3PRZRK9IC5CBI","both","7","2","158","","","","","","","0","0","1","0.179195356","0.2686744794","","","","","0.2237268092","0.2686744794","0.4353174817","0.07948082514","0.113494578","0.179195356","0.2796652475","0.454520075","","","","","","","","74","J","1","","","75","main_expt"
"","bandit","155","536731","0.0-116.0-0.0","41097897","wem/bandit_double","A3PRZRK9IC5CBI","both","7","2","302","","","","","","","0","0","1","0.215808919","0.258707356","","","","","0.1739375455","0.258707356","0.4196821318","0.1279570505","0.1469344428","0.215808919","0.3153427244","0.466199952","","","","","","","","74","J","1","","","76","main_expt"
"","bandit","156","538467","0.0-117.0-0.0","41097897","wem/bandit_double","A3PRZRK9IC5CBI","both","7","2","230","","","","","","","0","0","1","0.2152215887","0.1648796623","","","","","0.1648796623","0.3010070056","0.3787369199","0.1202820049","0.2152215887","0.2312347408","0.3676911864","0.4402141775","","","","","","","","72","H","0","img/none_selected.jpg","","77","main_expt"
"","bandit","157","540131","0.0-118.0-0.0","41097897","wem/bandit_double","A3PRZRK9IC5CBI","both","7","2","159","","","","","","","0","0","1","0.2055177618","0.1637798684","","","","","0.1637798684","0.2648586626","0.4314930014","0.1054071572","0.2055177618","0.2197025874","0.3434277392","0.4525957793","","","","","","","","72","H","0","img/none_selected.jpg","","78","main_expt"
"","bandit","158","542132","0.0-119.0-0.0","41097897","wem/bandit_double","A3PRZRK9IC5CBI","both","7","2","493","","","","","","","1","1","0","0.3758616161","0.4155078174","","","","","0.1490076182","0.1984114041","0.4155078174","0.1403095361","0.222262525","0.2227420924","0.3758616161","0.4630799716","","","","","","","","75","K","2","","","79","main_expt"
"","bandit","159","543845","0.0-120.0-0.0","41097897","wem/bandit_double","A3PRZRK9IC5CBI","both","7","2","206","","","","","","","1","1","0","0.3862393514","0.4226243671","","","","","0.1093198388","0.180325551","0.4226243671","0.1891235553","0.2700860438","0.2283057493","0.3862393514","0.423693353","","","","","","","","75","K","2","","","80","main_expt"
"","bandit","160","545579","0.0-121.0-0.0","41097897","wem/bandit_double","A3PRZRK9IC5CBI","both","7","2","229","","","","","","","0","1","0","0.3593770893","0.4474166549","","","","","0.08868186825","0.224531153","0.4474166549","0.1858030354","0.2642688004","0.2721525977","0.3593770893","0.4319112677","","","","","","","","75","K","2","","","81","main_expt"
"","bandit","161","547323","0.0-122.0-0.0","41097897","wem/bandit_double","A3PRZRK9IC5CBI","both","7","2","237","","","","","","","0","1","0","0.4035110645","0.4636297045","","","","","0.1073880826","0.221125015","0.4636297045","0.2476542501","0.2824164754","0.2850237184","0.4035110645","0.441827487","","","","","","","","75","K","2","","","82","main_expt"
"","bandit","162","549050","0.0-123.0-0.0","41097897","wem/bandit_double","A3PRZRK9IC5CBI","both","7","2","223","","","","","","","1","1","0","0.3719627038","0.467509749","","","","","0.1022587498","0.2143237207","0.467509749","0.2188241074","0.2819095575","0.3236436683","0.3719627038","0.4288861504","","","","","","","","75","K","2","","","83","main_expt"
"","bandit","163","550725","0.0-124.0-0.0","41097897","wem/bandit_double","A3PRZRK9IC5CBI","both","7","2","163","","","","","","","0","0","1","0.3349288927","0.4551111531","","","","","0.1085807699","0.2097367537","0.4551111531","0.2754771977","0.2589745902","0.3339638593","0.3349288927","0.4350385517","","","","","","","","75","K","2","","","84","main_expt"
"","bandit","164","552308","0.0-125.0-0.0","41097897","wem/bandit_double","A3PRZRK9IC5CBI","both","7","2","76","","","","","","","0","0","1","0.3247899262","0.4621419017","","","","","0.1263918358","0.1661536269","0.4621419017","0.2965575968","0.3626504113","0.3795022601","0.3247899262","0.4255505645","","","","","","","","75","K","2","","","85","main_expt"
"","bandit","165","553883","0.0-126.0-0.0","41097897","wem/bandit_double","A3PRZRK9IC5CBI","both","7","2","69","","","","","","","0","1","0","0.3443557019","0.4612050897","","","","","0.1481941301","0.1364458955","0.4612050897","0.257129161","0.3598915268","0.3835523064","0.3443557019","0.4330938692","","","","","","","","75","K","2","","","86","main_expt"
"","bandit","166","555428","0.0-127.0-0.0","41097897","wem/bandit_double","A3PRZRK9IC5CBI","both","7","2","38","","","","","","","1","0","0","0.3648776167","0.4334675206","","","","","0.1447872846","0.08235553135","0.4334675206","0.2338967043","0.3433052933","0.3772514457","0.3648776167","0.4548398529","","","","","","","","75","K","2","","","87","main_expt"
"","bandit","167","557156","0.0-128.0-0.0","41097897","wem/bandit_double","A3PRZRK9IC5CBI","both","7","2","219","","","","","","","1","0","0","0.3609631839","0.4397617206","","","","","0.1391637727","0.0754832669","0.4397617206","0.2161535794","0.4022938878","0.3766830519","0.3609631839","0.4493124031","","","","","","","","75","K","2","","","88","main_expt"
"","bandit","168","558805","0.0-129.0-0.0","41097897","wem/bandit_double","A3PRZRK9IC5CBI","both","7","2","140","","","","","","","0","1","0","0.3636167192","0.4635478967","","","","","0.1476089376","0.109361408","0.4635478967","0.2043146745","0.4141493151","0.3537755119","0.3636167192","0.4161110063","","","","","","","","75","K","2","","","89","main_expt"
"","bandit","169","560533","0.0-130.0-0.0","41097897","wem/bandit_double","A3PRZRK9IC5CBI","both","7","2","219","","","","","","","0","1","0","0.3563441379","0.4234969579","","","","","0.2081489191","0.07391079866","0.4234969579","0.2346009907","0.4136124289","0.3014761449","0.3563441379","0.405260856","","","","","","","","75","K","2","","","90","main_expt"
"","bandit","170","562244","0.0-131.0-0.0","41097897","wem/bandit_double","A3PRZRK9IC5CBI","both","7","2","204","","","","","","","0","0","1","0.3389138503","0.4267507071","","","","","0.1834039029","0.1164594673","0.4267507071","0.2333967219","0.4184852842","0.2694038268","0.3389138503","0.3827048226","","","","","","","","75","K","2","","","91","main_expt"
"","bandit","171","563765","0.0-132.0-0.0","41097897","wem/bandit_double","A3PRZRK9IC5CBI","both","7","2","13","","","","","","","0","0","1","0.3263360165","0.4089505196","","","","","0.2027314649","0.113043345","0.4089505196","0.2150480475","0.4456808576","0.2651536323","0.3263360165","0.3552182969","","","","","","","","75","K","2","","","92","main_expt"
"","bandit","172","565469","0.0-133.0-0.0","41097897","wem/bandit_double","A3PRZRK9IC5CBI","both","7","2","196","","","","","","","1","0","0","0.1997208586","0.1714352716","","","","","0.1738894496","0.1714352716","0.4112501448","0.2588080464","0.4355219805","0.1997208586","0.2844131911","0.3286897504","","","","","","","","74","J","1","","","93","main_expt"
"","bandit","173","567189","0.0-134.0-0.0","41097897","wem/bandit_double","A3PRZRK9IC5CBI","both","7","2","210","","","","","","","0","0","1","0.2442555344","0.1253024032","","","","","0.2484708832","0.1253024032","0.452415855","0.2748849181","0.4609821192","0.2442555344","0.2978465223","0.3422490236","","","","","","","","74","J","1","","","94","main_expt"
"","bandit","174","568939","0.0-135.0-0.0","41097897","wem/bandit_double","A3PRZRK9IC5CBI","both","7","2","244","","","","","","","0","0","1","0.2638839348","0.1401284447","","","","","0.2914685715","0.1401284447","0.4589197587","0.2791739054","0.4419374505","0.2638839348","0.2638723705","0.3160161054","","","","","","","","74","J","1","","","95","main_expt"
"","bandit","175","570757","0.0-136.0-0.0","41097897","wem/bandit_double","A3PRZRK9IC5CBI","both","7","2","310","","","","","","","0","1","0","0.2276010735","0.4481870348","","","","","0.2417524935","0.1320491369","0.4481870348","0.3149564315","0.39438674","0.2265245807","0.2276010735","0.2945538732","","","","","","","","75","K","2","","","96","main_expt"
"","bandit","176","572420","0.0-137.0-0.0","41097897","wem/bandit_double","A3PRZRK9IC5CBI","both","7","2","156","","","","","","","0","0","1","0.2045446072","0.4597072186","","","","","0.2492821404","0.1518453759","0.4597072186","0.372564007","0.3617668419","0.1969189177","0.2045446072","0.393563827","","","","","","","","75","K","2","","","97","main_expt"
"","bandit","177","574117","0.0-138.0-0.0","41097897","wem/bandit_double","A3PRZRK9IC5CBI","both","7","2","188","","","","","","","0","0","1","0.4046254927","0.393328365","","","","","0.3002958449","0.2173959583","0.4705619112","0.393328365","0.3737913853","0.1761144245","0.2436418828","0.4046254927","","","","","","","","76","L","3","","","98","main_expt"
"","bandit","178","575765","0.0-139.0-0.0","41097897","wem/bandit_double","A3PRZRK9IC5CBI","both","7","2","142","","","","","","","1","1","0","0.3659012549","0.421239771","","","","","0.3544832656","0.2618725657","0.4800968761","0.421239771","0.4221129479","0.1211630765","0.2473144087","0.3659012549","","","","","","","","76","L","3","","","99","main_expt"
"","bandit","179","577492","0.0-140.0-0.0","41097897","wem/bandit_double","A3PRZRK9IC5CBI","both","7","2","221","","","","","","","1","1","0","0.400368336","0.4130759476","","","","","0.3810954338","0.2487788848","0.4780143146","0.4130759476","0.3857893684","0.1257326749","0.2707360286","0.400368336","","","","","","","","76","L","3","","","100","main_expt"
"","bandit","180","579221","0.0-141.0-0.0","41097897","wem/bandit_double","A3PRZRK9IC5CBI","both","7","2","221","","","","","","","1","1","0","0.4367931528","0.4089462913","","","","","0.4042362267","0.2890792313","0.4849002763","0.4089462913","0.3635527264","0.09975532208","0.3250409822","0.4367931528","","","","","","","","76","L","3","","","101","main_expt"
"","bandit","181","580955","0.0-142.0-0.0","41097897","wem/bandit_double","A3PRZRK9IC5CBI","both","7","2","229","","","","","","","1","1","0","0.4371155326","0.370330464","","","","","0.4594696392","0.3136369757","0.4886078379","0.370330464","0.3738375489","0.1127414424","0.3088580598","0.4371155326","","","","","","","","76","L","3","","","102","main_expt"
"","bandit","182","582636","0.0-143.0-0.0","41097897","wem/bandit_double","A3PRZRK9IC5CBI","both","7","2","173","","","","","","","1","0","0","0.388648264","0.3306315663","","","","","0.4588766667","0.2364671533","0.47121906","0.3306315663","0.3860163181","0.1232600734","0.2901001995","0.388648264","","","","","","","","76","L","3","","","103","main_expt"
"","bandit","183","584403","0.0-144.0-0.0","41097897","wem/bandit_double","A3PRZRK9IC5CBI","both","7","2","262","","","","","","","0","0","1","0.3718469433","0.354634178","","","","","0.4372785745","0.2202486688","0.4760763377","0.354634178","0.390692362","0.08156843846","0.309645936","0.3718469433","","","","","","","","76","L","3","","","104","main_expt"
"","bandit","184","586037","0.0-145.0-0.0","41097897","wem/bandit_double","A3PRZRK9IC5CBI","both","7","2","127","","","","","","","1","0","0","0.3920304628","0.3896605338","","","","","0.4063887309","0.1854418088","0.4701389446","0.3896605338","0.4139082553","0.08245659199","0.3386062745","0.3920304628","","","","","","","","76","L","3","","","105","main_expt"
"","bandit","185","587629","0.0-146.0-0.0","41097897","wem/bandit_double","A3PRZRK9IC5CBI","both","7","2","84","","","","","","","0","0","1","0.3733497125","0.414339711","","","","","0.3778019321","0.1596754559","0.471324938","0.414339711","0.3295275825","0.1276639339","0.3827539061","0.3733497125","","","","","","","","76","L","3","","","106","main_expt"
"","bandit","186","589316","0.0-147.0-0.0","41097897","wem/bandit_double","A3PRZRK9IC5CBI","both","7","2","180","","","","","","","1","1","0","0.3878439861","0.4164239898","","","","","0.3614143111","0.137099288","0.4786694594","0.4164239898","0.3499712774","0.1812689745","0.3401355396","0.3878439861","","","","","","","","76","L","3","","","107","main_expt"
"","bandit","187","591052","0.0-148.0-0.0","41097897","wem/bandit_double","A3PRZRK9IC5CBI","both","7","2","230","","","","","","","0","1","0","0.3529013302","0.3836571442","","","","","0.3681250399","0.1443984823","0.4810065258","0.3836571442","0.2666891207","0.2187982558","0.3258039352","0.3529013302","","","","","","","","76","L","3","","","108","main_expt"
"","bandit","188","592771","0.0-149.0-0.0","41097897","wem/bandit_double","A3PRZRK9IC5CBI","both","7","2","212","","","","","","","0","1","0","0.3457683734","0.3881214568","","","","","0.3446081275","0.1409511773","0.4816764674","0.3881214568","0.2575067634","0.2201216928","0.374919859","0.3457683734","","","","","","","","76","L","3","","","109","main_expt"
"","bandit","189","594500","0.0-150.0-0.0","41097897","wem/bandit_double","A3PRZRK9IC5CBI","both","7","2","222","","","","","","","0","1","0","0.3316873257","0.4266873791","","","","","0.3681270965","0.1787750665","0.4882082215","0.4266873791","0.2664913793","0.1789817232","0.3656186065","0.3316873257","","","","","","","","76","L","3","","","110","main_expt"
"","bandit","190","596125","0.0-151.0-0.0","41097897","wem/bandit_double","A3PRZRK9IC5CBI","both","7","2","118","","","","","","","0","1","0","0.3434945318","0.4475699482","","","","","0.391379093","0.1862786225","0.478642168","0.4475699482","0.2233446911","0.2404947452","0.3649701027","0.3434945318","","","","","","","","76","L","3","","","111","main_expt"
"","bandit","191","597732","0.0-152.0-0.0","41097897","wem/bandit_double","A3PRZRK9IC5CBI","both","7","2","101","","","","","","","0","0","1","0.2729480053","0.4190314983","","","","","0.4131544452","0.1654620982","0.4841415165","0.4190314983","0.2170082082","0.2959558532","0.3371716456","0.2729480053","","","","","","","","76","L","3","","","112","main_expt"
"","bandit","192","599397","0.0-153.0-0.0","41097897","wem/bandit_double","A3PRZRK9IC5CBI","both","7","2","157","","","","","","","0","0","1","0.2579672073","0.3666128881","","","","","0.3963985948","0.1582981878","0.4883212127","0.3666128881","0.1912277411","0.2966985553","0.2587224119","0.2579672073","","","","","","","","76","L","3","","","113","main_expt"
"","bandit","193","601228","0.0-154.0-0.0","41097897","wem/bandit_double","A3PRZRK9IC5CBI","both","7","2","324","","","","","","","0","0","1","0.2384324947","0.4883790739","","","","","0.4117985871","0.1922757069","0.4883790739","0.3866259854","0.1691995451","0.3289730608","0.2384324947","0.24654084","","","","","","","","75","K","2","","","114","main_expt"
"","bandit","194","603051","0.0-155.0-0.0","41097897","wem/bandit_double","A3PRZRK9IC5CBI","both","7","2","318","","","","","","","1","1","0","0.2705755989","0.4902011966","","","","","0.394381103","0.185618385","0.4902011966","0.354161152","0.1263730162","0.2783705844","0.2705755989","0.246649757","","","","","","","","75","K","2","","","115","main_expt"
"","bandit","195","604781","0.0-156.0-0.0","41097897","wem/bandit_double","A3PRZRK9IC5CBI","both","7","2","221","","","","","","","1","0","0","0.2666822","0.4844723045","","","","","0.3762408663","0.2057277395","0.4844723045","0.3170745426","0.1130092975","0.2990421824","0.2666822","0.2190482835","","","","","","","","75","K","2","","","116","main_expt"
"","bandit","196","606598","0.0-157.0-0.0","41097897","wem/bandit_double","A3PRZRK9IC5CBI","both","7","2","310","","","","","","","1","0","0","0.2664749026","0.4895589844","","","","","0.3823674378","0.2288411079","0.4895589844","0.304536318","0.1317362661","0.3214730448","0.2664749026","0.1860086181","","","","","","","","75","K","2","","","117","main_expt"
"","bandit","197","608316","0.0-158.0-0.0","41097897","wem/bandit_double","A3PRZRK9IC5CBI","both","7","2","211","","","","","","","0","1","0","0.285497096","0.4899729034","","","","","0.4050195855","0.2207517482","0.4899729034","0.3411026949","0.08460291254","0.3996160597","0.285497096","0.1765749983","","","","","","","","75","K","2","","","118","main_expt"
"","bandit","198","609948","0.0-159.0-0.0","41097897","wem/bandit_double","A3PRZRK9IC5CBI","both","7","2","126","","","","","","","0","1","0","0.3004427434","0.4947041593","","","","","0.4227562767","0.1955286499","0.4947041593","0.3447942488","0.09168363065","0.4143362638","0.3004427434","0.1840588368","","","","","","","","75","K","2","","","119","main_expt"
"","bandit","199","611693","0.0-160.0-0.0","41097897","wem/bandit_double","A3PRZRK9IC5CBI","both","7","2","238","","","","","","","0","0","1","0.2419855731","0.4916865355","","","","","0.4163810796","0.2427950695","0.4916865355","0.3686185352","0.06729372802","0.372340151","0.2419855731","0.1988357929","","","","","","","","75","K","2","","","120","main_expt"
"","bandit","200","613789","0.0-161.0-0.0","41097897","wem/bandit_double","A3PRZRK9IC5CBI","both","7","2","588","","","","","","","0","0","1","0.3054132847","0.4860386064","","","","","0.406821829","0.2479682904","0.4860386064","0.3547669752","0.08346408207","0.3910424524","0.3054132847","0.2315674","","","","","","","","75","K","2","","","121","main_expt"
"","bandit","201","615397","0.0-162.0-0.0","41097897","wem/bandit_double","A3PRZRK9IC5CBI","both","7","2","101","","","","","","","0","0","1","0.2473202095","0.483083859","","","","","0.3999449125","0.3081985406","0.483083859","0.365994073","0.05632743158","0.3813410711","0.2473202095","0.2041322171","","","","","","","","75","K","2","","","122","main_expt"
"","bandit","202","616941","0.0-163.0-0.0","41097897","wem/bandit_double","A3PRZRK9IC5CBI","both","7","2","37","","","","","","","0","0","1","0.4247291795","0.3089359708","","","","","0.366626489","0.3089359708","0.4791491275","0.3120596142","0.05516745574","0.4247291795","0.2909195989","0.1945268209","","","","","","","","74","J","1","","","123","main_expt"
"","bandit","203","618525","0.0-164.0-0.0","41097897","wem/bandit_double","A3PRZRK9IC5CBI","both","7","2","76","","","","","","","1","0","0","0.4311179713","0.3298338218","","","","","0.3706278578","0.3298338218","0.4776777384","0.302161917","0.05528311039","0.4311179713","0.3493750294","0.2206749142","","","","","","","","74","J","1","","","124","main_expt"
"","bandit","204","620341","0.0-165.0-0.0","41097897","wem/bandit_double","A3PRZRK9IC5CBI","both","7","2","309","","","","","","","0","0","1","0.4085782939","0.2795250441","","","","","0.3545504723","0.2795250441","0.478983255","0.2794370347","0.07149807259","0.4085782939","0.3883668019","0.212012295","","","","","","","","74","J","1","","","125","main_expt"
"","bandit","205","622091","0.0-166.0-0.0","41097897","wem/bandit_double","A3PRZRK9IC5CBI","both","7","2","241","","","","","","","0","0","1","0.4110861309","0.2184127205","","","","","0.3106298006","0.2184127205","0.4724726719","0.2466154908","0.1137803622","0.4110861309","0.3888129637","0.1656684785","","","","","","","","74","J","1","","","126","main_expt"
"","bandit","206","623802","0.0-167.0-0.0","41097897","wem/bandit_double","A3PRZRK9IC5CBI","both","7","2","206","","","","","","","0","0","1","0.1003054442","0.3351405197","","","","","0.3351405197","0.2488858907","0.4796244369","0.2712823261","0.1003054442","0.4214671818","0.3659195129","0.1685301808","","","","","","","","72","H","0","img/none_selected.jpg","","127","main_expt"
"","bandit","207","625411","0.0-168.0-0.0","41097897","wem/bandit_double","A3PRZRK9IC5CBI","both","7","2","100","","","","","","","0","0","1","0.1378169536","0.2984422464","","","","","0.2984422464","0.2850827173","0.4825212971","0.2095517986","0.1378169536","0.36889317","0.3689954399","0.1703551811","","","","","","","","72","H","0","img/none_selected.jpg","","128","main_expt"
"","bandit","208","627060","0.0-169.0-0.0","41097897","wem/bandit_double","A3PRZRK9IC5CBI","both","7","2","142","","","","","","","0","0","1","0.1624753709","0.1986866195","","","","","0.2027892291","0.2867242009","0.4877535013","0.1986866195","0.1333081235","0.3840267129","0.3600340942","0.1624753709","","","","","","","","76","L","3","","","129","main_expt"
"","bandit","209","628787","0.0-170.0-0.0","41097897","wem/bandit_double","A3PRZRK9IC5CBI","both","7","2","219","","","","","","","0","0","1","0.2335662737","0.172959111","","","","","0.13768179","0.2509552002","0.4833646461","0.172959111","0.1682212827","0.3809677701","0.3580797835","0.2335662737","","","","","","","","76","L","3","","","130","main_expt"
"","bandit","210","630474","0.0-171.0-0.0","41097897","wem/bandit_double","A3PRZRK9IC5CBI","both","7","2","181","","","","","","","0","1","0","0.240441026","0.163172462","","","","","0.1352832961","0.2172434631","0.4790990265","0.163172462","0.2193829955","0.3681933818","0.3785893338","0.240441026","","","","","","","","76","L","3","","","131","main_expt"
"","bandit","211","632132","0.0-172.0-0.0","41097897","wem/bandit_double","A3PRZRK9IC5CBI","both","7","2","150","","","","","","","1","0","0","0.2266699971","0.161148659","","","","","0.08660982753","0.158295755","0.4882311922","0.161148659","0.2693349046","0.3664045944","0.3764735404","0.2266699971","","","","","","","","76","L","3","","","132","main_expt"
"","bandit","212","633884","0.0-173.0-0.0","41097897","wem/bandit_double","A3PRZRK9IC5CBI","both","7","2","244","","","","","","","0","1","0","0.1994193025","0.1735641072","","","","","0.1020907376","0.185310911","0.4889625365","0.1735641072","0.2576546077","0.4046437197","0.3433534211","0.1994193025","","","","","","","","76","L","3","","","133","main_expt"
"","bandit","213","635595","0.0-174.0-0.0","41097897","wem/bandit_double","A3PRZRK9IC5CBI","both","7","2","204","","","","","","","0","0","1","0.1891464922","0.1597390633","","","","","0.1231499397","0.1966535246","0.4916783795","0.1597390633","0.2412372273","0.364490756","0.3606247271","0.1891464922","","","","","","","","76","L","3","","","134","main_expt"
"","bandit","214","637339","0.0-175.0-0.0","41097897","wem/bandit_double","A3PRZRK9IC5CBI","both","7","2","238","","","","","","","1","1","0","0.1614798668","0.1460070414","","","","","0.1524236556","0.2290191974","0.4904315354","0.1460070414","0.2198641054","0.311914316","0.3268624306","0.1614798668","","","","","","","","76","L","3","","","135","main_expt"
"","bandit","215","639060","0.0-176.0-0.0","41097897","wem/bandit_double","A3PRZRK9IC5CBI","both","7","2","212","","","","","","","0","1","0","0.1880386222","0.105474526","","","","","0.1954247664","0.2929229053","0.491666595","0.105474526","0.2504132697","0.2653901568","0.2854606769","0.1880386222","","","","","","","","76","L","3","","","136","main_expt"
"","bandit","216","640827","0.0-177.0-0.0","41097897","wem/bandit_double","A3PRZRK9IC5CBI","both","7","2","260","","","","","","","0","0","1","0.1961818793","0.08835118593","","","","","0.1833989084","0.2780805385","0.4917142499","0.08835118593","0.1912230989","0.2413295316","0.3311747399","0.1961818793","","","","","","","","76","L","3","","","137","main_expt"
"","bandit","217","642550","0.0-178.0-0.0","41097897","wem/bandit_double","A3PRZRK9IC5CBI","both","7","2","213","","","","","","","1","0","0","0.2857678963","0.06418360449","","","","","0.1490533902","0.217224157","0.4870170403","0.06418360449","0.1576256809","0.2060295423","0.2570785188","0.2857678963","","","","","","","","76","L","3","","","138","main_expt"
"","bandit","218","644308","0.0-179.0-0.0","41097897","wem/bandit_double","A3PRZRK9IC5CBI","both","7","2","250","","","","","","","0","0","1","0.3449131854","0.03554325754","","","","","0.1318817547","0.2323391466","0.4834992155","0.03554325754","0.1019788138","0.1809645164","0.2858060749","0.3449131854","","","","","","","","76","L","3","","","139","main_expt"
"","bandit","219","646034","0.0-180.0-0.0","41097897","wem/bandit_double","A3PRZRK9IC5CBI","both","7","2","220","","","","","","","1","0","0","0.2537716732","0.04477370895","","","","","0.1877412345","0.244475209","0.4927392517","0.04477370895","0.07754087054","0.1843216893","0.2975559752","0.2537716732","","","","","","","","76","L","3","","","140","main_expt"
"","bandit","220","647781","0.0-181.0-0.0","41097897","wem/bandit_double","A3PRZRK9IC5CBI","both","7","2","238","","","","","","","0","0","1","0.2858111263","0.03780119019","","","","","0.2363671377","0.232604034","0.4872377518","0.03780119019","0.09489610577","0.1651876155","0.2802168405","0.2858111263","","","","","","","","76","L","3","","","141","main_expt"
"","bandit","221","649554","0.0-182.0-0.0","41097897","wem/bandit_double","A3PRZRK9IC5CBI","both","7","2","267","","","","","","","0","0","1","0.303049367","0.03149913875","","","","","0.2546402356","0.2447345556","0.4846254936","0.03149913875","0.09601428546","0.1536427928","0.2231986748","0.303049367","","","","","","","","76","L","3","","","142","main_expt"
"","bandit","222","651267","0.0-183.0-0.0","41097897","wem/bandit_double","A3PRZRK9IC5CBI","both","7","2","205","","","","","","","1","0","0","0.2969419413","0.04191513266","","","","","0.2825544685","0.26413271","0.4815328815","0.04191513266","0.08301142993","0.1546140226","0.2032880393","0.2969419413","","","","","","","","76","L","3","","","143","main_expt"
"","bandit","223","652867","0.0-184.0-0.0","41097897","wem/bandit_double","A3PRZRK9IC5CBI","both","7","2","92","","","","","","","1","0","0","0.3128690494","0.05613120157","","","","","0.2731230023","0.1988203511","0.4854048375","0.05613120157","0.09599686985","0.1746031107","0.1967741464","0.3128690494","","","","","","","","76","L","3","","","144","main_expt"
"","bandit","224","654666","0.0-185.0-0.0","41097897","wem/bandit_double","A3PRZRK9IC5CBI","both","7","2","291","","","","","","","0","0","1","0.2991796355","0.03827589539","","","","","0.2943814715","0.217822638","0.4813029389","0.03827589539","0.07499383622","0.2021387556","0.2283154954","0.2991796355","","","","","","","","76","L","3","","","145","main_expt"
"","bandit","225","656259","0.0-186.0-0.0","41097897","wem/bandit_double","A3PRZRK9IC5CBI","both","7","2","85","","","","","","","0","0","1","0.3163763193","0.02861175853","","","","","0.328634005","0.2009042904","0.4884824202","0.02861175853","0.09566861","0.2504344391","0.2118700154","0.3163763193","","","","","","","","76","L","3","","","146","main_expt"
"","bandit","226","657986","0.0-187.0-0.0","41097897","wem/bandit_double","A3PRZRK9IC5CBI","both","7","2","222","","","","","","","0","0","1","0.3198025905","0.02140640811","","","","","0.3511209141","0.2080446297","0.4835291327","0.02140640811","0.08578591382","0.2437718569","0.210437557","0.3198025905","","","","","","","","76","L","3","","","147","main_expt"
"","bandit","227","659843","0.0-188.0-0.0","41097897","wem/bandit_double","A3PRZRK9IC5CBI","both","7","2","348","","","","","","","0","1","0","0.2370661354","0.4716003481","","","","","0.3874996206","0.1536700415","0.4716003481","0.0202041473","0.1147887709","0.2446677265","0.2370661354","0.2588245921","","","","","","","","75","K","2","","","148","main_expt"
"","bandit","228","661516","0.0-189.0-0.0","41097897","wem/bandit_double","A3PRZRK9IC5CBI","both","7","2","165","","","","","","","0","0","1","0.2430363771","0.4341886607","","","","","0.3476646045","0.1593661633","0.4341886607","0.01154190459","0.1378203382","0.2911002833","0.2430363771","0.248712437","","","","","","","","75","K","2","","","149","main_expt"
"","bandit","229","663379","0.0-190.0-0.0","41097897","wem/bandit_double","A3PRZRK9IC5CBI","both","7","2","356","","","","","","","0","0","1","0.2242182381","0.4014438172","","","","","0.3323010919","0.144955896","0.4014438172","0.01291237021","0.1414499273","0.3529655025","0.2242182381","0.179144869","","","","","","","","75","K","2","","","150","main_expt"
"","bandit","230","664924","0.0-191.0-0.0","41097897","wem/bandit_double","A3PRZRK9IC5CBI","both","7","2","38","","","","","","","0","1","0","0.1997145133","0.3980713407","","","","","0.3954477196","0.2123564028","0.3980713407","0.0137789916","0.07852348772","0.3885741111","0.1997145133","0.1545669956","","","","","","","","75","K","2","","","151","main_expt"
"","bandit","231","666491","0.0-192.0-0.0","41097897","wem/bandit_double","A3PRZRK9IC5CBI","both","7","2","61","","","","","","","0","1","0","0.2195927633","0.4002357887","","","","","0.4186327087","0.2301890466","0.4002357887","0.01985271471","0.08485793113","0.3690499696","0.2195927633","0.1651714415","","","","","","","","75","K","2","","","152","main_expt"
"","bandit","232","668180","0.0-193.0-0.0","41097897","wem/bandit_double","A3PRZRK9IC5CBI","both","7","2","180","","","","","","","1","1","0","0.3710492515","0.2295153641","","","","","0.4029566754","0.2295153641","0.388677987","0.02951100453","0.1083789561","0.3710492515","0.2121816628","0.2396245514","","","","","","","","74","J","1","","","153","main_expt"
"","bandit","233","669988","0.0-194.0-0.0","41097897","wem/bandit_double","A3PRZRK9IC5CBI","both","7","2","300","","","","","","","0","0","1","0.3483335413","0.2163321136","","","","","0.4037751878","0.2163321136","0.3817747688","0.02325572033","0.109098481","0.3483335413","0.1830588608","0.2085838567","","","","","","","","74","J","1","","","154","main_expt"
"","bandit","234","671746","0.0-195.0-0.0","41097897","wem/bandit_double","A3PRZRK9IC5CBI","both","7","2","251","","","","","","","0","0","1","0.3343760247","0.2257858177","","","","","0.4078727314","0.2257858177","0.327727533","0.03925092562","0.1758262092","0.3343760247","0.2031423662","0.1864274254","","","","","","","","74","J","1","","","155","main_expt"
"","bandit","235","673483","0.0-196.0-0.0","41097897","wem/bandit_double","A3PRZRK9IC5CBI","both","7","2","230","","","","","","","0","0","1","0.3742013553","0.2077891775","","","","","0.3941681487","0.2077891775","0.2821504166","0.05532081832","0.2046597001","0.3742013553","0.2022731065","0.1750870897","","","","","","","","74","J","1","","","156","main_expt"
"","bandit","236","675155","0.0-197.0-0.0","41097897","wem/bandit_double","A3PRZRK9IC5CBI","both","7","2","164","","","","","","","0","1","0","0.1774751899","0.3417147062","","","","","0.3417147062","0.1742908387","0.2784527126","0.05983660039","0.1774751899","0.3620366094","0.1826661219","0.1321985386","","","","","","","","72","H","0","img/none_selected.jpg","","157","main_expt"
"","bandit","237","676876","0.0-198.0-0.0","41097897","wem/bandit_double","A3PRZRK9IC5CBI","both","7","2","212","","","","","","","0","0","1","0.1612033886","0.2963220618","","","","","0.2963220618","0.162057643","0.2857058734","0.09347744845","0.1612033886","0.3671714071","0.1658993888","0.1341899746","","","","","","","","72","H","0","img/none_selected.jpg","","158","main_expt"
"","bandit","238","678659","0.0-199.0-0.0","41097897","wem/bandit_double","A3PRZRK9IC5CBI","both","7","2","276","","","","","","","0","1","0","0.1586838935","0.2961528309","","","","","0.2961528309","0.1805514511","0.2349295223","0.09649648717","0.1586838935","0.4015988616","0.1620079643","0.1567784951","","","","","","","","72","H","0","img/none_selected.jpg","","159","main_expt"
"","bandit","239","680434","0.0-200.0-0.0","41097897","wem/bandit_double","A3PRZRK9IC5CBI","both","7","2","268","","","","","","","0","0","1","0.2159944071","0.2842772575","","","","","0.2842772575","0.1724629995","0.2275717407","0.08382429791","0.2159944071","0.4004877553","0.2453635642","0.1615549635","","","","","","","","72","H","0","img/none_selected.jpg","","160","main_expt"
"","bandit","240","682084","0.0-201.0-0.0","41097897","wem/bandit_double","A3PRZRK9IC5CBI","both","7","2","140","","","","","","","0","0","1","0.2105769377","0.2747674873","","","","","0.2747674873","0.1660992999","0.2559884592","0.1466352983","0.2105769377","0.4095849454","0.2456373749","0.1854631015","","","","","","","","72","H","0","img/none_selected.jpg","","161","main_expt"
"","bandit","241","684388","0.0-202.0-0.0","41097897","wem/bandit_double","A3PRZRK9IC5CBI","both","7","2","797","","","","","","","1","0","0","0.2460125232","0.2670526618","","","","","0.2993190406","0.2281832109","0.2670526618","0.1569467617","0.2006925765","0.3978002783","0.2460125232","0.21229469","","","","","","","","75","K","2","","","162","main_expt"
"","bandit","242","686099","0.0-203.0-0.0","41097897","wem/bandit_double","A3PRZRK9IC5CBI","both","7","2","204","","","","","","","1","0","0","0.2013568893","0.2618894379","","","","","0.3102408377","0.2144285545","0.2618894379","0.1437935099","0.2365124807","0.4180552148","0.2013568893","0.162194177","","","","","","","","75","K","2","","","163","main_expt"
"","bandit","243","687844","0.0-204.0-0.0","41097897","wem/bandit_double","A3PRZRK9IC5CBI","both","7","2","236","","","","","","","0","0","1","0.1933595846","0.2977476978","","","","","0.2607878409","0.2131293933","0.2977476978","0.1503677763","0.2157370886","0.4407560021","0.1933595846","0.1535707797","","","","","","","","75","K","2","","","164","main_expt"
"","bandit","244","689637","0.0-205.0-0.0","41097897","wem/bandit_double","A3PRZRK9IC5CBI","both","7","2","285","","","","","","","0","0","1","0.167552211","0.3138636066","","","","","0.2470054868","0.251698227","0.3138636066","0.1574825995","0.2166787898","0.4582960521","0.167552211","0.2315934193","","","","","","","","75","K","2","","","165","main_expt"
"","bandit","245","691292","0.0-206.0-0.0","41097897","wem/bandit_double","A3PRZRK9IC5CBI","both","7","2","147","","","","","","","0","1","0","0.1311237951","0.3204338644","","","","","0.2629624785","0.2831539445","0.3204338644","0.1500633275","0.1846262972","0.4337500892","0.1311237951","0.2579087381","","","","","","","","75","K","2","","","166","main_expt"
"","bandit","246","693061","0.0-207.0-0.0","41097897","wem/bandit_double","A3PRZRK9IC5CBI","both","7","2","260","","","","","","","0","0","1","0.1714029316","0.3600517585","","","","","0.2745713682","0.2496169508","0.3600517585","0.1137242654","0.1888750078","0.4537582576","0.1714029316","0.2496457694","","","","","","","","75","K","2","","","167","main_expt"
"","bandit","247","694837","0.0-208.0-0.0","41097897","wem/bandit_double","A3PRZRK9IC5CBI","both","7","2","267","","","","","","","0","0","1","0.234558796","0.145192941","","","","","0.2557249153","0.2315540067","0.3678373827","0.145192941","0.2315683769","0.4473485534","0.1494402723","0.234558796","","","","","","","","76","L","3","","","168","main_expt"
"","bandit","248","696508","0.0-209.0-0.0","41097897","wem/bandit_double","A3PRZRK9IC5CBI","both","7","2","164","","","","","","","0","0","1","0.2458600006","0.1863479632","","","","","0.2016321063","0.1825517174","0.3421512568","0.1863479632","0.2018123945","0.4471591033","0.1819888556","0.2458600006","","","","","","","","76","L","3","","","169","main_expt"
"","bandit","249","698532","0.0-210.0-0.0","41097897","wem/bandit_double","A3PRZRK9IC5CBI","both","7","2","517","","","","","","","0","0","1","0.4581839475","0.2535959064","","","","","0.2210696627","0.2535959064","0.3917895485","0.142304713","0.139238222","0.4581839475","0.2329206984","0.2214583157","","","","","","","","74","J","1","","","170","main_expt"
"","bandit","250","700220","0.0-211.0-0.0","41097897","wem/bandit_double","A3PRZRK9IC5CBI","both","7","2","181","","","","","","","1","1","0","0.4674995421","0.3004284576","","","","","0.1627904758","0.3004284576","0.3206692194","0.1739768979","0.1466511374","0.4674995421","0.2000607923","0.296208115","","","","","","","","74","J","1","","","171","main_expt"
"","bandit","251","701964","0.0-212.0-0.0","41097897","wem/bandit_double","A3PRZRK9IC5CBI","both","7","2","236","","","","","","","1","1","0","0.4455620345","0.2716191145","","","","","0.1421076649","0.2716191145","0.3198600846","0.2172659048","0.1348290388","0.4455620345","0.2342957318","0.3062379281","","","","","","","","74","J","1","","","172","main_expt"
"","bandit","252","703731","0.0-213.0-0.0","41097897","wem/bandit_double","A3PRZRK9IC5CBI","both","7","2","260","","","","","","","0","0","1","0.4471610379","0.3253138029","","","","","0.165050165","0.3253138029","0.2641483633","0.2419731025","0.1521691919","0.4471610379","0.2189308077","0.2498067723","","","","","","","","74","J","1","","","173","main_expt"
"","bandit","253","705603","0.0-214.0-0.0","41097897","wem/bandit_double","A3PRZRK9IC5CBI","both","7","2","367","","","","","","","0","0","1","0.4496576915","0.3419591401","","","","","0.1406738207","0.3419591401","0.2248062597","0.2239571331","0.2191935525","0.4496576915","0.2373932689","0.1803522277","","","","","","","","74","J","1","","","174","main_expt"
"","bandit","254","707387","0.0-215.0-0.0","41097897","wem/bandit_double","A3PRZRK9IC5CBI","both","7","2","275","","","","","","","1","1","0","0.4715297358","0.3442692367","","","","","0.138310495","0.3442692367","0.2370379408","0.2311410243","0.219961305","0.4715297358","0.2160264752","0.2014319342","","","","","","","","74","J","1","","","175","main_expt"
"","bandit","255","709116","0.0-216.0-0.0","41097897","wem/bandit_double","A3PRZRK9IC5CBI","both","7","2","221","","","","","","","0","0","1","0.477956151","0.3397266539","","","","","0.1675243642","0.3397266539","0.2157433706","0.2610077479","0.1882485239","0.477956151","0.1990604306","0.2122003168","","","","","","","","74","J","1","","","176","main_expt"
"","bandit","256","710829","0.0-217.0-0.0","41097897","wem/bandit_double","A3PRZRK9IC5CBI","both","7","2","205","","","","","","","1","0","0","0.4563721206","0.2997078274","","","","","0.1919885971","0.2997078274","0.2014791824","0.2780938204","0.1644902553","0.4563721206","0.1729978196","0.2629069455","","","","","","","","74","J","1","","","177","main_expt"
"","bandit","257","712486","0.0-218.0-0.0","41097897","wem/bandit_double","A3PRZRK9IC5CBI","both","7","2","148","","","","","","","1","0","0","0.4409869931","0.3064007527","","","","","0.2365392944","0.3064007527","0.1913564418","0.3151752793","0.1713669852","0.4409869931","0.1633080779","0.2336104206","","","","","","","","74","J","1","","","178","main_expt"
"","bandit","258","714235","0.0-219.0-0.0","41097897","wem/bandit_double","A3PRZRK9IC5CBI","both","7","2","242","","","","","","","0","0","1","0.4243126063","0.3533432679","","","","","0.2509455726","0.3533432679","0.1980728016","0.2799621139","0.2263400462","0.4243126063","0.1243251356","0.1887504226","","","","","","","","74","J","1","","","179","main_expt"
"","bandit","259","715949","0.0-220.0-0.0","41097897","wem/bandit_double","A3PRZRK9IC5CBI","both","7","2","205","","","","","","","1","0","0","0.4312830743","0.3652522579","","","","","0.2767223981","0.3652522579","0.1833491223","0.3170936092","0.2036870175","0.4312830743","0.1150149055","0.138376641","","","","","","","","74","J","1","","","180","main_expt"
"","bandit","260","717613","0.0-221.0-0.0","41097897","wem/bandit_double","A3PRZRK9IC5CBI","both","7","2","155","","","","","","","1","0","0","0.4433127893","0.3383156657","","","","","0.314600373","0.3383156657","0.1342686697","0.28101752","0.1934599198","0.4433127893","0.1407924877","0.1883992559","","","","","","","","74","J","1","","","181","main_expt"
"","bandit","261","719404","0.0-222.0-0.0","41097897","wem/bandit_double","A3PRZRK9IC5CBI","both","7","2","283","","","","","","","0","0","1","0.440136403","0.2902116232","","","","","0.3943610609","0.2902116232","0.1636660304","0.3043342224","0.2424515525","0.440136403","0.09672650852","0.128889003","","","","","","","","74","J","1","","","182","main_expt"
"","bandit","262","721077","0.0-223.0-0.0","41097897","wem/bandit_double","A3PRZRK9IC5CBI","both","7","2","165","","","","","","","0","0","1","0.4347693449","0.3026157476","","","","","0.3586422101","0.3026157476","0.136761637","0.3192524042","0.1961777535","0.4347693449","0.09888002855","0.1748769843","","","","","","","","74","J","1","","","183","main_expt"
"","bandit","263","722781","0.0-224.0-0.0","41097897","wem/bandit_double","A3PRZRK9IC5CBI","both","7","2","195","","","","","","","0","0","1","0.07200145298","0.1685989701","","","","","0.3879999062","0.3360229169","0.1685989701","0.3332516821","0.1489283113","0.4277130926","0.07200145298","0.1945994373","","","","","","","","75","K","2","","","184","main_expt"
"","bandit","264","724348","0.0-225.0-0.0","41097897","wem/bandit_double","A3PRZRK9IC5CBI","both","7","2","60","","","","","","","0","0","1","0.09476413333","0.1663529744","","","","","0.3831340227","0.3336456265","0.1663529744","0.3228184693","0.1499965078","0.3956248437","0.09476413333","0.1644748654","","","","","","","","75","K","2","","","185","main_expt"
"","bandit","265","726061","0.0-226.0-0.0","41097897","wem/bandit_double","A3PRZRK9IC5CBI","both","7","2","205","","","","","","","0","1","0","0.3748928266","0.3308881938","","","","","0.3999004662","0.3308881938","0.1916836285","0.3111703144","0.2169832988","0.3748928266","0.06556422103","0.1504635592","","","","","","","","74","J","1","","","186","main_expt"
"","bandit","266","727845","0.0-227.0-0.0","41097897","wem/bandit_double","A3PRZRK9IC5CBI","both","7","2","275","","","","","","","0","0","1","0.3848139325","0.325530054","","","","","0.3875363153","0.325530054","0.1686829448","0.3353611299","0.2655186329","0.3848139325","0.08901149072","0.1760039214","","","","","","","","74","J","1","","","187","main_expt"
"","bandit","267","729613","0.0-228.0-0.0","41097897","wem/bandit_double","A3PRZRK9IC5CBI","both","7","2","260","","","","","","","0","0","1","0.3990176401","0.3055482451","","","","","0.3875691392","0.3055482451","0.1461675531","0.3646937268","0.2738785118","0.3990176401","0.09471428588","0.1203267588","","","","","","","","74","J","1","","","188","main_expt"
"","bandit","268","731316","0.0-229.0-0.0","41097897","wem/bandit_double","A3PRZRK9IC5CBI","both","7","2","196","","","","","","","0","0","1","0.3041874674","0.4166866882","","","","","0.4166866882","0.3002345065","0.1382971047","0.3891323825","0.3041874674","0.3581396838","0.05118235823","0.1171540391","","","","","","","","72","H","0","img/none_selected.jpg","","189","main_expt"
"","bandit","269","732974","0.0-230.0-0.0","41097897","wem/bandit_double","A3PRZRK9IC5CBI","both","7","2","148","","","","","","","0","0","1","0.3229453735","0.4124474499","","","","","0.4124474499","0.2693931213","0.1898135375","0.3860741766","0.3229453735","0.2882972244","0.05788318751","0.1535230761","","","","","","","","72","H","0","img/none_selected.jpg","","190","main_expt"
"","bandit","270","734635","0.0-231.0-0.0","41097897","wem/bandit_double","A3PRZRK9IC5CBI","both","7","2","153","","","","","","","0","1","0","0.1372750947","0.3864243721","","","","","0.3638199534","0.3009284261","0.1264917812","0.3864243721","0.3818249757","0.3145326233","0.08736915481","0.1372750947","","","","","","","","76","L","3","","","191","main_expt"
"","bandit","271","736388","0.0-232.0-0.0","41097897","wem/bandit_double","A3PRZRK9IC5CBI","both","7","2","246","","","","","","","0","1","0","0.1047771501","0.400448014","","","","","0.3711146034","0.3157917784","0.1185409567","0.400448014","0.4157726243","0.3270603702","0.08251019118","0.1047771501","","","","","","","","76","L","3","","","192","main_expt"
"","bandit","272","738061","0.0-233.0-0.0","41097897","wem/bandit_double","A3PRZRK9IC5CBI","both","7","2","164","","","","","","","0","1","0","0.1100845432","0.3895367297","","","","","0.3654165885","0.2999212614","0.09837948322","0.3895367297","0.4611608212","0.3604030797","0.06897628064","0.1100845432","","","","","","","","76","L","3","","","193","main_expt"
"","bandit","273","739772","0.0-234.0-0.0","41097897","wem/bandit_double","A3PRZRK9IC5CBI","both","7","2","203","","","","","","","1","1","0","0.1468163818","0.4032313792","","","","","0.3537818584","0.3287494418","0.137690802","0.4032313792","0.4508818777","0.357423186","0.06801266305","0.1468163818","","","","","","","","76","L","3","","","194","main_expt"
"","bandit","274","741485","0.0-235.0-0.0","41097897","wem/bandit_double","A3PRZRK9IC5CBI","both","7","2","205","","","","","","","0","1","0","0.1495594621","0.337234763","","","","","0.3597494918","0.3031978913","0.1683354775","0.337234763","0.4278921451","0.3697779856","0.09923709358","0.1495594621","","","","","","","","76","L","3","","","195","main_expt"
"","bandit","275","743260","0.0-236.0-0.0","41097897","wem/bandit_double","A3PRZRK9IC5CBI","both","7","2","268","","","","","","","0","0","1","0.2263220537","0.3950764453","","","","","0.3479121901","0.2901303692","0.1561951964","0.3950764453","0.4256293003","0.3617177512","0.1103063831","0.2263220537","","","","","","","","76","L","3","","","196","main_expt"
"","bandit","276","744836","0.0-237.0-0.0","41097897","wem/bandit_double","A3PRZRK9IC5CBI","both","7","2","68","","","","","","","0","0","1","0.2204718804","0.4193743727","","","","","0.3596292454","0.2444781728","0.1329868482","0.4193743727","0.4476975038","0.3775990084","0.07377144043","0.2204718804","","","","","","","","76","L","3","","","197","main_expt"
"","bandit","277","746660","0.0-238.0-0.0","41097897","wem/bandit_double","A3PRZRK9IC5CBI","both","7","2","317","","","","","","","0","0","1","0.08863448313","0.1730826789","","","","","0.3555371828","0.2140047665","0.1730826789","0.4375347816","0.4434357272","0.4144042571","0.08863448313","0.2401118457","","","","","","","","75","K","2","","","198","main_expt"
"","bandit","278","748188","0.0-239.0-0.0","41097897","wem/bandit_double","A3PRZRK9IC5CBI","both","7","2","20","","","","","","","0","0","1","0.1082179128","0.1385649096","","","","","0.4016486285","0.2077842613","0.1385649096","0.4315030007","0.4245114622","0.4081775392","0.1082179128","0.2673724497","","","","","","","","75","K","2","","","199","main_expt"
"","bandit","279","749764","0.0-240.0-0.0","41097897","wem/bandit_double","A3PRZRK9IC5CBI","both","7","2","68","","","","","","","1","0","0","0.3125307902","0.4340108373","","","","","0.3871107612","0.180488049","0.1941139053","0.4340108373","0.4087100315","0.4166156547","0.09350688576","0.3125307902","","","","","","","","76","L","3","","","200","main_expt"
"","bandit","280","751486","0.0-241.0-0.0","41097897","wem/bandit_double","A3PRZRK9IC5CBI","both","7","2","212","","","","","","","0","0","1","0.2914574258","0.441078118","","","","","0.3856539452","0.2084987087","0.1825013029","0.441078118","0.4361521275","0.4306537176","0.1036625099","0.2914574258","","","","","","","","76","L","3","","","201","main_expt"
"","bandit","281","753285","0.0-242.0-0.0","41097897","wem/bandit_double","A3PRZRK9IC5CBI","both","7","2","292","","","","","","","1","1","0","0.2550600684","0.4143682719","","","","","0.358588673","0.1869669721","0.162440572","0.4143682719","0.3332596158","0.449382563","0.1216733889","0.2550600684","","","","","","","","76","L","3","","","202","main_expt"
"","bandit","282","754980","0.0-243.0-0.0","41097897","wem/bandit_double","A3PRZRK9IC5CBI","both","7","2","187","","","","","","","1","0","0","0.2769745997","0.4280720422","","","","","0.3460881607","0.1383076553","0.1914238456","0.4280720422","0.3581848779","0.4506576586","0.120655788","0.2769745997","","","","","","","","76","L","3","","","203","main_expt"
"","bandit","283","756868","0.0-244.0-0.0","41097897","wem/bandit_double","A3PRZRK9IC5CBI","both","7","2","381","","","","","","","1","1","0","0.2752990059","0.4113524858","","","","","0.3091432968","0.1656187697","0.1849793247","0.4113524858","0.3597133043","0.454839243","0.1082970726","0.2752990059","","","","","","","","76","L","3","","","204","main_expt"
"","bandit","284","758651","0.0-245.0-0.0","41097897","wem/bandit_double","A3PRZRK9IC5CBI","both","7","2","276","","","","","","","1","0","0","0.2901512169","0.4151465815","","","","","0.3016396897","0.1699285253","0.1722293799","0.4151465815","0.3630183988","0.4512889682","0.09143681274","0.2901512169","","","","","","","","76","L","3","","","205","main_expt"
"","bandit","285","760372","0.0-246.0-0.0","41097897","wem/bandit_double","A3PRZRK9IC5CBI","both","7","2","213","","","","","","","0","0","1","0.2823763913","0.4002359997","","","","","0.3300702997","0.161732949","0.1625694713","0.4002359997","0.3737494834","0.4591490044","0.08377413986","0.2823763913","","","","","","","","76","L","3","","","206","main_expt"
"","bandit","286","762059","0.0-247.0-0.0","41097897","wem/bandit_double","A3PRZRK9IC5CBI","both","7","2","179","","","","","","","0","0","1","0.2708062506","0.3692387261","","","","","0.2648848683","0.1699017951","0.1079769143","0.3692387261","0.3668784438","0.4650593633","0.1585073664","0.2708062506","","","","","","","","76","L","3","","","207","main_expt"
"","bandit","287","763668","0.0-248.0-0.0","41097897","wem/bandit_double","A3PRZRK9IC5CBI","both","7","2","102","","","","","","","1","0","0","0.2641553663","0.3283471685","","","","","0.2502792914","0.1592107695","0.1380178959","0.3283471685","0.4045351895","0.4641513068","0.162299901","0.2641553663","","","","","","","","76","L","3","","","208","main_expt"
"","bandit","288","765380","0.0-249.0-0.0","41097897","wem/bandit_double","A3PRZRK9IC5CBI","both","7","2","204","","","","","","","0","0","1","0.2704675845","0.2924758898","","","","","0.2770073026","0.1659907122","0.1538506734","0.2924758898","0.4402386934","0.4567807332","0.1542266077","0.2704675845","","","","","","","","76","L","3","","","209","main_expt"
"","bandit","289","767102","0.0-250.0-0.0","41097897","wem/bandit_double","A3PRZRK9IC5CBI","both","7","2","212","","","","","","","0","0","1","0.3420868926","0.2279470939","","","","","0.3451435735","0.229525517","0.1406222791","0.2279470939","0.4483623408","0.428253188","0.1890415559","0.3420868926","","","","","","","","76","L","3","","","210","main_expt"
"","bandit","290","768869","0.0-251.0-0.0","41097897","wem/bandit_double","A3PRZRK9IC5CBI","both","7","2","257","","","","","","","0","0","1","0.3069688952","0.2131844406","","","","","0.3514478275","0.2434605193","0.08987887408","0.2131844406","0.4471415093","0.410271385","0.1818133019","0.3069688952","","","","","","","","76","L","3","","","211","main_expt"
"","bandit","291","770579","0.0-252.0-0.0","41097897","wem/bandit_double","A3PRZRK9IC5CBI","both","7","2","203","","","","","","","1","0","0","0.3005379093","0.1601793481","","","","","0.3579324364","0.1633214123","0.1277875359","0.1601793481","0.4374655127","0.4065587724","0.1782747956","0.3005379093","","","","","","","","76","L","3","","","212","main_expt"
"","bandit","292","772124","0.0-253.0-0.0","41097897","wem/bandit_double","A3PRZRK9IC5CBI","both","7","2","36","","","","","","","1","0","0","0.213882915","0.1354109392","","","","","0.3231243524","0.1014835246","0.134271297","0.1354109392","0.4381457257","0.4007116542","0.1935195711","0.213882915","","","","","","","","76","L","3","","","213","main_expt"
"","bandit","293","773837","0.0-254.0-0.0","41097897","wem/bandit_double","A3PRZRK9IC5CBI","both","7","2","205","","","","","","","0","0","1","0.2138557204","0.1142105534","","","","","0.2798540136","0.09587264096","0.1385204111","0.1142105534","0.4643769008","0.4246209323","0.2421176173","0.2138557204","","","","","","","","76","L","3","","","214","main_expt"
"","bandit","294","775571","0.0-255.0-0.0","41097897","wem/bandit_double","A3PRZRK9IC5CBI","both","7","2","227","","","","","","","0","0","1","0.2142566612","0.1031311673","","","","","0.2469391402","0.08342689115","0.1089132689","0.1031311673","0.4328812357","0.3993057066","0.2629876012","0.2142566612","","","","","","","","76","L","3","","","215","main_expt"
"","bandit","295","778181","0.0-256.0-0.0","41097897","wem/bandit_double","A3PRZRK9IC5CBI","both","7","2","1101","","","","","","","0","0","1","0.3987772474","0.05361264496","","","","","0.3211823944","0.05361264496","0.1299508563","0.1031732366","0.4064507999","0.3987772474","0.2977714141","0.1900351118","","","","","","","","74","J","1","","","216","main_expt"
