"consent","trial_type","trial_index","time_elapsed","internal_node_id","subjID","study","MID","cond","drift1","drift2","rt","responses","key_press","expt_phase","like","value","connected","gems","bombs","no_reward","GemPrChosen","BombPrChosen","GainOverPainPr_0","GainOverPainPr_1","GainOverPainPr_2","GainOverPainPr_3","LosePr_0","LosePr_1","LosePr_2","LosePr_3","WinPr_0","WinPr_1","WinPr_2","WinPr_3","Q0","Q1","Q2","gender","age","ethnicity","target","respCharCode","respKey","respChoiceNum","respChoice","practice","trial_counter","trial_label"
"INL_behavioral_consent_30min_online.html","consent","0","5557","0.0-0.0","52159072","wem/bandit_double","A1NKBXOTZAI1YK","both","8","1","","","","","","","","","","","","","","","","","","","","","","","","","","","","","","","","","","","","","",""
"","survey-text","1","10246","0.0-1.0","52159072","wem/bandit_double","A1NKBXOTZAI1YK","both","8","1","3675","{""Q0"":""A1NKBXOTZAI1YK""}","","","","","","","","","","","","","","","","","","","","","","","","","","","","","","","","","","","",""
"","text","2","21989","0.0-2.0","52159072","wem/bandit_double","A1NKBXOTZAI1YK","both","8","1","10730","","32","","","","","","","","","","","","","","","","","","","","","","","","","","","","","","","","","","",""
"","text","3","26613","0.0-3.0","52159072","wem/bandit_double","A1NKBXOTZAI1YK","both","8","1","4622","","32","","","","","","","","","","","","","","","","","","","","","","","","","","","","","","","","","","",""
"","text","4","39949","0.0-4.0","52159072","wem/bandit_double","A1NKBXOTZAI1YK","both","8","1","13334","","32","","","","","","","","","","","","","","","","","","","","","","","","","","","","","","","","","","",""
"","text","5","46797","0.0-5.0","52159072","wem/bandit_double","A1NKBXOTZAI1YK","both","8","1","6846","","32","","","","","","","","","","","","","","","","","","","","","","","","","","","","","","","","","","",""
"","text","6","55823","0.0-6.0","52159072","wem/bandit_double","A1NKBXOTZAI1YK","both","8","1","9024","","32","","","","","","","","","","","","","","","","","","","","","","","","","","","","","","","","","","",""
"","text","7","61821","0.0-7.0","52159072","wem/bandit_double","A1NKBXOTZAI1YK","both","8","1","5996","","32","","","","","","","","","","","","","","","","","","","","","","","","","","","","","","","","","","",""
"","identification","8","76365","0.0-8.0-0.0","52159072","wem/bandit_double","A1NKBXOTZAI1YK","both","8","1","14516","","","","3","3","3","","","","","","","","","","","","","","","","","","","","","","","","the village of Zur","","","","","","",""
"","identification","9","84476","0.0-8.0-1.0","52159072","wem/bandit_double","A1NKBXOTZAI1YK","both","8","1","7084","","","","1","1","1","","","","","","","","","","","","","","","","","","","","","","","","the village of Nyx","","","","","","",""
"","text","10","92979","0.0-9.0","52159072","wem/bandit_double","A1NKBXOTZAI1YK","both","8","1","7492","","32","","","","","","","","","","","","","","","","","","","","","","","","","","","","","","","","","","",""
"","text","11","95622","0.0-10.0","52159072","wem/bandit_double","A1NKBXOTZAI1YK","both","8","1","2639","","32","","","","","","","","","","","","","","","","","","","","","","","","","","","","","","","","","","",""
"","text","12","98269","0.0-11.0","52159072","wem/bandit_double","A1NKBXOTZAI1YK","both","8","1","2645","","32","","","","","","","","","","","","","","","","","","","","","","","","","","","","","","","","","","",""
"","text","13","99839","0.0-12.0","52159072","wem/bandit_double","A1NKBXOTZAI1YK","both","8","1","1568","","32","","","","","","","","","","","","","","","","","","","","","","","","","","","","","","","","","","",""
"","text","14","109277","0.0-13.0","52159072","wem/bandit_double","A1NKBXOTZAI1YK","both","8","1","9435","","32","","","","","","","","","","","","","","","","","","","","","","","","","","","","","","","","","","",""
"","bandit","15","112234","0.0-14.0-0.0","52159072","wem/bandit_double","A1NKBXOTZAI1YK","both","8","1","1424","","","","","","","1","0","0","1","0","","","","","0","","","","1","","","","","","","","","","","74","J","0","img/none_selected_demo.jpg","true","0",""
"","bandit","16","114611","0.0-15.0-0.0","52159072","wem/bandit_double","A1NKBXOTZAI1YK","both","8","1","861","","","","","","","0","1","0","0","1","","","","","1","","","","0","","","","","","","","","","","75","K","0","img/none_selected_demo.jpg","true","0",""
"","text","17","117690","0.0-16.0","52159072","wem/bandit_double","A1NKBXOTZAI1YK","both","8","1","3076","","32","","","","","","","","","","","","","","","","","","","","","","","","","","","","","","","","","","",""
"","text","18","135478","0.0-17.0","52159072","wem/bandit_double","A1NKBXOTZAI1YK","both","8","1","17787","","32","","","","","","","","","","","","","","","","","","","","","","","","","","","","","","","","","","",""
"","text","19","139659","0.0-18.0","52159072","wem/bandit_double","A1NKBXOTZAI1YK","both","8","1","4179","","32","","","","","","","","","","","","","","","","","","","","","","","","","","","","","","","","","","",""
"","text","20","141286","0.0-19.0","52159072","wem/bandit_double","A1NKBXOTZAI1YK","both","8","1","1624","","32","","","","","","","","","","","","","","","","","","","","","","","","","","","","","","","","","","",""
"","bandit","21","143684","0.0-20.0-0.0","52159072","wem/bandit_double","A1NKBXOTZAI1YK","both","8","1","882","","","","","","","1","0","0","0.8","0","","","","","0","0","","","0.8","0.2","","","","","","","","","","74","J","0","img/none_selected_demo.jpg","true","0","80_20_practice"
"","bandit","22","145910","0.0-20.0-1.0","52159072","wem/bandit_double","A1NKBXOTZAI1YK","both","8","1","715","","","","","","","0","0","1","0.2","0","","","","","0","0","","","0.8","0.2","","","","","","","","","","75","K","1","","true","0","80_20_practice"
"","bandit","23","147915","0.0-20.0-2.0","52159072","wem/bandit_double","A1NKBXOTZAI1YK","both","8","1","483","","","","","","","0","0","1","0.8","0","","","","","0","0","","","0.8","0.2","","","","","","","","","","74","J","0","img/none_selected_demo.jpg","true","0","80_20_practice"
"","bandit","24","149662","0.0-20.0-3.0","52159072","wem/bandit_double","A1NKBXOTZAI1YK","both","8","1","238","","","","","","","1","0","0","0.8","0","","","","","0","0","","","0.8","0.2","","","","","","","","","","74","J","0","img/none_selected_demo.jpg","true","0","80_20_practice"
"","bandit","25","151418","0.0-20.0-4.0","52159072","wem/bandit_double","A1NKBXOTZAI1YK","both","8","1","242","","","","","","","1","0","0","0.8","0","","","","","0","0","","","0.8","0.2","","","","","","","","","","74","J","0","img/none_selected_demo.jpg","true","0","80_20_practice"
"","bandit","26","152989","0.0-20.0-5.0","52159072","wem/bandit_double","A1NKBXOTZAI1YK","both","8","1","60","","","","","","","1","0","0","0.8","0","","","","","0","0","","","0.8","0.2","","","","","","","","","","74","J","0","img/none_selected_demo.jpg","true","0","80_20_practice"
"","bandit","27","154631","0.0-20.0-6.0","52159072","wem/bandit_double","A1NKBXOTZAI1YK","both","8","1","134","","","","","","","1","0","0","0.8","0","","","","","0","0","","","0.8","0.2","","","","","","","","","","74","J","0","img/none_selected_demo.jpg","true","0","80_20_practice"
"","bandit","28","156365","0.0-20.0-7.0","52159072","wem/bandit_double","A1NKBXOTZAI1YK","both","8","1","208","","","","","","","1","0","0","0.8","0","","","","","0","0","","","0.8","0.2","","","","","","","","","","74","J","0","img/none_selected_demo.jpg","true","0","80_20_practice"
"","bandit","29","158350","0.0-20.0-8.0","52159072","wem/bandit_double","A1NKBXOTZAI1YK","both","8","1","454","","","","","","","1","0","0","0.8","0","","","","","0","0","","","0.8","0.2","","","","","","","","","","74","J","0","img/none_selected_demo.jpg","true","0","80_20_practice"
"","bandit","30","160220","0.0-20.0-9.0","52159072","wem/bandit_double","A1NKBXOTZAI1YK","both","8","1","356","","","","","","","1","0","0","0.8","0","","","","","0","0","","","0.8","0.2","","","","","","","","","","74","J","0","img/none_selected_demo.jpg","true","0","80_20_practice"
"","bandit","31","161829","0.0-20.0-10.0","52159072","wem/bandit_double","A1NKBXOTZAI1YK","both","8","1","99","","","","","","","1","0","0","0.8","0","","","","","0","0","","","0.8","0.2","","","","","","","","","","74","J","0","img/none_selected_demo.jpg","true","0","80_20_practice"
"","bandit","32","163668","0.0-20.0-11.0","52159072","wem/bandit_double","A1NKBXOTZAI1YK","both","8","1","331","","","","","","","1","0","0","0.8","0","","","","","0","0","","","0.8","0.2","","","","","","","","","","74","J","0","img/none_selected_demo.jpg","true","0","80_20_practice"
"","bandit","33","165350","0.0-20.0-12.0","52159072","wem/bandit_double","A1NKBXOTZAI1YK","both","8","1","164","","","","","","","0","0","1","0.8","0","","","","","0","0","","","0.8","0.2","","","","","","","","","","74","J","0","img/none_selected_demo.jpg","true","0","80_20_practice"
"","bandit","34","167534","0.0-20.0-13.0","52159072","wem/bandit_double","A1NKBXOTZAI1YK","both","8","1","665","","","","","","","1","0","0","0.8","0","","","","","0","0","","","0.8","0.2","","","","","","","","","","74","J","0","img/none_selected_demo.jpg","true","0","80_20_practice"
"","bandit","35","169240","0.0-20.0-14.0","52159072","wem/bandit_double","A1NKBXOTZAI1YK","both","8","1","191","","","","","","","1","0","0","0.8","0","","","","","0","0","","","0.8","0.2","","","","","","","","","","74","J","0","img/none_selected_demo.jpg","true","0","80_20_practice"
"","bandit","36","173469","0.0-20.0-15.0","52159072","wem/bandit_double","A1NKBXOTZAI1YK","both","8","1","2703","","","","","","","1","0","0","0.8","0","","","","","0","0","","","0.8","0.2","","","","","","","","","","74","J","0","img/none_selected_demo.jpg","true","0","80_20_practice"
"","bandit","37","176192","0.0-20.0-16.0","52159072","wem/bandit_double","A1NKBXOTZAI1YK","both","8","1","1210","","","","","","","1","0","0","0.8","0","","","","","0","0","","","0.8","0.2","","","","","","","","","","74","J","0","img/none_selected_demo.jpg","true","0","80_20_practice"
"","bandit","38","183871","0.0-20.0-17.0","52159072","wem/bandit_double","A1NKBXOTZAI1YK","both","8","1","6170","","","","","","","1","0","0","0.8","0","","","","","0","0","","","0.8","0.2","","","","","","","","","","74","J","0","img/none_selected_demo.jpg","true","0","80_20_practice"
"","bandit","39","185876","0.0-20.0-18.0","52159072","wem/bandit_double","A1NKBXOTZAI1YK","both","8","1","480","","","","","","","0","0","1","0.8","0","","","","","0","0","","","0.8","0.2","","","","","","","","","","74","J","0","img/none_selected_demo.jpg","true","0","80_20_practice"
"","bandit","40","187782","0.0-20.0-19.0","52159072","wem/bandit_double","A1NKBXOTZAI1YK","both","8","1","369","","","","","","","1","0","0","0.8","0","","","","","0","0","","","0.8","0.2","","","","","","","","","","74","J","0","img/none_selected_demo.jpg","true","0","80_20_practice"
"","text","41","190996","0.0-21.0","52159072","wem/bandit_double","A1NKBXOTZAI1YK","both","8","1","3211","","32","","","","","","","","","","","","","","","","","","","","","","","","","","","","","","","","","","",""
"","bandit","42","193693","0.0-22.0-0.0","52159072","wem/bandit_double","A1NKBXOTZAI1YK","both","8","1","1190","","","","","","","1","0","0","1","0","","","","","0","1","","","1","0","","","","","","","","","","74","J","0","img/none_selected_demo.jpg","true","0",""
"","text","43","199036","0.0-23.0","52159072","wem/bandit_double","A1NKBXOTZAI1YK","both","8","1","5339","","32","","","","","","","","","","","","","","","","","","","","","","","","","","","","","","","","","","",""
"","text","44","200940","0.0-24.0","52159072","wem/bandit_double","A1NKBXOTZAI1YK","both","8","1","1902","","32","","","","","","","","","","","","","","","","","","","","","","","","","","","","","","","","","","",""
"","text","45","203677","0.0-25.0","52159072","wem/bandit_double","A1NKBXOTZAI1YK","both","8","1","2735","","32","","","","","","","","","","","","","","","","","","","","","","","","","","","","","","","","","","",""
"","text","46","205205","0.0-26.0","52159072","wem/bandit_double","A1NKBXOTZAI1YK","both","8","1","1524","","32","","","","","","","","","","","","","","","","","","","","","","","","","","","","","","","","","","",""
"","text","47","207549","0.0-27.0","52159072","wem/bandit_double","A1NKBXOTZAI1YK","both","8","1","2339","","32","","","","","","","","","","","","","","","","","","","","","","","","","","","","","","","","","","",""
"","text","48","251243","0.0-28.0","52159072","wem/bandit_double","A1NKBXOTZAI1YK","both","8","1","43691","","32","","","","","","","","","","","","","","","","","","","","","","","","","","","","","","","","","","",""
"","text","49","260846","0.0-29.0","52159072","wem/bandit_double","A1NKBXOTZAI1YK","both","8","1","9601","","32","","","","","","","","","","","","","","","","","","","","","","","","","","","","","","","","","","",""
"","text","50","263405","0.0-30.0","52159072","wem/bandit_double","A1NKBXOTZAI1YK","both","8","1","2555","","32","","","","","","","","","","","","","","","","","","","","","","","","","","","","","","","","","","",""
"","text","51","264995","0.0-31.0","52159072","wem/bandit_double","A1NKBXOTZAI1YK","both","8","1","1586","","32","","","","","","","","","","","","","","","","","","","","","","","","","","","","","","","","","","",""
"","text","52","269043","0.0-32.0","52159072","wem/bandit_double","A1NKBXOTZAI1YK","both","8","1","4047","","32","","","","","","","","","","","","","","","","","","","","","","","","","","","","","","","","","","",""
"","text","53","270061","0.0-33.0","52159072","wem/bandit_double","A1NKBXOTZAI1YK","both","8","1","1014","","32","","","","","","","","","","","","","","","","","","","","","","","","","","","","","","","","","","",""
"","text","54","271974","0.0-34.0","52159072","wem/bandit_double","A1NKBXOTZAI1YK","both","8","1","1907","","32","","","","","","","","","","","","","","","","","","","","","","","","","","","","","","","","","","",""
"","bandit","55","274426","0.0-35.0-0.0","52159072","wem/bandit_double","A1NKBXOTZAI1YK","both","8","1","937","","","","","","","1","0","0","0.8","0.8","","","","","0.8","0.2","0.6","0.2","0.8","0.2","0.6","0.2","","","","","","","","72","H","0","img/none_selected.jpg","true","0","full_practice"
"","bandit","56","276385","0.0-35.0-1.0","52159072","wem/bandit_double","A1NKBXOTZAI1YK","both","8","1","436","","","","","","","0","1","0","0.2","0.2","","","","","0.8","0.2","0.6","0.2","0.8","0.2","0.6","0.2","","","","","","","","74","J","1","","true","0","full_practice"
"","bandit","57","278561","0.0-35.0-2.0","52159072","wem/bandit_double","A1NKBXOTZAI1YK","both","8","1","661","","","","","","","1","0","0","0.6","0.6","","","","","0.8","0.2","0.6","0.2","0.8","0.2","0.6","0.2","","","","","","","","75","K","2","","true","0","full_practice"
"","bandit","58","280366","0.0-35.0-3.0","52159072","wem/bandit_double","A1NKBXOTZAI1YK","both","8","1","285","","","","","","","0","0","1","0.2","0.2","","","","","0.8","0.2","0.6","0.2","0.8","0.2","0.6","0.2","","","","","","","","76","L","3","","true","0","full_practice"
"","bandit","59","282141","0.0-35.0-4.0","52159072","wem/bandit_double","A1NKBXOTZAI1YK","both","8","1","263","","","","","","","0","1","0","0.6","0.6","","","","","0.8","0.2","0.6","0.2","0.8","0.2","0.6","0.2","","","","","","","","75","K","2","","true","0","full_practice"
"","bandit","60","284053","0.0-35.0-5.0","52159072","wem/bandit_double","A1NKBXOTZAI1YK","both","8","1","396","","","","","","","1","1","0","0.8","0.8","","","","","0.8","0.2","0.6","0.2","0.8","0.2","0.6","0.2","","","","","","","","72","H","0","img/none_selected.jpg","true","0","full_practice"
"","bandit","61","285884","0.0-35.0-6.0","52159072","wem/bandit_double","A1NKBXOTZAI1YK","both","8","1","325","","","","","","","1","1","0","0.8","0.8","","","","","0.8","0.2","0.6","0.2","0.8","0.2","0.6","0.2","","","","","","","","72","H","0","img/none_selected.jpg","true","0","full_practice"
"","bandit","62","287644","0.0-35.0-7.0","52159072","wem/bandit_double","A1NKBXOTZAI1YK","both","8","1","249","","","","","","","1","1","0","0.6","0.6","","","","","0.8","0.2","0.6","0.2","0.8","0.2","0.6","0.2","","","","","","","","75","K","2","","true","0","full_practice"
"","bandit","63","289641","0.0-35.0-8.0","52159072","wem/bandit_double","A1NKBXOTZAI1YK","both","8","1","469","","","","","","","1","1","0","0.2","0.2","","","","","0.8","0.2","0.6","0.2","0.8","0.2","0.6","0.2","","","","","","","","74","J","1","","true","0","full_practice"
"","bandit","64","291669","0.0-35.0-9.0","52159072","wem/bandit_double","A1NKBXOTZAI1YK","both","8","1","516","","","","","","","1","0","0","0.2","0.2","","","","","0.8","0.2","0.6","0.2","0.8","0.2","0.6","0.2","","","","","","","","76","L","3","","true","0","full_practice"
"","bandit","65","293314","0.0-35.0-10.0","52159072","wem/bandit_double","A1NKBXOTZAI1YK","both","8","1","129","","","","","","","0","1","0","0.2","0.2","","","","","0.8","0.2","0.6","0.2","0.8","0.2","0.6","0.2","","","","","","","","76","L","3","","true","0","full_practice"
"","bandit","66","295107","0.0-35.0-11.0","52159072","wem/bandit_double","A1NKBXOTZAI1YK","both","8","1","262","","","","","","","1","1","0","0.6","0.6","","","","","0.8","0.2","0.6","0.2","0.8","0.2","0.6","0.2","","","","","","","","75","K","2","","true","0","full_practice"
"","bandit","67","296874","0.0-35.0-12.0","52159072","wem/bandit_double","A1NKBXOTZAI1YK","both","8","1","245","","","","","","","1","0","0","0.2","0.2","","","","","0.8","0.2","0.6","0.2","0.8","0.2","0.6","0.2","","","","","","","","74","J","1","","true","0","full_practice"
"","bandit","68","298638","0.0-35.0-13.0","52159072","wem/bandit_double","A1NKBXOTZAI1YK","both","8","1","254","","","","","","","0","1","0","0.2","0.2","","","","","0.8","0.2","0.6","0.2","0.8","0.2","0.6","0.2","","","","","","","","74","J","1","","true","0","full_practice"
"","bandit","69","300317","0.0-35.0-14.0","52159072","wem/bandit_double","A1NKBXOTZAI1YK","both","8","1","160","","","","","","","1","1","0","0.8","0.8","","","","","0.8","0.2","0.6","0.2","0.8","0.2","0.6","0.2","","","","","","","","72","H","0","img/none_selected.jpg","true","0","full_practice"
"","bandit","70","302036","0.0-35.0-15.0","52159072","wem/bandit_double","A1NKBXOTZAI1YK","both","8","1","209","","","","","","","0","0","1","0.2","0.2","","","","","0.8","0.2","0.6","0.2","0.8","0.2","0.6","0.2","","","","","","","","74","J","1","","true","0","full_practice"
"","bandit","71","303842","0.0-35.0-16.0","52159072","wem/bandit_double","A1NKBXOTZAI1YK","both","8","1","282","","","","","","","0","0","1","0.2","0.2","","","","","0.8","0.2","0.6","0.2","0.8","0.2","0.6","0.2","","","","","","","","74","J","1","","true","0","full_practice"
"","bandit","72","305623","0.0-35.0-17.0","52159072","wem/bandit_double","A1NKBXOTZAI1YK","both","8","1","263","","","","","","","0","0","1","0.2","0.2","","","","","0.8","0.2","0.6","0.2","0.8","0.2","0.6","0.2","","","","","","","","74","J","1","","true","0","full_practice"
"","bandit","73","307252","0.0-35.0-18.0","52159072","wem/bandit_double","A1NKBXOTZAI1YK","both","8","1","103","","","","","","","1","1","0","0.6","0.6","","","","","0.8","0.2","0.6","0.2","0.8","0.2","0.6","0.2","","","","","","","","75","K","2","","true","0","full_practice"
"","bandit","74","309059","0.0-35.0-19.0","52159072","wem/bandit_double","A1NKBXOTZAI1YK","both","8","1","282","","","","","","","0","0","1","0.2","0.2","","","","","0.8","0.2","0.6","0.2","0.8","0.2","0.6","0.2","","","","","","","","76","L","3","","true","0","full_practice"
"","text","75","311492","0.0-36.0","52159072","wem/bandit_double","A1NKBXOTZAI1YK","both","8","1","2429","","32","","","","","","","","","","","","","","","","","","","","","","","","","","","","","","","","","","",""
"","text","76","320084","0.0-37.0","52159072","wem/bandit_double","A1NKBXOTZAI1YK","both","8","1","7587","","32","","","","","","","","","","","","","","","","","","","","","","","","","","","","","","","","","","",""
"","text","77","322939","0.0-38.0","52159072","wem/bandit_double","A1NKBXOTZAI1YK","both","8","1","2854","","32","","","","","","","","","","","","","","","","","","","","","","","","","","","","","","","","","","",""
"","text","78","327781","0.0-39.0","52159072","wem/bandit_double","A1NKBXOTZAI1YK","both","8","1","4838","","32","","","","","","","","","","","","","","","","","","","","","","","","","","","","","","","","","","",""
"","text","79","333424","0.0-40.0","52159072","wem/bandit_double","A1NKBXOTZAI1YK","both","8","1","5639","","32","","","","","","","","","","","","","","","","","","","","","","","","","","","","","","","","","","",""
"","bandit","80","335812","0.0-41.0-0.0","52159072","wem/bandit_double","A1NKBXOTZAI1YK","both","8","1","854","","","","","","","0","0","1","0.3540548627","0.0798457429","","","","","0.0798457429","0.02943109976","0.3592836462","0.4269289603","0.3540548627","0.2637293772","0.1351790469","0.2928194041","","","","","","","","72","H","0","img/none_selected.jpg","","1","main_expt"
"","bandit","81","337691","0.0-42.0-0.0","52159072","wem/bandit_double","A1NKBXOTZAI1YK","both","8","1","370","","","","","","","0","0","1","0.3812516843","0.07621336767","","","","","0.07621336767","0.06336112212","0.3454903542","0.4660243271","0.3812516843","0.2760013096","0.125602744","0.3040419902","","","","","","","","72","H","0","img/none_selected.jpg","","2","main_expt"
"","bandit","82","339508","0.0-43.0-0.0","52159072","wem/bandit_double","A1NKBXOTZAI1YK","both","8","1","306","","","","","","","0","0","1","0.3240499928","0.07335687118","","","","","0.07476295528","0.07335687118","0.2941512374","0.4738503749","0.3901316494","0.3240499928","0.09574082279","0.2875251023","","","","","","","","74","J","1","","","3","main_expt"
"","bandit","83","341483","0.0-44.0-0.0","52159072","wem/bandit_double","A1NKBXOTZAI1YK","both","8","1","448","","","","","","","0","1","0","0.0913382225","0.2851241965","","","","","0.06526985361","0.06156305515","0.2851241965","0.4618500418","0.3945399471","0.3510822359","0.0913382225","0.2965567903","","","","","","","","75","K","2","","","4","main_expt"
"","bandit","84","343297","0.0-45.0-0.0","52159072","wem/bandit_double","A1NKBXOTZAI1YK","both","8","1","290","","","","","","","0","0","1","0.2681113314","0.4488935273","","","","","0.05487735528","0.08141194251","0.3172925843","0.4488935273","0.3997977613","0.3522827721","0.106177601","0.2681113314","","","","","","","","76","L","3","","","5","main_expt"
"","bandit","85","345029","0.0-46.0-0.0","52159072","wem/bandit_double","A1NKBXOTZAI1YK","both","8","1","214","","","","","","","0","0","1","0.382674005","0.1104821702","","","","","0.04340015571","0.1104821702","0.3319153021","0.4437832297","0.390783501","0.382674005","0.08998955495","0.2330443498","","","","","","","","74","J","1","","","6","main_expt"
"","bandit","86","346730","0.0-47.0-0.0","52159072","wem/bandit_double","A1NKBXOTZAI1YK","both","8","1","182","","","","","","","1","0","0","0.1630509172","0.4310077805","","","","","0.04575060371","0.1191408541","0.3553039772","0.4310077805","0.3305693427","0.3998463606","0.1077526668","0.1630509172","","","","","","","","76","L","3","","","7","main_expt"
"","bandit","87","348321","0.0-48.0-0.0","52159072","wem/bandit_double","A1NKBXOTZAI1YK","both","8","1","75","","","","","","","1","1","0","0.2002468685","0.4480386191","","","","","0.06112087539","0.1517570037","0.3868093767","0.4480386191","0.3056545716","0.3832029687","0.1243697388","0.2002468685","","","","","","","","76","L","3","","","8","main_expt"
"","bandit","88","350233","0.0-49.0-0.0","52159072","wem/bandit_double","A1NKBXOTZAI1YK","both","8","1","382","","","","","","","0","0","1","0.1835034381","0.4460224538","","","","","0.07854191076","0.1738087075","0.3754406694","0.4460224538","0.3278889804","0.3796681134","0.1698108096","0.1835034381","","","","","","","","76","L","3","","","9","main_expt"
"","bandit","89","351869","0.0-50.0-0.0","52159072","wem/bandit_double","A1NKBXOTZAI1YK","both","8","1","124","","","","","","","1","0","0","0.3137855556","0.06865483858","","","","","0.06865483858","0.2033535465","0.3537433427","0.3954493452","0.3137855556","0.3614311416","0.221757114","0.1939723001","","","","","","","","72","H","0","img/none_selected.jpg","","10","main_expt"
"","bandit","90","353571","0.0-51.0-0.0","52159072","wem/bandit_double","A1NKBXOTZAI1YK","both","8","1","186","","","","","","","0","0","1","0.3253079181","0.05083805298","","","","","0.05083805298","0.1751631116","0.3793358735","0.4064238371","0.3253079181","0.3938737051","0.1961062924","0.1949806013","","","","","","","","72","H","0","img/none_selected.jpg","","11","main_expt"
"","bandit","91","355238","0.0-52.0-0.0","52159072","wem/bandit_double","A1NKBXOTZAI1YK","both","8","1","145","","","","","","","1","0","0","0.3298150516","0.1038792476","","","","","0.1038792476","0.1787487179","0.3800428212","0.3800839449","0.3298150516","0.3810544723","0.1907056259","0.2587943474","","","","","","","","72","H","0","img/none_selected.jpg","","12","main_expt"
"","bandit","92","356931","0.0-53.0-0.0","52159072","wem/bandit_double","A1NKBXOTZAI1YK","both","8","1","174","","","","","","","1","0","0","0.3673307406","0.1197284353","","","","","0.1197284353","0.1794712961","0.3647981021","0.3866628193","0.3673307406","0.3707046684","0.2162865666","0.3085985727","","","","","","","","72","H","0","img/none_selected.jpg","","13","main_expt"
"","bandit","93","358550","0.0-54.0-0.0","52159072","wem/bandit_double","A1NKBXOTZAI1YK","both","8","1","89","","","","","","","1","0","0","0.3679224674","0.135681701","","","","","0.135681701","0.2482140722","0.3646471907","0.326509825","0.3679224674","0.3486531997","0.2399362825","0.2464992766","","","","","","","","72","H","0","img/none_selected.jpg","","14","main_expt"
"","bandit","94","360206","0.0-55.0-0.0","52159072","wem/bandit_double","A1NKBXOTZAI1YK","both","8","1","126","","","","","","","0","0","1","0.3062507314","0.125153919","","","","","0.125153919","0.2859415589","0.3549291363","0.2428529647","0.3062507314","0.3263578384","0.1986859052","0.2474611475","","","","","","","","72","H","0","img/none_selected.jpg","","15","main_expt"
"","bandit","95","361830","0.0-56.0-0.0","52159072","wem/bandit_double","A1NKBXOTZAI1YK","both","8","1","110","","","","","","","1","0","0","0.2892976033","0.1096891688","","","","","0.1096891688","0.26587149","0.3727350689","0.2332962783","0.2892976033","0.3514189979","0.1865641621","0.2835538477","","","","","","","","72","H","0","img/none_selected.jpg","","16","main_expt"
"","bandit","96","363533","0.0-57.0-0.0","52159072","wem/bandit_double","A1NKBXOTZAI1YK","both","8","1","183","","","","","","","0","0","1","0.2861796528","0.1051581447","","","","","0.1051581447","0.2776265896","0.3112083829","0.2271032234","0.2861796528","0.3532592314","0.2035525071","0.3256112075","","","","","","","","72","H","0","img/none_selected.jpg","","17","main_expt"
"","bandit","97","365107","0.0-58.0-0.0","52159072","wem/bandit_double","A1NKBXOTZAI1YK","both","8","1","62","","","","","","","1","0","0","0.2958570682","0.1437943492","","","","","0.1437943492","0.3223387563","0.2403081055","0.1701710303","0.2958570682","0.3858608091","0.2039336531","0.3802227677","","","","","","","","72","H","0","img/none_selected.jpg","","18","main_expt"
"","bandit","98","366898","0.0-59.0-0.0","52159072","wem/bandit_double","A1NKBXOTZAI1YK","both","8","1","278","","","","","","","0","1","0","0.3353028819","0.1405615485","","","","","0.1405615485","0.3192918255","0.2377482675","0.2070198111","0.3353028819","0.3837638756","0.1598579642","0.360566968","","","","","","","","72","H","0","img/none_selected.jpg","","19","main_expt"
"","bandit","99","368685","0.0-60.0-0.0","52159072","wem/bandit_double","A1NKBXOTZAI1YK","both","8","1","275","","","","","","","0","0","1","0.3139704528","0.1063334751","","","","","0.1063334751","0.2739159796","0.2607530295","0.2412547966","0.3139704528","0.2872100501","0.1437622327","0.3696799013","","","","","","","","72","H","0","img/none_selected.jpg","","20","main_expt"
"","bandit","100","370254","0.0-61.0-0.0","52159072","wem/bandit_double","A1NKBXOTZAI1YK","both","8","1","45","","","","","","","1","0","0","0.2524707143","0.07848250716","","","","","0.07848250716","0.2454385858","0.2919400674","0.2184758186","0.2524707143","0.2975414498","0.07974703335","0.4006907501","","","","","","","","72","H","0","img/none_selected.jpg","","21","main_expt"
"","bandit","101","371979","0.0-62.0-0.0","52159072","wem/bandit_double","A1NKBXOTZAI1YK","both","8","1","208","","","","","","","0","1","0","0.248326021","0.1005082742","","","","","0.1005082742","0.2340842041","0.2995681058","0.1849325376","0.248326021","0.2741965999","0.1361132429","0.4081217326","","","","","","","","72","H","0","img/none_selected.jpg","","22","main_expt"
"","bandit","102","374035","0.0-63.0-0.0","52159072","wem/bandit_double","A1NKBXOTZAI1YK","both","8","1","541","","","","","","","0","1","0","0.2379064449","0.1840173947","","","","","0.0792694407","0.1840173947","0.292554742","0.1521197653","0.2937153481","0.2379064449","0.1705973249","0.3740207531","","","","","","","","74","J","1","","","23","main_expt"
"","bandit","103","375580","0.0-64.0-0.0","52159072","wem/bandit_double","A1NKBXOTZAI1YK","both","8","1","35","","","","","","","0","0","1","0.1392759225","0.3616894364","","","","","0.07358699385","0.1745529383","0.3616894364","0.1759403195","0.2625315469","0.2078598572","0.1392759225","0.3913756451","","","","","","","","75","K","2","","","24","main_expt"
"","bandit","104","377699","0.0-65.0-0.0","52159072","wem/bandit_double","A1NKBXOTZAI1YK","both","8","1","608","","","","","","","0","0","1","0.4100905738","0.09479311865","","","","","0.142208116","0.1756582033","0.3575757263","0.09479311865","0.2405651368","0.2764850733","0.1800538527","0.4100905738","","","","","","","","76","L","3","","","25","main_expt"
"","bandit","105","379472","0.0-66.0-0.0","52159072","wem/bandit_double","A1NKBXOTZAI1YK","both","8","1","251","","","","","","","0","0","1","0.2146400533","0.3635346368","","","","","0.1245113583","0.2086365416","0.3635346368","0.08156123497","0.2503350336","0.3080191348","0.2146400533","0.3600668969","","","","","","","","75","K","2","","","26","main_expt"
"","bandit","106","381294","0.0-67.0-0.0","52159072","wem/bandit_double","A1NKBXOTZAI1YK","both","8","1","291","","","","","","","0","0","1","0.3703096079","0.1102307873","","","","","0.118364605","0.2139763749","0.4109801844","0.1102307873","0.354091838","0.3606197488","0.1948367851","0.3703096079","","","","","","","","76","L","3","","","27","main_expt"
"","bandit","107","383071","0.0-68.0-0.0","52159072","wem/bandit_double","A1NKBXOTZAI1YK","both","8","1","254","","","","","","","1","0","0","0.3419366675","0.1105930361","","","","","0.1105930361","0.1613483267","0.3772962545","0.08274430796","0.3419366675","0.3696097963","0.2282666016","0.3527269899","","","","","","","","72","H","0","img/none_selected.jpg","","28","main_expt"
"","bandit","108","384825","0.0-69.0-0.0","52159072","wem/bandit_double","A1NKBXOTZAI1YK","both","8","1","238","","","","","","","0","0","1","0.361896517","0.1118713044","","","","","0.1118713044","0.1712488152","0.3875745016","0.1086911099","0.361896517","0.3434444954","0.1842618798","0.2854860911","","","","","","","","72","H","0","img/none_selected.jpg","","29","main_expt"
"","bandit","109","386514","0.0-70.0-0.0","52159072","wem/bandit_double","A1NKBXOTZAI1YK","both","8","1","162","","","","","","","0","0","1","0.3701160785","0.1914750456","","","","","0.1914750456","0.1675524316","0.3780019893","0.1116575632","0.3701160785","0.3528183973","0.1930267653","0.2971434158","","","","","","","","72","H","0","img/none_selected.jpg","","30","main_expt"
"","bandit","110","388336","0.0-71.0-0.0","52159072","wem/bandit_double","A1NKBXOTZAI1YK","both","8","1","308","","","","","","","0","0","1","0.3602312343","0.2367730164","","","","","0.2367730164","0.140325158","0.416860241","0.07828091442","0.3602312343","0.3436926249","0.2279264959","0.3192935598","","","","","","","","72","H","0","img/none_selected.jpg","","31","main_expt"
"","bandit","111","390098","0.0-72.0-0.0","52159072","wem/bandit_double","A1NKBXOTZAI1YK","both","8","1","228","","","","","","","1","0","0","0.3392376576","0.1553940025","","","","","0.2109574779","0.1553940025","0.4242573056","0.07550395781","0.3550043818","0.3392376576","0.1922668126","0.2910845839","","","","","","","","74","J","1","","","32","main_expt"
"","bandit","112","391868","0.0-73.0-0.0","52159072","wem/bandit_double","A1NKBXOTZAI1YK","both","8","1","260","","","","","","","0","0","1","0.2524106513","0.1925614924","","","","","0.2005542758","0.1925614924","0.4185546122","0.1445529326","0.3927862597","0.2524106513","0.1503247695","0.2956883229","","","","","","","","74","J","1","","","33","main_expt"
"","bandit","113","393597","0.0-74.0-0.0","52159072","wem/bandit_double","A1NKBXOTZAI1YK","both","8","1","220","","","","","","","0","1","0","0.2378308988","0.2150530123","","","","","0.180377021","0.2150530123","0.4268308419","0.1091775744","0.4185963197","0.2378308988","0.1875072744","0.2918182698","","","","","","","","74","J","1","","","34","main_expt"
"","bandit","114","395522","0.0-75.0-0.0","52159072","wem/bandit_double","A1NKBXOTZAI1YK","both","8","1","388","","","","","","","1","0","0","0.2683654211","0.2688968874","","","","","0.2111187229","0.2688968874","0.4265642185","0.1297995116","0.441983755","0.2683654211","0.2135507624","0.3063909307","","","","","","","","74","J","1","","","35","main_expt"
"","bandit","115","397226","0.0-76.0-0.0","52159072","wem/bandit_double","A1NKBXOTZAI1YK","both","8","1","187","","","","","","","0","0","1","0.2645223933","0.2977459964","","","","","0.2119332756","0.2977459964","0.4066287969","0.09468550628","0.4352827683","0.2645223933","0.2042402853","0.2820805085","","","","","","","","74","J","1","","","36","main_expt"
"","bandit","116","399102","0.0-77.0-0.0","52159072","wem/bandit_double","A1NKBXOTZAI1YK","both","8","1","356","","","","","","","0","0","1","0.2360561858","0.2684429955","","","","","0.2256131965","0.2684429955","0.4611471687","0.09396978408","0.450520142","0.2360561858","0.2024605481","0.2610370824","","","","","","","","74","J","1","","","37","main_expt"
"","bandit","117","400775","0.0-78.0-0.0","52159072","wem/bandit_double","A1NKBXOTZAI1YK","both","8","1","152","","","","","","","0","0","1","0.1677713785","0.4482708269","","","","","0.1975147253","0.2490186117","0.4482708269","0.1062257399","0.4681224698","0.2001865083","0.1677713785","0.1896233007","","","","","","","","75","K","2","","","38","main_expt"
"","bandit","118","402415","0.0-79.0-0.0","52159072","wem/bandit_double","A1NKBXOTZAI1YK","both","8","1","125","","","","","","","0","0","1","0.221779122","0.4402774387","","","","","0.1595648847","0.2548033483","0.4402774387","0.09676453159","0.4711022053","0.1687915361","0.221779122","0.168851025","","","","","","","","75","K","2","","","39","main_expt"
"","bandit","119","404050","0.0-80.0-0.0","52159072","wem/bandit_double","A1NKBXOTZAI1YK","both","8","1","107","","","","","","","0","0","1","0.1615787635","0.08197179495","","","","","0.1626610004","0.2688720753","0.4385128538","0.08197179495","0.4559447699","0.1503151413","0.2722397218","0.1615787635","","","","","","","","76","L","3","","","40","main_expt"
"","bandit","120","405753","0.0-81.0-0.0","52159072","wem/bandit_double","A1NKBXOTZAI1YK","both","8","1","182","","","","","","","0","0","1","0.1472326003","0.14416382","","","","","0.1982402655","0.297778532","0.4380640779","0.14416382","0.4412687596","0.08168262283","0.3298230943","0.1472326003","","","","","","","","76","L","3","","","41","main_expt"
"","bandit","121","407361","0.0-82.0-0.0","52159072","wem/bandit_double","A1NKBXOTZAI1YK","both","8","1","83","","","","","","","0","0","1","0.07668629145","0.2449207522","","","","","0.1863610343","0.2449207522","0.4265224768","0.1070927036","0.4457751761","0.07668629145","0.3104885444","0.1533480506","","","","","","","","74","J","1","","","42","main_expt"
"","bandit","122","408998","0.0-83.0-0.0","52159072","wem/bandit_double","A1NKBXOTZAI1YK","both","8","1","113","","","","","","","0","0","1","0.4298378352","0.2418389683","","","","","0.2418389683","0.2457567503","0.435880106","0.1214526226","0.4298378352","0.07394587158","0.3005355489","0.1414351437","","","","","","","","72","H","0","img/none_selected.jpg","","43","main_expt"
"","bandit","123","410591","0.0-84.0-0.0","52159072","wem/bandit_double","A1NKBXOTZAI1YK","both","8","1","71","","","","","","","1","0","0","0.2456242138","0.4450576882","","","","","0.1943491227","0.2432732657","0.4450576882","0.1450738833","0.4416915379","0.1192337685","0.2456242138","0.1067646429","","","","","","","","75","K","2","","","44","main_expt"
"","bandit","124","412403","0.0-85.0-0.0","52159072","wem/bandit_double","A1NKBXOTZAI1YK","both","8","1","283","","","","","","","1","1","0","0.2839901561","0.4382030275","","","","","0.1543250971","0.2656772236","0.4382030275","0.09632230927","0.3915522423","0.1285724119","0.2839901561","0.1250796286","","","","","","","","75","K","2","","","45","main_expt"
"","bandit","125","414091","0.0-86.0-0.0","52159072","wem/bandit_double","A1NKBXOTZAI1YK","both","8","1","161","","","","","","","1","0","0","0.2353621531","0.4412369426","","","","","0.09719433791","0.2432112423","0.4412369426","0.103211431","0.4318427431","0.1112684106","0.2353621531","0.1927264636","","","","","","","","75","K","2","","","46","main_expt"
"","bandit","126","415839","0.0-87.0-0.0","52159072","wem/bandit_double","A1NKBXOTZAI1YK","both","8","1","235","","","","","","","0","1","0","0.2405257196","0.4588863431","","","","","0.1228880329","0.2992745976","0.4588863431","0.09916324924","0.4395998441","0.1207340475","0.2405257196","0.1804488412","","","","","","","","75","K","2","","","47","main_expt"
"","bandit","127","417465","0.0-88.0-0.0","52159072","wem/bandit_double","A1NKBXOTZAI1YK","both","8","1","99","","","","","","","0","0","1","0.1182533935","0.2594611615","","","","","0.1068532567","0.2594611615","0.4408788818","0.1090242341","0.4630443269","0.1182533935","0.2629408555","0.168268176","","","","","","","","74","J","1","","","48","main_expt"
"","bandit","128","419069","0.0-89.0-0.0","52159072","wem/bandit_double","A1NKBXOTZAI1YK","both","8","1","90","","","","","","","0","0","1","0.1466838001","0.1265186769","","","","","0.1044048509","0.2767916858","0.4232064109","0.1265186769","0.4794982466","0.1460801474","0.2902453213","0.1466838001","","","","","","","","76","L","3","","","49","main_expt"
"","bandit","129","420599","0.0-90.0-0.0","52159072","wem/bandit_double","A1NKBXOTZAI1YK","both","8","1","14","","","","","","","1","1","0","0.4562783041","0.1072026782","","","","","0.1072026782","0.2762534014","0.4210883962","0.1397440907","0.4562783041","0.1765155983","0.3033715012","0.1336340117","","","","","","","","72","H","0","img/none_selected.jpg","","50","main_expt"
"","bandit","130","422250","0.0-91.0-0.0","52159072","wem/bandit_double","A1NKBXOTZAI1YK","both","8","1","141","","","","","","","0","0","1","0.4515646323","0.1287882573","","","","","0.1287882573","0.3379376541","0.4225635581","0.153600331","0.4515646323","0.1614266163","0.3536831403","0.1067821754","","","","","","","","72","H","0","img/none_selected.jpg","","51","main_expt"
"","bandit","131","424051","0.0-92.0-0.0","52159072","wem/bandit_double","A1NKBXOTZAI1YK","both","8","1","287","","","","","","","0","0","1","0.4344137529","0.1298059469","","","","","0.1298059469","0.3395267946","0.4146237098","0.1718407591","0.4344137529","0.1938643747","0.3058792917","0.07294577227","","","","","","","","72","H","0","img/none_selected.jpg","","52","main_expt"
"","bandit","132","425652","0.0-93.0-0.0","52159072","wem/bandit_double","A1NKBXOTZAI1YK","both","8","1","92","","","","","","","0","0","1","0.4421766306","0.07423060895","","","","","0.07423060895","0.29674647","0.3763623321","0.1945727614","0.4421766306","0.1721886996","0.3466820038","0.07676454597","","","","","","","","72","H","0","img/none_selected.jpg","","53","main_expt"
"","bandit","133","427190","0.0-94.0-0.0","52159072","wem/bandit_double","A1NKBXOTZAI1YK","both","8","1","5","","","","","","","1","0","0","0.4591875032","0.08562383645","","","","","0.08562383645","0.3372955831","0.3289081181","0.2450542523","0.4591875032","0.1542880765","0.3159173384","0.07707135067","","","","","","","","72","H","0","img/none_selected.jpg","","54","main_expt"
"","bandit","134","428941","0.0-95.0-0.0","52159072","wem/bandit_double","A1NKBXOTZAI1YK","both","8","1","229","","","","","","","0","0","1","0.4455250987","0.0757818623","","","","","0.0757818623","0.3506099842","0.3025984711","0.2547241938","0.4455250987","0.2155598061","0.3205246683","0.08227932488","","","","","","","","72","H","0","img/none_selected.jpg","","55","main_expt"
"","bandit","135","430490","0.0-96.0-0.0","52159072","wem/bandit_double","A1NKBXOTZAI1YK","both","8","1","27","","","","","","","0","0","1","0.4200701886","0.09897923035","","","","","0.09897923035","0.3418029788","0.2921333137","0.2595112895","0.4200701886","0.199350645","0.3067659888","0.09013031375","","","","","","","","72","H","0","img/none_selected.jpg","","56","main_expt"
"","bandit","136","432013","0.0-97.0-0.0","52159072","wem/bandit_double","A1NKBXOTZAI1YK","both","8","1","11","","","","","","","1","1","0","0.1991981904","0.3162475816","","","","","0.1160875525","0.3162475816","0.3317177772","0.2610276213","0.3635567377","0.1991981904","0.3786279545","0.106866739","","","","","","","","74","J","1","","","57","main_expt"
"","bandit","137","433610","0.0-98.0-0.0","52159072","wem/bandit_double","A1NKBXOTZAI1YK","both","8","1","82","","","","","","","0","0","1","0.1307276253","0.3269881105","","","","","0.1134641846","0.3269881105","0.3240244649","0.2354201416","0.3647217687","0.1307276253","0.3796022377","0.0915584437","","","","","","","","74","J","1","","","58","main_expt"
"","bandit","138","435210","0.0-99.0-0.0","52159072","wem/bandit_double","A1NKBXOTZAI1YK","both","8","1","81","","","","","","","0","0","1","0.1540949786","0.2901324944","","","","","0.1177083384","0.2901324944","0.2988076671","0.2346370837","0.3975499765","0.1540949786","0.3570845549","0.1036540812","","","","","","","","74","J","1","","","59","main_expt"
"","bandit","139","436824","0.0-100.0-0.0","52159072","wem/bandit_double","A1NKBXOTZAI1YK","both","8","1","89","","","","","","","1","0","0","0.398525789","0.3096792726","","","","","0.1125723432","0.289588464","0.3096792726","0.2315637733","0.376383165","0.1187181044","0.398525789","0.07948280662","","","","","","","","75","K","2","","","60","main_expt"
"","bandit","140","438464","0.0-101.0-0.0","52159072","wem/bandit_double","A1NKBXOTZAI1YK","both","8","1","123","","","","","","","0","1","0","0.380986593","0.2821336973","","","","","0.09911093426","0.2782845563","0.2821336973","0.2599537756","0.3384437455","0.1734870435","0.380986593","0.0685056185","","","","","","","","75","K","2","","","61","main_expt"
"","bandit","141","440124","0.0-102.0-0.0","52159072","wem/bandit_double","A1NKBXOTZAI1YK","both","8","1","137","","","","","","","0","0","1","0.3928002855","0.2414244345","","","","","0.09440438105","0.3165490401","0.2414244345","0.2594941563","0.3086389155","0.2056999461","0.3928002855","0.04196312691","","","","","","","","75","K","2","","","62","main_expt"
"","bandit","142","441852","0.0-103.0-0.0","52159072","wem/bandit_double","A1NKBXOTZAI1YK","both","8","1","203","","","","","","","1","1","0","0.4097838671","0.213639373","","","","","0.1015409351","0.3034564924","0.213639373","0.2660839385","0.3098998428","0.2421495796","0.4097838671","0.06524357318","","","","","","","","75","K","2","","","63","main_expt"
"","bandit","143","443625","0.0-104.0-0.0","52159072","wem/bandit_double","A1NKBXOTZAI1YK","both","8","1","253","","","","","","","0","0","1","0.04599317762","0.2426585031","","","","","0.07049798599","0.2506654962","0.1876308072","0.2426585031","0.2859800092","0.2678986655","0.3942475769","0.04599317762","","","","","","","","76","L","3","","","64","main_expt"
"","bandit","144","445398","0.0-105.0-0.0","52159072","wem/bandit_double","A1NKBXOTZAI1YK","both","8","1","235","","","","","","","0","0","1","0.04738713632","0.2581047566","","","","","0.05735603507","0.253414466","0.1841803182","0.2581047566","0.2780623804","0.2780805564","0.3756823908","0.04738713632","","","","","","","","76","L","3","","","65","main_expt"
"","bandit","145","447011","0.0-106.0-0.0","52159072","wem/bandit_double","A1NKBXOTZAI1YK","both","8","1","101","","","","","","","0","1","0","0.02873144913","0.2872127433","","","","","0.0621258055","0.2836500186","0.187417598","0.2872127433","0.2740889186","0.2923516192","0.3780323226","0.02873144913","","","","","","","","76","L","3","","","66","main_expt"
"","bandit","146","448714","0.0-107.0-0.0","52159072","wem/bandit_double","A1NKBXOTZAI1YK","both","8","1","192","","","","","","","0","1","0","0.3481747094","0.3217852231","","","","","0.06966106928","0.3217852231","0.1395950637","0.3232337643","0.3122756929","0.3481747094","0.382091886","0.0355516853","","","","","","","","74","J","1","","","67","main_expt"
"","bandit","147","450380","0.0-108.0-0.0","52159072","wem/bandit_double","A1NKBXOTZAI1YK","both","8","1","127","","","","","","","0","0","1","0.3004294993","0.09965709916","","","","","0.09965709916","0.3574581916","0.1363519197","0.3376006622","0.3004294993","0.3540590834","0.4080562953","0.04483006882","","","","","","","","72","H","0","img/none_selected.jpg","","68","main_expt"
"","bandit","148","452048","0.0-109.0-0.0","52159072","wem/bandit_double","A1NKBXOTZAI1YK","both","8","1","144","","","","","","","0","0","1","0.419826639","0.1117144852","","","","","0.1428217854","0.3884563005","0.1117144852","0.2917609244","0.3312842332","0.3348318208","0.419826639","0.04300650393","","","","","","","","75","K","2","","","69","main_expt"
"","bandit","149","453571","0.0-110.0-0.0","52159072","wem/bandit_double","A1NKBXOTZAI1YK","both","8","1","15","","","","","","","1","0","0","0.2362018798","0.1866845388","","","","","0.1866845388","0.3920047773","0.09667493602","0.2218665627","0.2362018798","0.3844983113","0.3889643965","0.03960880855","","","","","","","","72","H","0","img/none_selected.jpg","","70","main_expt"
"","bandit","150","455144","0.0-111.0-0.0","52159072","wem/bandit_double","A1NKBXOTZAI1YK","both","8","1","56","","","","","","","0","1","0","0.1838323472","0.1702545286","","","","","0.1702545286","0.4066376731","0.09186933139","0.2409383839","0.1838323472","0.3753843975","0.3492343966","0.02401392238","","","","","","","","72","H","0","img/none_selected.jpg","","71","main_expt"
"","bandit","151","456744","0.0-112.0-0.0","52159072","wem/bandit_double","A1NKBXOTZAI1YK","both","8","1","82","","","","","","","0","0","1","0.3502155883","0.09472009463","","","","","0.1836279043","0.3443789926","0.09472009463","0.1920783453","0.1749810972","0.3861429343","0.3502155883","0.008756159955","","","","","","","","75","K","2","","","72","main_expt"
"","bandit","152","458325","0.0-113.0-0.0","52159072","wem/bandit_double","A1NKBXOTZAI1YK","both","8","1","58","","","","","","","0","0","1","0.3568691787","0.1167805336","","","","","0.1644348242","0.3227553012","0.1167805336","0.1905254877","0.1664097112","0.3978436086","0.3568691787","0.006257651783","","","","","","","","75","K","2","","","73","main_expt"
"","bandit","153","459971","0.0-114.0-0.0","52159072","wem/bandit_double","A1NKBXOTZAI1YK","both","8","1","133","","","","","","","1","1","0","0.3847979518","0.3336652139","","","","","0.1833421201","0.3336652139","0.1465151254","0.184198213","0.2001176207","0.3847979518","0.3303653739","0.004732084297","","","","","","","","74","J","1","","","74","main_expt"
"","bandit","154","461499","0.0-115.0-0.0","52159072","wem/bandit_double","A1NKBXOTZAI1YK","both","8","1","20","","","","","","","0","1","0","0.006967558871","0.1881920243","","","","","0.1519653276","0.2890150868","0.123285719","0.1881920243","0.1848717924","0.3974319157","0.3353283381","0.006967558871","","","","","","","","76","L","3","","","75","main_expt"
"","bandit","155","463252","0.0-116.0-0.0","52159072","wem/bandit_double","A1NKBXOTZAI1YK","both","8","1","238","","","","","","","0","1","0","0.3987985884","0.2673490463","","","","","0.1506622639","0.2673490463","0.1392606081","0.1988930589","0.1510178238","0.3987985884","0.3009524994","0.004525860487","","","","","","","","74","J","1","","","76","main_expt"
"","bandit","156","464977","0.0-117.0-0.0","52159072","wem/bandit_double","A1NKBXOTZAI1YK","both","8","1","202","","","","","","","0","0","1","0.2089633591","0.1860897766","","","","","0.1860897766","0.2858541315","0.099337717","0.2255968657","0.2089633591","0.4127312768","0.3316028908","0.007245535115","","","","","","","","72","H","0","img/none_selected.jpg","","77","main_expt"
"","bandit","157","466933","0.0-118.0-0.0","52159072","wem/bandit_double","A1NKBXOTZAI1YK","both","8","1","433","","","","","","","0","0","1","0.3571024926","0.09666605973","","","","","0.1618556875","0.2639968829","0.09666605973","0.1917014014","0.2285147345","0.4257675477","0.3571024926","0.00483057751","","","","","","","","75","K","2","","","78","main_expt"
"","bandit","158","468504","0.0-119.0-0.0","52159072","wem/bandit_double","A1NKBXOTZAI1YK","both","8","1","47","","","","","","","0","1","0","0.2246975601","0.1976853889","","","","","0.1976853889","0.2304888896","0.09639353985","0.2092129429","0.2246975601","0.4331167668","0.3542776451","0.005956317848","","","","","","","","72","H","0","img/none_selected.jpg","","79","main_expt"
"","bandit","159","470044","0.0-120.0-0.0","52159072","wem/bandit_double","A1NKBXOTZAI1YK","both","8","1","28","","","","","","","0","0","1","0.3201174307","0.09566996791","","","","","0.2198838985","0.1991809665","0.09566996791","0.1974306726","0.1878766281","0.4294395537","0.3201174307","0.0076590047","","","","","","","","75","K","2","","","80","main_expt"
"","bandit","160","471647","0.0-121.0-0.0","52159072","wem/bandit_double","A1NKBXOTZAI1YK","both","8","1","84","","","","","","","0","0","1","0.3503003334","0.07958501382","","","","","0.2167005254","0.1627434897","0.07958501382","0.1414754506","0.2436254364","0.4234249918","0.3503003334","0.009115568074","","","","","","","","75","K","2","","","81","main_expt"
"","bandit","161","473273","0.0-122.0-0.0","52159072","wem/bandit_double","A1NKBXOTZAI1YK","both","8","1","100","","","","","","","1","0","0","0.3509066846","0.08833774835","","","","","0.2527486409","0.1624637972","0.08833774835","0.1422587364","0.2627531714","0.3956977209","0.3509066846","0.01382977225","","","","","","","","75","K","2","","","82","main_expt"
"","bandit","162","474907","0.0-123.0-0.0","52159072","wem/bandit_double","A1NKBXOTZAI1YK","both","8","1","104","","","","","","","0","0","1","0.3951868033","0.09109006352","","","","","0.2569721607","0.1900332","0.09109006352","0.1079415531","0.2672212524","0.4248650233","0.3951868033","0.01500629599","","","","","","","","75","K","2","","","83","main_expt"
"","bandit","163","476511","0.0-124.0-0.0","52159072","wem/bandit_double","A1NKBXOTZAI1YK","both","8","1","66","","","","","","","1","0","0","0.4131477378","0.05321730921","","","","","0.2535394321","0.1705646391","0.05321730921","0.07696487024","0.2817484998","0.4196907627","0.4131477378","0.02310127573","","","","","","","","75","K","2","","","84","main_expt"
"","bandit","164","478200","0.0-125.0-0.0","52159072","wem/bandit_double","A1NKBXOTZAI1YK","both","8","1","162","","","","","","","0","0","1","0.3889697292","0.03321009489","","","","","0.2255799186","0.2053302659","0.03321009489","0.08313016423","0.3074775227","0.435633498","0.3889697292","0.02639065846","","","","","","","","75","K","2","","","85","main_expt"
"","bandit","165","479827","0.0-126.0-0.0","52159072","wem/bandit_double","A1NKBXOTZAI1YK","both","8","1","112","","","","","","","1","1","0","0.3885636443","0.04864990798","","","","","0.2197080914","0.2128685413","0.04864990798","0.102083396","0.2717847629","0.4322222521","0.3885636443","0.01746441632","","","","","","","","75","K","2","","","86","main_expt"
"","bandit","166","481426","0.0-127.0-0.0","52159072","wem/bandit_double","A1NKBXOTZAI1YK","both","8","1","78","","","","","","","1","0","0","0.4028282504","0.07919268752","","","","","0.2230338057","0.213778815","0.07919268752","0.09067070718","0.2183858348","0.4476119451","0.4028282504","0.01256144444","","","","","","","","75","K","2","","","87","main_expt"
"","bandit","167","482966","0.0-128.0-0.0","52159072","wem/bandit_double","A1NKBXOTZAI1YK","both","8","1","25","","","","","","","0","0","1","0.4306890759","0.05835116993","","","","","0.2484269739","0.2102340809","0.05835116993","0.1421970704","0.2054961256","0.4073123198","0.4306890759","0.01178158386","","","","","","","","75","K","2","","","88","main_expt"
"","bandit","168","485016","0.0-129.0-0.0","52159072","wem/bandit_double","A1NKBXOTZAI1YK","both","8","1","514","","","","","","","0","0","1","0.4103738654","0.05115519592","","","","","0.2733562597","0.1809358483","0.05115519592","0.219142046","0.1452714398","0.3862301724","0.4103738654","0.008722555822","","","","","","","","75","K","2","","","89","main_expt"
"","bandit","169","486612","0.0-130.0-0.0","52159072","wem/bandit_double","A1NKBXOTZAI1YK","both","8","1","75","","","","","","","0","0","1","0.3980827974","0.07819273649","","","","","0.2973868449","0.1293356972","0.07819273649","0.2806923657","0.1077779513","0.3596745144","0.3980827974","0.008232471735","","","","","","","","75","K","2","","","90","main_expt"
"","bandit","170","488323","0.0-131.0-0.0","52159072","wem/bandit_double","A1NKBXOTZAI1YK","both","8","1","198","","","","","","","0","0","1","0.4040531024","0.05564661524","","","","","0.3067689268","0.1136224352","0.05564661524","0.2819660137","0.1308407065","0.3082854458","0.4040531024","0.01249180717","","","","","","","","75","K","2","","","91","main_expt"
"","bandit","171","490023","0.0-132.0-0.0","52159072","wem/bandit_double","A1NKBXOTZAI1YK","both","8","1","163","","","","","","","0","0","1","0.3462944796","0.05914103421","","","","","0.2719776188","0.07539152519","0.05914103421","0.3370305887","0.1652322036","0.312225492","0.3462944796","0.01470986316","","","","","","","","75","K","2","","","92","main_expt"
"","bandit","172","491760","0.0-133.0-0.0","52159072","wem/bandit_double","A1NKBXOTZAI1YK","both","8","1","218","","","","","","","0","0","1","0.3411451966","0.03944324463","","","","","0.3081791896","0.08243558305","0.03944324463","0.3722719914","0.1344678182","0.3671658277","0.3411451966","0.02655281846","","","","","","","","75","K","2","","","93","main_expt"
"","bandit","173","493477","0.0-134.0-0.0","52159072","wem/bandit_double","A1NKBXOTZAI1YK","both","8","1","198","","","","","","","0","1","0","0.02575246025","0.3840030774","","","","","0.356667856","0.09807673793","0.05023017475","0.3840030774","0.1301314301","0.3401731108","0.3384154489","0.02575246025","","","","","","","","76","L","3","","","94","main_expt"
"","bandit","174","495239","0.0-135.0-0.0","52159072","wem/bandit_double","A1NKBXOTZAI1YK","both","8","1","221","","","","","","","1","0","0","0.3413923724","0.09746204728","","","","","0.3300765204","0.09746204728","0.07311956304","0.4050844552","0.1746055711","0.3413923724","0.3126988266","0.02262355665","","","","","","","","74","J","1","","","95","main_expt"
"","bandit","175","496811","0.0-136.0-0.0","52159072","wem/bandit_double","A1NKBXOTZAI1YK","both","8","1","54","","","","","","","0","0","1","0.3570420485","0.08559835745","","","","","0.3642735905","0.08559835745","0.09573717159","0.4081076376","0.1994244555","0.3570420485","0.3800019137","0.02047181149","","","","","","","","74","J","1","","","96","main_expt"
"","bandit","176","498552","0.0-137.0-0.0","52159072","wem/bandit_double","A1NKBXOTZAI1YK","both","8","1","223","","","","","","","0","0","1","0.3435474977","0.0732645996","","","","","0.3885664579","0.0732645996","0.1235519285","0.4142780263","0.1834602947","0.3435474977","0.3328121005","0.0207754381","","","","","","","","74","J","1","","","97","main_expt"
"","bandit","177","500212","0.0-138.0-0.0","52159072","wem/bandit_double","A1NKBXOTZAI1YK","both","8","1","147","","","","","","","1","0","0","0.3614714926","0.05343209845","","","","","0.4162912028","0.05343209845","0.1274282425","0.4131193208","0.1719221531","0.3614714926","0.332228596","0.02955834597","","","","","","","","74","J","1","","","98","main_expt"
"","bandit","178","501979","0.0-139.0-0.0","52159072","wem/bandit_double","A1NKBXOTZAI1YK","both","8","1","258","","","","","","","0","0","1","0.3176405447","0.05144299931","","","","","0.4074153657","0.05144299931","0.1457321849","0.428944851","0.1183399241","0.3176405447","0.2843854285","0.0383131093","","","","","","","","74","J","1","","","99","main_expt"
"","bandit","179","504145","0.0-140.0-0.0","52159072","wem/bandit_double","A1NKBXOTZAI1YK","both","8","1","645","","","","","","","0","0","1","0.3586553183","0.03934302155","","","","","0.3349137267","0.03934302155","0.1492128348","0.4279797645","0.1558635017","0.3586553183","0.309751149","0.03580757471","","","","","","","","74","J","1","","","100","main_expt"
"","bandit","180","505951","0.0-141.0-0.0","52159072","wem/bandit_double","A1NKBXOTZAI1YK","both","8","1","291","","","","","","","0","0","1","0.2951503345","0.05783306622","","","","","0.2732947861","0.05783306622","0.125019219","0.4189249443","0.1389665978","0.2951503345","0.2993195944","0.04899620691","","","","","","","","74","J","1","","","101","main_expt"
"","bandit","181","507558","0.0-142.0-0.0","52159072","wem/bandit_double","A1NKBXOTZAI1YK","both","8","1","89","","","","","","","1","0","0","0.1377203561","0.2584454073","","","","","0.2584454073","0.06484492547","0.1008510245","0.4279241466","0.1377203561","0.2998391809","0.3551890872","0.08055650644","","","","","","","","72","H","0","img/none_selected.jpg","","102","main_expt"
"","bandit","182","509214","0.0-143.0-0.0","52159072","wem/bandit_double","A1NKBXOTZAI1YK","both","8","1","125","","","","","","","0","0","1","0.1285548106","0.2143891894","","","","","0.2143891894","0.0701259157","0.1087281004","0.419390052","0.1285548106","0.2791823827","0.3148404956","0.1040447627","","","","","","","","72","H","0","img/none_selected.jpg","","103","main_expt"
"","bandit","183","511003","0.0-144.0-0.0","52159072","wem/bandit_double","A1NKBXOTZAI1YK","both","8","1","260","","","","","","","0","0","1","0.1555523735","0.1354346047","","","","","0.1354346047","0.06922647753","0.143855427","0.3761202226","0.1555523735","0.3382769334","0.3286912191","0.1143547335","","","","","","","","72","H","0","img/none_selected.jpg","","104","main_expt"
"","bandit","184","513303","0.0-145.0-0.0","52159072","wem/bandit_double","A1NKBXOTZAI1YK","both","8","1","784","","","","","","","0","1","0","0.1775592141","0.1615963473","","","","","0.1615963473","0.07802312096","0.1606853024","0.4229881466","0.1775592141","0.3339697125","0.298340497","0.1487676438","","","","","","","","72","H","0","img/none_selected.jpg","","105","main_expt"
"","bandit","185","514859","0.0-146.0-0.0","52159072","wem/bandit_double","A1NKBXOTZAI1YK","both","8","1","26","","","","","","","0","0","1","0.3124129253","0.08930313369","","","","","0.1738621023","0.08930313369","0.1612939645","0.4110558218","0.2263451353","0.3124129253","0.3504464386","0.152088545","","","","","","","","74","J","1","","","106","main_expt"
"","bandit","186","516395","0.0-147.0-0.0","52159072","wem/bandit_double","A1NKBXOTZAI1YK","both","8","1","3","","","","","","","0","0","1","0.3400683723","0.1397733654","","","","","0.1799671425","0.1397733654","0.1778053335","0.4176599015","0.1679769802","0.3400683723","0.3510410077","0.2406734145","","","","","","","","74","J","1","","","107","main_expt"
"","bandit","187","518312","0.0-148.0-0.0","52159072","wem/bandit_double","A1NKBXOTZAI1YK","both","8","1","392","","","","","","","0","0","1","0.3557340834","0.1505899732","","","","","0.1844274074","0.1505899732","0.1826465361","0.4210396584","0.1999870147","0.3557340834","0.3282766846","0.3048040024","","","","","","","","74","J","1","","","108","main_expt"
"","bandit","188","520093","0.0-149.0-0.0","52159072","wem/bandit_double","A1NKBXOTZAI1YK","both","8","1","267","","","","","","","0","0","1","0.3846418901","0.1162436109","","","","","0.1702708828","0.1162436109","0.1737022726","0.4328015469","0.208992856","0.3846418901","0.3561186451","0.3418503096","","","","","","","","74","J","1","","","109","main_expt"
"","bandit","189","521691","0.0-150.0-0.0","52159072","wem/bandit_double","A1NKBXOTZAI1YK","both","8","1","89","","","","","","","1","0","0","0.3576445865","0.1658344406","","","","","0.1964407335","0.08267976014","0.1658344406","0.4495585744","0.1716040471","0.4057962062","0.3576445865","0.3198501315","","","","","","","","75","K","2","","","110","main_expt"
"","bandit","190","523426","0.0-151.0-0.0","52159072","wem/bandit_double","A1NKBXOTZAI1YK","both","8","1","208","","","","","","","0","0","1","0.3377543854","0.240619448","","","","","0.1777579569","0.09389793805","0.240619448","0.4237631325","0.08984071331","0.3692451483","0.3377543854","0.3681534847","","","","","","","","75","K","2","","","111","main_expt"
"","bandit","191","525148","0.0-152.0-0.0","52159072","wem/bandit_double","A1NKBXOTZAI1YK","both","8","1","211","","","","","","","0","0","1","0.286234052","0.1927397719","","","","","0.1395994444","0.07903418564","0.1927397719","0.4521571561","0.1243463141","0.3577317973","0.286234052","0.3757830796","","","","","","","","75","K","2","","","112","main_expt"
"","bandit","192","526911","0.0-153.0-0.0","52159072","wem/bandit_double","A1NKBXOTZAI1YK","both","8","1","247","","","","","","","0","1","0","0.1932674395","0.234725565","","","","","0.1205999431","0.05501139052","0.234725565","0.4350762846","0.1433440675","0.3328808086","0.1932674395","0.3838999828","","","","","","","","75","K","2","","","113","main_expt"
"","bandit","193","528891","0.0-154.0-0.0","52159072","wem/bandit_double","A1NKBXOTZAI1YK","both","8","1","450","","","","","","","0","0","1","0.2403040534","0.1950215869","","","","","0.09123355482","0.07627702456","0.1950215869","0.4315824664","0.1510662198","0.3416979579","0.2403040534","0.4157938717","","","","","","","","75","K","2","","","114","main_expt"
"","bandit","194","530575","0.0-155.0-0.0","52159072","wem/bandit_double","A1NKBXOTZAI1YK","both","8","1","157","","","","","","","0","1","0","0.4055870595","0.4127349624","","","","","0.09554471192","0.03985247356","0.2575833325","0.4127349624","0.09845245139","0.3377137281","0.254937398","0.4055870595","","","","","","","","76","L","3","","","115","main_expt"
"","bandit","195","532203","0.0-156.0-0.0","52159072","wem/bandit_double","A1NKBXOTZAI1YK","both","8","1","92","","","","","","","0","0","1","0.107393795","0.1942182492","","","","","0.1942182492","0.0683792979","0.2296468005","0.4468356006","0.107393795","0.3039448029","0.2605063941","0.4161015278","","","","","","","","72","H","0","img/none_selected.jpg","","116","main_expt"
"","bandit","196","533912","0.0-157.0-0.0","52159072","wem/bandit_double","A1NKBXOTZAI1YK","both","8","1","174","","","","","","","0","1","0","0.07879800556","0.2208250117","","","","","0.2208250117","0.03956212276","0.2816483341","0.4458703805","0.07879800556","0.2974336912","0.2161328783","0.414877819","","","","","","","","72","H","0","img/none_selected.jpg","","117","main_expt"
"","bandit","197","535574","0.0-158.0-0.0","52159072","wem/bandit_double","A1NKBXOTZAI1YK","both","8","1","141","","","","","","","0","0","1","0.2651867246","0.04459229253","","","","","0.1687975443","0.04459229253","0.2626769985","0.4500370674","0.08383735875","0.2651867246","0.1931197841","0.3968259953","","","","","","","","74","J","1","","","118","main_expt"
"","bandit","198","537253","0.0-159.0-0.0","52159072","wem/bandit_double","A1NKBXOTZAI1YK","both","8","1","154","","","","","","","0","0","1","0.3131666206","0.03386957434","","","","","0.1546105485","0.03386957434","0.2418090277","0.4704359259","0.1392474383","0.3131666206","0.1638183597","0.4198241006","","","","","","","","74","J","1","","","119","main_expt"
"","bandit","199","539008","0.0-160.0-0.0","52159072","wem/bandit_double","A1NKBXOTZAI1YK","both","8","1","234","","","","","","","0","1","0","0.1893282748","0.2603236095","","","","","0.143668411","0.03305427522","0.2603236095","0.4578798539","0.1649404926","0.358829095","0.1893282748","0.4286088018","","","","","","","","75","K","2","","","120","main_expt"
"","bandit","200","540634","0.0-161.0-0.0","52159072","wem/bandit_double","A1NKBXOTZAI1YK","both","8","1","90","","","","","","","1","0","0","0.4253829576","0.4591190262","","","","","0.1098317425","0.03146098963","0.2381785671","0.4591190262","0.1764152442","0.3189860171","0.2290368179","0.4253829576","","","","","","","","76","L","3","","","121","main_expt"
"","bandit","201","542492","0.0-162.0-0.0","52159072","wem/bandit_double","A1NKBXOTZAI1YK","both","8","1","344","","","","","","","0","1","0","0.4235175979","0.4643737298","","","","","0.1097832873","0.02311797033","0.2388462554","0.4643737298","0.2092397698","0.3011672979","0.2445441383","0.4235175979","","","","","","","","76","L","3","","","122","main_expt"
"","bandit","202","544165","0.0-163.0-0.0","52159072","wem/bandit_double","A1NKBXOTZAI1YK","both","8","1","157","","","","","","","0","0","1","0.4182090072","0.451586091","","","","","0.1145900252","0.0171261738","0.2079929623","0.451586091","0.1884058447","0.3037948063","0.2091075756","0.4182090072","","","","","","","","76","L","3","","","123","main_expt"
"","bandit","203","545729","0.0-164.0-0.0","52159072","wem/bandit_double","A1NKBXOTZAI1YK","both","8","1","37","","","","","","","0","0","1","0.4356016004","0.4456906556","","","","","0.1137783892","0.03468299263","0.2148400852","0.4456906556","0.1876417206","0.2446200253","0.2216111921","0.4356016004","","","","","","","","76","L","3","","","124","main_expt"
"","bandit","204","547360","0.0-165.0-0.0","52159072","wem/bandit_double","A1NKBXOTZAI1YK","both","8","1","103","","","","","","","1","0","0","0.403953628","0.4240876494","","","","","0.145605256","0.02544516396","0.2185056602","0.4240876494","0.1890564589","0.2464628806","0.1622020501","0.403953628","","","","","","","","76","L","3","","","125","main_expt"
"","bandit","205","549036","0.0-166.0-0.0","52159072","wem/bandit_double","A1NKBXOTZAI1YK","both","8","1","148","","","","","","","1","1","0","0.4020675328","0.4008501573","","","","","0.1443839055","0.03059506073","0.2152323899","0.4008501573","0.1659850756","0.281169445","0.173533554","0.4020675328","","","","","","","","76","L","3","","","126","main_expt"
"","bandit","206","550785","0.0-167.0-0.0","52159072","wem/bandit_double","A1NKBXOTZAI1YK","both","8","1","219","","","","","","","0","0","1","0.338443572","0.4066073101","","","","","0.1434222382","0.0339638967","0.1699446714","0.4066073101","0.2006343121","0.290080064","0.189829559","0.338443572","","","","","","","","76","L","3","","","127","main_expt"
"","bandit","207","552454","0.0-168.0-0.0","52159072","wem/bandit_double","A1NKBXOTZAI1YK","both","8","1","136","","","","","","","0","1","0","0.323123489","0.4270302575","","","","","0.1412168693","0.02632978063","0.1299446217","0.4270302575","0.2637444583","0.3280989756","0.1764696366","0.323123489","","","","","","","","76","L","3","","","128","main_expt"
"","bandit","208","554140","0.0-169.0-0.0","52159072","wem/bandit_double","A1NKBXOTZAI1YK","both","8","1","154","","","","","","","0","0","1","0.3615310162","0.4401824822","","","","","0.1086871361","0.02640977482","0.1299487573","0.4401824822","0.2783394686","0.3052704822","0.172709194","0.3615310162","","","","","","","","76","L","3","","","129","main_expt"
"","bandit","209","555773","0.0-170.0-0.0","52159072","wem/bandit_double","A1NKBXOTZAI1YK","both","8","1","118","","","","","","","1","0","0","0.3667448715","0.4160959849","","","","","0.1672766288","0.03646961518","0.1172580566","0.4160959849","0.2674474002","0.314718742","0.1407460215","0.3667448715","","","","","","","","76","L","3","","","130","main_expt"
"","bandit","210","557388","0.0-171.0-0.0","52159072","wem/bandit_double","A1NKBXOTZAI1YK","both","8","1","85","","","","","","","0","1","0","0.341745941","0.4374535298","","","","","0.157110596","0.02171712127","0.1289979545","0.4374535298","0.2122920843","0.2492347367","0.143826562","0.341745941","","","","","","","","76","L","3","","","131","main_expt"
"","bandit","211","559008","0.0-172.0-0.0","52159072","wem/bandit_double","A1NKBXOTZAI1YK","both","8","1","98","","","","","","","0","1","0","0.2615325727","0.4382483821","","","","","0.1338697581","0.01004766493","0.1243754988","0.4382483821","0.1969346152","0.2495736985","0.1862992663","0.2615325727","","","","","","","","76","L","3","","","132","main_expt"
"","bandit","212","560731","0.0-173.0-0.0","52159072","wem/bandit_double","A1NKBXOTZAI1YK","both","8","1","204","","","","","","","0","0","1","0.27905624","0.3913946914","","","","","0.1101669797","0.005153708139","0.1189203389","0.3913946914","0.1390835973","0.2487120015","0.185648564","0.27905624","","","","","","","","76","L","3","","","133","main_expt"
"","bandit","213","562319","0.0-174.0-0.0","52159072","wem/bandit_double","A1NKBXOTZAI1YK","both","8","1","75","","","","","","","0","0","1","0.2751163123","0.4280120537","","","","","0.060775537","0.01308543257","0.07075860378","0.4280120537","0.1437640715","0.3239420422","0.2002276213","0.2751163123","","","","","","","","76","L","3","","","134","main_expt"
"","bandit","214","564005","0.0-175.0-0.0","52159072","wem/bandit_double","A1NKBXOTZAI1YK","both","8","1","161","","","","","","","0","0","1","0.2474552851","0.1073185777","","","","","0.0714416082","0.02634180281","0.1073185777","0.4385213509","0.1175999949","0.3903525049","0.2474552851","0.2586507773","","","","","","","","75","K","2","","","135","main_expt"
"","bandit","215","565732","0.0-176.0-0.0","52159072","wem/bandit_double","A1NKBXOTZAI1YK","both","8","1","210","","","","","","","1","0","0","0.2454982057","0.1001442491","","","","","0.1115096907","0.04122629063","0.1001442491","0.4605212521","0.1108499649","0.3703049055","0.2454982057","0.2385277364","","","","","","","","75","K","2","","","136","main_expt"
"","bandit","216","567301","0.0-177.0-0.0","52159072","wem/bandit_double","A1NKBXOTZAI1YK","both","8","1","54","","","","","","","1","0","0","0.2708690816","0.1736681681","","","","","0.1307091067","0.05517648788","0.1736681681","0.4729500637","0.1208727618","0.3657944308","0.2708690816","0.1935782534","","","","","","","","75","K","2","","","137","main_expt"
"","bandit","217","569069","0.0-178.0-0.0","52159072","wem/bandit_double","A1NKBXOTZAI1YK","both","8","1","251","","","","","","","1","0","0","0.2219039101","0.1839908368","","","","","0.1289533412","0.05929415862","0.1839908368","0.4705425907","0.1098805161","0.3452946514","0.2219039101","0.14087624","","","","","","","","75","K","2","","","138","main_expt"
"","bandit","218","570802","0.0-179.0-0.0","52159072","wem/bandit_double","A1NKBXOTZAI1YK","both","8","1","221","","","","","","","0","0","1","0.2485571535","0.1500833973","","","","","0.1215972271","0.05470710098","0.1500833973","0.465423541","0.1359731218","0.3225052804","0.2485571535","0.1340930794","","","","","","","","75","K","2","","","139","main_expt"
"","bandit","219","572454","0.0-180.0-0.0","52159072","wem/bandit_double","A1NKBXOTZAI1YK","both","8","1","140","","","","","","","1","0","0","0.2605640439","0.1718879457","","","","","0.1158179575","0.06062538604","0.1718879457","0.4486857012","0.1419248406","0.2997250911","0.2605640439","0.1170750994","","","","","","","","75","K","2","","","140","main_expt"
"","bandit","220","574108","0.0-181.0-0.0","52159072","wem/bandit_double","A1NKBXOTZAI1YK","both","8","1","138","","","","","","","0","0","1","0.2260680923","0.2025036279","","","","","0.08691297649","0.05819772386","0.2025036279","0.4053061298","0.1269577117","0.311933389","0.2260680923","0.1316830279","","","","","","","","75","K","2","","","141","main_expt"
"","bandit","221","575635","0.0-182.0-0.0","52159072","wem/bandit_double","A1NKBXOTZAI1YK","both","8","1","2","","","","","","","0","0","1","0.2354846983","0.1872564568","","","","","0.1425267255","0.05329701838","0.1872564568","0.3989731656","0.1073819056","0.3442568425","0.2354846983","0.09490366034","","","","","","","","75","K","2","","","142","main_expt"
"","bandit","222","577321","0.0-183.0-0.0","52159072","wem/bandit_double","A1NKBXOTZAI1YK","both","8","1","167","","","","","","","1","0","0","0.2089358464","0.1676641842","","","","","0.1425141192","0.06209903385","0.1676641842","0.3783570596","0.1152767294","0.3117203045","0.2089358464","0.1246024154","","","","","","","","75","K","2","","","143","main_expt"
"","bandit","223","578940","0.0-184.0-0.0","52159072","wem/bandit_double","A1NKBXOTZAI1YK","both","8","1","96","","","","","","","0","0","1","0.1844607625","0.1502987652","","","","","0.1362652721","0.06954729647","0.1502987652","0.3485663762","0.1317444946","0.3080771123","0.1844607625","0.1179874238","","","","","","","","75","K","2","","","144","main_expt"
"","bandit","224","580469","0.0-185.0-0.0","52159072","wem/bandit_double","A1NKBXOTZAI1YK","both","8","1","14","","","","","","","0","0","1","0.1940384654","0.1050568962","","","","","0.1335650053","0.062760129","0.1050568962","0.3534190037","0.1058600218","0.3146876691","0.1940384654","0.1211842963","","","","","","","","75","K","2","","","145","main_expt"
"","bandit","225","582034","0.0-186.0-0.0","52159072","wem/bandit_double","A1NKBXOTZAI1YK","both","8","1","45","","","","","","","0","1","0","0.2532022814","0.1266784727","","","","","0.1392461982","0.05014677947","0.1266784727","0.342282706","0.1862633901","0.3526806189","0.2532022814","0.06212451067","","","","","","","","75","K","2","","","146","main_expt"
"","bandit","226","583556","0.0-187.0-0.0","52159072","wem/bandit_double","A1NKBXOTZAI1YK","both","8","1","12","","","","","","","0","0","1","0.272856749","0.1121887101","","","","","0.1060810453","0.04801868921","0.1121887101","0.3497384939","0.1944793183","0.3859334927","0.272856749","0.05826033827","","","","","","","","75","K","2","","","147","main_expt"
"","bandit","227","585225","0.0-188.0-0.0","52159072","wem/bandit_double","A1NKBXOTZAI1YK","both","8","1","140","","","","","","","1","0","0","0.2441255329","0.1050077765","","","","","0.1076054289","0.05298179562","0.1050077765","0.3507348305","0.1572605535","0.4089873985","0.2441255329","0.04847575149","","","","","","","","75","K","2","","","148","main_expt"
"","bandit","228","587141","0.0-189.0-0.0","52159072","wem/bandit_double","A1NKBXOTZAI1YK","both","8","1","381","","","","","","","0","0","1","0.2304797635","0.08725679698","","","","","0.09143227578","0.05271587927","0.08725679698","0.306786392","0.1632070519","0.3317076441","0.2304797635","0.07397138717","","","","","","","","75","K","2","","","149","main_expt"
"","bandit","229","588730","0.0-190.0-0.0","52159072","wem/bandit_double","A1NKBXOTZAI1YK","both","8","1","67","","","","","","","0","1","0","0.2645424191","0.04813781364","","","","","0.08361181256","0.06153260368","0.04813781364","0.3289077467","0.2162169298","0.2514439341","0.2645424191","0.1178437277","","","","","","","","75","K","2","","","150","main_expt"
"","bandit","230","590324","0.0-191.0-0.0","52159072","wem/bandit_double","A1NKBXOTZAI1YK","both","8","1","76","","","","","","","0","0","1","0.2209696772","0.07716317934","","","","","0.1038450747","0.07716317934","0.04690393958","0.2844912386","0.2806681102","0.2209696772","0.2919476008","0.1116740648","","","","","","","","74","J","1","","","151","main_expt"
"","bandit","231","592410","0.0-192.0-0.0","52159072","wem/bandit_double","A1NKBXOTZAI1YK","both","8","1","572","","","","","","","0","0","1","0.2004300668","0.08370894892","","","","","0.1311897928","0.08370894892","0.05051779207","0.3221551402","0.25223767","0.2004300668","0.3004198658","0.09681320826","","","","","","","","74","J","1","","","152","main_expt"
"","bandit","232","594133","0.0-193.0-0.0","52159072","wem/bandit_double","A1NKBXOTZAI1YK","both","8","1","207","","","","","","","0","0","1","0.2259503681","0.1106636196","","","","","0.1106636196","0.06235129306","0.0417019452","0.288581716","0.2259503681","0.1803159607","0.2910243242","0.1162344283","","","","","","","","72","H","0","img/none_selected.jpg","","153","main_expt"
"","bandit","233","595811","0.0-194.0-0.0","52159072","wem/bandit_double","A1NKBXOTZAI1YK","both","8","1","163","","","","","","","1","1","0","0.2520515582","0.08044616817","","","","","0.08044616817","0.08808261531","0.04565059468","0.3674714493","0.2520515582","0.1793353988","0.2858680692","0.1441765144","","","","","","","","72","H","0","img/none_selected.jpg","","154","main_expt"
"","bandit","234","597490","0.0-195.0-0.0","52159072","wem/bandit_double","A1NKBXOTZAI1YK","both","8","1","155","","","","","","","0","0","1","0.246895917","0.09849608375","","","","","0.09849608375","0.08415746701","0.0249337719","0.3836765626","0.246895917","0.175125938","0.276906037","0.1506434262","","","","","","","","72","H","0","img/none_selected.jpg","","155","main_expt"
"","bandit","235","599115","0.0-196.0-0.0","52159072","wem/bandit_double","A1NKBXOTZAI1YK","both","8","1","90","","","","","","","0","1","0","0.2067462234","0.0679626842","","","","","0.0679626842","0.1363215429","0.0207568711","0.3499766022","0.2067462234","0.19004546","0.3087514371","0.1691825384","","","","","","","","72","H","0","img/none_selected.jpg","","156","main_expt"
"","bandit","236","600691","0.0-197.0-0.0","52159072","wem/bandit_double","A1NKBXOTZAI1YK","both","8","1","66","","","","","","","0","0","1","0.1736677602","0.06316877849","","","","","0.06316877849","0.176329139","0.01044871803","0.3083455354","0.1736677602","0.1538528063","0.3400763937","0.1465267651","","","","","","","","72","H","0","img/none_selected.jpg","","157","main_expt"
"","bandit","237","602325","0.0-198.0-0.0","52159072","wem/bandit_double","A1NKBXOTZAI1YK","both","8","1","116","","","","","","","0","0","1","0.2437422656","0.06381796224","","","","","0.06381796224","0.2239815039","0.008486032171","0.2780985587","0.2437422656","0.1624419901","0.3388441277","0.1517260174","","","","","","","","72","H","0","img/none_selected.jpg","","158","main_expt"
"","bandit","238","603968","0.0-199.0-0.0","52159072","wem/bandit_double","A1NKBXOTZAI1YK","both","8","1","113","","","","","","","0","0","1","0.3496437485","0.006770001311","","","","","0.09986374221","0.1754735631","0.006770001311","0.2721424699","0.2627628197","0.1749682205","0.3496437485","0.143579764","","","","","","","","75","K","2","","","159","main_expt"
"","bandit","239","605542","0.0-200.0-0.0","52159072","wem/bandit_double","A1NKBXOTZAI1YK","both","8","1","57","","","","","","","1","0","0","0.3347491532","0.005009972043","","","","","0.08334790929","0.1820859676","0.005009972043","0.3005636977","0.2532756584","0.2227833177","0.3347491532","0.1701049762","","","","","","","","75","K","2","","","160","main_expt"
"","bandit","240","607133","0.0-201.0-0.0","52159072","wem/bandit_double","A1NKBXOTZAI1YK","both","8","1","72","","","","","","","0","0","1","0.3036625801","0.003825417776","","","","","0.1094566723","0.1771527669","0.003825417776","0.2481613967","0.2846030245","0.1616195486","0.3036625801","0.1596038406","","","","","","","","75","K","2","","","161","main_expt"
"","bandit","241","608851","0.0-202.0-0.0","52159072","wem/bandit_double","A1NKBXOTZAI1YK","both","8","1","195","","","","","","","0","0","1","0.2735804545","0.006458278423","","","","","0.1287108975","0.209245514","0.006458278423","0.2040880477","0.2480450928","0.1440802068","0.2735804545","0.1186271452","","","","","","","","75","K","2","","","162","main_expt"
"","bandit","242","610410","0.0-203.0-0.0","52159072","wem/bandit_double","A1NKBXOTZAI1YK","both","8","1","40","","","","","","","0","0","1","0.2219233964","0.01344146107","","","","","0.1811808859","0.1864252411","0.01344146107","0.256608811","0.3217860246","0.1349250059","0.2219233964","0.1460830151","","","","","","","","75","K","2","","","163","main_expt"
"","bandit","243","612222","0.0-204.0-0.0","52159072","wem/bandit_double","A1NKBXOTZAI1YK","both","8","1","288","","","","","","","0","0","1","0.2489701673","0.004940614731","","","","","0.1374611454","0.1662237337","0.004940614731","0.2798468236","0.3528623486","0.1482528248","0.2489701673","0.1924179555","","","","","","","","75","K","2","","","164","main_expt"
"","bandit","244","613814","0.0-205.0-0.0","52159072","wem/bandit_double","A1NKBXOTZAI1YK","both","8","1","80","","","","","","","1","0","0","0.2424219606","0.007349038951","","","","","0.1640313333","0.1375661656","0.007349038951","0.2689568899","0.3113737792","0.1444116863","0.2424219606","0.1909643941","","","","","","","","75","K","2","","","165","main_expt"
"","bandit","245","615502","0.0-206.0-0.0","52159072","wem/bandit_double","A1NKBXOTZAI1YK","both","8","1","162","","","","","","","0","0","1","0.1899742571","0.005679103294","","","","","0.20052236","0.1416727521","0.005679103294","0.2786045926","0.2820045276","0.1621449425","0.1899742571","0.1917506842","","","","","","","","75","K","2","","","166","main_expt"
"","bandit","246","617314","0.0-207.0-0.0","52159072","wem/bandit_double","A1NKBXOTZAI1YK","both","8","1","281","","","","","","","0","0","1","0.2298880826","0.004037182679","","","","","0.1945206589","0.1497541138","0.004037182679","0.2507583434","0.2539690707","0.1695256229","0.2298880826","0.2238056512","","","","","","","","75","K","2","","","167","main_expt"
"","bandit","247","618840","0.0-208.0-0.0","52159072","wem/bandit_double","A1NKBXOTZAI1YK","both","8","1","3","","","","","","","0","0","1","0.241220494","0.007111326723","","","","","0.1902154162","0.1761460581","0.007111326723","0.1827624484","0.2177565821","0.1712445676","0.241220494","0.2132240521","","","","","","","","75","K","2","","","168","main_expt"
"","bandit","248","620623","0.0-209.0-0.0","52159072","wem/bandit_double","A1NKBXOTZAI1YK","both","8","1","262","","","","","","","0","0","1","0.2113351254","0.01708305062","","","","","0.1931964682","0.2248215173","0.01708305062","0.1558723634","0.183214586","0.191079104","0.2113351254","0.1363713625","","","","","","","","75","K","2","","","169","main_expt"
"","bandit","249","622548","0.0-210.0-0.0","52159072","wem/bandit_double","A1NKBXOTZAI1YK","both","8","1","403","","","","","","","1","0","0","0.2224744884","0.02105388628","","","","","0.236179436","0.2503105048","0.02105388628","0.1757164868","0.1757282231","0.2227666825","0.2224744884","0.2007690262","","","","","","","","75","K","2","","","170","main_expt"
"","bandit","250","624345","0.0-211.0-0.0","52159072","wem/bandit_double","A1NKBXOTZAI1YK","both","8","1","268","","","","","","","0","0","1","0.262177911","0.01477187034","","","","","0.2229285478","0.2515708499","0.01477187034","0.1985597056","0.1679331046","0.2719914804","0.262177911","0.1238998316","","","","","","","","75","K","2","","","171","main_expt"
"","bandit","251","625968","0.0-212.0-0.0","52159072","wem/bandit_double","A1NKBXOTZAI1YK","both","8","1","94","","","","","","","0","0","1","0.2822992514","0.00639283578","","","","","0.1805811295","0.2601117771","0.00639283578","0.1725269859","0.14560319","0.2330128459","0.2822992514","0.09746419185","","","","","","","","75","K","2","","","172","main_expt"
"","bandit","252","627699","0.0-213.0-0.0","52159072","wem/bandit_double","A1NKBXOTZAI1YK","both","8","1","213","","","","","","","0","0","1","0.2545762091","0.008503536177","","","","","0.2203049146","0.2277859889","0.008503536177","0.1955807132","0.1341549344","0.2840251313","0.2545762091","0.1018164217","","","","","","","","75","K","2","","","173","main_expt"
"","bandit","253","629564","0.0-214.0-0.0","52159072","wem/bandit_double","A1NKBXOTZAI1YK","both","8","1","324","","","","","","","0","1","0","0.1401689619","0.1712969398","","","","","0.2079245196","0.204090619","0.01512836446","0.1712969398","0.1471305278","0.2739042306","0.2838184637","0.1401689619","","","","","","","","76","L","3","","","174","main_expt"
"","bandit","254","631619","0.0-215.0-0.0","52159072","wem/bandit_double","A1NKBXOTZAI1YK","both","8","1","529","","","","","","","1","0","0","0.3444735506","0.2264282848","","","","","0.1904909119","0.2264282848","0.034550241","0.2145566876","0.173963405","0.3444735506","0.3002790513","0.1697524679","","","","","","","","74","J","1","","","175","main_expt"
"","bandit","255","633326","0.0-216.0-0.0","52159072","wem/bandit_double","A1NKBXOTZAI1YK","both","8","1","174","","","","","","","0","0","1","0.3223017316","0.2263436383","","","","","0.1611975006","0.2263436383","0.01969997198","0.1987050603","0.1821857965","0.3223017316","0.3771690292","0.1896898672","","","","","","","","74","J","1","","","176","main_expt"
"","bandit","256","635083","0.0-217.0-0.0","52159072","wem/bandit_double","A1NKBXOTZAI1YK","both","8","1","216","","","","","","","0","0","1","0.2964924158","0.2449632337","","","","","0.1747210449","0.2449632337","0.02558747067","0.2161967517","0.1444884472","0.2964924158","0.4047809956","0.2441254625","","","","","","","","74","J","1","","","177","main_expt"
"","bandit","257","636667","0.0-218.0-0.0","52159072","wem/bandit_double","A1NKBXOTZAI1YK","both","8","1","68","","","","","","","1","0","0","0.2780576925","0.1923885174","","","","","0.1667690144","0.1923885174","0.02865462312","0.1790488899","0.1207783293","0.2780576925","0.4344960837","0.2427722412","","","","","","","","74","J","1","","","178","main_expt"
"","bandit","258","638331","0.0-219.0-0.0","52159072","wem/bandit_double","A1NKBXOTZAI1YK","both","8","1","130","","","","","","","0","0","1","0.2859751729","0.1791230597","","","","","0.248539666","0.1791230597","0.05873937836","0.1254539317","0.111585665","0.2859751729","0.4287912686","0.2284650367","","","","","","","","74","J","1","","","179","main_expt"
"","bandit","259","639872","0.0-220.0-0.0","52159072","wem/bandit_double","A1NKBXOTZAI1YK","both","8","1","13","","","","","","","0","0","1","0.283533164","0.1641305094","","","","","0.2393284063","0.1641305094","0.04996702027","0.1761702366","0.06891525065","0.283533164","0.4294180747","0.2694081366","","","","","","","","74","J","1","","","180","main_expt"
"","bandit","260","641510","0.0-221.0-0.0","52159072","wem/bandit_double","A1NKBXOTZAI1YK","both","8","1","117","","","","","","","0","0","1","0.2430023428","0.1567194189","","","","","0.2450765022","0.1567194189","0.06192223509","0.2307221343","0.07407739619","0.2430023428","0.3887332701","0.2471628034","","","","","","","","74","J","1","","","181","main_expt"
"","bandit","261","643219","0.0-222.0-0.0","52159072","wem/bandit_double","A1NKBXOTZAI1YK","both","8","1","185","","","","","","","0","0","1","0.223254837","0.1805899487","","","","","0.2898963007","0.1805899487","0.07865608963","0.1656926355","0.07501704201","0.223254837","0.3910635387","0.275372354","","","","","","","","74","J","1","","","182","main_expt"
"","bandit","262","644854","0.0-223.0-0.0","52159072","wem/bandit_double","A1NKBXOTZAI1YK","both","8","1","116","","","","","","","1","1","0","0.2274286797","0.1381226487","","","","","0.337419987","0.1381226487","0.0695036973","0.1997223474","0.09354103142","0.2274286797","0.3957792538","0.2378950907","","","","","","","","74","J","1","","","183","main_expt"
"","bandit","263","646508","0.0-224.0-0.0","52159072","wem/bandit_double","A1NKBXOTZAI1YK","both","8","1","120","","","","","","","0","0","1","0.2485964068","0.1157029232","","","","","0.3334404967","0.1157029232","0.09883674892","0.1936006223","0.06673830493","0.2485964068","0.3777829694","0.2611999536","","","","","","","","74","J","1","","","184","main_expt"
"","bandit","264","648050","0.0-225.0-0.0","52159072","wem/bandit_double","A1NKBXOTZAI1YK","both","8","1","24","","","","","","","0","0","1","0.2080173303","0.09007466759","","","","","0.3049781316","0.09007466759","0.1344132801","0.1794548994","0.08617836821","0.2080173303","0.4130939835","0.2799245071","","","","","","","","74","J","1","","","185","main_expt"
"","bandit","265","649652","0.0-226.0-0.0","52159072","wem/bandit_double","A1NKBXOTZAI1YK","both","8","1","85","","","","","","","0","0","1","0.2538883687","0.07784091677","","","","","0.322039184","0.07784091677","0.1194183803","0.1679588243","0.05054014018","0.2538883687","0.376930599","0.2275386122","","","","","","","","74","J","1","","","186","main_expt"
"","bandit","266","651192","0.0-227.0-0.0","52159072","wem/bandit_double","A1NKBXOTZAI1YK","both","8","1","2","","","","","","","0","1","0","0.1101456656","0.2898485093","","","","","0.2898485093","0.1332261693","0.1456002269","0.1692259204","0.1101456656","0.2267652077","0.3934592684","0.2558518805","","","","","","","","72","H","0","img/none_selected.jpg","","187","main_expt"
"","bandit","267","652823","0.0-228.0-0.0","52159072","wem/bandit_double","A1NKBXOTZAI1YK","both","8","1","111","","","","","","","0","0","1","0.1076418148","0.3046836684","","","","","0.3046836684","0.1302169342","0.1008589119","0.1796926114","0.1076418148","0.2583789709","0.4086060551","0.2757393749","","","","","","","","72","H","0","img/none_selected.jpg","","188","main_expt"
"","bandit","268","654431","0.0-229.0-0.0","52159072","wem/bandit_double","A1NKBXOTZAI1YK","both","8","1","87","","","","","","","0","0","1","0.1230456027","0.3437642557","","","","","0.3437642557","0.1459867673","0.09109327247","0.1463090895","0.1230456027","0.2329768584","0.447145564","0.3326758055","","","","","","","","72","H","0","img/none_selected.jpg","","189","main_expt"
"","bandit","269","656090","0.0-230.0-0.0","52159072","wem/bandit_double","A1NKBXOTZAI1YK","both","8","1","137","","","","","","","1","0","0","0.2002510669","0.1930387326","","","","","0.3685715368","0.1930387326","0.133333279","0.1670442817","0.1872873117","0.2002510669","0.386091063","0.332927569","","","","","","","","74","J","1","","","190","main_expt"
"","bandit","270","657637","0.0-231.0-0.0","52159072","wem/bandit_double","A1NKBXOTZAI1YK","both","8","1","28","","","","","","","0","0","1","0.2182600554","0.1447045196","","","","","0.4063368095","0.1447045196","0.1253338948","0.2148667481","0.1413073252","0.2182600554","0.4221145333","0.3859199101","","","","","","","","74","J","1","","","191","main_expt"
"","bandit","271","659247","0.0-232.0-0.0","52159072","wem/bandit_double","A1NKBXOTZAI1YK","both","8","1","82","","","","","","","0","0","1","0.3913199708","0.1371372983","","","","","0.4194789623","0.1521301445","0.1371372983","0.1891029698","0.1868627967","0.2681613901","0.3913199708","0.392668484","","","","","","","","75","K","2","","","192","main_expt"
"","bandit","272","660897","0.0-233.0-0.0","52159072","wem/bandit_double","A1NKBXOTZAI1YK","both","8","1","123","","","","","","","1","0","0","0.3035027483","0.1216552598","","","","","0.3914453041","0.1216552598","0.1269519223","0.1818436489","0.2312719224","0.3035027483","0.4013624592","0.3789843676","","","","","","","","74","J","1","","","193","main_expt"
"","bandit","273","662514","0.0-234.0-0.0","52159072","wem/bandit_double","A1NKBXOTZAI1YK","both","8","1","106","","","","","","","1","0","0","0.275531754","0.07681554104","","","","","0.3988429791","0.07681554104","0.1253972088","0.2036833838","0.2585201677","0.275531754","0.3668237699","0.3689216281","","","","","","","","74","J","1","","","194","main_expt"
"","bandit","274","664095","0.0-235.0-0.0","52159072","wem/bandit_double","A1NKBXOTZAI1YK","both","8","1","52","","","","","","","0","0","1","0.2716401532","0.07468822185","","","","","0.4212514022","0.07468822185","0.1231557279","0.2189502041","0.2786104129","0.2716401532","0.3856266791","0.4136905162","","","","","","","","74","J","1","","","195","main_expt"
"","bandit","275","665822","0.0-236.0-0.0","52159072","wem/bandit_double","A1NKBXOTZAI1YK","both","8","1","208","","","","","","","0","0","1","0.2814611543","0.07634526252","","","","","0.4128950903","0.07634526252","0.2304226507","0.2011136523","0.2407834285","0.2814611543","0.3702439493","0.4258575101","","","","","","","","74","J","1","","","196","main_expt"
"","bandit","276","667366","0.0-237.0-0.0","52159072","wem/bandit_double","A1NKBXOTZAI1YK","both","8","1","22","","","","","","","0","0","1","0.2588010394","0.06680697181","","","","","0.3979973083","0.06680697181","0.3102822931","0.2295646827","0.2550568011","0.2588010394","0.3665926528","0.3976178043","","","","","","","","74","J","1","","","197","main_expt"
"","bandit","277","669121","0.0-238.0-0.0","52159072","wem/bandit_double","A1NKBXOTZAI1YK","both","8","1","218","","","","","","","0","0","1","0.3094610495","0.05107679344","","","","","0.3153467244","0.05107679344","0.3222054514","0.2570874699","0.3094863904","0.3094610495","0.3432124584","0.3802378075","","","","","","","","74","J","1","","","198","main_expt"
"","bandit","278","670668","0.0-239.0-0.0","52159072","wem/bandit_double","A1NKBXOTZAI1YK","both","8","1","36","","","","","","","0","0","1","0.3139278769","0.06140804873","","","","","0.3121882746","0.06140804873","0.3416159467","0.2215013189","0.3012985694","0.3139278769","0.4096574544","0.3926800246","","","","","","","","74","J","1","","","199","main_expt"
"","bandit","279","672332","0.0-240.0-0.0","52159072","wem/bandit_double","A1NKBXOTZAI1YK","both","8","1","144","","","","","","","0","0","1","0.3814844917","0.1681318695","","","","","0.3789620948","0.05697288244","0.3826655938","0.1681318695","0.3149132519","0.3459706187","0.3799023259","0.3814844917","","","","","","","","76","L","3","","","200","main_expt"
"","bandit","280","674208","0.0-241.0-0.0","52159072","wem/bandit_double","A1NKBXOTZAI1YK","both","8","1","334","","","","","","","0","1","0","0.3831630738","0.1787039029","","","","","0.3575696279","0.04802221103","0.4117435103","0.1787039029","0.3236307962","0.3038365479","0.3513783521","0.3831630738","","","","","","","","76","L","3","","","201","main_expt"
"","bandit","281","675746","0.0-242.0-0.0","52159072","wem/bandit_double","A1NKBXOTZAI1YK","both","8","1","3","","","","","","","0","0","1","0.2964599608","0.04583536071","","","","","0.3937046418","0.04583536071","0.4023622846","0.2180442152","0.3163717903","0.2964599608","0.3439351057","0.3957430938","","","","","","","","74","J","1","","","202","main_expt"
"","bandit","282","677393","0.0-243.0-0.0","52159072","wem/bandit_double","A1NKBXOTZAI1YK","both","8","1","115","","","","","","","0","0","1","0.2615327891","0.4225273878","","","","","0.3901943722","0.03655969434","0.4225273878","0.262784421","0.3165936227","0.280336616","0.2615327891","0.4175506619","","","","","","","","75","K","2","","","203","main_expt"
"","bandit","283","678989","0.0-244.0-0.0","52159072","wem/bandit_double","A1NKBXOTZAI1YK","both","8","1","68","","","","","","","1","1","0","0.2211517471","0.4151046429","","","","","0.4099131859","0.05773518339","0.4151046429","0.2843732649","0.3166231072","0.262900641","0.2211517471","0.4356800279","","","","","","","","75","K","2","","","204","main_expt"
"","bandit","284","680515","0.0-245.0-0.0","52159072","wem/bandit_double","A1NKBXOTZAI1YK","both","8","1","16","","","","","","","0","1","0","0.1955747294","0.4288165897","","","","","0.4238238901","0.06616346658","0.4288165897","0.2549063301","0.2983153058","0.3403150927","0.1955747294","0.4342993254","","","","","","","","75","K","2","","","205","main_expt"
"","bandit","285","682310","0.0-246.0-0.0","52159072","wem/bandit_double","A1NKBXOTZAI1YK","both","8","1","260","","","","","","","0","1","0","0.3137251184","0.436745712","","","","","0.4139837541","0.09055598832","0.436745712","0.2982701688","0.255573156","0.3407188883","0.3137251184","0.4515967499","","","","","","","","75","K","2","","","206","main_expt"
"","bandit","286","683852","0.0-247.0-0.0","52159072","wem/bandit_double","A1NKBXOTZAI1YK","both","8","1","24","","","","","","","1","0","0","0.2955601217","0.07583085731","","","","","0.3544894801","0.07583085731","0.4484652972","0.3423773839","0.2816724171","0.2955601217","0.2982459604","0.4559700358","","","","","","","","74","J","1","","","207","main_expt"
"","bandit","287","685415","0.0-248.0-0.0","52159072","wem/bandit_double","A1NKBXOTZAI1YK","both","8","1","35","","","","","","","1","0","0","0.2832193826","0.09768014643","","","","","0.3703609936","0.09768014643","0.4516947584","0.3321535101","0.2462622089","0.2832193826","0.2359404152","0.4711787588","","","","","","","","74","J","1","","","208","main_expt"
"","bandit","288","686964","0.0-249.0-0.0","52159072","wem/bandit_double","A1NKBXOTZAI1YK","both","8","1","23","","","","","","","0","1","0","0.25637755","0.08389795445","","","","","0.3590511704","0.08389795445","0.4590139285","0.3467721984","0.2608633631","0.25637755","0.2396635106","0.4859779177","","","","","","","","74","J","1","","","209","main_expt"
"","bandit","289","688490","0.0-250.0-0.0","52159072","wem/bandit_double","A1NKBXOTZAI1YK","both","8","1","1","","","","","","","1","0","0","0.2500912527","0.07846525543","","","","","0.3781523972","0.07846525543","0.4378910613","0.3513447539","0.2649708152","0.2500912527","0.2320506775","0.4798195452","","","","","","","","74","J","1","","","210","main_expt"
"","bandit","290","690223","0.0-251.0-0.0","52159072","wem/bandit_double","A1NKBXOTZAI1YK","both","8","1","197","","","","","","","0","0","1","0.2481129288","0.05906932722","","","","","0.3895188655","0.05906932722","0.4139384991","0.4003692624","0.2658594566","0.2481129288","0.1894847828","0.4754072522","","","","","","","","74","J","1","","","211","main_expt"
"","bandit","291","691973","0.0-252.0-0.0","52159072","wem/bandit_double","A1NKBXOTZAI1YK","both","8","1","206","","","","","","","0","0","1","0.3192168596","0.04754192311","","","","","0.4075098947","0.04754192311","0.3659234609","0.3949660502","0.2648449814","0.3192168596","0.2330804604","0.4780703898","","","","","","","","74","J","1","","","212","main_expt"
"","bandit","292","693512","0.0-253.0-0.0","52159072","wem/bandit_double","A1NKBXOTZAI1YK","both","8","1","9","","","","","","","0","0","1","0.2361953268","0.05481920189","","","","","0.4191075236","0.05481920189","0.3180572988","0.4233479157","0.286492297","0.2361953268","0.2484053244","0.4883488692","","","","","","","","74","J","1","","","213","main_expt"
"","bandit","293","695163","0.0-254.0-0.0","52159072","wem/bandit_double","A1NKBXOTZAI1YK","both","8","1","134","","","","","","","0","0","1","0.2308921763","0.07954578011","","","","","0.3799529118","0.07954578011","0.2611162072","0.4182751871","0.2540339129","0.2308921763","0.2182548364","0.4872562331","","","","","","","","74","J","1","","","214","main_expt"
"","bandit","294","696906","0.0-255.0-0.0","52159072","wem/bandit_double","A1NKBXOTZAI1YK","both","8","1","230","","","","","","","0","0","1","0.2161033537","0.1078137614","","","","","0.3924699069","0.1078137614","0.2331309726","0.3745823719","0.254651127","0.2161033537","0.1824073789","0.4749609167","","","","","","","","74","J","1","","","215","main_expt"
