"consent","trial_type","trial_index","time_elapsed","internal_node_id","subjID","study","MID","cond","drift1","drift2","rt","responses","key_press","expt_phase","like","value","connected","gems","bombs","no_reward","GemPrChosen","BombPrChosen","GainOverPainPr_0","GainOverPainPr_1","GainOverPainPr_2","GainOverPainPr_3","LosePr_0","LosePr_1","LosePr_2","LosePr_3","WinPr_0","WinPr_1","WinPr_2","WinPr_3","Q0","Q1","Q2","gender","age","ethnicity","target","respCharCode","respKey","respChoiceNum","respChoice","practice","trial_counter","trial_label"
"INL_behavioral_consent_30min_online.html","consent","0","7551","0.0-0.0","57719913","wem/bandit_double","A2LV5432PV1S39","both","4","5","","","","","","","","","","","","","","","","","","","","","","","","","","","","","","","","","","","","","",""
"","survey-text","1","12274","0.0-1.0","57719913","wem/bandit_double","A2LV5432PV1S39","both","4","5","3711","{""Q0"":""A2LV5432PV1S39""}","","","","","","","","","","","","","","","","","","","","","","","","","","","","","","","","","","","",""
"","text","2","17230","0.0-2.0","57719913","wem/bandit_double","A2LV5432PV1S39","both","4","5","3941","","32","","","","","","","","","","","","","","","","","","","","","","","","","","","","","","","","","","",""
"","text","3","21937","0.0-3.0","57719913","wem/bandit_double","A2LV5432PV1S39","both","4","5","4703","","32","","","","","","","","","","","","","","","","","","","","","","","","","","","","","","","","","","",""
"","text","4","34299","0.0-4.0","57719913","wem/bandit_double","A2LV5432PV1S39","both","4","5","12357","","32","","","","","","","","","","","","","","","","","","","","","","","","","","","","","","","","","","",""
"","text","5","47123","0.0-5.0","57719913","wem/bandit_double","A2LV5432PV1S39","both","4","5","12817","","32","","","","","","","","","","","","","","","","","","","","","","","","","","","","","","","","","","",""
"","text","6","55961","0.0-6.0","57719913","wem/bandit_double","A2LV5432PV1S39","both","4","5","8826","","32","","","","","","","","","","","","","","","","","","","","","","","","","","","","","","","","","","",""
"","text","7","61994","0.0-7.0","57719913","wem/bandit_double","A2LV5432PV1S39","both","4","5","6020","","32","","","","","","","","","","","","","","","","","","","","","","","","","","","","","","","","","","",""
"","identification","8","67363","0.0-8.0-0.0","57719913","wem/bandit_double","A2LV5432PV1S39","both","4","5","5311","","","","6","6","6","","","","","","","","","","","","","","","","","","","","","","","","the village of Zur","","","","","","",""
"","identification","9","71368","0.0-8.0-1.0","57719913","wem/bandit_double","A2LV5432PV1S39","both","4","5","2971","","","","0","0","0","","","","","","","","","","","","","","","","","","","","","","","","the village of Nyx","","","","","","",""
"","text","10","76342","0.0-9.0","57719913","wem/bandit_double","A2LV5432PV1S39","both","4","5","3940","","32","","","","","","","","","","","","","","","","","","","","","","","","","","","","","","","","","","",""
"","text","11","79366","0.0-10.0","57719913","wem/bandit_double","A2LV5432PV1S39","both","4","5","3018","","32","","","","","","","","","","","","","","","","","","","","","","","","","","","","","","","","","","",""
"","text","12","81714","0.0-11.0","57719913","wem/bandit_double","A2LV5432PV1S39","both","4","5","2343","","32","","","","","","","","","","","","","","","","","","","","","","","","","","","","","","","","","","",""
"","text","13","83108","0.0-12.0","57719913","wem/bandit_double","A2LV5432PV1S39","both","4","5","1389","","32","","","","","","","","","","","","","","","","","","","","","","","","","","","","","","","","","","",""
"","text","14","85787","0.0-13.0","57719913","wem/bandit_double","A2LV5432PV1S39","both","4","5","2676","","32","","","","","","","","","","","","","","","","","","","","","","","","","","","","","","","","","","",""
"","bandit","15","88920","0.0-14.0-0.0","57719913","wem/bandit_double","A2LV5432PV1S39","both","4","5","1582","","","","","","","1","0","0","1","0","","","","","0","","","","1","","","","","","","","","","","74","J","0","img/none_selected_demo.jpg","true","0",""
"","bandit","16","91162","0.0-15.0-0.0","57719913","wem/bandit_double","A2LV5432PV1S39","both","4","5","693","","","","","","","0","1","0","0","1","","","","","1","","","","0","","","","","","","","","","","75","K","0","img/none_selected_demo.jpg","true","0",""
"","text","17","98554","0.0-16.0","57719913","wem/bandit_double","A2LV5432PV1S39","both","4","5","7379","","32","","","","","","","","","","","","","","","","","","","","","","","","","","","","","","","","","","",""
"","text","18","105507","0.0-17.0","57719913","wem/bandit_double","A2LV5432PV1S39","both","4","5","6944","","32","","","","","","","","","","","","","","","","","","","","","","","","","","","","","","","","","","",""
"","text","19","110217","0.0-18.0","57719913","wem/bandit_double","A2LV5432PV1S39","both","4","5","4701","","32","","","","","","","","","","","","","","","","","","","","","","","","","","","","","","","","","","",""
"","text","20","112950","0.0-19.0","57719913","wem/bandit_double","A2LV5432PV1S39","both","4","5","2725","","32","","","","","","","","","","","","","","","","","","","","","","","","","","","","","","","","","","",""
"","bandit","21","115502","0.0-20.0-0.0","57719913","wem/bandit_double","A2LV5432PV1S39","both","4","5","1003","","","","","","","1","0","0","0.8","0","","","","","0","0","","","0.8","0.2","","","","","","","","","","74","J","0","img/none_selected_demo.jpg","true","0","80_20_practice"
"","bandit","22","117392","0.0-20.0-1.0","57719913","wem/bandit_double","A2LV5432PV1S39","both","4","5","360","","","","","","","0","0","1","0.8","0","","","","","0","0","","","0.8","0.2","","","","","","","","","","74","J","0","img/none_selected_demo.jpg","true","0","80_20_practice"
"","bandit","23","119218","0.0-20.0-2.0","57719913","wem/bandit_double","A2LV5432PV1S39","both","4","5","280","","","","","","","1","0","0","0.8","0","","","","","0","0","","","0.8","0.2","","","","","","","","","","74","J","0","img/none_selected_demo.jpg","true","0","80_20_practice"
"","bandit","24","121101","0.0-20.0-3.0","57719913","wem/bandit_double","A2LV5432PV1S39","both","4","5","324","","","","","","","0","0","1","0.8","0","","","","","0","0","","","0.8","0.2","","","","","","","","","","74","J","0","img/none_selected_demo.jpg","true","0","80_20_practice"
"","bandit","25","122773","0.0-20.0-4.0","57719913","wem/bandit_double","A2LV5432PV1S39","both","4","5","114","","","","","","","0","0","1","0.8","0","","","","","0","0","","","0.8","0.2","","","","","","","","","","74","J","0","img/none_selected_demo.jpg","true","0","80_20_practice"
"","bandit","26","124506","0.0-20.0-5.0","57719913","wem/bandit_double","A2LV5432PV1S39","both","4","5","162","","","","","","","0","0","1","0.2","0","","","","","0","0","","","0.8","0.2","","","","","","","","","","75","K","1","","true","0","80_20_practice"
"","bandit","27","126330","0.0-20.0-6.0","57719913","wem/bandit_double","A2LV5432PV1S39","both","4","5","279","","","","","","","1","0","0","0.2","0","","","","","0","0","","","0.8","0.2","","","","","","","","","","75","K","1","","true","0","80_20_practice"
"","bandit","28","128161","0.0-20.0-7.0","57719913","wem/bandit_double","A2LV5432PV1S39","both","4","5","283","","","","","","","0","0","1","0.2","0","","","","","0","0","","","0.8","0.2","","","","","","","","","","75","K","1","","true","0","80_20_practice"
"","bandit","29","130068","0.0-20.0-8.0","57719913","wem/bandit_double","A2LV5432PV1S39","both","4","5","316","","","","","","","0","0","1","0.2","0","","","","","0","0","","","0.8","0.2","","","","","","","","","","75","K","1","","true","0","80_20_practice"
"","bandit","30","131981","0.0-20.0-9.0","57719913","wem/bandit_double","A2LV5432PV1S39","both","4","5","345","","","","","","","0","0","1","0.2","0","","","","","0","0","","","0.8","0.2","","","","","","","","","","75","K","1","","true","0","80_20_practice"
"","bandit","31","133592","0.0-20.0-10.0","57719913","wem/bandit_double","A2LV5432PV1S39","both","4","5","69","","","","","","","0","0","1","0.8","0","","","","","0","0","","","0.8","0.2","","","","","","","","","","74","J","0","img/none_selected_demo.jpg","true","0","80_20_practice"
"","bandit","32","135262","0.0-20.0-11.0","57719913","wem/bandit_double","A2LV5432PV1S39","both","4","5","119","","","","","","","1","0","0","0.8","0","","","","","0","0","","","0.8","0.2","","","","","","","","","","74","J","0","img/none_selected_demo.jpg","true","0","80_20_practice"
"","bandit","33","137096","0.0-20.0-12.0","57719913","wem/bandit_double","A2LV5432PV1S39","both","4","5","289","","","","","","","1","0","0","0.8","0","","","","","0","0","","","0.8","0.2","","","","","","","","","","74","J","0","img/none_selected_demo.jpg","true","0","80_20_practice"
"","bandit","34","138980","0.0-20.0-13.0","57719913","wem/bandit_double","A2LV5432PV1S39","both","4","5","261","","","","","","","1","0","0","0.8","0","","","","","0","0","","","0.8","0.2","","","","","","","","","","74","J","0","img/none_selected_demo.jpg","true","0","80_20_practice"
"","bandit","35","140912","0.0-20.0-14.0","57719913","wem/bandit_double","A2LV5432PV1S39","both","4","5","406","","","","","","","1","0","0","0.8","0","","","","","0","0","","","0.8","0.2","","","","","","","","","","74","J","0","img/none_selected_demo.jpg","true","0","80_20_practice"
"","bandit","36","142789","0.0-20.0-15.0","57719913","wem/bandit_double","A2LV5432PV1S39","both","4","5","300","","","","","","","0","0","1","0.8","0","","","","","0","0","","","0.8","0.2","","","","","","","","","","74","J","0","img/none_selected_demo.jpg","true","0","80_20_practice"
"","bandit","37","144690","0.0-20.0-16.0","57719913","wem/bandit_double","A2LV5432PV1S39","both","4","5","345","","","","","","","1","0","0","0.8","0","","","","","0","0","","","0.8","0.2","","","","","","","","","","74","J","0","img/none_selected_demo.jpg","true","0","80_20_practice"
"","bandit","38","146594","0.0-20.0-17.0","57719913","wem/bandit_double","A2LV5432PV1S39","both","4","5","314","","","","","","","1","0","0","0.8","0","","","","","0","0","","","0.8","0.2","","","","","","","","","","74","J","0","img/none_selected_demo.jpg","true","0","80_20_practice"
"","bandit","39","148673","0.0-20.0-18.0","57719913","wem/bandit_double","A2LV5432PV1S39","both","4","5","532","","","","","","","1","0","0","0.8","0","","","","","0","0","","","0.8","0.2","","","","","","","","","","74","J","0","img/none_selected_demo.jpg","true","0","80_20_practice"
"","bandit","40","150563","0.0-20.0-19.0","57719913","wem/bandit_double","A2LV5432PV1S39","both","4","5","342","","","","","","","1","0","0","0.8","0","","","","","0","0","","","0.8","0.2","","","","","","","","","","74","J","0","img/none_selected_demo.jpg","true","0","80_20_practice"
"","text","41","153604","0.0-21.0","57719913","wem/bandit_double","A2LV5432PV1S39","both","4","5","3036","","32","","","","","","","","","","","","","","","","","","","","","","","","","","","","","","","","","","",""
"","bandit","42","156038","0.0-22.0-0.0","57719913","wem/bandit_double","A2LV5432PV1S39","both","4","5","886","","","","","","","1","0","0","1","0","","","","","0","1","","","1","0","","","","","","","","","","74","J","0","img/none_selected_demo.jpg","true","0",""
"","text","43","158990","0.0-23.0","57719913","wem/bandit_double","A2LV5432PV1S39","both","4","5","2938","","32","","","","","","","","","","","","","","","","","","","","","","","","","","","","","","","","","","",""
"","text","44","160999","0.0-24.0","57719913","wem/bandit_double","A2LV5432PV1S39","both","4","5","1989","","32","","","","","","","","","","","","","","","","","","","","","","","","","","","","","","","","","","",""
"","text","45","164212","0.0-25.0","57719913","wem/bandit_double","A2LV5432PV1S39","both","4","5","3198","","32","","","","","","","","","","","","","","","","","","","","","","","","","","","","","","","","","","",""
"","text","46","166510","0.0-26.0","57719913","wem/bandit_double","A2LV5432PV1S39","both","4","5","2279","","32","","","","","","","","","","","","","","","","","","","","","","","","","","","","","","","","","","",""
"","text","47","169846","0.0-27.0","57719913","wem/bandit_double","A2LV5432PV1S39","both","4","5","3321","","32","","","","","","","","","","","","","","","","","","","","","","","","","","","","","","","","","","",""
"","text","48","179190","0.0-28.0","57719913","wem/bandit_double","A2LV5432PV1S39","both","4","5","9325","","32","","","","","","","","","","","","","","","","","","","","","","","","","","","","","","","","","","",""
"","text","49","188517","0.0-29.0","57719913","wem/bandit_double","A2LV5432PV1S39","both","4","5","9312","","32","","","","","","","","","","","","","","","","","","","","","","","","","","","","","","","","","","",""
"","text","50","194945","0.0-30.0","57719913","wem/bandit_double","A2LV5432PV1S39","both","4","5","6415","","32","","","","","","","","","","","","","","","","","","","","","","","","","","","","","","","","","","",""
"","text","51","197675","0.0-31.0","57719913","wem/bandit_double","A2LV5432PV1S39","both","4","5","2725","","32","","","","","","","","","","","","","","","","","","","","","","","","","","","","","","","","","","",""
"","text","52","202135","0.0-32.0","57719913","wem/bandit_double","A2LV5432PV1S39","both","4","5","4450","","32","","","","","","","","","","","","","","","","","","","","","","","","","","","","","","","","","","",""
"","text","53","203718","0.0-33.0","57719913","wem/bandit_double","A2LV5432PV1S39","both","4","5","1567","","32","","","","","","","","","","","","","","","","","","","","","","","","","","","","","","","","","","",""
"","text","54","206684","0.0-34.0","57719913","wem/bandit_double","A2LV5432PV1S39","both","4","5","2961","","32","","","","","","","","","","","","","","","","","","","","","","","","","","","","","","","","","","",""
"","bandit","55","209041","0.0-35.0-0.0","57719913","wem/bandit_double","A2LV5432PV1S39","both","4","5","802","","","","","","","0","1","0","0.8","0.8","","","","","0.8","0.2","0.6","0.2","0.8","0.2","0.6","0.2","","","","","","","","72","H","0","img/none_selected.jpg","true","0","full_practice"
"","bandit","56","211098","0.0-35.0-1.0","57719913","wem/bandit_double","A2LV5432PV1S39","both","4","5","513","","","","","","","0","0","1","0.2","0.2","","","","","0.8","0.2","0.6","0.2","0.8","0.2","0.6","0.2","","","","","","","","76","L","3","","true","0","full_practice"
"","bandit","57","212992","0.0-35.0-2.0","57719913","wem/bandit_double","A2LV5432PV1S39","both","4","5","342","","","","","","","0","0","1","0.6","0.6","","","","","0.8","0.2","0.6","0.2","0.8","0.2","0.6","0.2","","","","","","","","75","K","2","","true","0","full_practice"
"","bandit","58","215199","0.0-35.0-3.0","57719913","wem/bandit_double","A2LV5432PV1S39","both","4","5","359","","","","","","","0","1","0","0.2","0.2","","","","","0.8","0.2","0.6","0.2","0.8","0.2","0.6","0.2","","","","","","","","76","L","3","","true","0","full_practice"
"","bandit","59","217043","0.0-35.0-4.0","57719913","wem/bandit_double","A2LV5432PV1S39","both","4","5","321","","","","","","","0","0","1","0.2","0.2","","","","","0.8","0.2","0.6","0.2","0.8","0.2","0.6","0.2","","","","","","","","74","J","1","","true","0","full_practice"
"","bandit","60","218891","0.0-35.0-5.0","57719913","wem/bandit_double","A2LV5432PV1S39","both","4","5","306","","","","","","","0","1","0","0.6","0.6","","","","","0.8","0.2","0.6","0.2","0.8","0.2","0.6","0.2","","","","","","","","75","K","2","","true","0","full_practice"
"","bandit","61","220795","0.0-35.0-6.0","57719913","wem/bandit_double","A2LV5432PV1S39","both","4","5","356","","","","","","","1","1","0","0.8","0.8","","","","","0.8","0.2","0.6","0.2","0.8","0.2","0.6","0.2","","","","","","","","72","H","0","img/none_selected.jpg","true","0","full_practice"
"","bandit","62","222656","0.0-35.0-7.0","57719913","wem/bandit_double","A2LV5432PV1S39","both","4","5","316","","","","","","","0","0","1","0.2","0.2","","","","","0.8","0.2","0.6","0.2","0.8","0.2","0.6","0.2","","","","","","","","74","J","1","","true","0","full_practice"
"","bandit","63","224545","0.0-35.0-8.0","57719913","wem/bandit_double","A2LV5432PV1S39","both","4","5","332","","","","","","","1","0","0","0.6","0.6","","","","","0.8","0.2","0.6","0.2","0.8","0.2","0.6","0.2","","","","","","","","75","K","2","","true","0","full_practice"
"","bandit","64","226420","0.0-35.0-9.0","57719913","wem/bandit_double","A2LV5432PV1S39","both","4","5","316","","","","","","","0","0","1","0.6","0.6","","","","","0.8","0.2","0.6","0.2","0.8","0.2","0.6","0.2","","","","","","","","75","K","2","","true","0","full_practice"
"","bandit","65","228371","0.0-35.0-10.0","57719913","wem/bandit_double","A2LV5432PV1S39","both","4","5","393","","","","","","","0","1","0","0.8","0.8","","","","","0.8","0.2","0.6","0.2","0.8","0.2","0.6","0.2","","","","","","","","72","H","0","img/none_selected.jpg","true","0","full_practice"
"","bandit","66","230276","0.0-35.0-11.0","57719913","wem/bandit_double","A2LV5432PV1S39","both","4","5","300","","","","","","","1","0","0","0.6","0.6","","","","","0.8","0.2","0.6","0.2","0.8","0.2","0.6","0.2","","","","","","","","75","K","2","","true","0","full_practice"
"","bandit","67","232329","0.0-35.0-12.0","57719913","wem/bandit_double","A2LV5432PV1S39","both","4","5","501","","","","","","","1","1","0","0.6","0.6","","","","","0.8","0.2","0.6","0.2","0.8","0.2","0.6","0.2","","","","","","","","75","K","2","","true","0","full_practice"
"","bandit","68","234157","0.0-35.0-13.0","57719913","wem/bandit_double","A2LV5432PV1S39","both","4","5","283","","","","","","","0","0","1","0.6","0.6","","","","","0.8","0.2","0.6","0.2","0.8","0.2","0.6","0.2","","","","","","","","75","K","2","","true","0","full_practice"
"","bandit","69","235930","0.0-35.0-14.0","57719913","wem/bandit_double","A2LV5432PV1S39","both","4","5","227","","","","","","","1","1","0","0.8","0.8","","","","","0.8","0.2","0.6","0.2","0.8","0.2","0.6","0.2","","","","","","","","72","H","0","img/none_selected.jpg","true","0","full_practice"
"","bandit","70","237716","0.0-35.0-15.0","57719913","wem/bandit_double","A2LV5432PV1S39","both","4","5","238","","","","","","","0","0","1","0.2","0.2","","","","","0.8","0.2","0.6","0.2","0.8","0.2","0.6","0.2","","","","","","","","74","J","1","","true","0","full_practice"
"","bandit","71","239367","0.0-35.0-16.0","57719913","wem/bandit_double","A2LV5432PV1S39","both","4","5","112","","","","","","","0","0","1","0.2","0.2","","","","","0.8","0.2","0.6","0.2","0.8","0.2","0.6","0.2","","","","","","","","76","L","3","","true","0","full_practice"
"","bandit","72","241213","0.0-35.0-17.0","57719913","wem/bandit_double","A2LV5432PV1S39","both","4","5","312","","","","","","","1","1","0","0.8","0.8","","","","","0.8","0.2","0.6","0.2","0.8","0.2","0.6","0.2","","","","","","","","72","H","0","img/none_selected.jpg","true","0","full_practice"
"","bandit","73","243222","0.0-35.0-18.0","57719913","wem/bandit_double","A2LV5432PV1S39","both","4","5","447","","","","","","","0","1","0","0.6","0.6","","","","","0.8","0.2","0.6","0.2","0.8","0.2","0.6","0.2","","","","","","","","75","K","2","","true","0","full_practice"
"","bandit","74","245172","0.0-35.0-19.0","57719913","wem/bandit_double","A2LV5432PV1S39","both","4","5","399","","","","","","","1","1","0","0.8","0.8","","","","","0.8","0.2","0.6","0.2","0.8","0.2","0.6","0.2","","","","","","","","72","H","0","img/none_selected.jpg","true","0","full_practice"
"","text","75","247554","0.0-36.0","57719913","wem/bandit_double","A2LV5432PV1S39","both","4","5","2355","","32","","","","","","","","","","","","","","","","","","","","","","","","","","","","","","","","","","",""
"","text","76","257016","0.0-37.0","57719913","wem/bandit_double","A2LV5432PV1S39","both","4","5","8449","","32","","","","","","","","","","","","","","","","","","","","","","","","","","","","","","","","","","",""
"","text","77","261299","0.0-38.0","57719913","wem/bandit_double","A2LV5432PV1S39","both","4","5","4265","","32","","","","","","","","","","","","","","","","","","","","","","","","","","","","","","","","","","",""
"","text","78","267736","0.0-39.0","57719913","wem/bandit_double","A2LV5432PV1S39","both","4","5","6419","","32","","","","","","","","","","","","","","","","","","","","","","","","","","","","","","","","","","",""
"","text","79","273778","0.0-40.0","57719913","wem/bandit_double","A2LV5432PV1S39","both","4","5","6034","","32","","","","","","","","","","","","","","","","","","","","","","","","","","","","","","","","","","",""
"","bandit","80","276610","0.0-41.0-0.0","57719913","wem/bandit_double","A2LV5432PV1S39","both","4","5","1297","","","","","","","1","0","0","0.2771551185","0.4265570961","","","","","0.4265570961","0.1165465043","0.3340388524","0.3897275569","0.2771551185","0.3525715257","0.3894728165","0.3242650943","","","","","","","","72","H","0","img/none_selected.jpg","","1","main_expt"
"","bandit","81","278905","0.0-42.0-0.0","57719913","wem/bandit_double","A2LV5432PV1S39","both","4","5","724","","","","","","","0","1","0","0.3030893157","0.4177099958","","","","","0.4177099958","0.08371899021","0.3223834482","0.3911966266","0.3030893157","0.390153736","0.363660736","0.3296228245","","","","","","","","72","H","0","img/none_selected.jpg","","2","main_expt"
"","bandit","82","280831","0.0-43.0-0.0","57719913","wem/bandit_double","A2LV5432PV1S39","both","4","5","369","","","","","","","0","0","1","0.3725447061","0.04339790364","","","","","0.4192185534","0.04339790364","0.3585509001","0.4074861021","0.3211059343","0.3725447061","0.3842171554","0.3102780753","","","","","","","","74","J","1","","","3","main_expt"
"","bandit","83","282891","0.0-44.0-0.0","57719913","wem/bandit_double","A2LV5432PV1S39","both","4","5","509","","","","","","","0","0","1","0.2749892112","0.3965638453","","","","","0.4241610434","0.04073472785","0.3416436242","0.3965638453","0.2804386453","0.3431524481","0.3831963053","0.2749892112","","","","","","","","76","L","3","","","4","main_expt"
"","bandit","84","284763","0.0-45.0-0.0","57719913","wem/bandit_double","A2LV5432PV1S39","both","4","5","312","","","","","","","0","0","1","0.4056596471","0.3444758892","","","","","0.4284837315","0.04731773769","0.3444758892","0.3688269119","0.2609559086","0.3448007793","0.4056596471","0.3037824898","","","","","","","","75","K","2","","","5","main_expt"
"","bandit","85","286426","0.0-46.0-0.0","57719913","wem/bandit_double","A2LV5432PV1S39","both","4","5","98","","","","","","","0","0","1","0.2259287768","0.4328708062","","","","","0.4328708062","0.05617088868","0.3574177426","0.3865867917","0.2259287768","0.3980888019","0.4409946319","0.3217417103","","","","","","","","72","H","0","img/none_selected.jpg","","6","main_expt"
"","bandit","86","288130","0.0-47.0-0.0","57719913","wem/bandit_double","A2LV5432PV1S39","both","4","5","143","","","","","","","0","0","1","0.3693121862","0.05606577856","","","","","0.4176545671","0.05606577856","0.3634052143","0.4294719924","0.2433618728","0.3693121862","0.3821747998","0.3018715163","","","","","","","","74","J","1","","","7","main_expt"
"","bandit","87","289901","0.0-48.0-0.0","57719913","wem/bandit_double","A2LV5432PV1S39","both","4","5","217","","","","","","","0","0","1","0.2025356769","0.4022395488","","","","","0.4022395488","0.09244853328","0.3675420607","0.4210378118","0.2025356769","0.2933697555","0.3841844813","0.3643645816","","","","","","","","72","H","0","img/none_selected.jpg","","8","main_expt"
"","bandit","88","291650","0.0-49.0-0.0","57719913","wem/bandit_double","A2LV5432PV1S39","both","4","5","210","","","","","","","0","0","1","0.3412237964","0.3921196104","","","","","0.3929004949","0.1271341085","0.3921196104","0.4502112583","0.1441028094","0.3036212831","0.3412237964","0.3418610374","","","","","","","","75","K","2","","","9","main_expt"
"","bandit","89","293489","0.0-50.0-0.0","57719913","wem/bandit_double","A2LV5432PV1S39","both","4","5","289","","","","","","","0","0","1","0.3190157878","0.4452653155","","","","","0.3863711448","0.1370717255","0.4026182126","0.4452653155","0.1736005971","0.308020301","0.3256420777","0.3190157878","","","","","","","","76","L","3","","","10","main_expt"
"","bandit","90","295348","0.0-51.0-0.0","57719913","wem/bandit_double","A2LV5432PV1S39","both","4","5","297","","","","","","","1","1","0","0.3514007431","0.3543069494","","","","","0.4205849279","0.1275050207","0.3543069494","0.4352349267","0.1836365694","0.3065973113","0.3514007431","0.2998731478","","","","","","","","75","K","2","","","11","main_expt"
"","bandit","91","297121","0.0-52.0-0.0","57719913","wem/bandit_double","A2LV5432PV1S39","both","4","5","230","","","","","","","1","0","0","0.3722032088","0.3504097904","","","","","0.4525069231","0.122317004","0.3504097904","0.4029030639","0.2143869662","0.3271859636","0.3722032088","0.2942822571","","","","","","","","75","K","2","","","12","main_expt"
"","bandit","92","298887","0.0-53.0-0.0","57719913","wem/bandit_double","A2LV5432PV1S39","both","4","5","211","","","","","","","0","0","1","0.3681707299","0.2787441393","","","","","0.4485799753","0.1251711411","0.2787441393","0.4198147105","0.1637139448","0.2761076709","0.3681707299","0.3009212619","","","","","","","","75","K","2","","","13","main_expt"
"","bandit","93","300670","0.0-54.0-0.0","57719913","wem/bandit_double","A2LV5432PV1S39","both","4","5","232","","","","","","","1","0","0","0.3528222564","0.2723245106","","","","","0.4504049656","0.1380641988","0.2723245106","0.3761312174","0.1488535162","0.2311164494","0.3528222564","0.3227424667","","","","","","","","75","K","2","","","14","main_expt"
"","bandit","94","302483","0.0-55.0-0.0","57719913","wem/bandit_double","A2LV5432PV1S39","both","4","5","258","","","","","","","1","0","0","0.3738838661","0.3687644442","","","","","0.4281165459","0.2010812313","0.3687644442","0.4017507227","0.1332411271","0.2905977425","0.3738838661","0.3547546862","","","","","","","","75","K","2","","","15","main_expt"
"","bandit","95","304253","0.0-56.0-0.0","57719913","wem/bandit_double","A2LV5432PV1S39","both","4","5","217","","","","","","","1","0","0","0.3385239332","0.3992289848","","","","","0.4035101098","0.1747275657","0.3992289848","0.3859888637","0.09882415698","0.2924554969","0.3385239332","0.3241157583","","","","","","","","75","K","2","","","16","main_expt"
"","bandit","96","306135","0.0-57.0-0.0","57719913","wem/bandit_double","A2LV5432PV1S39","both","4","5","328","","","","","","","1","0","0","0.3111355138","0.4067061876","","","","","0.4063691663","0.1816524112","0.4067061876","0.3706978481","0.1069157009","0.3114836302","0.3111355138","0.3363410386","","","","","","","","75","K","2","","","17","main_expt"
"","bandit","97","307985","0.0-58.0-0.0","57719913","wem/bandit_double","A2LV5432PV1S39","both","4","5","299","","","","","","","0","0","1","0.3487767647","0.3969002131","","","","","0.4201618032","0.1700798448","0.3969002131","0.3323991027","0.134958137","0.3215333475","0.3487767647","0.3880947854","","","","","","","","75","K","2","","","18","main_expt"
"","bandit","98","310089","0.0-59.0-0.0","57719913","wem/bandit_double","A2LV5432PV1S39","both","4","5","548","","","","","","","1","0","0","0.2733398822","0.1998500639","","","","","0.3868389751","0.1998500639","0.3930099592","0.3301718366","0.1230418706","0.2733398822","0.3010303499","0.4116912081","","","","","","","","74","J","1","","","19","main_expt"
"","bandit","99","312007","0.0-60.0-0.0","57719913","wem/bandit_double","A2LV5432PV1S39","both","4","5","344","","","","","","","0","0","1","0.2351410235","0.2418808817","","","","","0.3868875991","0.2418808817","0.3791602553","0.3714618997","0.09866604889","0.2351410235","0.2907203997","0.3973894305","","","","","","","","74","J","1","","","20","main_expt"
"","bandit","100","313828","0.0-61.0-0.0","57719913","wem/bandit_double","A2LV5432PV1S39","both","4","5","248","","","","","","","0","0","1","0.1021222834","0.4253770554","","","","","0.4253770554","0.2293341009","0.4127515201","0.3621694591","0.1021222834","0.2257810982","0.3088108907","0.369037109","","","","","","","","72","H","0","img/none_selected.jpg","","21","main_expt"
"","bandit","101","316382","0.0-62.0-0.0","57719913","wem/bandit_double","A2LV5432PV1S39","both","4","5","1010","","","","","","","0","0","1","0.4179468344","0.3648829928","","","","","0.4285762007","0.2074184163","0.4164833055","0.3648829928","0.1234138809","0.2221856846","0.349202701","0.4179468344","","","","","","","","76","L","3","","","22","main_expt"
"","bandit","102","318058","0.0-63.0-0.0","57719913","wem/bandit_double","A2LV5432PV1S39","both","4","5","147","","","","","","","0","0","1","0.2127124712","0.1832507358","","","","","0.4082522222","0.1832507358","0.4143027846","0.2856994719","0.1030640584","0.2127124712","0.3785068464","0.4276062926","","","","","","","","74","J","1","","","23","main_expt"
"","bandit","103","319818","0.0-64.0-0.0","57719913","wem/bandit_double","A2LV5432PV1S39","both","4","5","230","","","","","","","0","1","0","0.4012919653","0.3649270698","","","","","0.4027270218","0.1469425149","0.3649270698","0.3152516524","0.1261035851","0.1882566648","0.4012919653","0.4078122208","","","","","","","","75","K","2","","","24","main_expt"
"","bandit","104","321747","0.0-65.0-0.0","57719913","wem/bandit_double","A2LV5432PV1S39","both","4","5","343","","","","","","","0","1","0","0.1796705612","0.4100212433","","","","","0.4100212433","0.102794739","0.392676409","0.2778145345","0.1796705612","0.1273223766","0.400899794","0.3950411191","","","","","","","","72","H","0","img/none_selected.jpg","","25","main_expt"
"","bandit","105","323539","0.0-66.0-0.0","57719913","wem/bandit_double","A2LV5432PV1S39","both","4","5","261","","","","","","","0","0","1","0.15747458","0.1173732637","","","","","0.4190791169","0.1173732637","0.4031565401","0.3170506137","0.2414651519","0.15747458","0.4126274585","0.4322303329","","","","","","","","74","J","1","","","26","main_expt"
"","bandit","106","325608","0.0-67.0-0.0","57719913","wem/bandit_double","A2LV5432PV1S39","both","4","5","536","","","","","","","1","1","0","0.3992263875","0.4245959001","","","","","0.4527212376","0.08835016803","0.4245959001","0.3223143746","0.2005374927","0.1442684908","0.3992263875","0.4353643722","","","","","","","","75","K","2","","","27","main_expt"
"","bandit","107","327432","0.0-68.0-0.0","57719913","wem/bandit_double","A2LV5432PV1S39","both","4","5","295","","","","","","","0","1","0","0.3846584236","0.4232885055","","","","","0.4480998813","0.1134440288","0.4232885055","0.3234472479","0.3197257227","0.2255404594","0.3846584236","0.4464017809","","","","","","","","75","K","2","","","28","main_expt"
"","bandit","108","329346","0.0-69.0-0.0","57719913","wem/bandit_double","A2LV5432PV1S39","both","4","5","351","","","","","","","0","0","1","0.3141869899","0.4628669208","","","","","0.4628669208","0.1982905849","0.4495512981","0.2881425904","0.3141869899","0.2730951691","0.3561298134","0.4417109462","","","","","","","","72","H","0","img/none_selected.jpg","","29","main_expt"
"","bandit","109","331232","0.0-70.0-0.0","57719913","wem/bandit_double","A2LV5432PV1S39","both","4","5","331","","","","","","","0","0","1","0.2890412698","0.2366655967","","","","","0.4565655028","0.2366655967","0.4485299892","0.2326555855","0.3445991012","0.2890412698","0.3101363315","0.4065908859","","","","","","","","74","J","1","","","30","main_expt"
"","bandit","110","332964","0.0-71.0-0.0","57719913","wem/bandit_double","A2LV5432PV1S39","both","4","5","168","","","","","","","0","1","0","0.3322219809","0.4599237238","","","","","0.4686031056","0.1622470467","0.4599237238","0.2364604256","0.3456655029","0.3309226042","0.3322219809","0.3954582793","","","","","","","","75","K","2","","","31","main_expt"
"","bandit","111","335350","0.0-72.0-0.0","57719913","wem/bandit_double","A2LV5432PV1S39","both","4","5","851","","","","","","","0","0","1","0.3716723047","0.2451982598","","","","","0.4659582456","0.1771911602","0.4508116693","0.2451982598","0.3826172224","0.3519301717","0.3516269472","0.3716723047","","","","","","","","76","L","3","","","32","main_expt"
"","bandit","112","337303","0.0-73.0-0.0","57719913","wem/bandit_double","A2LV5432PV1S39","both","4","5","396","","","","","","","0","1","0","0.3804083149","0.4810757035","","","","","0.4810757035","0.1622836308","0.45101727","0.2360369815","0.3804083149","0.3414953842","0.3852085553","0.3799724366","","","","","","","","72","H","0","img/none_selected.jpg","","33","main_expt"
"","bandit","113","339151","0.0-74.0-0.0","57719913","wem/bandit_double","A2LV5432PV1S39","both","4","5","285","","","","","","","0","0","1","0.2938412915","0.1655985557","","","","","0.4842727378","0.1655985557","0.4340174653","0.2317763892","0.3808178469","0.2938412915","0.4196644934","0.409480615","","","","","","","","74","J","1","","","34","main_expt"
"","bandit","114","340868","0.0-75.0-0.0","57719913","wem/bandit_double","A2LV5432PV1S39","both","4","5","187","","","","","","","1","0","0","0.376129724","0.4745470136","","","","","0.4745470136","0.1492797185","0.4040147441","0.2527891731","0.376129724","0.2256616696","0.420891004","0.3869649509","","","","","","","","72","H","0","img/none_selected.jpg","","35","main_expt"
"","bandit","115","342722","0.0-76.0-0.0","57719913","wem/bandit_double","A2LV5432PV1S39","both","4","5","307","","","","","","","1","0","0","0.4027809904","0.4440965139","","","","","0.4440965139","0.1504543003","0.4268829696","0.2641283143","0.4027809904","0.2525957923","0.3808881167","0.3045389962","","","","","","","","72","H","0","img/none_selected.jpg","","36","main_expt"
"","bandit","116","344807","0.0-77.0-0.0","57719913","wem/bandit_double","A2LV5432PV1S39","both","4","5","513","","","","","","","0","1","0","0.3715556026","0.4544425755","","","","","0.4544425755","0.1064249526","0.4562327564","0.2309310423","0.3715556026","0.2333373749","0.3634360393","0.2954217214","","","","","","","","72","H","0","img/none_selected.jpg","","37","main_expt"
"","bandit","117","346914","0.0-78.0-0.0","57719913","wem/bandit_double","A2LV5432PV1S39","both","4","5","531","","","","","","","1","0","0","0.2126884676","0.1346530267","","","","","0.4700138218","0.1346530267","0.4481627861","0.2093170459","0.354842885","0.2126884676","0.3432691328","0.2749906923","","","","","","","","74","J","1","","","38","main_expt"
"","bandit","118","348723","0.0-79.0-0.0","57719913","wem/bandit_double","A2LV5432PV1S39","both","4","5","268","","","","","","","1","0","0","0.212498526","0.1303494481","","","","","0.466948448","0.1303494481","0.4475890948","0.1398625959","0.3066825603","0.212498526","0.3113322025","0.2911873598","","","","","","","","74","J","1","","","39","main_expt"
"","bandit","119","350651","0.0-80.0-0.0","57719913","wem/bandit_double","A2LV5432PV1S39","both","4","5","348","","","","","","","0","0","1","0.2031275136","0.1492074344","","","","","0.4679256248","0.1492074344","0.4501575696","0.09690087606","0.3208648015","0.2031275136","0.3298138996","0.3066149412","","","","","","","","74","J","1","","","40","main_expt"
"","bandit","120","352540","0.0-81.0-0.0","57719913","wem/bandit_double","A2LV5432PV1S39","both","4","5","339","","","","","","","1","0","0","0.3590557929","0.4121884666","","","","","0.445537573","0.1370672299","0.4121884666","0.1129569356","0.2774570704","0.2409224204","0.3590557929","0.2612722093","","","","","","","","75","K","2","","","41","main_expt"
"","bandit","121","354383","0.0-82.0-0.0","57719913","wem/bandit_double","A2LV5432PV1S39","both","4","5","316","","","","","","","0","0","1","0.3455434044","0.4379939247","","","","","0.4521531226","0.08144147181","0.4379939247","0.1227033228","0.3092882543","0.2166695961","0.3455434044","0.2579482203","","","","","","","","75","K","2","","","42","main_expt"
"","bandit","122","356262","0.0-83.0-0.0","57719913","wem/bandit_double","A2LV5432PV1S39","both","4","5","197","","","","","","","1","0","0","0.4020043176","0.4271747655","","","","","0.4695072217","0.06793865388","0.4271747655","0.08393287497","0.3161251671","0.2314197793","0.4020043176","0.2232302517","","","","","","","","75","K","2","","","43","main_expt"
"","bandit","123","358194","0.0-84.0-0.0","57719913","wem/bandit_double","A2LV5432PV1S39","both","4","5","378","","","","","","","0","1","0","0.4088695108","0.4480494518","","","","","0.4807409838","0.05295344446","0.4480494518","0.06260074275","0.3032549762","0.1889371852","0.4088695108","0.2435669349","","","","","","","","75","K","2","","","44","main_expt"
"","bandit","124","360009","0.0-85.0-0.0","57719913","wem/bandit_double","A2LV5432PV1S39","both","4","5","276","","","","","","","0","0","1","0.1885724617","0.08062123592","","","","","0.4507048108","0.02744239742","0.4269729589","0.08062123592","0.3012359134","0.2152104473","0.3914045207","0.1885724617","","","","","","","","76","L","3","","","45","main_expt"
"","bandit","125","362061","0.0-86.0-0.0","57719913","wem/bandit_double","A2LV5432PV1S39","both","4","5","479","","","","","","","1","0","0","0.2260726972","0.02347437243","","","","","0.4382321206","0.02347437243","0.4475746277","0.1110847749","0.2994346937","0.2260726972","0.3682142312","0.104230756","","","","","","","","74","J","1","","","46","main_expt"
"","bandit","126","363931","0.0-87.0-0.0","57719913","wem/bandit_double","A2LV5432PV1S39","both","4","5","314","","","","","","","0","0","1","0.2330399618","0.02418160198","","","","","0.4393937913","0.02418160198","0.4295618238","0.05346849493","0.3169549043","0.2330399618","0.3462276735","0.09013225529","","","","","","","","74","J","1","","","47","main_expt"
"","bandit","127","365916","0.0-88.0-0.0","57719913","wem/bandit_double","A2LV5432PV1S39","both","4","5","440","","","","","","","0","1","0","0.3137179834","0.440318131","","","","","0.440318131","0.01182676654","0.4431907244","0.04499733497","0.3137179834","0.2769685944","0.3501405617","0.1066227192","","","","","","","","72","H","0","img/none_selected.jpg","","48","main_expt"
"","bandit","128","367869","0.0-89.0-0.0","57719913","wem/bandit_double","A2LV5432PV1S39","both","4","5","406","","","","","","","0","1","0","0.3026837323","0.4362102412","","","","","0.4362102412","0.0186287842","0.4187732916","0.07378534534","0.3026837323","0.2954986192","0.3607669766","0.1273062614","","","","","","","","72","H","0","img/none_selected.jpg","","49","main_expt"
"","bandit","129","375232","0.0-90.0-0.0","57719913","wem/bandit_double","A2LV5432PV1S39","both","4","5","5815","","","","","","","0","0","1","0.3776327681","0.356579213","","","","","0.44488671","0.02550629551","0.356579213","0.06168845619","0.2690248343","0.2730110453","0.3776327681","0.08158159543","","","","","","","","75","K","2","","","50","main_expt"
"","bandit","130","377278","0.0-91.0-0.0","57719913","wem/bandit_double","A2LV5432PV1S39","both","4","5","486","","","","","","","0","0","1","0.2672659715","0.04366809707","","","","","0.4633405548","0.04366809707","0.2629404955","0.1062028567","0.2407215714","0.2672659715","0.3922012959","0.08035098666","","","","","","","","74","J","1","","","51","main_expt"
"","bandit","131","379061","0.0-92.0-0.0","57719913","wem/bandit_double","A2LV5432PV1S39","both","4","5","238","","","","","","","0","0","1","0.1007468434","0.1379608546","","","","","0.4528043762","0.04357168116","0.2919747068","0.1379608546","0.2758158767","0.2552972095","0.3532085343","0.1007468434","","","","","","","","76","L","3","","","52","main_expt"
"","bandit","132","382173","0.0-93.0-0.0","57719913","wem/bandit_double","A2LV5432PV1S39","both","4","5","1550","","","","","","","0","0","1","0.1479770317","0.1356826849","","","","","0.4390431751","0.03899227154","0.3809901122","0.1356826849","0.2661511239","0.1954439593","0.3597378762","0.1479770317","","","","","","","","76","L","3","","","53","main_expt"
"","bandit","133","385080","0.0-94.0-0.0","57719913","wem/bandit_double","A2LV5432PV1S39","both","4","5","1346","","","","","","","1","0","0","0.3553644404","0.3452518694","","","","","0.4549270822","0.04009146386","0.3452518694","0.1038772241","0.250303373","0.1250298759","0.3553644404","0.1450389045","","","","","","","","75","K","2","","","54","main_expt"
"","bandit","134","388940","0.0-95.0-0.0","57719913","wem/bandit_double","A2LV5432PV1S39","both","4","5","2303","","","","","","","0","0","1","0.1850572083","0.4710341864","","","","","0.4710341864","0.0155768565","0.3263112327","0.1689791829","0.1850572083","0.1224949652","0.3427354451","0.1678096349","","","","","","","","72","H","0","img/none_selected.jpg","","55","main_expt"
"","bandit","135","390811","0.0-96.0-0.0","57719913","wem/bandit_double","A2LV5432PV1S39","both","4","5","293","","","","","","","0","1","0","0.1312048923","0.02112461672","","","","","0.4745834276","0.02112461672","0.3308963945","0.1108888145","0.2410157884","0.1312048923","0.3158877586","0.1748395718","","","","","","","","74","J","1","","","56","main_expt"
"","bandit","136","392691","0.0-97.0-0.0","57719913","wem/bandit_double","A2LV5432PV1S39","both","4","5","361","","","","","","","0","0","1","0.3224611445","0.3150326571","","","","","0.489318572","0.0126553198","0.3150326571","0.1206542402","0.2657224069","0.14452077","0.3224611445","0.146986137","","","","","","","","75","K","2","","","57","main_expt"
"","bandit","137","395288","0.0-98.0-0.0","57719913","wem/bandit_double","A2LV5432PV1S39","both","4","5","900","","","","","","","1","1","0","0.3378672788","0.3049116772","","","","","0.480037986","0.01131359515","0.3049116772","0.09707343937","0.2361308133","0.1198415177","0.3378672788","0.1316135006","","","","","","","","75","K","2","","","58","main_expt"
"","bandit","138","397225","0.0-99.0-0.0","57719913","wem/bandit_double","A2LV5432PV1S39","both","4","5","395","","","","","","","0","0","1","0.3438075972","0.3050987947","","","","","0.4593461039","0.01030075821","0.3050987947","0.1044384952","0.2078360154","0.1674914914","0.3438075972","0.1776120447","","","","","","","","75","K","2","","","59","main_expt"
"","bandit","139","399368","0.0-100.0-0.0","57719913","wem/bandit_double","A2LV5432PV1S39","both","4","5","583","","","","","","","0","1","0","0.2034864675","0.08890369623","","","","","0.446051488","0.005868957973","0.3274009355","0.08890369623","0.2256957235","0.147959707","0.2950987239","0.2034864675","","","","","","","","76","L","3","","","60","main_expt"
"","bandit","140","401443","0.0-101.0-0.0","57719913","wem/bandit_double","A2LV5432PV1S39","both","4","5","478","","","","","","","0","0","1","0.1325668513","0.08921221942","","","","","0.4391285327","0.004361943215","0.3428943983","0.08921221942","0.2713547376","0.1217284172","0.2939622289","0.1325668513","","","","","","","","76","L","3","","","61","main_expt"
"","bandit","141","403427","0.0-102.0-0.0","57719913","wem/bandit_double","A2LV5432PV1S39","both","4","5","435","","","","","","","1","0","0","0.2800078023","0.4063883723","","","","","0.4063883723","0.005208412743","0.3549763931","0.09812025034","0.2800078023","0.1392905859","0.2907096119","0.125492747","","","","","","","","72","H","0","img/none_selected.jpg","","62","main_expt"
"","bandit","142","405394","0.0-103.0-0.0","57719913","wem/bandit_double","A2LV5432PV1S39","both","4","5","398","","","","","","","0","1","0","0.362183352","0.4330387396","","","","","0.4330387396","0.006461011255","0.3496678451","0.09006279409","0.362183352","0.1953314019","0.2696382907","0.1081989139","","","","","","","","72","H","0","img/none_selected.jpg","","63","main_expt"
"","bandit","143","407334","0.0-104.0-0.0","57719913","wem/bandit_double","A2LV5432PV1S39","both","4","5","375","","","","","","","1","0","0","0.2618523415","0.01267926231","","","","","0.4207902426","0.01267926231","0.3188537263","0.1118976224","0.3354395381","0.2618523415","0.2496415039","0.09104284411","","","","","","","","74","J","1","","","64","main_expt"
"","bandit","144","409180","0.0-105.0-0.0","57719913","wem/bandit_double","A2LV5432PV1S39","both","4","5","278","","","","","","","0","1","0","0.2364994079","0.3191795336","","","","","0.3719582347","0.009732787917","0.3191795336","0.1053817613","0.2893845237","0.2686672798","0.2364994079","0.1264903162","","","","","","","","75","K","2","","","65","main_expt"
"","bandit","145","410847","0.0-106.0-0.0","57719913","wem/bandit_double","A2LV5432PV1S39","both","4","5","128","","","","","","","0","0","1","0.2451656397","0.01092542651","","","","","0.3748569955","0.01092542651","0.268616347","0.1307356695","0.2355717356","0.2451656397","0.2541683514","0.1665937301","","","","","","","","74","J","1","","","66","main_expt"
"","bandit","146","412895","0.0-107.0-0.0","57719913","wem/bandit_double","A2LV5432PV1S39","both","4","5","484","","","","","","","1","0","0","0.2848755716","0.335252031","","","","","0.335252031","0.02125534741","0.259194563","0.1418436428","0.2848755716","0.2445320338","0.2985471382","0.1740025863","","","","","","","","72","H","0","img/none_selected.jpg","","67","main_expt"
"","bandit","147","414771","0.0-108.0-0.0","57719913","wem/bandit_double","A2LV5432PV1S39","both","4","5","337","","","","","","","1","0","0","0.3341158043","0.3199157278","","","","","0.3199157278","0.02360283027","0.2281204868","0.1459089566","0.3341158043","0.2261158315","0.3391290389","0.2300011382","","","","","","","","72","H","0","img/none_selected.jpg","","68","main_expt"
"","bandit","148","416755","0.0-109.0-0.0","57719913","wem/bandit_double","A2LV5432PV1S39","both","4","5","433","","","","","","","0","1","0","0.3253412689","0.3068525281","","","","","0.3068525281","0.02539305756","0.2195844169","0.1809721424","0.3253412689","0.1627286519","0.3114764975","0.1768594062","","","","","","","","72","H","0","img/none_selected.jpg","","69","main_expt"
"","bandit","149","418617","0.0-110.0-0.0","57719913","wem/bandit_double","A2LV5432PV1S39","both","4","5","330","","","","","","","0","0","1","0.3056328376","0.1883338509","","","","","0.3181076016","0.05014388586","0.1883338509","0.1784068974","0.3280915152","0.1301009224","0.3056328376","0.1906145184","","","","","","","","75","K","2","","","70","main_expt"
"","bandit","150","420667","0.0-111.0-0.0","57719913","wem/bandit_double","A2LV5432PV1S39","both","4","5","501","","","","","","","0","0","1","0.1451664327","0.1973023396","","","","","0.2926426422","0.04209054697","0.1639708178","0.1973023396","0.3772643828","0.1356707761","0.3445325487","0.1451664327","","","","","","","","76","L","3","","","71","main_expt"
"","bandit","151","422646","0.0-112.0-0.0","57719913","wem/bandit_double","A2LV5432PV1S39","both","4","5","401","","","","","","","1","0","0","0.4074174212","0.2380263643","","","","","0.2380263643","0.05611199342","0.1312842785","0.2436342847","0.4074174212","0.1045412551","0.364612409","0.1091447996","","","","","","","","72","H","0","img/none_selected.jpg","","72","main_expt"
"","bandit","152","424580","0.0-113.0-0.0","57719913","wem/bandit_double","A2LV5432PV1S39","both","4","5","376","","","","","","","0","0","1","0.3736299767","0.2407197948","","","","","0.2407197948","0.05293238473","0.1805041857","0.1992173182","0.3736299767","0.0867882282","0.4454774056","0.1248737042","","","","","","","","72","H","0","img/none_selected.jpg","","73","main_expt"
"","bandit","153","426439","0.0-114.0-0.0","57719913","wem/bandit_double","A2LV5432PV1S39","both","4","5","301","","","","","","","0","0","1","0.1018359722","0.0318456884","","","","","0.2317468449","0.0318456884","0.1739557812","0.2347098304","0.383211712","0.1018359722","0.4492830973","0.1073746888","","","","","","","","74","J","1","","","74","main_expt"
"","bandit","154","428432","0.0-115.0-0.0","57719913","wem/bandit_double","A2LV5432PV1S39","both","4","5","418","","","","","","","1","0","0","0.449321966","0.2434916027","","","","","0.2545997551","0.03873230677","0.2434916027","0.2641442137","0.3681962321","0.09443707336","0.449321966","0.1051395745","","","","","","","","75","K","2","","","75","main_expt"
"","bandit","155","430323","0.0-116.0-0.0","57719913","wem/bandit_double","A2LV5432PV1S39","both","4","5","348","","","","","","","1","1","0","0.4299726132","0.2438468568","","","","","0.2890845388","0.03304947682","0.2438468568","0.3192644053","0.3574328021","0.08768691443","0.4299726132","0.09171451076","","","","","","","","75","K","2","","","76","main_expt"
"","bandit","156","432206","0.0-117.0-0.0","57719913","wem/bandit_double","A2LV5432PV1S39","both","4","5","329","","","","","","","0","0","1","0.07744448812","0.02607887458","","","","","0.2386362654","0.02607887458","0.2425324642","0.3351132613","0.4041720962","0.07744448812","0.4349340462","0.1256070833","","","","","","","","74","J","1","","","77","main_expt"
"","bandit","157","434347","0.0-118.0-0.0","57719913","wem/bandit_double","A2LV5432PV1S39","both","4","5","288","","","","","","","0","0","1","0.4112950215","0.205588479","","","","","0.2673679704","0.02492981692","0.205588479","0.3086784207","0.4000946746","0.05712631425","0.4112950215","0.1398604905","","","","","","","","75","K","2","","","78","main_expt"
"","bandit","158","436885","0.0-119.0-0.0","57719913","wem/bandit_double","A2LV5432PV1S39","both","4","5","947","","","","","","","0","0","1","0.1303191282","0.3076482073","","","","","0.2813811921","0.01824110002","0.213062191","0.3076482073","0.425248604","0.03981704588","0.4123046053","0.1303191282","","","","","","","","76","L","3","","","79","main_expt"
"","bandit","159","439118","0.0-120.0-0.0","57719913","wem/bandit_double","A2LV5432PV1S39","both","4","5","677","","","","","","","0","0","1","0.4263383456","0.2419447949","","","","","0.2419447949","0.0202176162","0.1852926048","0.3605025214","0.4263383456","0.02961196177","0.4345430878","0.1491340647","","","","","","","","72","H","0","img/none_selected.jpg","","80","main_expt"
"","bandit","160","440785","0.0-121.0-0.0","57719913","wem/bandit_double","A2LV5432PV1S39","both","4","5","102","","","","","","","0","0","1","0.0408206899","0.0252752587","","","","","0.323481111","0.0252752587","0.2332942271","0.3286166321","0.4377411966","0.0408206899","0.4255274095","0.1484119081","","","","","","","","74","J","1","","","81","main_expt"
"","bandit","161","442722","0.0-122.0-0.0","57719913","wem/bandit_double","A2LV5432PV1S39","both","4","5","388","","","","","","","0","0","1","0.4266934287","0.2087797338","","","","","0.3097244961","0.05668457717","0.2087797338","0.3459677762","0.4263216968","0.03491361241","0.4266934287","0.135460029","","","","","","","","75","K","2","","","82","main_expt"
"","bandit","162","444597","0.0-123.0-0.0","57719913","wem/bandit_double","A2LV5432PV1S39","both","4","5","289","","","","","","","0","0","1","0.01881925386","0.07760530004","","","","","0.2787498647","0.07760530004","0.2049979043","0.3092751195","0.4536492548","0.01881925386","0.4321646522","0.09497461961","","","","","","","","74","J","1","","","83","main_expt"
"","bandit","163","446471","0.0-124.0-0.0","57719913","wem/bandit_double","A2LV5432PV1S39","both","4","5","321","","","","","","","1","0","0","0.4344769981","0.2589524449","","","","","0.2589524449","0.03696005566","0.2151780091","0.3044630387","0.4344769981","0.03441768066","0.43129245","0.0956585677","","","","","","","","72","H","0","img/none_selected.jpg","","84","main_expt"
"","bandit","164","448489","0.0-125.0-0.0","57719913","wem/bandit_double","A2LV5432PV1S39","both","4","5","493","","","","","","","0","0","1","0.4167097255","0.2769318636","","","","","0.2769318636","0.04177257934","0.1497615914","0.2812480587","0.4167097255","0.04015732792","0.4307495417","0.08427930603","","","","","","","","72","H","0","img/none_selected.jpg","","85","main_expt"
"","bandit","165","450313","0.0-126.0-0.0","57719913","wem/bandit_double","A2LV5432PV1S39","both","4","5","285","","","","","","","0","0","1","0.4327415212","0.1223687677","","","","","0.2849222391","0.0385770192","0.1223687677","0.2506532223","0.4215971904","0.0462821445","0.4327415212","0.09540141202","","","","","","","","75","K","2","","","86","main_expt"
"","bandit","166","452181","0.0-127.0-0.0","57719913","wem/bandit_double","A2LV5432PV1S39","both","4","5","314","","","","","","","0","0","1","0.07236867375","0.03720252147","","","","","0.3131087309","0.03720252147","0.1472857413","0.2269900387","0.3962725568","0.07236867375","0.4507305815","0.06504543429","","","","","","","","74","J","1","","","87","main_expt"
"","bandit","167","454289","0.0-128.0-0.0","57719913","wem/bandit_double","A2LV5432PV1S39","both","4","5","384","","","","","","","0","0","1","0.4571393315","0.1252586248","","","","","0.3038587512","0.06746059371","0.1252586248","0.1504729919","0.4038430626","0.1132918069","0.4571393315","0.05894337134","","","","","","","","75","K","2","","","88","main_expt"
"","bandit","168","456150","0.0-129.0-0.0","57719913","wem/bandit_double","A2LV5432PV1S39","both","4","5","318","","","","","","","0","0","1","0.06803635399","0.1382070302","","","","","0.3308022157","0.04069757945","0.1194927994","0.1382070302","0.4247877058","0.1466354559","0.4639779763","0.06803635399","","","","","","","","76","L","3","","","89","main_expt"
"","bandit","169","457965","0.0-130.0-0.0","57719913","wem/bandit_double","A2LV5432PV1S39","both","4","5","269","","","","","","","1","1","0","0.4196700557","0.3574922351","","","","","0.3574922351","0.07325379503","0.1589750007","0.1364765349","0.4196700557","0.1746819083","0.4620017245","0.09657856289","","","","","","","","72","H","0","img/none_selected.jpg","","90","main_expt"
"","bandit","170","459837","0.0-131.0-0.0","57719913","wem/bandit_double","A2LV5432PV1S39","both","4","5","313","","","","","","","0","1","0","0.401758082","0.3729517688","","","","","0.3729517688","0.06877471811","0.1859960426","0.09318196272","0.401758082","0.1864657318","0.4492963398","0.08522031428","","","","","","","","72","H","0","img/none_selected.jpg","","91","main_expt"
"","bandit","171","461609","0.0-132.0-0.0","57719913","wem/bandit_double","A2LV5432PV1S39","both","4","5","225","","","","","","","0","0","1","0.2124622091","0.04115987362","","","","","0.398352994","0.04115987362","0.192419488","0.06946097624","0.3422099147","0.2124622091","0.462009279","0.07078380504","","","","","","","","74","J","1","","","92","main_expt"
"","bandit","172","463529","0.0-133.0-0.0","57719913","wem/bandit_double","A2LV5432PV1S39","both","4","5","377","","","","","","","0","1","0","0.4363090379","0.1716033463","","","","","0.4135860398","0.07078892783","0.1716033463","0.08102832817","0.3279059742","0.245786276","0.4363090379","0.0564278809","","","","","","","","75","K","2","","","93","main_expt"
"","bandit","173","465485","0.0-134.0-0.0","57719913","wem/bandit_double","A2LV5432PV1S39","both","4","5","379","","","","","","","0","1","0","0.06067733924","0.1271360848","","","","","0.3786880174","0.05572868433","0.1935897604","0.1271360848","0.3155724737","0.2316759231","0.4457519602","0.06067733924","","","","","","","","76","L","3","","","94","main_expt"
"","bandit","174","467372","0.0-135.0-0.0","57719913","wem/bandit_double","A2LV5432PV1S39","both","4","5","319","","","","","","","1","0","0","0.2231756969","0.05056929995","","","","","0.3823424718","0.05056929995","0.2193228015","0.1097592989","0.3519625041","0.2231756969","0.4231248902","0.08632751489","","","","","","","","74","J","1","","","95","main_expt"
"","bandit","175","469644","0.0-136.0-0.0","57719913","wem/bandit_double","A2LV5432PV1S39","both","4","5","703","","","","","","","1","0","0","0.1957128212","0.04159874267","","","","","0.3642725552","0.04159874267","0.3262643469","0.1085490834","0.3661455107","0.1957128212","0.4210676831","0.08481729553","","","","","","","","74","J","1","","","96","main_expt"
"","bandit","176","471493","0.0-137.0-0.0","57719913","wem/bandit_double","A2LV5432PV1S39","both","4","5","303","","","","","","","0","0","1","0.1638116915","0.03654451862","","","","","0.3197717944","0.03654451862","0.3207405496","0.1049812554","0.3558031673","0.1638116915","0.4022895305","0.08386440452","","","","","","","","74","J","1","","","97","main_expt"
"","bandit","177","473340","0.0-138.0-0.0","57719913","wem/bandit_double","A2LV5432PV1S39","both","4","5","272","","","","","","","1","1","0","0.3558230887","0.2514424369","","","","","0.2514424369","0.04190300095","0.3712856991","0.08177978443","0.3558230887","0.1405816365","0.4187351015","0.0940701929","","","","","","","","72","H","0","img/none_selected.jpg","","98","main_expt"
"","bandit","178","475425","0.0-139.0-0.0","57719913","wem/bandit_double","A2LV5432PV1S39","both","4","5","389","","","","","","","0","0","1","0.3064708089","0.2926772137","","","","","0.2926772137","0.08742990617","0.3740145378","0.07574087804","0.3064708089","0.1435678602","0.3981340028","0.1285058524","","","","","","","","72","H","0","img/none_selected.jpg","","99","main_expt"
"","bandit","179","477392","0.0-140.0-0.0","57719913","wem/bandit_double","A2LV5432PV1S39","both","4","5","424","","","","","","","0","0","1","0.352498313","0.234485335","","","","","0.234485335","0.08966523481","0.3776295542","0.07829319678","0.352498313","0.1478754355","0.3520446815","0.065882019","","","","","","","","72","H","0","img/none_selected.jpg","","100","main_expt"
"","bandit","180","479259","0.0-141.0-0.0","57719913","wem/bandit_double","A2LV5432PV1S39","both","4","5","306","","","","","","","1","0","0","0.1532559328","0.07849065771","","","","","0.250352175","0.07849065771","0.3592666398","0.07919243683","0.3511810171","0.1532559328","0.3715523215","0.05692140794","","","","","","","","74","J","1","","","101","main_expt"
"","bandit","181","481112","0.0-142.0-0.0","57719913","wem/bandit_double","A2LV5432PV1S39","both","4","5","294","","","","","","","1","0","0","0.15857411","0.1054267613","","","","","0.2139972863","0.1054267613","0.3412191773","0.1052753188","0.3246867477","0.15857411","0.3966955113","0.04322280369","","","","","","","","74","J","1","","","102","main_expt"
"","bandit","182","482984","0.0-143.0-0.0","57719913","wem/bandit_double","A2LV5432PV1S39","both","4","5","306","","","","","","","0","0","1","0.1552377357","0.1120981937","","","","","0.20092706","0.1120981937","0.3133100433","0.1248526142","0.2827689756","0.1552377357","0.3865714765","0.05121437093","","","","","","","","74","J","1","","","103","main_expt"
"","bandit","183","484881","0.0-144.0-0.0","57719913","wem/bandit_double","A2LV5432PV1S39","both","4","5","342","","","","","","","0","1","0","0.3440646931","0.3219148419","","","","","0.2305366804","0.1034740879","0.3219148419","0.142969925","0.3307995119","0.1584193753","0.3440646931","0.06548077564","","","","","","","","75","K","2","","","104","main_expt"
"","bandit","184","486739","0.0-145.0-0.0","57719913","wem/bandit_double","A2LV5432PV1S39","both","4","5","306","","","","","","","1","1","0","0.330981063","0.3300892518","","","","","0.2102135581","0.07597240327","0.3300892518","0.13947254","0.3078297571","0.192058402","0.330981063","0.07577357845","","","","","","","","75","K","2","","","105","main_expt"
"","bandit","185","488584","0.0-146.0-0.0","57719913","wem/bandit_double","A2LV5432PV1S39","both","4","5","277","","","","","","","0","0","1","0.3317280627","0.3401839058","","","","","0.2219457329","0.1124257427","0.3401839058","0.1329526997","0.3202685942","0.1562344916","0.3317280627","0.09041352565","","","","","","","","75","K","2","","","106","main_expt"
"","bandit","186","490302","0.0-147.0-0.0","57719913","wem/bandit_double","A2LV5432PV1S39","both","4","5","157","","","","","","","0","0","1","0.1184921167","0.1727290233","","","","","0.3048423019","0.1133168519","0.3784706915","0.1727290233","0.3163418234","0.1493116313","0.2760665195","0.1184921167","","","","","","","","76","L","3","","","107","main_expt"
"","bandit","187","493846","0.0-148.0-0.0","57719913","wem/bandit_double","A2LV5432PV1S39","both","4","5","1651","","","","","","","0","0","1","0.1357435498","0.1752395656","","","","","0.258150515","0.1752395656","0.3945753887","0.1864487031","0.3425943818","0.1357435498","0.2826301941","0.1057615429","","","","","","","","74","J","1","","","108","main_expt"
"","bandit","188","495708","0.0-149.0-0.0","57719913","wem/bandit_double","A2LV5432PV1S39","both","4","5","303","","","","","","","0","0","1","0.2852030557","0.1859129148","","","","","0.1859129148","0.1862973424","0.356827327","0.2463216238","0.2852030557","0.1164074326","0.318117281","0.1464484126","","","","","","","","72","H","0","img/none_selected.jpg","","109","main_expt"
"","bandit","189","497562","0.0-150.0-0.0","57719913","wem/bandit_double","A2LV5432PV1S39","both","4","5","303","","","","","","","0","1","0","0.1641354829","0.2431522628","","","","","0.1371624404","0.2015845776","0.2344179837","0.2431522628","0.3392406975","0.1444451916","0.3358587519","0.1641354829","","","","","","","","76","L","3","","","110","main_expt"
"","bandit","190","500651","0.0-151.0-0.0","57719913","wem/bandit_double","A2LV5432PV1S39","both","4","5","1513","","","","","","","0","0","1","0.3023411017","0.1258232978","","","","","0.1258232978","0.2003651753","0.2644823096","0.1757476643","0.3023411017","0.09905323685","0.3031660534","0.1386891192","","","","","","","","72","H","0","img/none_selected.jpg","","111","main_expt"
"","bandit","191","502503","0.0-152.0-0.0","57719913","wem/bandit_double","A2LV5432PV1S39","both","4","5","313","","","","","","","1","0","0","0.09652445584","0.21392293","","","","","0.1529967373","0.21392293","0.28311182","0.2451518953","0.296849772","0.09652445584","0.2773548355","0.1847512065","","","","","","","","74","J","1","","","112","main_expt"
"","bandit","192","504349","0.0-153.0-0.0","57719913","wem/bandit_double","A2LV5432PV1S39","both","4","5","290","","","","","","","0","0","1","0.09961189632","0.1606798039","","","","","0.148248117","0.1606798039","0.2413269532","0.2407836715","0.2673419259","0.09961189632","0.2370758425","0.1304555333","","","","","","","","74","J","1","","","113","main_expt"
"","bandit","193","508421","0.0-154.0-0.0","57719913","wem/bandit_double","A2LV5432PV1S39","both","4","5","2460","","","","","","","0","0","1","0.1770102637","0.3099317417","","","","","0.1562208239","0.2095980235","0.3100969134","0.3099317417","0.2670531803","0.1036139638","0.1821928837","0.1770102637","","","","","","","","76","L","3","","","114","main_expt"
"","bandit","194","510267","0.0-155.0-0.0","57719913","wem/bandit_double","A2LV5432PV1S39","both","4","5","285","","","","","","","0","0","1","0.1564651975","0.3180754701","","","","","0.2138032898","0.2550279667","0.329842252","0.3180754701","0.2825009356","0.0968506792","0.1315453283","0.1564651975","","","","","","","","76","L","3","","","115","main_expt"
"","bandit","195","512201","0.0-156.0-0.0","57719913","wem/bandit_double","A2LV5432PV1S39","both","4","5","354","","","","","","","1","0","0","0.08782875681","0.2471764387","","","","","0.2331260325","0.2471764387","0.3223706096","0.2919742107","0.3237719372","0.08782875681","0.1102777544","0.1665702367","","","","","","","","74","J","1","","","116","main_expt"
"","bandit","196","514198","0.0-157.0-0.0","57719913","wem/bandit_double","A2LV5432PV1S39","both","4","5","336","","","","","","","0","1","0","0.06031800864","0.2730878341","","","","","0.1826309729","0.2730878341","0.3098408215","0.2799774295","0.3154846423","0.06031800864","0.1101610351","0.1530687496","","","","","","","","74","J","1","","","117","main_expt"
"","bandit","197","516046","0.0-158.0-0.0","57719913","wem/bandit_double","A2LV5432PV1S39","both","4","5","295","","","","","","","1","0","0","0.05633053331","0.2071462199","","","","","0.1511269107","0.2071462199","0.2974554567","0.2646714695","0.2584508078","0.05633053331","0.122460482","0.1674206906","","","","","","","","74","J","1","","","118","main_expt"
"","bandit","198","517940","0.0-159.0-0.0","57719913","wem/bandit_double","A2LV5432PV1S39","both","4","5","335","","","","","","","0","0","1","0.07530514027","0.2275232499","","","","","0.1559979654","0.2275232499","0.3598468986","0.3179839519","0.2141905193","0.07530514027","0.1451868924","0.1990215448","","","","","","","","74","J","1","","","119","main_expt"
"","bandit","199","519857","0.0-160.0-0.0","57719913","wem/bandit_double","A2LV5432PV1S39","both","4","5","323","","","","","","","1","0","0","0.09639595661","0.2767559596","","","","","0.1463004055","0.2767559596","0.2984373086","0.3302262658","0.2341954374","0.09639595661","0.09092593383","0.2208640619","","","","","","","","74","J","1","","","120","main_expt"
"","bandit","200","521672","0.0-161.0-0.0","57719913","wem/bandit_double","A2LV5432PV1S39","both","4","5","275","","","","","","","0","1","0","0.1421799471","0.3448590315","","","","","0.1418195479","0.3448590315","0.2973090059","0.3500549905","0.1886372651","0.1421799471","0.1080456108","0.2602917539","","","","","","","","74","J","1","","","121","main_expt"
"","bandit","201","523516","0.0-162.0-0.0","57719913","wem/bandit_double","A2LV5432PV1S39","both","4","5","276","","","","","","","0","1","0","0.1624760489","0.3593301016","","","","","0.1270782113","0.3593301016","0.3382791822","0.2686616284","0.1597592322","0.1624760489","0.1169053248","0.2512498235","","","","","","","","74","J","1","","","122","main_expt"
"","bandit","202","525380","0.0-163.0-0.0","57719913","wem/bandit_double","A2LV5432PV1S39","both","4","5","296","","","","","","","0","1","0","0.1640214383","0.3680529171","","","","","0.1207154071","0.3680529171","0.3154347028","0.2277230314","0.1895266442","0.1640214383","0.1571594809","0.2266242761","","","","","","","","74","J","1","","","123","main_expt"
"","bandit","203","527211","0.0-164.0-0.0","57719913","wem/bandit_double","A2LV5432PV1S39","both","4","5","260","","","","","","","1","0","0","0.2014340991","0.3476523483","","","","","0.1229329119","0.3476523483","0.2966737815","0.3287090939","0.2042850732","0.2014340991","0.2231804049","0.2373824638","","","","","","","","74","J","1","","","124","main_expt"
"","bandit","204","529049","0.0-165.0-0.0","57719913","wem/bandit_double","A2LV5432PV1S39","both","4","5","302","","","","","","","0","0","1","0.2229229076","0.3564603465","","","","","0.09241122996","0.3564603465","0.3094831126","0.3687339586","0.1812515389","0.2229229076","0.2232794356","0.2538727107","","","","","","","","74","J","1","","","125","main_expt"
"","bandit","205","530733","0.0-166.0-0.0","57719913","wem/bandit_double","A2LV5432PV1S39","both","4","5","126","","","","","","","0","0","1","0.1694736183","0.08418962236","","","","","0.08418962236","0.3550684458","0.2488993205","0.3836195774","0.1694736183","0.2324712723","0.2316903634","0.290219491","","","","","","","","72","H","0","img/none_selected.jpg","","126","main_expt"
"","bandit","206","532645","0.0-167.0-0.0","57719913","wem/bandit_double","A2LV5432PV1S39","both","4","5","357","","","","","","","0","0","1","0.2337524142","0.1953487027","","","","","0.154715772","0.3235559827","0.1953487027","0.3617365958","0.1624528765","0.2628391623","0.2337524142","0.2542505169","","","","","","","","75","K","2","","","127","main_expt"
"","bandit","207","534480","0.0-168.0-0.0","57719913","wem/bandit_double","A2LV5432PV1S39","both","4","5","303","","","","","","","0","0","1","0.2654356302","0.312087491","","","","","0.1556709078","0.312087491","0.2171889907","0.3235283493","0.1632982916","0.2654356302","0.2198210178","0.2582316027","","","","","","","","74","J","1","","","128","main_expt"
"","bandit","208","536033","0.0-169.0-0.0","57719913","wem/bandit_double","A2LV5432PV1S39","both","4","5","14","","","","","","","0","0","1","0.2264598068","0.1214200615","","","","","0.1214200615","0.2843272188","0.2467699801","0.3453830546","0.2264598068","0.2070569149","0.2280168395","0.3267566011","","","","","","","","72","H","0","img/none_selected.jpg","","129","main_expt"
"","bandit","209","537796","0.0-170.0-0.0","57719913","wem/bandit_double","A2LV5432PV1S39","both","4","5","218","","","","","","","0","0","1","0.202760285","0.1377283829","","","","","0.1377283829","0.2128416856","0.2814443482","0.3242747857","0.202760285","0.2579182239","0.243895296","0.3323271388","","","","","","","","72","H","0","img/none_selected.jpg","","130","main_expt"
"","bandit","210","539524","0.0-171.0-0.0","57719913","wem/bandit_double","A2LV5432PV1S39","both","4","5","170","","","","","","","0","0","1","0.2329110821","0.2403879813","","","","","0.1397421628","0.2403879813","0.2834176508","0.3417201858","0.1585094705","0.2329110821","0.2164454501","0.2666668646","","","","","","","","74","J","1","","","131","main_expt"
"","bandit","211","541394","0.0-172.0-0.0","57719913","wem/bandit_double","A2LV5432PV1S39","both","4","5","337","","","","","","","0","0","1","0.2359119393","0.3498614837","","","","","0.1061875113","0.2811421594","0.2429908031","0.3498614837","0.1304261544","0.2400232435","0.200468731","0.2359119393","","","","","","","","76","L","3","","","132","main_expt"
"","bandit","212","543477","0.0-173.0-0.0","57719913","wem/bandit_double","A2LV5432PV1S39","both","4","5","516","","","","","","","0","0","1","0.2038597077","0.3053559495","","","","","0.07774811701","0.3002858371","0.3053559495","0.3134828643","0.09339990826","0.2084798617","0.2038597077","0.2540740643","","","","","","","","75","K","2","","","133","main_expt"
"","bandit","213","545350","0.0-174.0-0.0","57719913","wem/bandit_double","A2LV5432PV1S39","both","4","5","319","","","","","","","0","1","0","0.2263269307","0.2693478067","","","","","0.08211281178","0.277406375","0.2693478067","0.3554593188","0.08524612959","0.2034544","0.2263269307","0.2414927735","","","","","","","","75","K","2","","","134","main_expt"
"","bandit","214","547180","0.0-175.0-0.0","57719913","wem/bandit_double","A2LV5432PV1S39","both","4","5","256","","","","","","","0","0","1","0.2686469146","0.3369166079","","","","","0.1123817552","0.2897147582","0.3369166079","0.3150900126","0.0622033461","0.2088958693","0.2686469146","0.2632369982","","","","","","","","75","K","2","","","135","main_expt"
"","bandit","215","549082","0.0-176.0-0.0","57719913","wem/bandit_double","A2LV5432PV1S39","both","4","5","341","","","","","","","0","0","1","0.2573758916","0.3590576628","","","","","0.1478339482","0.3590576628","0.268603144","0.3199395785","0.05632890875","0.2573758916","0.3170393738","0.3032623762","","","","","","","","74","J","1","","","136","main_expt"
"","bandit","216","551213","0.0-177.0-0.0","57719913","wem/bandit_double","A2LV5432PV1S39","both","4","5","528","","","","","","","1","0","0","0.2467438462","0.3822427384","","","","","0.1374936615","0.3822427384","0.2373427956","0.33362357","0.06052980877","0.2467438462","0.338962466","0.2984046037","","","","","","","","74","J","1","","","137","main_expt"
"","bandit","217","553033","0.0-178.0-0.0","57719913","wem/bandit_double","A2LV5432PV1S39","both","4","5","246","","","","","","","1","0","0","0.1038497792","0.159761955","","","","","0.159761955","0.3410071165","0.2206869265","0.3611324022","0.1038497792","0.2221944767","0.3586643031","0.3110629865","","","","","","","","72","H","0","img/none_selected.jpg","","138","main_expt"
"","bandit","218","554946","0.0-179.0-0.0","57719913","wem/bandit_double","A2LV5432PV1S39","both","4","5","366","","","","","","","0","0","1","0.08561062373","0.1363721132","","","","","0.1363721132","0.3738014659","0.2177966349","0.3504145086","0.08561062373","0.2750517365","0.3430902759","0.3048373826","","","","","","","","72","H","0","img/none_selected.jpg","","139","main_expt"
"","bandit","219","557081","0.0-180.0-0.0","57719913","wem/bandit_double","A2LV5432PV1S39","both","4","5","475","","","","","","","0","0","1","0.277474309","0.422575493","","","","","0.1031445192","0.422575493","0.2387685432","0.309774603","0.08025295029","0.277474309","0.3777112835","0.3163642845","","","","","","","","74","J","1","","","140","main_expt"
"","bandit","220","559042","0.0-181.0-0.0","57719913","wem/bandit_double","A2LV5432PV1S39","both","4","5","415","","","","","","","0","0","1","0.4276051364","0.2575087366","","","","","0.09805286369","0.4439129864","0.2575087366","0.3506531288","0.09309891757","0.2932007391","0.4276051364","0.2213861514","","","","","","","","75","K","2","","","141","main_expt"
"","bandit","221","561237","0.0-182.0-0.0","57719913","wem/bandit_double","A2LV5432PV1S39","both","4","5","648","","","","","","","0","0","1","0.1107976638","0.1149002948","","","","","0.1149002948","0.4323802182","0.2392038972","0.2965027242","0.1107976638","0.3001807938","0.4312347149","0.2492613222","","","","","","","","72","H","0","img/none_selected.jpg","","142","main_expt"
"","bandit","222","562820","0.0-183.0-0.0","57719913","wem/bandit_double","A2LV5432PV1S39","both","4","5","39","","","","","","","1","0","0","0.09575525052","0.1209542099","","","","","0.1209542099","0.4358412593","0.2216470548","0.2087517366","0.09575525052","0.3640878437","0.386657586","0.2645663874","","","","","","","","72","H","0","img/none_selected.jpg","","143","main_expt"
"","bandit","223","564904","0.0-184.0-0.0","57719913","wem/bandit_double","A2LV5432PV1S39","both","4","5","520","","","","","","","0","1","0","0.07222794989","0.1202521083","","","","","0.1202521083","0.4407373256","0.2224896139","0.2313605626","0.07222794989","0.2706796495","0.3409851627","0.2928215939","","","","","","","","72","H","0","img/none_selected.jpg","","144","main_expt"
"","bandit","224","566932","0.0-185.0-0.0","57719913","wem/bandit_double","A2LV5432PV1S39","both","4","5","466","","","","","","","0","0","1","0.03203798906","0.1619743669","","","","","0.1619743669","0.4661091035","0.1925605464","0.1785565547","0.03203798906","0.2359726437","0.3538709708","0.3178979655","","","","","","","","72","H","0","img/none_selected.jpg","","145","main_expt"
"","bandit","225","568945","0.0-186.0-0.0","57719913","wem/bandit_double","A2LV5432PV1S39","both","4","5","462","","","","","","","0","1","0","0.2200332621","0.4637097668","","","","","0.1664631043","0.4637097668","0.2069800611","0.1770660648","0.03073079809","0.2200332621","0.2745956728","0.2850957273","","","","","","","","74","J","1","","","146","main_expt"
"","bandit","226","570791","0.0-187.0-0.0","57719913","wem/bandit_double","A2LV5432PV1S39","both","4","5","299","","","","","","","0","1","0","0.1957794229","0.4700491642","","","","","0.1669241763","0.4700491642","0.2489662189","0.1063371611","0.05105424151","0.1957794229","0.2375793476","0.2483519338","","","","","","","","74","J","1","","","147","main_expt"
"","bandit","227","572684","0.0-188.0-0.0","57719913","wem/bandit_double","A2LV5432PV1S39","both","4","5","354","","","","","","","0","1","0","0.1790722045","0.4648109734","","","","","0.1581456949","0.4648109734","0.1946464158","0.1216370817","0.04045355104","0.1790722045","0.2954602587","0.2309770791","","","","","","","","74","J","1","","","148","main_expt"
"","bandit","228","574510","0.0-189.0-0.0","57719913","wem/bandit_double","A2LV5432PV1S39","both","4","5","286","","","","","","","0","0","1","0.2189150546","0.4635511513","","","","","0.1698392466","0.4635511513","0.1826562491","0.1024256959","0.06416506337","0.2189150546","0.3435099865","0.1759049641","","","","","","","","74","J","1","","","149","main_expt"
"","bandit","229","576368","0.0-190.0-0.0","57719913","wem/bandit_double","A2LV5432PV1S39","both","4","5","202","","","","","","","0","0","1","0.268900415","0.1750473563","","","","","0.2140114634","0.4445017148","0.1750473563","0.1371094633","0.07819388902","0.2119229637","0.268900415","0.1910702346","","","","","","","","75","K","2","","","150","main_expt"
"","bandit","230","578334","0.0-191.0-0.0","57719913","wem/bandit_double","A2LV5432PV1S39","both","4","5","385","","","","","","","0","0","1","0.1186979887","0.2392960001","","","","","0.2392960001","0.4434799742","0.1109536645","0.1702433702","0.1186979887","0.2472398003","0.2326488896","0.1799178466","","","","","","","","72","H","0","img/none_selected.jpg","","151","main_expt"
"","bandit","231","580231","0.0-192.0-0.0","57719913","wem/bandit_double","A2LV5432PV1S39","both","4","5","350","","","","","","","0","0","1","0.1084773402","0.2095863317","","","","","0.2095863317","0.4451665291","0.1143086707","0.1860489046","0.1084773402","0.2148428051","0.2768057641","0.1826140084","","","","","","","","72","H","0","img/none_selected.jpg","","152","main_expt"
"","bandit","232","582194","0.0-193.0-0.0","57719913","wem/bandit_double","A2LV5432PV1S39","both","4","5","400","","","","","","","0","1","0","0.1598057249","0.4401532833","","","","","0.2543258611","0.4401532833","0.1236290712","0.2117094388","0.1314289417","0.1598057249","0.2997660112","0.147924298","","","","","","","","74","J","1","","","153","main_expt"
"","bandit","233","584055","0.0-194.0-0.0","57719913","wem/bandit_double","A2LV5432PV1S39","both","4","5","306","","","","","","","0","1","0","0.1489099923","0.4516855879","","","","","0.2602259906","0.4516855879","0.1600695342","0.2072389033","0.1354051011","0.1489099923","0.3196464983","0.1388357139","","","","","","","","74","J","1","","","154","main_expt"
"","bandit","234","585841","0.0-195.0-0.0","57719913","wem/bandit_double","A2LV5432PV1S39","both","4","5","232","","","","","","","0","1","0","0.1502541116","0.4480264808","","","","","0.2750581274","0.4480264808","0.1770288166","0.1986333914","0.1085215933","0.1502541116","0.3141654429","0.1658398244","","","","","","","","74","J","1","","","155","main_expt"
"","bandit","235","587755","0.0-196.0-0.0","57719913","wem/bandit_double","A2LV5432PV1S39","both","4","5","352","","","","","","","0","0","1","0.1605084188","0.4260414265","","","","","0.2438045727","0.4260414265","0.1761817894","0.2054640346","0.1383379057","0.1605084188","0.2667217688","0.1104921729","","","","","","","","74","J","1","","","156","main_expt"
"","bandit","236","589601","0.0-197.0-0.0","57719913","wem/bandit_double","A2LV5432PV1S39","both","4","5","305","","","","","","","0","0","1","0.2867075714","0.1998830888","","","","","0.2857025143","0.4365201507","0.1998830888","0.1810715383","0.1428990181","0.1684101418","0.2867075714","0.09530810267","","","","","","","","75","K","2","","","157","main_expt"
"","bandit","237","591462","0.0-198.0-0.0","57719913","wem/bandit_double","A2LV5432PV1S39","both","4","5","304","","","","","","","1","0","0","0.07455979893","0.2887719476","","","","","0.2887719476","0.4076244479","0.2150354531","0.2118906364","0.07455979893","0.1807688322","0.2788639118","0.1211627972","","","","","","","","72","H","0","img/none_selected.jpg","","158","main_expt"
"","bandit","238","593434","0.0-199.0-0.0","57719913","wem/bandit_double","A2LV5432PV1S39","both","4","5","404","","","","","","","0","0","1","0.1009372764","0.2859462397","","","","","0.2859462397","0.403953851","0.2221069796","0.2293976715","0.1009372764","0.1516426412","0.3020710819","0.1012897464","","","","","","","","72","H","0","img/none_selected.jpg","","159","main_expt"
"","bandit","239","595207","0.0-200.0-0.0","57719913","wem/bandit_double","A2LV5432PV1S39","both","4","5","75","","","","","","","1","0","0","0.1638698877","0.4282135537","","","","","0.207432816","0.4282135537","0.2627335039","0.2186051381","0.05118862797","0.1638698877","0.3404227007","0.1188035868","","","","","","","","74","J","1","","","160","main_expt"
"","bandit","240","597158","0.0-201.0-0.0","57719913","wem/bandit_double","A2LV5432PV1S39","both","4","5","409","","","","","","","0","0","1","0.1645359983","0.4479073124","","","","","0.1611694724","0.4479073124","0.2922457848","0.2175927206","0.05265847637","0.1645359983","0.2876249865","0.1606836622","","","","","","","","74","J","1","","","161","main_expt"
"","bandit","241","599616","0.0-202.0-0.0","57719913","wem/bandit_double","A2LV5432PV1S39","both","4","5","890","","","","","","","1","0","0","0.2509918509","0.4456201243","","","","","0.14378348","0.4456201243","0.3040212123","0.2370404117","0.07938684611","0.2509918509","0.2401308511","0.1859884171","","","","","","","","74","J","1","","","162","main_expt"
"","bandit","242","602186","0.0-203.0-0.0","57719913","wem/bandit_double","A2LV5432PV1S39","both","4","5","1001","","","","","","","0","0","1","0.2486605046","0.2933359027","","","","","0.1707099899","0.4384930657","0.2933359027","0.2778780432","0.0970900163","0.1883685458","0.2486605046","0.2528258464","","","","","","","","75","K","2","","","163","main_expt"
"","bandit","243","604336","0.0-204.0-0.0","57719913","wem/bandit_double","A2LV5432PV1S39","both","4","5","603","","","","","","","0","1","0","0.2179532334","0.4231568034","","","","","0.1933693166","0.4231568034","0.2388203062","0.2643388611","0.07401968201","0.2179532334","0.22675384","0.2515292425","","","","","","","","74","J","1","","","164","main_expt"
"","bandit","244","606865","0.0-205.0-0.0","57719913","wem/bandit_double","A2LV5432PV1S39","both","4","5","972","","","","","","","0","0","1","0.06633104104","0.2406324952","","","","","0.2406324952","0.4412535734","0.2646204916","0.1967204453","0.06633104104","0.2143704678","0.2841151948","0.2068970429","","","","","","","","72","H","0","img/none_selected.jpg","","165","main_expt"
"","bandit","245","609158","0.0-206.0-0.0","57719913","wem/bandit_double","A2LV5432PV1S39","both","4","5","746","","","","","","","0","0","1","0.05309652092","0.2650462377","","","","","0.2650462377","0.438364003","0.2591758032","0.1567937345","0.05309652092","0.2175899085","0.2842980464","0.1413778631","","","","","","","","72","H","0","img/none_selected.jpg","","166","main_expt"
"","bandit","246","611051","0.0-207.0-0.0","57719913","wem/bandit_double","A2LV5432PV1S39","both","4","5","324","","","","","","","0","0","1","0.2137120923","0.4290991351","","","","","0.245875583","0.4290991351","0.1955934818","0.1201482918","0.07357446968","0.2137120923","0.3007590714","0.1999497975","","","","","","","","74","J","1","","","167","main_expt"
"","bandit","247","613210","0.0-208.0-0.0","57719913","wem/bandit_double","A2LV5432PV1S39","both","4","5","627","","","","","","","0","0","1","0.2884936601","0.2090603634","","","","","0.257303599","0.4510860662","0.2090603634","0.0936051119","0.1054325378","0.2331560811","0.2884936601","0.1696145944","","","","","","","","75","K","2","","","168","main_expt"
"","bandit","248","615855","0.0-209.0-0.0","57719913","wem/bandit_double","A2LV5432PV1S39","both","4","5","1093","","","","","","","0","0","1","0.2803439438","0.2678479696","","","","","0.2993732043","0.4491424364","0.2678479696","0.08775096918","0.08536867429","0.2367963754","0.2803439438","0.1338518967","","","","","","","","75","K","2","","","169","main_expt"
"","bandit","249","618661","0.0-210.0-0.0","57719913","wem/bandit_double","A2LV5432PV1S39","both","4","5","1250","","","","","","","0","1","0","0.2378050175","0.4332244901","","","","","0.3388977639","0.4332244901","0.2532125956","0.06743429675","0.1083432756","0.2378050175","0.3010437192","0.1307598277","","","","","","","","74","J","1","","","170","main_expt"
"","bandit","250","620996","0.0-211.0-0.0","57719913","wem/bandit_double","A2LV5432PV1S39","both","4","5","772","","","","","","","0","1","0","0.09185370626","0.2947926635","","","","","0.2947926635","0.4405036994","0.2568627054","0.05979118822","0.09185370626","0.2253696972","0.3243802095","0.1200375331","","","","","","","","72","H","0","img/none_selected.jpg","","171","main_expt"
"","bandit","251","622845","0.0-212.0-0.0","57719913","wem/bandit_double","A2LV5432PV1S39","both","4","5","296","","","","","","","0","0","1","0.2903394368","0.4358521759","","","","","0.2892529657","0.4358521759","0.2451563353","0.03200499914","0.09458096772","0.2903394368","0.3140094691","0.07514546963","","","","","","","","74","J","1","","","172","main_expt"
"","bandit","252","624786","0.0-213.0-0.0","57719913","wem/bandit_double","A2LV5432PV1S39","both","4","5","391","","","","","","","1","0","0","0.2433770114","0.3003395367","","","","","0.2571917514","0.4471617722","0.3003395367","0.04613358223","0.1016296913","0.2384828248","0.2433770114","0.07704486673","","","","","","","","75","K","2","","","173","main_expt"
"","bandit","253","626776","0.0-214.0-0.0","57719913","wem/bandit_double","A2LV5432PV1S39","both","4","5","321","","","","","","","0","0","1","0.2080779891","0.2545998681","","","","","0.244173221","0.4560251174","0.2545998681","0.05969677181","0.117107939","0.2823111034","0.2080779891","0.04061738922","","","","","","","","75","K","2","","","174","main_expt"
"","bandit","254","628759","0.0-215.0-0.0","57719913","wem/bandit_double","A2LV5432PV1S39","both","4","5","282","","","","","","","0","0","1","0.2211365803","0.3383135611","","","","","0.2038098688","0.4379349024","0.3383135611","0.05930066603","0.1254773658","0.292147578","0.2211365803","0.02968316822","","","","","","","","75","K","2","","","175","main_expt"
"","bandit","255","630665","0.0-216.0-0.0","57719913","wem/bandit_double","A2LV5432PV1S39","both","4","5","346","","","","","","","0","0","1","0.04419366322","0.08110879181","","","","","0.2053823003","0.4328841116","0.3880627729","0.08110879181","0.1518856622","0.2928295457","0.231280906","0.04419366322","","","","","","","","76","L","3","","","176","main_expt"
"","bandit","256","632515","0.0-217.0-0.0","57719913","wem/bandit_double","A2LV5432PV1S39","both","4","5","285","","","","","","","1","1","0","0.297241693","0.3965365967","","","","","0.2193083282","0.3965365967","0.3920994557","0.07611568943","0.1502483312","0.297241693","0.1689881391","0.04140429262","","","","","","","","74","J","1","","","177","main_expt"
"","bandit","257","634426","0.0-218.0-0.0","57719913","wem/bandit_double","A2LV5432PV1S39","both","4","5","296","","","","","","","1","0","0","0.276241128","0.3899234309","","","","","0.1904263594","0.3899234309","0.3882277994","0.1220467165","0.2073149786","0.276241128","0.1699404395","0.06103489621","","","","","","","","74","J","1","","","178","main_expt"
"","bandit","258","636245","0.0-219.0-0.0","57719913","wem/bandit_double","A2LV5432PV1S39","both","4","5","287","","","","","","","1","0","0","0.2405339857","0.4238443777","","","","","0.2212788648","0.4238443777","0.3939691408","0.1698853315","0.1928578162","0.2405339857","0.1571972967","0.053608248","","","","","","","","74","J","1","","","179","main_expt"
"","bandit","259","638017","0.0-220.0-0.0","57719913","wem/bandit_double","A2LV5432PV1S39","both","4","5","218","","","","","","","0","0","1","0.233428307","0.4487400994","","","","","0.2640717145","0.4487400994","0.4074656662","0.1374762061","0.1412953234","0.233428307","0.1567782565","0.06289379635","","","","","","","","74","J","1","","","180","main_expt"
"","bandit","260","639687","0.0-221.0-0.0","57719913","wem/bandit_double","A2LV5432PV1S39","both","4","5","102","","","","","","","0","1","0","0.1459310114","0.4314573438","","","","","0.2426483564","0.4314573438","0.3724421945","0.09961924189","0.1258774719","0.1459310114","0.1492691696","0.07748386732","","","","","","","","74","J","1","","","181","main_expt"
"","bandit","261","641534","0.0-222.0-0.0","57719913","wem/bandit_double","A2LV5432PV1S39","both","4","5","308","","","","","","","0","1","0","0.1796360657","0.4458059303","","","","","0.2001563476","0.4458059303","0.2998177931","0.1391043194","0.1121960069","0.1796360657","0.1609613705","0.096714051","","","","","","","","74","J","1","","","182","main_expt"
"","bandit","262","643399","0.0-223.0-0.0","57719913","wem/bandit_double","A2LV5432PV1S39","both","4","5","309","","","","","","","1","0","0","0.1907874973","0.4485460149","","","","","0.2167094124","0.4485460149","0.3629728763","0.1336424596","0.08335286121","0.1907874973","0.1982891881","0.05351369794","","","","","","","","74","J","1","","","183","main_expt"
"","bandit","263","645309","0.0-224.0-0.0","57719913","wem/bandit_double","A2LV5432PV1S39","both","4","5","336","","","","","","","0","0","1","0.1451627339","0.4078350507","","","","","0.2402813617","0.4078350507","0.3763603645","0.115911235","0.1085923678","0.1451627339","0.1703318442","0.08854511538","","","","","","","","74","J","1","","","184","main_expt"
"","bandit","264","647244","0.0-225.0-0.0","57719913","wem/bandit_double","A2LV5432PV1S39","both","4","5","371","","","","","","","0","0","1","0.09566746086","0.3472982705","","","","","0.2745112141","0.3805788675","0.3472982705","0.1394203739","0.1113654269","0.1692531577","0.09566746086","0.136385666","","","","","","","","75","K","2","","","185","main_expt"
"","bandit","265","649387","0.0-226.0-0.0","57719913","wem/bandit_double","A2LV5432PV1S39","both","4","5","604","","","","","","","0","0","1","0.1254261761","0.3095995051","","","","","0.2774566956","0.4236809331","0.3095995051","0.1557479742","0.1383531569","0.1885113298","0.1254261761","0.1848043888","","","","","","","","75","K","2","","","186","main_expt"
"","bandit","266","651264","0.0-227.0-0.0","57719913","wem/bandit_double","A2LV5432PV1S39","both","4","5","305","","","","","","","1","1","0","0.1739713275","0.2876011691","","","","","0.2876011691","0.4058627081","0.2567332284","0.1823611596","0.1739713275","0.2088125345","0.1081798115","0.1640989128","","","","","","","","72","H","0","img/none_selected.jpg","","187","main_expt"
"","bandit","267","653167","0.0-228.0-0.0","57719913","wem/bandit_double","A2LV5432PV1S39","both","4","5","361","","","","","","","0","0","1","0.1926366302","0.2947112378","","","","","0.2947112378","0.3913346521","0.2555256861","0.1854179297","0.1926366302","0.2228369986","0.08529062399","0.1301402021","","","","","","","","72","H","0","img/none_selected.jpg","","188","main_expt"
"","bandit","268","656624","0.0-229.0-0.0","57719913","wem/bandit_double","A2LV5432PV1S39","both","4","5","1734","","","","","","","0","0","1","0.2499935398","0.2581494","","","","","0.2581494","0.3760164219","0.2009875262","0.1875645599","0.2499935398","0.2567428292","0.07250281893","0.1980942663","","","","","","","","72","H","0","img/none_selected.jpg","","189","main_expt"
"","bandit","269","658716","0.0-230.0-0.0","57719913","wem/bandit_double","A2LV5432PV1S39","both","4","5","539","","","","","","","0","0","1","0.3177850294","0.3327352817","","","","","0.1756323468","0.3327352817","0.2055488595","0.2018323604","0.2367317824","0.3177850294","0.07895395147","0.1842725295","","","","","","","","74","J","1","","","190","main_expt"
"","bandit","270","660586","0.0-231.0-0.0","57719913","wem/bandit_double","A2LV5432PV1S39","both","4","5","313","","","","","","","0","0","1","0.06204701637","0.1506387864","","","","","0.2521570866","0.3015177445","0.1506387864","0.221094727","0.2515026666","0.2876912335","0.06204701637","0.2087081259","","","","","","","","75","K","2","","","191","main_expt"
"","bandit","271","662627","0.0-232.0-0.0","57719913","wem/bandit_double","A2LV5432PV1S39","both","4","5","389","","","","","","","0","1","0","0.1800110976","0.2320570195","","","","","0.2964739449","0.2773298268","0.2027442266","0.2320570195","0.2451916405","0.2383873749","0.064067899","0.1800110976","","","","","","","","76","L","3","","","192","main_expt"
"","bandit","272","664503","0.0-233.0-0.0","57719913","wem/bandit_double","A2LV5432PV1S39","both","4","5","304","","","","","","","1","1","0","0.1519186298","0.2948950962","","","","","0.2612966838","0.2836613797","0.1969137872","0.2948950962","0.2353451433","0.24690957","0.1286650472","0.1519186298","","","","","","","","76","L","3","","","193","main_expt"
"","bandit","273","666353","0.0-234.0-0.0","57719913","wem/bandit_double","A2LV5432PV1S39","both","4","5","285","","","","","","","0","0","1","0.1431656489","0.2602906927","","","","","0.3292914436","0.2799350415","0.2114994946","0.2602906927","0.307075739","0.2728455101","0.1746490116","0.1431656489","","","","","","","","76","L","3","","","194","main_expt"
"","bandit","274","668345","0.0-235.0-0.0","57719913","wem/bandit_double","A2LV5432PV1S39","both","4","5","439","","","","","","","1","0","0","0.1868251083","0.1771499101","","","","","0.4070308407","0.2068597772","0.2467939011","0.1771499101","0.3011001907","0.2421292151","0.129035247","0.1868251083","","","","","","","","76","L","3","","","195","main_expt"
"","bandit","275","670217","0.0-236.0-0.0","57719913","wem/bandit_double","A2LV5432PV1S39","both","4","5","311","","","","","","","1","0","0","0.2598052724","0.2679469531","","","","","0.3494820729","0.2679469531","0.2731811988","0.1746274925","0.2861216794","0.2598052724","0.09052040682","0.176624335","","","","","","","","74","J","1","","","196","main_expt"
"","bandit","276","672195","0.0-237.0-0.0","57719913","wem/bandit_double","A2LV5432PV1S39","both","4","5","340","","","","","","","1","0","0","0.2540930088","0.2448078588","","","","","0.3571939809","0.2448078588","0.2512114903","0.193224684","0.2121549007","0.2540930088","0.08675464884","0.2383323772","","","","","","","","74","J","1","","","197","main_expt"
"","bandit","277","674763","0.0-238.0-0.0","57719913","wem/bandit_double","A2LV5432PV1S39","both","4","5","964","","","","","","","0","0","1","0.2460150375","0.2433987968","","","","","0.382430028","0.2433987968","0.190651112","0.1771509929","0.260340052","0.2460150375","0.09429549835","0.260618614","","","","","","","","74","J","1","","","198","main_expt"
"","bandit","278","676673","0.0-239.0-0.0","57719913","wem/bandit_double","A2LV5432PV1S39","both","4","5","352","","","","","","","0","0","1","0.09303778716","0.1701189695","","","","","0.3353474301","0.2653624242","0.1701189695","0.2466668772","0.3009562829","0.2217343644","0.09303778716","0.2935067364","","","","","","","","75","K","2","","","199","main_expt"
"","bandit","279","679016","0.0-240.0-0.0","57719913","wem/bandit_double","A2LV5432PV1S39","both","4","5","779","","","","","","","0","1","0","0.3430896668","0.3321976498","","","","","0.3321976498","0.2551376492","0.1656975488","0.2477816141","0.3430896668","0.2830302048","0.07354084322","0.362920627","","","","","","","","72","H","0","img/none_selected.jpg","","200","main_expt"
"","bandit","280","680992","0.0-241.0-0.0","57719913","wem/bandit_double","A2LV5432PV1S39","both","4","5","404","","","","","","","0","0","1","0.2973668079","0.3218117355","","","","","0.3218117355","0.2660639347","0.1647298582","0.2744817861","0.2973668079","0.3175621279","0.08115367452","0.3119044903","","","","","","","","72","H","0","img/none_selected.jpg","","201","main_expt"
"","bandit","281","683075","0.0-242.0-0.0","57719913","wem/bandit_double","A2LV5432PV1S39","both","4","5","528","","","","","","","0","0","1","0.3049471546","0.2220900594","","","","","0.2949214693","0.2220900594","0.1242041815","0.3043062986","0.3219337599","0.3049471546","0.0774842685","0.3095695708","","","","","","","","74","J","1","","","202","main_expt"
"","bandit","282","685421","0.0-243.0-0.0","57719913","wem/bandit_double","A2LV5432PV1S39","both","4","5","729","","","","","","","1","0","0","0.09704724367","0.1684487429","","","","","0.300077299","0.1543353204","0.1684487429","0.272185569","0.3229991028","0.2975042969","0.09704724367","0.3005459379","","","","","","","","75","K","2","","","203","main_expt"
"","bandit","283","687311","0.0-244.0-0.0","57719913","wem/bandit_double","A2LV5432PV1S39","both","4","5","338","","","","","","","0","0","1","0.1224111047","0.1666409686","","","","","0.2866085977","0.1605482003","0.1666409686","0.2610767704","0.3077995671","0.2268457719","0.1224111047","0.3116824409","","","","","","","","75","K","2","","","204","main_expt"
"","bandit","284","689383","0.0-245.0-0.0","57719913","wem/bandit_double","A2LV5432PV1S39","both","4","5","537","","","","","","","0","1","0","0.2582085449","0.1406914754","","","","","0.2695546272","0.1406914754","0.2197286508","0.2832615928","0.3070199156","0.2582085449","0.1627664319","0.3291635812","","","","","","","","74","J","1","","","205","main_expt"
"","bandit","285","691264","0.0-246.0-0.0","57719913","wem/bandit_double","A2LV5432PV1S39","both","4","5","333","","","","","","","1","0","0","0.2841247045","0.1138947463","","","","","0.2622178416","0.1138947463","0.2754509052","0.300913322","0.3109683939","0.2841247045","0.1604236747","0.4008790519","","","","","","","","74","J","1","","","206","main_expt"
"","bandit","286","693089","0.0-247.0-0.0","57719913","wem/bandit_double","A2LV5432PV1S39","both","4","5","264","","","","","","","0","0","1","0.3333225396","0.1096702189","","","","","0.2498186578","0.1096702189","0.2664869377","0.3260258847","0.2845075958","0.3333225396","0.126388554","0.4202180382","","","","","","","","74","J","1","","","207","main_expt"
"","bandit","287","694791","0.0-248.0-0.0","57719913","wem/bandit_double","A2LV5432PV1S39","both","4","5","173","","","","","","","0","0","1","0.4168586074","0.3173829003","","","","","0.2335358635","0.09922356593","0.2686565688","0.3173829003","0.2419557814","0.290219871","0.1602309633","0.4168586074","","","","","","","","76","L","3","","","208","main_expt"
"","bandit","288","696635","0.0-249.0-0.0","57719913","wem/bandit_double","A2LV5432PV1S39","both","4","5","296","","","","","","","0","0","1","0.2449545816","0.2638942681","","","","","0.2638942681","0.101567507","0.2380255957","0.3153846937","0.2449545816","0.3426384504","0.2009997365","0.3949328033","","","","","","","","72","H","0","img/none_selected.jpg","","209","main_expt"
"","bandit","289","698232","0.0-250.0-0.0","57719913","wem/bandit_double","A2LV5432PV1S39","both","4","5","33","","","","","","","0","0","1","0.2932754766","0.08675379402","","","","","0.2526926237","0.08675379402","0.2507768727","0.3010876552","0.2176860071","0.2932754766","0.1997114924","0.41782505","","","","","","","","74","J","1","","","210","main_expt"
"","bandit","290","699828","0.0-251.0-0.0","57719913","wem/bandit_double","A2LV5432PV1S39","both","4","5","47","","","","","","","0","0","1","0.2631807131","0.2685142319","","","","","0.2740367769","0.07512021269","0.2685142319","0.2864900033","0.2460847292","0.2522206247","0.2631807131","0.4377941382","","","","","","","","75","K","2","","","211","main_expt"
"","bandit","291","701512","0.0-252.0-0.0","57719913","wem/bandit_double","A2LV5432PV1S39","both","4","5","137","","","","","","","1","0","0","0.4619006446","0.3163372434","","","","","0.2440836191","0.08144254236","0.260511483","0.3163372434","0.2017704833","0.2323705111","0.2008991105","0.4619006446","","","","","","","","76","L","3","","","212","main_expt"
"","bandit","292","703396","0.0-253.0-0.0","57719913","wem/bandit_double","A2LV5432PV1S39","both","4","5","304","","","","","","","1","1","0","0.4508737721","0.2701305136","","","","","0.2341903104","0.06585574052","0.2579605047","0.2701305136","0.1891715169","0.2815580385","0.1656487101","0.4508737721","","","","","","","","76","L","3","","","213","main_expt"
"","bandit","293","705526","0.0-254.0-0.0","57719913","wem/bandit_double","A2LV5432PV1S39","both","4","5","536","","","","","","","1","0","0","0.4639731149","0.302599165","","","","","0.2097526345","0.08686614453","0.2470456849","0.302599165","0.1819308411","0.2955812139","0.213788386","0.4639731149","","","","","","","","76","L","3","","","214","main_expt"
"","bandit","294","707277","0.0-255.0-0.0","57719913","wem/bandit_double","A2LV5432PV1S39","both","4","5","215","","","","","","","0","0","1","0.4690757113","0.2968005471","","","","","0.1796882487","0.1068548489","0.3285383036","0.2968005471","0.1406935411","0.2988647484","0.2206736926","0.4690757113","","","","","","","","76","L","3","","","215","main_expt"
