"consent","trial_type","trial_index","time_elapsed","internal_node_id","subjID","study","MID","cond","drift1","drift2","rt","responses","key_press","expt_phase","like","value","connected","gems","bombs","no_reward","GemPrChosen","BombPrChosen","GainOverPainPr_0","GainOverPainPr_1","GainOverPainPr_2","GainOverPainPr_3","LosePr_0","LosePr_1","LosePr_2","LosePr_3","WinPr_0","WinPr_1","WinPr_2","WinPr_3","Q0","Q1","Q2","gender","age","ethnicity","target","respCharCode","respKey","respChoiceNum","respChoice","practice","trial_counter","trial_label"
"INL_behavioral_consent_30min_online.html","consent","0","8368","0.0-0.0","77874300","wem/bandit_double","A1QCUD55921N0P","both","4","5","","","","","","","","","","","","","","","","","","","","","","","","","","","","","","","","","","","","","",""
"","survey-text","1","17785","0.0-1.0","77874300","wem/bandit_double","A1QCUD55921N0P","both","4","5","8396","{""Q0"":""A1QCUD55921N0P""}","","","","","","","","","","","","","","","","","","","","","","","","","","","","","","","","","","","",""
"","text","2","47651","0.0-2.0","77874300","wem/bandit_double","A1QCUD55921N0P","both","4","5","28862","","32","","","","","","","","","","","","","","","","","","","","","","","","","","","","","","","","","","",""
"","text","3","52173","0.0-3.0","77874300","wem/bandit_double","A1QCUD55921N0P","both","4","5","4519","","32","","","","","","","","","","","","","","","","","","","","","","","","","","","","","","","","","","",""
"","text","4","61932","0.0-4.0","77874300","wem/bandit_double","A1QCUD55921N0P","both","4","5","9756","","32","","","","","","","","","","","","","","","","","","","","","","","","","","","","","","","","","","",""
"","text","5","121050","0.0-5.0","77874300","wem/bandit_double","A1QCUD55921N0P","both","4","5","59116","","32","","","","","","","","","","","","","","","","","","","","","","","","","","","","","","","","","","",""
"","text","6","131011","0.0-6.0","77874300","wem/bandit_double","A1QCUD55921N0P","both","4","5","9958","","32","","","","","","","","","","","","","","","","","","","","","","","","","","","","","","","","","","",""
"","text","7","136139","0.0-7.0","77874300","wem/bandit_double","A1QCUD55921N0P","both","4","5","5127","","32","","","","","","","","","","","","","","","","","","","","","","","","","","","","","","","","","","",""
"","identification","8","143109","0.0-8.0-0.0","77874300","wem/bandit_double","A1QCUD55921N0P","both","4","5","6947","","","","4","4","4","","","","","","","","","","","","","","","","","","","","","","","","the village of Zur","","","","","","",""
"","identification","9","148481","0.0-8.0-1.0","77874300","wem/bandit_double","A1QCUD55921N0P","both","4","5","4359","","","","4","4","4","","","","","","","","","","","","","","","","","","","","","","","","the village of Nyx","","","","","","",""
"","text","10","157867","0.0-9.0","77874300","wem/bandit_double","A1QCUD55921N0P","both","4","5","8381","","32","","","","","","","","","","","","","","","","","","","","","","","","","","","","","","","","","","",""
"","text","11","159805","0.0-10.0","77874300","wem/bandit_double","A1QCUD55921N0P","both","4","5","1937","","32","","","","","","","","","","","","","","","","","","","","","","","","","","","","","","","","","","",""
"","text","12","163435","0.0-11.0","77874300","wem/bandit_double","A1QCUD55921N0P","both","4","5","3629","","32","","","","","","","","","","","","","","","","","","","","","","","","","","","","","","","","","","",""
"","text","13","167566","0.0-12.0","77874300","wem/bandit_double","A1QCUD55921N0P","both","4","5","4129","","32","","","","","","","","","","","","","","","","","","","","","","","","","","","","","","","","","","",""
"","text","14","172514","0.0-13.0","77874300","wem/bandit_double","A1QCUD55921N0P","both","4","5","4944","","32","","","","","","","","","","","","","","","","","","","","","","","","","","","","","","","","","","",""
"","bandit","15","176629","0.0-14.0-0.0","77874300","wem/bandit_double","A1QCUD55921N0P","both","4","5","2589","","","","","","","1","0","0","1","0","","","","","0","","","","1","","","","","","","","","","","74","J","0","img/none_selected_demo.jpg","true","0",""
"","bandit","16","179525","0.0-15.0-0.0","77874300","wem/bandit_double","A1QCUD55921N0P","both","4","5","1382","","","","","","","0","1","0","0","1","","","","","1","","","","0","","","","","","","","","","","75","K","0","img/none_selected_demo.jpg","true","0",""
"","text","17","184264","0.0-16.0","77874300","wem/bandit_double","A1QCUD55921N0P","both","4","5","4737","","32","","","","","","","","","","","","","","","","","","","","","","","","","","","","","","","","","","",""
"","text","18","191278","0.0-17.0","77874300","wem/bandit_double","A1QCUD55921N0P","both","4","5","7011","","32","","","","","","","","","","","","","","","","","","","","","","","","","","","","","","","","","","",""
"","text","19","211833","0.0-18.0","77874300","wem/bandit_double","A1QCUD55921N0P","both","4","5","20553","","32","","","","","","","","","","","","","","","","","","","","","","","","","","","","","","","","","","",""
"","text","20","233911","0.0-19.0","77874300","wem/bandit_double","A1QCUD55921N0P","both","4","5","22074","","32","","","","","","","","","","","","","","","","","","","","","","","","","","","","","","","","","","",""
"","bandit","21","237090","0.0-20.0-0.0","77874300","wem/bandit_double","A1QCUD55921N0P","both","4","5","1650","","","","","","","1","0","0","0.8","0","","","","","0","0","","","0.8","0.2","","","","","","","","","","74","J","0","img/none_selected_demo.jpg","true","0","80_20_practice"
"","bandit","22","240519","0.0-20.0-1.0","77874300","wem/bandit_double","A1QCUD55921N0P","both","4","5","1903","","","","","","","0","0","1","0.2","0","","","","","0","0","","","0.8","0.2","","","","","","","","","","75","K","1","","true","0","80_20_practice"
"","bandit","23","243160","0.0-20.0-2.0","77874300","wem/bandit_double","A1QCUD55921N0P","both","4","5","1117","","","","","","","1","0","0","0.8","0","","","","","0","0","","","0.8","0.2","","","","","","","","","","74","J","0","img/none_selected_demo.jpg","true","0","80_20_practice"
"","bandit","24","245594","0.0-20.0-3.0","77874300","wem/bandit_double","A1QCUD55921N0P","both","4","5","915","","","","","","","0","0","1","0.8","0","","","","","0","0","","","0.8","0.2","","","","","","","","","","74","J","0","img/none_selected_demo.jpg","true","0","80_20_practice"
"","bandit","25","247838","0.0-20.0-4.0","77874300","wem/bandit_double","A1QCUD55921N0P","both","4","5","728","","","","","","","0","0","1","0.2","0","","","","","0","0","","","0.8","0.2","","","","","","","","","","75","K","1","","true","0","80_20_practice"
"","bandit","26","249985","0.0-20.0-5.0","77874300","wem/bandit_double","A1QCUD55921N0P","both","4","5","624","","","","","","","1","0","0","0.8","0","","","","","0","0","","","0.8","0.2","","","","","","","","","","74","J","0","img/none_selected_demo.jpg","true","0","80_20_practice"
"","bandit","27","252150","0.0-20.0-6.0","77874300","wem/bandit_double","A1QCUD55921N0P","both","4","5","639","","","","","","","0","0","1","0.8","0","","","","","0","0","","","0.8","0.2","","","","","","","","","","74","J","0","img/none_selected_demo.jpg","true","0","80_20_practice"
"","bandit","28","254070","0.0-20.0-7.0","77874300","wem/bandit_double","A1QCUD55921N0P","both","4","5","392","","","","","","","0","0","1","0.2","0","","","","","0","0","","","0.8","0.2","","","","","","","","","","75","K","1","","true","0","80_20_practice"
"","bandit","29","256374","0.0-20.0-8.0","77874300","wem/bandit_double","A1QCUD55921N0P","both","4","5","792","","","","","","","1","0","0","0.8","0","","","","","0","0","","","0.8","0.2","","","","","","","","","","74","J","0","img/none_selected_demo.jpg","true","0","80_20_practice"
"","bandit","30","259287","0.0-20.0-9.0","77874300","wem/bandit_double","A1QCUD55921N0P","both","4","5","1388","","","","","","","1","0","0","0.8","0","","","","","0","0","","","0.8","0.2","","","","","","","","","","74","J","0","img/none_selected_demo.jpg","true","0","80_20_practice"
"","bandit","31","261847","0.0-20.0-10.0","77874300","wem/bandit_double","A1QCUD55921N0P","both","4","5","1039","","","","","","","0","0","1","0.2","0","","","","","0","0","","","0.8","0.2","","","","","","","","","","75","K","1","","true","0","80_20_practice"
"","bandit","32","263698","0.0-20.0-11.0","77874300","wem/bandit_double","A1QCUD55921N0P","both","4","5","340","","","","","","","1","0","0","0.8","0","","","","","0","0","","","0.8","0.2","","","","","","","","","","74","J","0","img/none_selected_demo.jpg","true","0","80_20_practice"
"","bandit","33","265509","0.0-20.0-12.0","77874300","wem/bandit_double","A1QCUD55921N0P","both","4","5","295","","","","","","","1","0","0","0.8","0","","","","","0","0","","","0.8","0.2","","","","","","","","","","74","J","0","img/none_selected_demo.jpg","true","0","80_20_practice"
"","bandit","34","267105","0.0-20.0-13.0","77874300","wem/bandit_double","A1QCUD55921N0P","both","4","5","78","","","","","","","1","0","0","0.8","0","","","","","0","0","","","0.8","0.2","","","","","","","","","","74","J","0","img/none_selected_demo.jpg","true","0","80_20_practice"
"","bandit","35","268985","0.0-20.0-14.0","77874300","wem/bandit_double","A1QCUD55921N0P","both","4","5","358","","","","","","","1","0","0","0.8","0","","","","","0","0","","","0.8","0.2","","","","","","","","","","74","J","0","img/none_selected_demo.jpg","true","0","80_20_practice"
"","bandit","36","271153","0.0-20.0-15.0","77874300","wem/bandit_double","A1QCUD55921N0P","both","4","5","634","","","","","","","1","0","0","0.8","0","","","","","0","0","","","0.8","0.2","","","","","","","","","","74","J","0","img/none_selected_demo.jpg","true","0","80_20_practice"
"","bandit","37","274202","0.0-20.0-16.0","77874300","wem/bandit_double","A1QCUD55921N0P","both","4","5","1522","","","","","","","1","0","0","0.8","0","","","","","0","0","","","0.8","0.2","","","","","","","","","","74","J","0","img/none_selected_demo.jpg","true","0","80_20_practice"
"","bandit","38","278441","0.0-20.0-17.0","77874300","wem/bandit_double","A1QCUD55921N0P","both","4","5","2705","","","","","","","0","0","1","0.8","0","","","","","0","0","","","0.8","0.2","","","","","","","","","","74","J","0","img/none_selected_demo.jpg","true","0","80_20_practice"
"","bandit","39","280286","0.0-20.0-18.0","77874300","wem/bandit_double","A1QCUD55921N0P","both","4","5","309","","","","","","","0","0","1","0.2","0","","","","","0","0","","","0.8","0.2","","","","","","","","","","75","K","1","","true","0","80_20_practice"
"","bandit","40","281900","0.0-20.0-19.0","77874300","wem/bandit_double","A1QCUD55921N0P","both","4","5","97","","","","","","","1","0","0","0.8","0","","","","","0","0","","","0.8","0.2","","","","","","","","","","74","J","0","img/none_selected_demo.jpg","true","0","80_20_practice"
"","text","41","291399","0.0-21.0","77874300","wem/bandit_double","A1QCUD55921N0P","both","4","5","9493","","32","","","","","","","","","","","","","","","","","","","","","","","","","","","","","","","","","","",""
"","bandit","42","294581","0.0-22.0-0.0","77874300","wem/bandit_double","A1QCUD55921N0P","both","4","5","1659","","","","","","","1","0","0","1","0","","","","","0","1","","","1","0","","","","","","","","","","74","J","0","img/none_selected_demo.jpg","true","0",""
"","text","43","298380","0.0-23.0","77874300","wem/bandit_double","A1QCUD55921N0P","both","4","5","3795","","32","","","","","","","","","","","","","","","","","","","","","","","","","","","","","","","","","","",""
"","text","44","302112","0.0-24.0","77874300","wem/bandit_double","A1QCUD55921N0P","both","4","5","3728","","32","","","","","","","","","","","","","","","","","","","","","","","","","","","","","","","","","","",""
"","text","45","305991","0.0-25.0","77874300","wem/bandit_double","A1QCUD55921N0P","both","4","5","3876","","32","","","","","","","","","","","","","","","","","","","","","","","","","","","","","","","","","","",""
"","text","46","309137","0.0-26.0","77874300","wem/bandit_double","A1QCUD55921N0P","both","4","5","3143","","32","","","","","","","","","","","","","","","","","","","","","","","","","","","","","","","","","","",""
"","text","47","312360","0.0-27.0","77874300","wem/bandit_double","A1QCUD55921N0P","both","4","5","3220","","32","","","","","","","","","","","","","","","","","","","","","","","","","","","","","","","","","","",""
"","text","48","351044","0.0-28.0","77874300","wem/bandit_double","A1QCUD55921N0P","both","4","5","38680","","32","","","","","","","","","","","","","","","","","","","","","","","","","","","","","","","","","","",""
"","text","49","652243","0.0-29.0","77874300","wem/bandit_double","A1QCUD55921N0P","both","4","5","301195","","32","","","","","","","","","","","","","","","","","","","","","","","","","","","","","","","","","","",""
"","text","50","657536","0.0-30.0","77874300","wem/bandit_double","A1QCUD55921N0P","both","4","5","5288","","32","","","","","","","","","","","","","","","","","","","","","","","","","","","","","","","","","","",""
"","text","51","661699","0.0-31.0","77874300","wem/bandit_double","A1QCUD55921N0P","both","4","5","4160","","32","","","","","","","","","","","","","","","","","","","","","","","","","","","","","","","","","","",""
"","text","52","670310","0.0-32.0","77874300","wem/bandit_double","A1QCUD55921N0P","both","4","5","8607","","32","","","","","","","","","","","","","","","","","","","","","","","","","","","","","","","","","","",""
"","text","53","672551","0.0-33.0","77874300","wem/bandit_double","A1QCUD55921N0P","both","4","5","2235","","32","","","","","","","","","","","","","","","","","","","","","","","","","","","","","","","","","","",""
"","text","54","674952","0.0-34.0","77874300","wem/bandit_double","A1QCUD55921N0P","both","4","5","2395","","32","","","","","","","","","","","","","","","","","","","","","","","","","","","","","","","","","","",""
"","bandit","55","677856","0.0-35.0-0.0","77874300","wem/bandit_double","A1QCUD55921N0P","both","4","5","1383","","","","","","","1","1","0","0.8","0.8","","","","","0.8","0.2","0.6","0.2","0.8","0.2","0.6","0.2","","","","","","","","72","H","0","img/none_selected.jpg","true","0","full_practice"
"","bandit","56","681067","0.0-35.0-1.0","77874300","wem/bandit_double","A1QCUD55921N0P","both","4","5","1693","","","","","","","0","1","0","0.6","0.6","","","","","0.8","0.2","0.6","0.2","0.8","0.2","0.6","0.2","","","","","","","","75","K","2","","true","0","full_practice"
"","bandit","57","683249","0.0-35.0-2.0","77874300","wem/bandit_double","A1QCUD55921N0P","both","4","5","659","","","","","","","1","0","0","0.2","0.2","","","","","0.8","0.2","0.6","0.2","0.8","0.2","0.6","0.2","","","","","","","","76","L","3","","true","0","full_practice"
"","bandit","58","685603","0.0-35.0-3.0","77874300","wem/bandit_double","A1QCUD55921N0P","both","4","5","823","","","","","","","1","0","0","0.2","0.2","","","","","0.8","0.2","0.6","0.2","0.8","0.2","0.6","0.2","","","","","","","","74","J","1","","true","0","full_practice"
"","bandit","59","688024","0.0-35.0-4.0","77874300","wem/bandit_double","A1QCUD55921N0P","both","4","5","895","","","","","","","0","1","0","0.6","0.6","","","","","0.8","0.2","0.6","0.2","0.8","0.2","0.6","0.2","","","","","","","","75","K","2","","true","0","full_practice"
"","bandit","60","690016","0.0-35.0-5.0","77874300","wem/bandit_double","A1QCUD55921N0P","both","4","5","470","","","","","","","1","1","0","0.8","0.8","","","","","0.8","0.2","0.6","0.2","0.8","0.2","0.6","0.2","","","","","","","","72","H","0","img/none_selected.jpg","true","0","full_practice"
"","bandit","61","691964","0.0-35.0-6.0","77874300","wem/bandit_double","A1QCUD55921N0P","both","4","5","418","","","","","","","0","0","1","0.2","0.2","","","","","0.8","0.2","0.6","0.2","0.8","0.2","0.6","0.2","","","","","","","","76","L","3","","true","0","full_practice"
"","bandit","62","693812","0.0-35.0-7.0","77874300","wem/bandit_double","A1QCUD55921N0P","both","4","5","329","","","","","","","1","0","0","0.2","0.2","","","","","0.8","0.2","0.6","0.2","0.8","0.2","0.6","0.2","","","","","","","","74","J","1","","true","0","full_practice"
"","bandit","63","696186","0.0-35.0-8.0","77874300","wem/bandit_double","A1QCUD55921N0P","both","4","5","859","","","","","","","0","0","1","0.2","0.2","","","","","0.8","0.2","0.6","0.2","0.8","0.2","0.6","0.2","","","","","","","","74","J","1","","true","0","full_practice"
"","bandit","64","697890","0.0-35.0-9.0","77874300","wem/bandit_double","A1QCUD55921N0P","both","4","5","185","","","","","","","1","0","0","0.6","0.6","","","","","0.8","0.2","0.6","0.2","0.8","0.2","0.6","0.2","","","","","","","","75","K","2","","true","0","full_practice"
"","bandit","65","699869","0.0-35.0-10.0","77874300","wem/bandit_double","A1QCUD55921N0P","both","4","5","456","","","","","","","0","0","1","0.2","0.2","","","","","0.8","0.2","0.6","0.2","0.8","0.2","0.6","0.2","","","","","","","","76","L","3","","true","0","full_practice"
"","bandit","66","701798","0.0-35.0-11.0","77874300","wem/bandit_double","A1QCUD55921N0P","both","4","5","414","","","","","","","1","1","0","0.8","0.8","","","","","0.8","0.2","0.6","0.2","0.8","0.2","0.6","0.2","","","","","","","","72","H","0","img/none_selected.jpg","true","0","full_practice"
"","bandit","67","703718","0.0-35.0-12.0","77874300","wem/bandit_double","A1QCUD55921N0P","both","4","5","387","","","","","","","1","1","0","0.6","0.6","","","","","0.8","0.2","0.6","0.2","0.8","0.2","0.6","0.2","","","","","","","","75","K","2","","true","0","full_practice"
"","bandit","68","705590","0.0-35.0-13.0","77874300","wem/bandit_double","A1QCUD55921N0P","both","4","5","350","","","","","","","0","1","0","0.2","0.2","","","","","0.8","0.2","0.6","0.2","0.8","0.2","0.6","0.2","","","","","","","","74","J","1","","true","0","full_practice"
"","bandit","69","707756","0.0-35.0-14.0","77874300","wem/bandit_double","A1QCUD55921N0P","both","4","5","647","","","","","","","0","0","1","0.2","0.2","","","","","0.8","0.2","0.6","0.2","0.8","0.2","0.6","0.2","","","","","","","","76","L","3","","true","0","full_practice"
"","bandit","70","709669","0.0-35.0-15.0","77874300","wem/bandit_double","A1QCUD55921N0P","both","4","5","388","","","","","","","1","0","0","0.2","0.2","","","","","0.8","0.2","0.6","0.2","0.8","0.2","0.6","0.2","","","","","","","","74","J","1","","true","0","full_practice"
"","bandit","71","712699","0.0-35.0-16.0","77874300","wem/bandit_double","A1QCUD55921N0P","both","4","5","1513","","","","","","","1","0","0","0.6","0.6","","","","","0.8","0.2","0.6","0.2","0.8","0.2","0.6","0.2","","","","","","","","75","K","2","","true","0","full_practice"
"","bandit","72","714689","0.0-35.0-17.0","77874300","wem/bandit_double","A1QCUD55921N0P","both","4","5","468","","","","","","","0","0","1","0.2","0.2","","","","","0.8","0.2","0.6","0.2","0.8","0.2","0.6","0.2","","","","","","","","76","L","3","","true","0","full_practice"
"","bandit","73","716205","0.0-35.0-18.0","77874300","wem/bandit_double","A1QCUD55921N0P","both","4","5","0","","","","","","","0","0","1","0.2","0.2","","","","","0.8","0.2","0.6","0.2","0.8","0.2","0.6","0.2","","","","","","","","74","J","1","","true","0","full_practice"
"","bandit","74","718553","0.0-35.0-19.0","77874300","wem/bandit_double","A1QCUD55921N0P","both","4","5","834","","","","","","","0","0","1","0.2","0.2","","","","","0.8","0.2","0.6","0.2","0.8","0.2","0.6","0.2","","","","","","","","74","J","1","","true","0","full_practice"
"","text","75","721686","0.0-36.0","77874300","wem/bandit_double","A1QCUD55921N0P","both","4","5","3123","","32","","","","","","","","","","","","","","","","","","","","","","","","","","","","","","","","","","",""
"","text","76","734505","0.0-37.0","77874300","wem/bandit_double","A1QCUD55921N0P","both","4","5","11810","","32","","","","","","","","","","","","","","","","","","","","","","","","","","","","","","","","","","",""
"","text","77","739670","0.0-38.0","77874300","wem/bandit_double","A1QCUD55921N0P","both","4","5","5162","","32","","","","","","","","","","","","","","","","","","","","","","","","","","","","","","","","","","",""
"","text","78","746364","0.0-39.0","77874300","wem/bandit_double","A1QCUD55921N0P","both","4","5","6690","","32","","","","","","","","","","","","","","","","","","","","","","","","","","","","","","","","","","",""
"","text","79","752786","0.0-40.0","77874300","wem/bandit_double","A1QCUD55921N0P","both","4","5","6418","","32","","","","","","","","","","","","","","","","","","","","","","","","","","","","","","","","","","",""
"","bandit","80","756409","0.0-41.0-0.0","77874300","wem/bandit_double","A1QCUD55921N0P","both","4","5","2097","","","","","","","0","0","1","0.3525715257","0.1165465043","","","","","0.4265570961","0.1165465043","0.3340388524","0.3897275569","0.2771551185","0.3525715257","0.3894728165","0.3242650943","","","","","","","","74","J","1","","","1","main_expt"
"","bandit","81","758326","0.0-42.0-0.0","77874300","wem/bandit_double","A1QCUD55921N0P","both","4","5","408","","","","","","","0","0","1","0.363660736","0.3223834482","","","","","0.4177099958","0.08371899021","0.3223834482","0.3911966266","0.3030893157","0.390153736","0.363660736","0.3296228245","","","","","","","","75","K","2","","","2","main_expt"
"","bandit","82","762405","0.0-43.0-0.0","77874300","wem/bandit_double","A1QCUD55921N0P","both","4","5","2552","","","","","","","0","1","0","0.3211059343","0.4192185534","","","","","0.4192185534","0.04339790364","0.3585509001","0.4074861021","0.3211059343","0.3725447061","0.3842171554","0.3102780753","","","","","","","","72","H","0","img/none_selected.jpg","","3","main_expt"
"","bandit","83","764295","0.0-44.0-0.0","77874300","wem/bandit_double","A1QCUD55921N0P","both","4","5","362","","","","","","","0","0","1","0.3831963053","0.3416436242","","","","","0.4241610434","0.04073472785","0.3416436242","0.3965638453","0.2804386453","0.3431524481","0.3831963053","0.2749892112","","","","","","","","75","K","2","","","4","main_expt"
"","bandit","84","765924","0.0-45.0-0.0","77874300","wem/bandit_double","A1QCUD55921N0P","both","4","5","109","","","","","","","1","0","0","0.3448007793","0.04731773769","","","","","0.4284837315","0.04731773769","0.3444758892","0.3688269119","0.2609559086","0.3448007793","0.4056596471","0.3037824898","","","","","","","","74","J","1","","","5","main_expt"
"","bandit","85","767821","0.0-46.0-0.0","77874300","wem/bandit_double","A1QCUD55921N0P","both","4","5","371","","","","","","","1","0","0","0.3980888019","0.05617088868","","","","","0.4328708062","0.05617088868","0.3574177426","0.3865867917","0.2259287768","0.3980888019","0.4409946319","0.3217417103","","","","","","","","74","J","1","","","6","main_expt"
"","bandit","86","769645","0.0-47.0-0.0","77874300","wem/bandit_double","A1QCUD55921N0P","both","4","5","306","","","","","","","0","0","1","0.3693121862","0.05606577856","","","","","0.4176545671","0.05606577856","0.3634052143","0.4294719924","0.2433618728","0.3693121862","0.3821747998","0.3018715163","","","","","","","","74","J","1","","","7","main_expt"
"","bandit","87","771546","0.0-48.0-0.0","77874300","wem/bandit_double","A1QCUD55921N0P","both","4","5","379","","","","","","","1","0","0","0.3643645816","0.4210378118","","","","","0.4022395488","0.09244853328","0.3675420607","0.4210378118","0.2025356769","0.2933697555","0.3841844813","0.3643645816","","","","","","","","76","L","3","","","8","main_expt"
"","bandit","88","773360","0.0-49.0-0.0","77874300","wem/bandit_double","A1QCUD55921N0P","both","4","5","288","","","","","","","0","0","1","0.3418610374","0.4502112583","","","","","0.3929004949","0.1271341085","0.3921196104","0.4502112583","0.1441028094","0.3036212831","0.3412237964","0.3418610374","","","","","","","","76","L","3","","","9","main_expt"
"","bandit","89","775207","0.0-50.0-0.0","77874300","wem/bandit_double","A1QCUD55921N0P","both","4","5","334","","","","","","","1","0","0","0.3256420777","0.4026182126","","","","","0.3863711448","0.1370717255","0.4026182126","0.4452653155","0.1736005971","0.308020301","0.3256420777","0.3190157878","","","","","","","","75","K","2","","","10","main_expt"
"","bandit","90","776939","0.0-51.0-0.0","77874300","wem/bandit_double","A1QCUD55921N0P","both","4","5","206","","","","","","","0","0","1","0.3514007431","0.3543069494","","","","","0.4205849279","0.1275050207","0.3543069494","0.4352349267","0.1836365694","0.3065973113","0.3514007431","0.2998731478","","","","","","","","75","K","2","","","11","main_expt"
"","bandit","91","778801","0.0-52.0-0.0","77874300","wem/bandit_double","A1QCUD55921N0P","both","4","5","334","","","","","","","0","0","1","0.2143869662","0.4525069231","","","","","0.4525069231","0.122317004","0.3504097904","0.4029030639","0.2143869662","0.3271859636","0.3722032088","0.2942822571","","","","","","","","72","H","0","img/none_selected.jpg","","12","main_expt"
"","bandit","92","780449","0.0-53.0-0.0","77874300","wem/bandit_double","A1QCUD55921N0P","both","4","5","134","","","","","","","1","0","0","0.2761076709","0.1251711411","","","","","0.4485799753","0.1251711411","0.2787441393","0.4198147105","0.1637139448","0.2761076709","0.3681707299","0.3009212619","","","","","","","","74","J","1","","","13","main_expt"
"","bandit","93","782235","0.0-54.0-0.0","77874300","wem/bandit_double","A1QCUD55921N0P","both","4","5","268","","","","","","","1","0","0","0.2311164494","0.1380641988","","","","","0.4504049656","0.1380641988","0.2723245106","0.3761312174","0.1488535162","0.2311164494","0.3528222564","0.3227424667","","","","","","","","74","J","1","","","14","main_expt"
"","bandit","94","784055","0.0-55.0-0.0","77874300","wem/bandit_double","A1QCUD55921N0P","both","4","5","309","","","","","","","1","0","0","0.2905977425","0.2010812313","","","","","0.4281165459","0.2010812313","0.3687644442","0.4017507227","0.1332411271","0.2905977425","0.3738838661","0.3547546862","","","","","","","","74","J","1","","","15","main_expt"
"","bandit","95","785905","0.0-56.0-0.0","77874300","wem/bandit_double","A1QCUD55921N0P","both","4","5","324","","","","","","","1","0","0","0.2924554969","0.1747275657","","","","","0.4035101098","0.1747275657","0.3992289848","0.3859888637","0.09882415698","0.2924554969","0.3385239332","0.3241157583","","","","","","","","74","J","1","","","16","main_expt"
"","bandit","96","787725","0.0-57.0-0.0","77874300","wem/bandit_double","A1QCUD55921N0P","both","4","5","295","","","","","","","0","0","1","0.3114836302","0.1816524112","","","","","0.4063691663","0.1816524112","0.4067061876","0.3706978481","0.1069157009","0.3114836302","0.3111355138","0.3363410386","","","","","","","","74","J","1","","","17","main_expt"
"","bandit","97","789615","0.0-58.0-0.0","77874300","wem/bandit_double","A1QCUD55921N0P","both","4","5","362","","","","","","","0","0","1","0.3880947854","0.3323991027","","","","","0.4201618032","0.1700798448","0.3969002131","0.3323991027","0.134958137","0.3215333475","0.3487767647","0.3880947854","","","","","","","","76","L","3","","","18","main_expt"
"","bandit","98","791227","0.0-59.0-0.0","77874300","wem/bandit_double","A1QCUD55921N0P","both","4","5","88","","","","","","","0","0","1","0.3010303499","0.3930099592","","","","","0.3868389751","0.1998500639","0.3930099592","0.3301718366","0.1230418706","0.2733398822","0.3010303499","0.4116912081","","","","","","","","75","K","2","","","19","main_expt"
"","bandit","99","793378","0.0-60.0-0.0","77874300","wem/bandit_double","A1QCUD55921N0P","both","4","5","624","","","","","","","0","1","0","0.09866604889","0.3868875991","","","","","0.3868875991","0.2418808817","0.3791602553","0.3714618997","0.09866604889","0.2351410235","0.2907203997","0.3973894305","","","","","","","","72","H","0","img/none_selected.jpg","","20","main_expt"
"","bandit","100","795259","0.0-61.0-0.0","77874300","wem/bandit_double","A1QCUD55921N0P","both","4","5","365","","","","","","","1","0","0","0.2257810982","0.2293341009","","","","","0.4253770554","0.2293341009","0.4127515201","0.3621694591","0.1021222834","0.2257810982","0.3088108907","0.369037109","","","","","","","","74","J","1","","","21","main_expt"
"","bandit","101","796953","0.0-62.0-0.0","77874300","wem/bandit_double","A1QCUD55921N0P","both","4","5","162","","","","","","","1","0","0","0.2221856846","0.2074184163","","","","","0.4285762007","0.2074184163","0.4164833055","0.3648829928","0.1234138809","0.2221856846","0.349202701","0.4179468344","","","","","","","","74","J","1","","","22","main_expt"
"","bandit","102","799200","0.0-63.0-0.0","77874300","wem/bandit_double","A1QCUD55921N0P","both","4","5","730","","","","","","","0","0","1","0.2127124712","0.1832507358","","","","","0.4082522222","0.1832507358","0.4143027846","0.2856994719","0.1030640584","0.2127124712","0.3785068464","0.4276062926","","","","","","","","74","J","1","","","23","main_expt"
"","bandit","103","801131","0.0-64.0-0.0","77874300","wem/bandit_double","A1QCUD55921N0P","both","4","5","414","","","","","","","0","0","1","0.4012919653","0.3649270698","","","","","0.4027270218","0.1469425149","0.3649270698","0.3152516524","0.1261035851","0.1882566648","0.4012919653","0.4078122208","","","","","","","","75","K","2","","","24","main_expt"
"","bandit","104","802995","0.0-65.0-0.0","77874300","wem/bandit_double","A1QCUD55921N0P","both","4","5","345","","","","","","","0","0","1","0.3950411191","0.2778145345","","","","","0.4100212433","0.102794739","0.392676409","0.2778145345","0.1796705612","0.1273223766","0.400899794","0.3950411191","","","","","","","","76","L","3","","","25","main_expt"
"","bandit","105","804850","0.0-66.0-0.0","77874300","wem/bandit_double","A1QCUD55921N0P","both","4","5","323","","","","","","","0","0","1","0.2414651519","0.4190791169","","","","","0.4190791169","0.1173732637","0.4031565401","0.3170506137","0.2414651519","0.15747458","0.4126274585","0.4322303329","","","","","","","","72","H","0","img/none_selected.jpg","","26","main_expt"
"","bandit","106","806602","0.0-67.0-0.0","77874300","wem/bandit_double","A1QCUD55921N0P","both","4","5","219","","","","","","","0","0","1","0.1442684908","0.08835016803","","","","","0.4527212376","0.08835016803","0.4245959001","0.3223143746","0.2005374927","0.1442684908","0.3992263875","0.4353643722","","","","","","","","74","J","1","","","27","main_expt"
"","bandit","107","809225","0.0-68.0-0.0","77874300","wem/bandit_double","A1QCUD55921N0P","both","4","5","1112","","","","","","","1","0","0","0.3846584236","0.4232885055","","","","","0.4480998813","0.1134440288","0.4232885055","0.3234472479","0.3197257227","0.2255404594","0.3846584236","0.4464017809","","","","","","","","75","K","2","","","28","main_expt"
"","bandit","108","810950","0.0-69.0-0.0","77874300","wem/bandit_double","A1QCUD55921N0P","both","4","5","206","","","","","","","0","0","1","0.3561298134","0.4495512981","","","","","0.4628669208","0.1982905849","0.4495512981","0.2881425904","0.3141869899","0.2730951691","0.3561298134","0.4417109462","","","","","","","","75","K","2","","","29","main_expt"
"","bandit","109","812867","0.0-70.0-0.0","77874300","wem/bandit_double","A1QCUD55921N0P","both","4","5","395","","","","","","","1","0","0","0.4065908859","0.2326555855","","","","","0.4565655028","0.2366655967","0.4485299892","0.2326555855","0.3445991012","0.2890412698","0.3101363315","0.4065908859","","","","","","","","76","L","3","","","30","main_expt"
"","bandit","110","814693","0.0-71.0-0.0","77874300","wem/bandit_double","A1QCUD55921N0P","both","4","5","311","","","","","","","0","0","1","0.3954582793","0.2364604256","","","","","0.4686031056","0.1622470467","0.4599237238","0.2364604256","0.3456655029","0.3309226042","0.3322219809","0.3954582793","","","","","","","","76","L","3","","","31","main_expt"
"","bandit","111","817054","0.0-72.0-0.0","77874300","wem/bandit_double","A1QCUD55921N0P","both","4","5","824","","","","","","","1","0","0","0.3519301717","0.1771911602","","","","","0.4659582456","0.1771911602","0.4508116693","0.2451982598","0.3826172224","0.3519301717","0.3516269472","0.3716723047","","","","","","","","74","J","1","","","32","main_expt"
"","bandit","112","818969","0.0-73.0-0.0","77874300","wem/bandit_double","A1QCUD55921N0P","both","4","5","393","","","","","","","0","0","1","0.3414953842","0.1622836308","","","","","0.4810757035","0.1622836308","0.45101727","0.2360369815","0.3804083149","0.3414953842","0.3852085553","0.3799724366","","","","","","","","74","J","1","","","33","main_expt"
"","bandit","113","821035","0.0-74.0-0.0","77874300","wem/bandit_double","A1QCUD55921N0P","both","4","5","535","","","","","","","0","0","1","0.4196644934","0.4340174653","","","","","0.4842727378","0.1655985557","0.4340174653","0.2317763892","0.3808178469","0.2938412915","0.4196644934","0.409480615","","","","","","","","75","K","2","","","34","main_expt"
"","bandit","114","823504","0.0-75.0-0.0","77874300","wem/bandit_double","A1QCUD55921N0P","both","4","5","946","","","","","","","0","0","1","0.376129724","0.4745470136","","","","","0.4745470136","0.1492797185","0.4040147441","0.2527891731","0.376129724","0.2256616696","0.420891004","0.3869649509","","","","","","","","72","H","0","img/none_selected.jpg","","35","main_expt"
"","bandit","115","825359","0.0-76.0-0.0","77874300","wem/bandit_double","A1QCUD55921N0P","both","4","5","339","","","","","","","0","0","1","0.3045389962","0.2641283143","","","","","0.4440965139","0.1504543003","0.4268829696","0.2641283143","0.4027809904","0.2525957923","0.3808881167","0.3045389962","","","","","","","","76","L","3","","","36","main_expt"
"","bandit","116","827123","0.0-77.0-0.0","77874300","wem/bandit_double","A1QCUD55921N0P","both","4","5","233","","","","","","","0","1","0","0.3634360393","0.4562327564","","","","","0.4544425755","0.1064249526","0.4562327564","0.2309310423","0.3715556026","0.2333373749","0.3634360393","0.2954217214","","","","","","","","75","K","2","","","37","main_expt"
"","bandit","117","829269","0.0-78.0-0.0","77874300","wem/bandit_double","A1QCUD55921N0P","both","4","5","613","","","","","","","0","0","1","0.2126884676","0.1346530267","","","","","0.4700138218","0.1346530267","0.4481627861","0.2093170459","0.354842885","0.2126884676","0.3432691328","0.2749906923","","","","","","","","74","J","1","","","38","main_expt"
"","bandit","118","832210","0.0-79.0-0.0","77874300","wem/bandit_double","A1QCUD55921N0P","both","4","5","1418","","","","","","","0","0","1","0.3066825603","0.466948448","","","","","0.466948448","0.1303494481","0.4475890948","0.1398625959","0.3066825603","0.212498526","0.3113322025","0.2911873598","","","","","","","","72","H","0","img/none_selected.jpg","","39","main_expt"
"","bandit","119","835976","0.0-80.0-0.0","77874300","wem/bandit_double","A1QCUD55921N0P","both","4","5","2233","","","","","","","0","0","1","0.2031275136","0.1492074344","","","","","0.4679256248","0.1492074344","0.4501575696","0.09690087606","0.3208648015","0.2031275136","0.3298138996","0.3066149412","","","","","","","","74","J","1","","","40","main_expt"
"","bandit","120","838964","0.0-81.0-0.0","77874300","wem/bandit_double","A1QCUD55921N0P","both","4","5","1468","","","","","","","0","0","1","0.3590557929","0.4121884666","","","","","0.445537573","0.1370672299","0.4121884666","0.1129569356","0.2774570704","0.2409224204","0.3590557929","0.2612722093","","","","","","","","75","K","2","","","41","main_expt"
"","bandit","121","843470","0.0-82.0-0.0","77874300","wem/bandit_double","A1QCUD55921N0P","both","4","5","2973","","","","","","","0","0","1","0.2579482203","0.1227033228","","","","","0.4521531226","0.08144147181","0.4379939247","0.1227033228","0.3092882543","0.2166695961","0.3455434044","0.2579482203","","","","","","","","76","L","3","","","42","main_expt"
"","bandit","122","845574","0.0-83.0-0.0","77874300","wem/bandit_double","A1QCUD55921N0P","both","4","5","580","","","","","","","0","0","1","0.3161251671","0.4695072217","","","","","0.4695072217","0.06793865388","0.4271747655","0.08393287497","0.3161251671","0.2314197793","0.4020043176","0.2232302517","","","","","","","","72","H","0","img/none_selected.jpg","","43","main_expt"
"","bandit","123","847517","0.0-84.0-0.0","77874300","wem/bandit_double","A1QCUD55921N0P","both","4","5","414","","","","","","","1","0","0","0.1889371852","0.05295344446","","","","","0.4807409838","0.05295344446","0.4480494518","0.06260074275","0.3032549762","0.1889371852","0.4088695108","0.2435669349","","","","","","","","74","J","1","","","44","main_expt"
"","bandit","124","850552","0.0-85.0-0.0","77874300","wem/bandit_double","A1QCUD55921N0P","both","4","5","1517","","","","","","","1","0","0","0.2152104473","0.02744239742","","","","","0.4507048108","0.02744239742","0.4269729589","0.08062123592","0.3012359134","0.2152104473","0.3914045207","0.1885724617","","","","","","","","74","J","1","","","45","main_expt"
"","bandit","125","852281","0.0-86.0-0.0","77874300","wem/bandit_double","A1QCUD55921N0P","both","4","5","207","","","","","","","0","0","1","0.2260726972","0.02347437243","","","","","0.4382321206","0.02347437243","0.4475746277","0.1110847749","0.2994346937","0.2260726972","0.3682142312","0.104230756","","","","","","","","74","J","1","","","46","main_expt"
"","bandit","126","854176","0.0-87.0-0.0","77874300","wem/bandit_double","A1QCUD55921N0P","both","4","5","381","","","","","","","1","1","0","0.3462276735","0.4295618238","","","","","0.4393937913","0.02418160198","0.4295618238","0.05346849493","0.3169549043","0.2330399618","0.3462276735","0.09013225529","","","","","","","","75","K","2","","","47","main_expt"
"","bandit","127","856105","0.0-88.0-0.0","77874300","wem/bandit_double","A1QCUD55921N0P","both","4","5","413","","","","","","","0","0","1","0.1066227192","0.04499733497","","","","","0.440318131","0.01182676654","0.4431907244","0.04499733497","0.3137179834","0.2769685944","0.3501405617","0.1066227192","","","","","","","","76","L","3","","","48","main_expt"
"","bandit","128","857762","0.0-89.0-0.0","77874300","wem/bandit_double","A1QCUD55921N0P","both","4","5","136","","","","","","","0","0","1","0.3026837323","0.4362102412","","","","","0.4362102412","0.0186287842","0.4187732916","0.07378534534","0.3026837323","0.2954986192","0.3607669766","0.1273062614","","","","","","","","72","H","0","img/none_selected.jpg","","49","main_expt"
"","bandit","129","859483","0.0-90.0-0.0","77874300","wem/bandit_double","A1QCUD55921N0P","both","4","5","186","","","","","","","0","0","1","0.2730110453","0.02550629551","","","","","0.44488671","0.02550629551","0.356579213","0.06168845619","0.2690248343","0.2730110453","0.3776327681","0.08158159543","","","","","","","","74","J","1","","","50","main_expt"
"","bandit","130","861350","0.0-91.0-0.0","77874300","wem/bandit_double","A1QCUD55921N0P","both","4","5","339","","","","","","","0","0","1","0.3922012959","0.2629404955","","","","","0.4633405548","0.04366809707","0.2629404955","0.1062028567","0.2407215714","0.2672659715","0.3922012959","0.08035098666","","","","","","","","75","K","2","","","51","main_expt"
"","bandit","131","863262","0.0-92.0-0.0","77874300","wem/bandit_double","A1QCUD55921N0P","both","4","5","395","","","","","","","0","0","1","0.1007468434","0.1379608546","","","","","0.4528043762","0.04357168116","0.2919747068","0.1379608546","0.2758158767","0.2552972095","0.3532085343","0.1007468434","","","","","","","","76","L","3","","","52","main_expt"
"","bandit","132","865741","0.0-93.0-0.0","77874300","wem/bandit_double","A1QCUD55921N0P","both","4","5","955","","","","","","","1","0","0","0.2661511239","0.4390431751","","","","","0.4390431751","0.03899227154","0.3809901122","0.1356826849","0.2661511239","0.1954439593","0.3597378762","0.1479770317","","","","","","","","72","H","0","img/none_selected.jpg","","53","main_expt"
"","bandit","133","867536","0.0-94.0-0.0","77874300","wem/bandit_double","A1QCUD55921N0P","both","4","5","265","","","","","","","0","0","1","0.250303373","0.4549270822","","","","","0.4549270822","0.04009146386","0.3452518694","0.1038772241","0.250303373","0.1250298759","0.3553644404","0.1450389045","","","","","","","","72","H","0","img/none_selected.jpg","","54","main_expt"
"","bandit","134","869525","0.0-95.0-0.0","77874300","wem/bandit_double","A1QCUD55921N0P","both","4","5","459","","","","","","","1","0","0","0.3427354451","0.3263112327","","","","","0.4710341864","0.0155768565","0.3263112327","0.1689791829","0.1850572083","0.1224949652","0.3427354451","0.1678096349","","","","","","","","75","K","2","","","55","main_expt"
"","bandit","135","871367","0.0-96.0-0.0","77874300","wem/bandit_double","A1QCUD55921N0P","both","4","5","311","","","","","","","1","0","0","0.3158877586","0.3308963945","","","","","0.4745834276","0.02112461672","0.3308963945","0.1108888145","0.2410157884","0.1312048923","0.3158877586","0.1748395718","","","","","","","","75","K","2","","","56","main_expt"
"","bandit","136","873179","0.0-97.0-0.0","77874300","wem/bandit_double","A1QCUD55921N0P","both","4","5","292","","","","","","","1","0","0","0.3224611445","0.3150326571","","","","","0.489318572","0.0126553198","0.3150326571","0.1206542402","0.2657224069","0.14452077","0.3224611445","0.146986137","","","","","","","","75","K","2","","","57","main_expt"
"","bandit","137","875111","0.0-98.0-0.0","77874300","wem/bandit_double","A1QCUD55921N0P","both","4","5","411","","","","","","","1","0","0","0.3378672788","0.3049116772","","","","","0.480037986","0.01131359515","0.3049116772","0.09707343937","0.2361308133","0.1198415177","0.3378672788","0.1316135006","","","","","","","","75","K","2","","","58","main_expt"
"","bandit","138","877013","0.0-99.0-0.0","77874300","wem/bandit_double","A1QCUD55921N0P","both","4","5","372","","","","","","","0","0","1","0.3438075972","0.3050987947","","","","","0.4593461039","0.01030075821","0.3050987947","0.1044384952","0.2078360154","0.1674914914","0.3438075972","0.1776120447","","","","","","","","75","K","2","","","59","main_expt"
"","bandit","139","879024","0.0-100.0-0.0","77874300","wem/bandit_double","A1QCUD55921N0P","both","4","5","483","","","","","","","0","0","1","0.147959707","0.005868957973","","","","","0.446051488","0.005868957973","0.3274009355","0.08890369623","0.2256957235","0.147959707","0.2950987239","0.2034864675","","","","","","","","74","J","1","","","60","main_expt"
"","bandit","140","881057","0.0-101.0-0.0","77874300","wem/bandit_double","A1QCUD55921N0P","both","4","5","507","","","","","","","0","1","0","0.1325668513","0.08921221942","","","","","0.4391285327","0.004361943215","0.3428943983","0.08921221942","0.2713547376","0.1217284172","0.2939622289","0.1325668513","","","","","","","","76","L","3","","","61","main_expt"
"","bandit","141","883383","0.0-102.0-0.0","77874300","wem/bandit_double","A1QCUD55921N0P","both","4","5","793","","","","","","","1","0","0","0.2800078023","0.4063883723","","","","","0.4063883723","0.005208412743","0.3549763931","0.09812025034","0.2800078023","0.1392905859","0.2907096119","0.125492747","","","","","","","","72","H","0","img/none_selected.jpg","","62","main_expt"
"","bandit","142","885279","0.0-103.0-0.0","77874300","wem/bandit_double","A1QCUD55921N0P","both","4","5","368","","","","","","","1","1","0","0.362183352","0.4330387396","","","","","0.4330387396","0.006461011255","0.3496678451","0.09006279409","0.362183352","0.1953314019","0.2696382907","0.1081989139","","","","","","","","72","H","0","img/none_selected.jpg","","63","main_expt"
"","bandit","143","886806","0.0-104.0-0.0","77874300","wem/bandit_double","A1QCUD55921N0P","both","4","5","14","","","","","","","1","0","0","0.2618523415","0.01267926231","","","","","0.4207902426","0.01267926231","0.3188537263","0.1118976224","0.3354395381","0.2618523415","0.2496415039","0.09104284411","","","","","","","","74","J","1","","","64","main_expt"
"","bandit","144","888703","0.0-105.0-0.0","77874300","wem/bandit_double","A1QCUD55921N0P","both","4","5","371","","","","","","","0","0","1","0.2686672798","0.009732787917","","","","","0.3719582347","0.009732787917","0.3191795336","0.1053817613","0.2893845237","0.2686672798","0.2364994079","0.1264903162","","","","","","","","74","J","1","","","65","main_expt"
"","bandit","145","890486","0.0-106.0-0.0","77874300","wem/bandit_double","A1QCUD55921N0P","both","4","5","264","","","","","","","0","1","0","0.2541683514","0.268616347","","","","","0.3748569955","0.01092542651","0.268616347","0.1307356695","0.2355717356","0.2451656397","0.2541683514","0.1665937301","","","","","","","","75","K","2","","","66","main_expt"
"","bandit","146","892305","0.0-107.0-0.0","77874300","wem/bandit_double","A1QCUD55921N0P","both","4","5","293","","","","","","","0","0","1","0.1740025863","0.1418436428","","","","","0.335252031","0.02125534741","0.259194563","0.1418436428","0.2848755716","0.2445320338","0.2985471382","0.1740025863","","","","","","","","76","L","3","","","67","main_expt"
"","bandit","147","894126","0.0-108.0-0.0","77874300","wem/bandit_double","A1QCUD55921N0P","both","4","5","301","","","","","","","0","0","1","0.2261158315","0.02360283027","","","","","0.3199157278","0.02360283027","0.2281204868","0.1459089566","0.3341158043","0.2261158315","0.3391290389","0.2300011382","","","","","","","","74","J","1","","","68","main_expt"
"","bandit","148","896016","0.0-109.0-0.0","77874300","wem/bandit_double","A1QCUD55921N0P","both","4","5","370","","","","","","","0","0","1","0.3253412689","0.3068525281","","","","","0.3068525281","0.02539305756","0.2195844169","0.1809721424","0.3253412689","0.1627286519","0.3114764975","0.1768594062","","","","","","","","72","H","0","img/none_selected.jpg","","69","main_expt"
"","bandit","149","897851","0.0-110.0-0.0","77874300","wem/bandit_double","A1QCUD55921N0P","both","4","5","306","","","","","","","0","0","1","0.3056328376","0.1883338509","","","","","0.3181076016","0.05014388586","0.1883338509","0.1784068974","0.3280915152","0.1301009224","0.3056328376","0.1906145184","","","","","","","","75","K","2","","","70","main_expt"
"","bandit","150","900220","0.0-111.0-0.0","77874300","wem/bandit_double","A1QCUD55921N0P","both","4","5","836","","","","","","","0","0","1","0.1356707761","0.04209054697","","","","","0.2926426422","0.04209054697","0.1639708178","0.1973023396","0.3772643828","0.1356707761","0.3445325487","0.1451664327","","","","","","","","74","J","1","","","71","main_expt"
"","bandit","151","902216","0.0-112.0-0.0","77874300","wem/bandit_double","A1QCUD55921N0P","both","4","5","469","","","","","","","0","0","1","0.1045412551","0.05611199342","","","","","0.2380263643","0.05611199342","0.1312842785","0.2436342847","0.4074174212","0.1045412551","0.364612409","0.1091447996","","","","","","","","74","J","1","","","72","main_expt"
"","bandit","152","904050","0.0-113.0-0.0","77874300","wem/bandit_double","A1QCUD55921N0P","both","4","5","313","","","","","","","0","0","1","0.1248737042","0.1992173182","","","","","0.2407197948","0.05293238473","0.1805041857","0.1992173182","0.3736299767","0.0867882282","0.4454774056","0.1248737042","","","","","","","","76","L","3","","","73","main_expt"
"","bandit","153","905910","0.0-114.0-0.0","77874300","wem/bandit_double","A1QCUD55921N0P","both","4","5","337","","","","","","","0","0","1","0.4492830973","0.1739557812","","","","","0.2317468449","0.0318456884","0.1739557812","0.2347098304","0.383211712","0.1018359722","0.4492830973","0.1073746888","","","","","","","","75","K","2","","","74","main_expt"
"","bandit","154","907544","0.0-115.0-0.0","77874300","wem/bandit_double","A1QCUD55921N0P","both","4","5","102","","","","","","","0","0","1","0.3681962321","0.2545997551","","","","","0.2545997551","0.03873230677","0.2434916027","0.2641442137","0.3681962321","0.09443707336","0.449321966","0.1051395745","","","","","","","","72","H","0","img/none_selected.jpg","","75","main_expt"
"","bandit","155","909391","0.0-116.0-0.0","77874300","wem/bandit_double","A1QCUD55921N0P","both","4","5","323","","","","","","","0","0","1","0.08768691443","0.03304947682","","","","","0.2890845388","0.03304947682","0.2438468568","0.3192644053","0.3574328021","0.08768691443","0.4299726132","0.09171451076","","","","","","","","74","J","1","","","76","main_expt"
"","bandit","156","911031","0.0-117.0-0.0","77874300","wem/bandit_double","A1QCUD55921N0P","both","4","5","109","","","","","","","1","0","0","0.4041720962","0.2386362654","","","","","0.2386362654","0.02607887458","0.2425324642","0.3351132613","0.4041720962","0.07744448812","0.4349340462","0.1256070833","","","","","","","","72","H","0","img/none_selected.jpg","","77","main_expt"
"","bandit","157","912808","0.0-118.0-0.0","77874300","wem/bandit_double","A1QCUD55921N0P","both","4","5","248","","","","","","","0","0","1","0.4000946746","0.2673679704","","","","","0.2673679704","0.02492981692","0.205588479","0.3086784207","0.4000946746","0.05712631425","0.4112950215","0.1398604905","","","","","","","","72","H","0","img/none_selected.jpg","","78","main_expt"
"","bandit","158","914615","0.0-119.0-0.0","77874300","wem/bandit_double","A1QCUD55921N0P","both","4","5","268","","","","","","","0","0","1","0.4123046053","0.213062191","","","","","0.2813811921","0.01824110002","0.213062191","0.3076482073","0.425248604","0.03981704588","0.4123046053","0.1303191282","","","","","","","","75","K","2","","","79","main_expt"
"","bandit","159","916891","0.0-120.0-0.0","77874300","wem/bandit_double","A1QCUD55921N0P","both","4","5","744","","","","","","","0","0","1","0.02961196177","0.0202176162","","","","","0.2419447949","0.0202176162","0.1852926048","0.3605025214","0.4263383456","0.02961196177","0.4345430878","0.1491340647","","","","","","","","74","J","1","","","80","main_expt"
"","bandit","160","918688","0.0-121.0-0.0","77874300","wem/bandit_double","A1QCUD55921N0P","both","4","5","271","","","","","","","1","0","0","0.1484119081","0.3286166321","","","","","0.323481111","0.0252752587","0.2332942271","0.3286166321","0.4377411966","0.0408206899","0.4255274095","0.1484119081","","","","","","","","76","L","3","","","81","main_expt"
"","bandit","161","920432","0.0-122.0-0.0","77874300","wem/bandit_double","A1QCUD55921N0P","both","4","5","224","","","","","","","1","1","0","0.135460029","0.3459677762","","","","","0.3097244961","0.05668457717","0.2087797338","0.3459677762","0.4263216968","0.03491361241","0.4266934287","0.135460029","","","","","","","","76","L","3","","","82","main_expt"
"","bandit","162","922463","0.0-123.0-0.0","77874300","wem/bandit_double","A1QCUD55921N0P","both","4","5","500","","","","","","","0","0","1","0.01881925386","0.07760530004","","","","","0.2787498647","0.07760530004","0.2049979043","0.3092751195","0.4536492548","0.01881925386","0.4321646522","0.09497461961","","","","","","","","74","J","1","","","83","main_expt"
"","bandit","163","924379","0.0-124.0-0.0","77874300","wem/bandit_double","A1QCUD55921N0P","both","4","5","390","","","","","","","0","0","1","0.43129245","0.2151780091","","","","","0.2589524449","0.03696005566","0.2151780091","0.3044630387","0.4344769981","0.03441768066","0.43129245","0.0956585677","","","","","","","","75","K","2","","","84","main_expt"
"","bandit","164","926263","0.0-125.0-0.0","77874300","wem/bandit_double","A1QCUD55921N0P","both","4","5","354","","","","","","","1","0","0","0.4167097255","0.2769318636","","","","","0.2769318636","0.04177257934","0.1497615914","0.2812480587","0.4167097255","0.04015732792","0.4307495417","0.08427930603","","","","","","","","72","H","0","img/none_selected.jpg","","85","main_expt"
"","bandit","165","928092","0.0-126.0-0.0","77874300","wem/bandit_double","A1QCUD55921N0P","both","4","5","296","","","","","","","1","0","0","0.4215971904","0.2849222391","","","","","0.2849222391","0.0385770192","0.1223687677","0.2506532223","0.4215971904","0.0462821445","0.4327415212","0.09540141202","","","","","","","","72","H","0","img/none_selected.jpg","","86","main_expt"
"","bandit","166","930921","0.0-127.0-0.0","77874300","wem/bandit_double","A1QCUD55921N0P","both","4","5","1295","","","","","","","0","0","1","0.3962725568","0.3131087309","","","","","0.3131087309","0.03720252147","0.1472857413","0.2269900387","0.3962725568","0.07236867375","0.4507305815","0.06504543429","","","","","","","","72","H","0","img/none_selected.jpg","","87","main_expt"
"","bandit","167","936495","0.0-128.0-0.0","77874300","wem/bandit_double","A1QCUD55921N0P","both","4","5","4040","","","","","","","1","0","0","0.1132918069","0.06746059371","","","","","0.3038587512","0.06746059371","0.1252586248","0.1504729919","0.4038430626","0.1132918069","0.4571393315","0.05894337134","","","","","","","","74","J","1","","","88","main_expt"
"","bandit","168","938391","0.0-129.0-0.0","77874300","wem/bandit_double","A1QCUD55921N0P","both","4","5","359","","","","","","","0","0","1","0.1466354559","0.04069757945","","","","","0.3308022157","0.04069757945","0.1194927994","0.1382070302","0.4247877058","0.1466354559","0.4639779763","0.06803635399","","","","","","","","74","J","1","","","89","main_expt"
"","bandit","169","940036","0.0-130.0-0.0","77874300","wem/bandit_double","A1QCUD55921N0P","both","4","5","131","","","","","","","0","0","1","0.4620017245","0.1589750007","","","","","0.3574922351","0.07325379503","0.1589750007","0.1364765349","0.4196700557","0.1746819083","0.4620017245","0.09657856289","","","","","","","","75","K","2","","","90","main_expt"
"","bandit","170","941772","0.0-131.0-0.0","77874300","wem/bandit_double","A1QCUD55921N0P","both","4","5","200","","","","","","","0","1","0","0.08522031428","0.09318196272","","","","","0.3729517688","0.06877471811","0.1859960426","0.09318196272","0.401758082","0.1864657318","0.4492963398","0.08522031428","","","","","","","","76","L","3","","","91","main_expt"
"","bandit","171","943591","0.0-132.0-0.0","77874300","wem/bandit_double","A1QCUD55921N0P","both","4","5","297","","","","","","","0","0","1","0.3422099147","0.398352994","","","","","0.398352994","0.04115987362","0.192419488","0.06946097624","0.3422099147","0.2124622091","0.462009279","0.07078380504","","","","","","","","72","H","0","img/none_selected.jpg","","92","main_expt"
"","bandit","172","945975","0.0-133.0-0.0","77874300","wem/bandit_double","A1QCUD55921N0P","both","4","5","865","","","","","","","0","0","1","0.245786276","0.07078892783","","","","","0.4135860398","0.07078892783","0.1716033463","0.08102832817","0.3279059742","0.245786276","0.4363090379","0.0564278809","","","","","","","","74","J","1","","","93","main_expt"
"","bandit","173","947654","0.0-134.0-0.0","77874300","wem/bandit_double","A1QCUD55921N0P","both","4","5","152","","","","","","","0","0","1","0.4457519602","0.1935897604","","","","","0.3786880174","0.05572868433","0.1935897604","0.1271360848","0.3155724737","0.2316759231","0.4457519602","0.06067733924","","","","","","","","75","K","2","","","94","main_expt"
"","bandit","174","949515","0.0-135.0-0.0","77874300","wem/bandit_double","A1QCUD55921N0P","both","4","5","342","","","","","","","0","0","1","0.08632751489","0.1097592989","","","","","0.3823424718","0.05056929995","0.2193228015","0.1097592989","0.3519625041","0.2231756969","0.4231248902","0.08632751489","","","","","","","","76","L","3","","","95","main_expt"
"","bandit","175","951602","0.0-136.0-0.0","77874300","wem/bandit_double","A1QCUD55921N0P","both","4","5","552","","","","","","","0","0","1","0.3661455107","0.3642725552","","","","","0.3642725552","0.04159874267","0.3262643469","0.1085490834","0.3661455107","0.1957128212","0.4210676831","0.08481729553","","","","","","","","72","H","0","img/none_selected.jpg","","96","main_expt"
"","bandit","176","953531","0.0-137.0-0.0","77874300","wem/bandit_double","A1QCUD55921N0P","both","4","5","411","","","","","","","1","0","0","0.1638116915","0.03654451862","","","","","0.3197717944","0.03654451862","0.3207405496","0.1049812554","0.3558031673","0.1638116915","0.4022895305","0.08386440452","","","","","","","","74","J","1","","","97","main_expt"
"","bandit","177","955494","0.0-138.0-0.0","77874300","wem/bandit_double","A1QCUD55921N0P","both","4","5","429","","","","","","","0","0","1","0.1405816365","0.04190300095","","","","","0.2514424369","0.04190300095","0.3712856991","0.08177978443","0.3558230887","0.1405816365","0.4187351015","0.0940701929","","","","","","","","74","J","1","","","98","main_expt"
"","bandit","178","958777","0.0-139.0-0.0","77874300","wem/bandit_double","A1QCUD55921N0P","both","4","5","1751","","","","","","","0","0","1","0.1285058524","0.07574087804","","","","","0.2926772137","0.08742990617","0.3740145378","0.07574087804","0.3064708089","0.1435678602","0.3981340028","0.1285058524","","","","","","","","76","L","3","","","99","main_expt"
"","bandit","179","960475","0.0-140.0-0.0","77874300","wem/bandit_double","A1QCUD55921N0P","both","4","5","161","","","","","","","0","1","0","0.3520446815","0.3776295542","","","","","0.234485335","0.08966523481","0.3776295542","0.07829319678","0.352498313","0.1478754355","0.3520446815","0.065882019","","","","","","","","75","K","2","","","100","main_expt"
"","bandit","180","962564","0.0-141.0-0.0","77874300","wem/bandit_double","A1QCUD55921N0P","both","4","5","566","","","","","","","1","0","0","0.1532559328","0.07849065771","","","","","0.250352175","0.07849065771","0.3592666398","0.07919243683","0.3511810171","0.1532559328","0.3715523215","0.05692140794","","","","","","","","74","J","1","","","101","main_expt"
"","bandit","181","964411","0.0-142.0-0.0","77874300","wem/bandit_double","A1QCUD55921N0P","both","4","5","314","","","","","","","0","0","1","0.15857411","0.1054267613","","","","","0.2139972863","0.1054267613","0.3412191773","0.1052753188","0.3246867477","0.15857411","0.3966955113","0.04322280369","","","","","","","","74","J","1","","","102","main_expt"
"","bandit","182","966296","0.0-143.0-0.0","77874300","wem/bandit_double","A1QCUD55921N0P","both","4","5","358","","","","","","","0","0","1","0.2827689756","0.20092706","","","","","0.20092706","0.1120981937","0.3133100433","0.1248526142","0.2827689756","0.1552377357","0.3865714765","0.05121437093","","","","","","","","72","H","0","img/none_selected.jpg","","103","main_expt"
"","bandit","183","968094","0.0-144.0-0.0","77874300","wem/bandit_double","A1QCUD55921N0P","both","4","5","263","","","","","","","1","1","0","0.3440646931","0.3219148419","","","","","0.2305366804","0.1034740879","0.3219148419","0.142969925","0.3307995119","0.1584193753","0.3440646931","0.06548077564","","","","","","","","75","K","2","","","104","main_expt"
"","bandit","184","970586","0.0-145.0-0.0","77874300","wem/bandit_double","A1QCUD55921N0P","both","4","5","967","","","","","","","0","1","0","0.07577357845","0.13947254","","","","","0.2102135581","0.07597240327","0.3300892518","0.13947254","0.3078297571","0.192058402","0.330981063","0.07577357845","","","","","","","","76","L","3","","","105","main_expt"
"","bandit","185","974808","0.0-146.0-0.0","77874300","wem/bandit_double","A1QCUD55921N0P","both","4","5","2694","","","","","","","0","0","1","0.1562344916","0.1124257427","","","","","0.2219457329","0.1124257427","0.3401839058","0.1329526997","0.3202685942","0.1562344916","0.3317280627","0.09041352565","","","","","","","","74","J","1","","","106","main_expt"
"","bandit","186","977472","0.0-147.0-0.0","77874300","wem/bandit_double","A1QCUD55921N0P","both","4","5","1143","","","","","","","0","1","0","0.3163418234","0.3048423019","","","","","0.3048423019","0.1133168519","0.3784706915","0.1727290233","0.3163418234","0.1493116313","0.2760665195","0.1184921167","","","","","","","","72","H","0","img/none_selected.jpg","","107","main_expt"
"","bandit","187","980417","0.0-148.0-0.0","77874300","wem/bandit_double","A1QCUD55921N0P","both","4","5","1425","","","","","","","0","1","0","0.2826301941","0.3945753887","","","","","0.258150515","0.1752395656","0.3945753887","0.1864487031","0.3425943818","0.1357435498","0.2826301941","0.1057615429","","","","","","","","75","K","2","","","108","main_expt"
"","bandit","188","982519","0.0-149.0-0.0","77874300","wem/bandit_double","A1QCUD55921N0P","both","4","5","575","","","","","","","0","0","1","0.1464484126","0.2463216238","","","","","0.1859129148","0.1862973424","0.356827327","0.2463216238","0.2852030557","0.1164074326","0.318117281","0.1464484126","","","","","","","","76","L","3","","","109","main_expt"
"","bandit","189","985006","0.0-150.0-0.0","77874300","wem/bandit_double","A1QCUD55921N0P","both","4","5","964","","","","","","","0","0","1","0.1444451916","0.2015845776","","","","","0.1371624404","0.2015845776","0.2344179837","0.2431522628","0.3392406975","0.1444451916","0.3358587519","0.1641354829","","","","","","","","74","J","1","","","110","main_expt"
"","bandit","190","986978","0.0-151.0-0.0","77874300","wem/bandit_double","A1QCUD55921N0P","both","4","5","442","","","","","","","0","0","1","0.09905323685","0.2003651753","","","","","0.1258232978","0.2003651753","0.2644823096","0.1757476643","0.3023411017","0.09905323685","0.3031660534","0.1386891192","","","","","","","","74","J","1","","","111","main_expt"
"","bandit","191","988854","0.0-152.0-0.0","77874300","wem/bandit_double","A1QCUD55921N0P","both","4","5","350","","","","","","","0","0","1","0.296849772","0.1529967373","","","","","0.1529967373","0.21392293","0.28311182","0.2451518953","0.296849772","0.09652445584","0.2773548355","0.1847512065","","","","","","","","72","H","0","img/none_selected.jpg","","112","main_expt"
"","bandit","192","990393","0.0-153.0-0.0","77874300","wem/bandit_double","A1QCUD55921N0P","both","4","5","28","","","","","","","1","0","0","0.2673419259","0.148248117","","","","","0.148248117","0.1606798039","0.2413269532","0.2407836715","0.2673419259","0.09961189632","0.2370758425","0.1304555333","","","","","","","","72","H","0","img/none_selected.jpg","","113","main_expt"
"","bandit","193","992230","0.0-154.0-0.0","77874300","wem/bandit_double","A1QCUD55921N0P","both","4","5","319","","","","","","","0","0","1","0.2670531803","0.1562208239","","","","","0.1562208239","0.2095980235","0.3100969134","0.3099317417","0.2670531803","0.1036139638","0.1821928837","0.1770102637","","","","","","","","72","H","0","img/none_selected.jpg","","114","main_expt"
"","bandit","194","994148","0.0-155.0-0.0","77874300","wem/bandit_double","A1QCUD55921N0P","both","4","5","380","","","","","","","1","0","0","0.2825009356","0.2138032898","","","","","0.2138032898","0.2550279667","0.329842252","0.3180754701","0.2825009356","0.0968506792","0.1315453283","0.1564651975","","","","","","","","72","H","0","img/none_selected.jpg","","115","main_expt"
"","bandit","195","996014","0.0-156.0-0.0","77874300","wem/bandit_double","A1QCUD55921N0P","both","4","5","339","","","","","","","0","0","1","0.3237719372","0.2331260325","","","","","0.2331260325","0.2471764387","0.3223706096","0.2919742107","0.3237719372","0.08782875681","0.1102777544","0.1665702367","","","","","","","","72","H","0","img/none_selected.jpg","","116","main_expt"
"","bandit","196","997806","0.0-157.0-0.0","77874300","wem/bandit_double","A1QCUD55921N0P","both","4","5","265","","","","","","","0","0","1","0.1101610351","0.3098408215","","","","","0.1826309729","0.2730878341","0.3098408215","0.2799774295","0.3154846423","0.06031800864","0.1101610351","0.1530687496","","","","","","","","75","K","2","","","117","main_expt"
"","bandit","197","999566","0.0-158.0-0.0","77874300","wem/bandit_double","A1QCUD55921N0P","both","4","5","236","","","","","","","0","0","1","0.05633053331","0.2071462199","","","","","0.1511269107","0.2071462199","0.2974554567","0.2646714695","0.2584508078","0.05633053331","0.122460482","0.1674206906","","","","","","","","74","J","1","","","118","main_expt"
"","bandit","198","1001448","0.0-159.0-0.0","77874300","wem/bandit_double","A1QCUD55921N0P","both","4","5","359","","","","","","","0","0","1","0.1990215448","0.3179839519","","","","","0.1559979654","0.2275232499","0.3598468986","0.3179839519","0.2141905193","0.07530514027","0.1451868924","0.1990215448","","","","","","","","76","L","3","","","119","main_expt"
"","bandit","199","1003329","0.0-160.0-0.0","77874300","wem/bandit_double","A1QCUD55921N0P","both","4","5","357","","","","","","","1","0","0","0.09092593383","0.2984373086","","","","","0.1463004055","0.2767559596","0.2984373086","0.3302262658","0.2341954374","0.09639595661","0.09092593383","0.2208640619","","","","","","","","75","K","2","","","120","main_expt"
"","bandit","200","1005260","0.0-161.0-0.0","77874300","wem/bandit_double","A1QCUD55921N0P","both","4","5","401","","","","","","","0","0","1","0.1080456108","0.2973090059","","","","","0.1418195479","0.3448590315","0.2973090059","0.3500549905","0.1886372651","0.1421799471","0.1080456108","0.2602917539","","","","","","","","75","K","2","","","121","main_expt"
"","bandit","201","1007157","0.0-162.0-0.0","77874300","wem/bandit_double","A1QCUD55921N0P","both","4","5","368","","","","","","","0","0","1","0.1597592322","0.1270782113","","","","","0.1270782113","0.3593301016","0.3382791822","0.2686616284","0.1597592322","0.1624760489","0.1169053248","0.2512498235","","","","","","","","72","H","0","img/none_selected.jpg","","122","main_expt"
"","bandit","202","1009125","0.0-163.0-0.0","77874300","wem/bandit_double","A1QCUD55921N0P","both","4","5","441","","","","","","","0","0","1","0.1571594809","0.3154347028","","","","","0.1207154071","0.3680529171","0.3154347028","0.2277230314","0.1895266442","0.1640214383","0.1571594809","0.2266242761","","","","","","","","75","K","2","","","123","main_expt"
"","bandit","203","1010967","0.0-164.0-0.0","77874300","wem/bandit_double","A1QCUD55921N0P","both","4","5","304","","","","","","","1","0","0","0.2014340991","0.3476523483","","","","","0.1229329119","0.3476523483","0.2966737815","0.3287090939","0.2042850732","0.2014340991","0.2231804049","0.2373824638","","","","","","","","74","J","1","","","124","main_expt"
"","bandit","204","1012853","0.0-165.0-0.0","77874300","wem/bandit_double","A1QCUD55921N0P","both","4","5","344","","","","","","","1","1","0","0.2229229076","0.3564603465","","","","","0.09241122996","0.3564603465","0.3094831126","0.3687339586","0.1812515389","0.2229229076","0.2232794356","0.2538727107","","","","","","","","74","J","1","","","125","main_expt"
"","bandit","205","1014770","0.0-166.0-0.0","77874300","wem/bandit_double","A1QCUD55921N0P","both","4","5","398","","","","","","","0","1","0","0.2324712723","0.3550684458","","","","","0.08418962236","0.3550684458","0.2488993205","0.3836195774","0.1694736183","0.2324712723","0.2316903634","0.290219491","","","","","","","","74","J","1","","","126","main_expt"
"","bandit","206","1017064","0.0-167.0-0.0","77874300","wem/bandit_double","A1QCUD55921N0P","both","4","5","770","","","","","","","0","0","1","0.2542505169","0.3617365958","","","","","0.154715772","0.3235559827","0.1953487027","0.3617365958","0.1624528765","0.2628391623","0.2337524142","0.2542505169","","","","","","","","76","L","3","","","127","main_expt"
"","bandit","207","1019142","0.0-168.0-0.0","77874300","wem/bandit_double","A1QCUD55921N0P","both","4","5","546","","","","","","","0","1","0","0.2198210178","0.2171889907","","","","","0.1556709078","0.312087491","0.2171889907","0.3235283493","0.1632982916","0.2654356302","0.2198210178","0.2582316027","","","","","","","","75","K","2","","","128","main_expt"
"","bandit","208","1020931","0.0-169.0-0.0","77874300","wem/bandit_double","A1QCUD55921N0P","both","4","5","265","","","","","","","0","0","1","0.2264598068","0.1214200615","","","","","0.1214200615","0.2843272188","0.2467699801","0.3453830546","0.2264598068","0.2070569149","0.2280168395","0.3267566011","","","","","","","","72","H","0","img/none_selected.jpg","","129","main_expt"
"","bandit","209","1023034","0.0-170.0-0.0","77874300","wem/bandit_double","A1QCUD55921N0P","both","4","5","564","","","","","","","0","1","0","0.2579182239","0.2128416856","","","","","0.1377283829","0.2128416856","0.2814443482","0.3242747857","0.202760285","0.2579182239","0.243895296","0.3323271388","","","","","","","","74","J","1","","","130","main_expt"
"","bandit","210","1025019","0.0-171.0-0.0","77874300","wem/bandit_double","A1QCUD55921N0P","both","4","5","457","","","","","","","0","1","0","0.2666668646","0.3417201858","","","","","0.1397421628","0.2403879813","0.2834176508","0.3417201858","0.1585094705","0.2329110821","0.2164454501","0.2666668646","","","","","","","","76","L","3","","","131","main_expt"
"","bandit","211","1026940","0.0-172.0-0.0","77874300","wem/bandit_double","A1QCUD55921N0P","both","4","5","393","","","","","","","0","0","1","0.200468731","0.2429908031","","","","","0.1061875113","0.2811421594","0.2429908031","0.3498614837","0.1304261544","0.2400232435","0.200468731","0.2359119393","","","","","","","","75","K","2","","","132","main_expt"
"","bandit","212","1028497","0.0-173.0-0.0","77874300","wem/bandit_double","A1QCUD55921N0P","both","4","5","28","","","","","","","0","0","1","0.09339990826","0.07774811701","","","","","0.07774811701","0.3002858371","0.3053559495","0.3134828643","0.09339990826","0.2084798617","0.2038597077","0.2540740643","","","","","","","","72","H","0","img/none_selected.jpg","","133","main_expt"
"","bandit","213","1030977","0.0-174.0-0.0","77874300","wem/bandit_double","A1QCUD55921N0P","both","4","5","952","","","","","","","0","1","0","0.2034544","0.277406375","","","","","0.08211281178","0.277406375","0.2693478067","0.3554593188","0.08524612959","0.2034544","0.2263269307","0.2414927735","","","","","","","","74","J","1","","","134","main_expt"
"","bandit","214","1032619","0.0-175.0-0.0","77874300","wem/bandit_double","A1QCUD55921N0P","both","4","5","106","","","","","","","0","0","1","0.2686469146","0.3369166079","","","","","0.1123817552","0.2897147582","0.3369166079","0.3150900126","0.0622033461","0.2088958693","0.2686469146","0.2632369982","","","","","","","","75","K","2","","","135","main_expt"
"","bandit","215","1035281","0.0-176.0-0.0","77874300","wem/bandit_double","A1QCUD55921N0P","both","4","5","1128","","","","","","","1","0","0","0.3032623762","0.3199395785","","","","","0.1478339482","0.3590576628","0.268603144","0.3199395785","0.05632890875","0.2573758916","0.3170393738","0.3032623762","","","","","","","","76","L","3","","","136","main_expt"
"","bandit","216","1037174","0.0-177.0-0.0","77874300","wem/bandit_double","A1QCUD55921N0P","both","4","5","366","","","","","","","1","0","0","0.2984046037","0.33362357","","","","","0.1374936615","0.3822427384","0.2373427956","0.33362357","0.06052980877","0.2467438462","0.338962466","0.2984046037","","","","","","","","76","L","3","","","137","main_expt"
"","bandit","217","1038870","0.0-178.0-0.0","77874300","wem/bandit_double","A1QCUD55921N0P","both","4","5","177","","","","","","","0","1","0","0.3110629865","0.3611324022","","","","","0.159761955","0.3410071165","0.2206869265","0.3611324022","0.1038497792","0.2221944767","0.3586643031","0.3110629865","","","","","","","","76","L","3","","","138","main_expt"
"","bandit","218","1040501","0.0-179.0-0.0","77874300","wem/bandit_double","A1QCUD55921N0P","both","4","5","99","","","","","","","0","0","1","0.2750517365","0.3738014659","","","","","0.1363721132","0.3738014659","0.2177966349","0.3504145086","0.08561062373","0.2750517365","0.3430902759","0.3048373826","","","","","","","","74","J","1","","","139","main_expt"
"","bandit","219","1042713","0.0-180.0-0.0","77874300","wem/bandit_double","A1QCUD55921N0P","both","4","5","696","","","","","","","0","0","1","0.08025295029","0.1031445192","","","","","0.1031445192","0.422575493","0.2387685432","0.309774603","0.08025295029","0.277474309","0.3777112835","0.3163642845","","","","","","","","72","H","0","img/none_selected.jpg","","140","main_expt"
"","bandit","220","1045063","0.0-181.0-0.0","77874300","wem/bandit_double","A1QCUD55921N0P","both","4","5","812","","","","","","","0","0","1","0.4276051364","0.2575087366","","","","","0.09805286369","0.4439129864","0.2575087366","0.3506531288","0.09309891757","0.2932007391","0.4276051364","0.2213861514","","","","","","","","75","K","2","","","141","main_expt"
"","bandit","221","1048270","0.0-182.0-0.0","77874300","wem/bandit_double","A1QCUD55921N0P","both","4","5","1684","","","","","","","0","1","0","0.2492613222","0.2965027242","","","","","0.1149002948","0.4323802182","0.2392038972","0.2965027242","0.1107976638","0.3001807938","0.4312347149","0.2492613222","","","","","","","","76","L","3","","","142","main_expt"
"","bandit","222","1050595","0.0-183.0-0.0","77874300","wem/bandit_double","A1QCUD55921N0P","both","4","5","799","","","","","","","1","1","0","0.3640878437","0.4358412593","","","","","0.1209542099","0.4358412593","0.2216470548","0.2087517366","0.09575525052","0.3640878437","0.386657586","0.2645663874","","","","","","","","74","J","1","","","143","main_expt"
"","bandit","223","1052231","0.0-184.0-0.0","77874300","wem/bandit_double","A1QCUD55921N0P","both","4","5","120","","","","","","","0","0","1","0.07222794989","0.1202521083","","","","","0.1202521083","0.4407373256","0.2224896139","0.2313605626","0.07222794989","0.2706796495","0.3409851627","0.2928215939","","","","","","","","72","H","0","img/none_selected.jpg","","144","main_expt"
"","bandit","224","1054217","0.0-185.0-0.0","77874300","wem/bandit_double","A1QCUD55921N0P","both","4","5","457","","","","","","","0","0","1","0.2359726437","0.4661091035","","","","","0.1619743669","0.4661091035","0.1925605464","0.1785565547","0.03203798906","0.2359726437","0.3538709708","0.3178979655","","","","","","","","74","J","1","","","145","main_expt"
"","bandit","225","1060615","0.0-186.0-0.0","77874300","wem/bandit_double","A1QCUD55921N0P","both","4","5","4864","","","","","","","0","0","1","0.03073079809","0.1664631043","","","","","0.1664631043","0.4637097668","0.2069800611","0.1770660648","0.03073079809","0.2200332621","0.2745956728","0.2850957273","","","","","","","","72","H","0","img/none_selected.jpg","","146","main_expt"
"","bandit","226","1065806","0.0-187.0-0.0","77874300","wem/bandit_double","A1QCUD55921N0P","both","4","5","3658","","","","","","","0","0","1","0.1957794229","0.4700491642","","","","","0.1669241763","0.4700491642","0.2489662189","0.1063371611","0.05105424151","0.1957794229","0.2375793476","0.2483519338","","","","","","","","74","J","1","","","147","main_expt"
"","bandit","227","1068403","0.0-188.0-0.0","77874300","wem/bandit_double","A1QCUD55921N0P","both","4","5","1072","","","","","","","1","1","0","0.2954602587","0.1946464158","","","","","0.1581456949","0.4648109734","0.1946464158","0.1216370817","0.04045355104","0.1790722045","0.2954602587","0.2309770791","","","","","","","","75","K","2","","","148","main_expt"
"","bandit","228","1070269","0.0-189.0-0.0","77874300","wem/bandit_double","A1QCUD55921N0P","both","4","5","338","","","","","","","1","0","0","0.1759049641","0.1024256959","","","","","0.1698392466","0.4635511513","0.1826562491","0.1024256959","0.06416506337","0.2189150546","0.3435099865","0.1759049641","","","","","","","","76","L","3","","","149","main_expt"
"","bandit","229","1072213","0.0-190.0-0.0","77874300","wem/bandit_double","A1QCUD55921N0P","both","4","5","409","","","","","","","0","0","1","0.1910702346","0.1371094633","","","","","0.2140114634","0.4445017148","0.1750473563","0.1371094633","0.07819388902","0.2119229637","0.268900415","0.1910702346","","","","","","","","76","L","3","","","150","main_expt"
"","bandit","230","1074180","0.0-191.0-0.0","77874300","wem/bandit_double","A1QCUD55921N0P","both","4","5","432","","","","","","","0","0","1","0.1186979887","0.2392960001","","","","","0.2392960001","0.4434799742","0.1109536645","0.1702433702","0.1186979887","0.2472398003","0.2326488896","0.1799178466","","","","","","","","72","H","0","img/none_selected.jpg","","151","main_expt"
"","bandit","231","1076024","0.0-192.0-0.0","77874300","wem/bandit_double","A1QCUD55921N0P","both","4","5","315","","","","","","","0","0","1","0.2148428051","0.4451665291","","","","","0.2095863317","0.4451665291","0.1143086707","0.1860489046","0.1084773402","0.2148428051","0.2768057641","0.1826140084","","","","","","","","74","J","1","","","152","main_expt"
"","bandit","232","1078025","0.0-193.0-0.0","77874300","wem/bandit_double","A1QCUD55921N0P","both","4","5","466","","","","","","","1","1","0","0.2997660112","0.1236290712","","","","","0.2543258611","0.4401532833","0.1236290712","0.2117094388","0.1314289417","0.1598057249","0.2997660112","0.147924298","","","","","","","","75","K","2","","","153","main_expt"
"","bandit","233","1079816","0.0-194.0-0.0","77874300","wem/bandit_double","A1QCUD55921N0P","both","4","5","262","","","","","","","0","0","1","0.1388357139","0.2072389033","","","","","0.2602259906","0.4516855879","0.1600695342","0.2072389033","0.1354051011","0.1489099923","0.3196464983","0.1388357139","","","","","","","","76","L","3","","","154","main_expt"
"","bandit","234","1081618","0.0-195.0-0.0","77874300","wem/bandit_double","A1QCUD55921N0P","both","4","5","284","","","","","","","0","1","0","0.1502541116","0.4480264808","","","","","0.2750581274","0.4480264808","0.1770288166","0.1986333914","0.1085215933","0.1502541116","0.3141654429","0.1658398244","","","","","","","","74","J","1","","","155","main_expt"
"","bandit","235","1083561","0.0-196.0-0.0","77874300","wem/bandit_double","A1QCUD55921N0P","both","4","5","417","","","","","","","0","0","1","0.1383379057","0.2438045727","","","","","0.2438045727","0.4260414265","0.1761817894","0.2054640346","0.1383379057","0.1605084188","0.2667217688","0.1104921729","","","","","","","","72","H","0","img/none_selected.jpg","","156","main_expt"
"","bandit","236","1085371","0.0-197.0-0.0","77874300","wem/bandit_double","A1QCUD55921N0P","both","4","5","295","","","","","","","1","0","0","0.2867075714","0.1998830888","","","","","0.2857025143","0.4365201507","0.1998830888","0.1810715383","0.1428990181","0.1684101418","0.2867075714","0.09530810267","","","","","","","","75","K","2","","","157","main_expt"
"","bandit","237","1087366","0.0-198.0-0.0","77874300","wem/bandit_double","A1QCUD55921N0P","both","4","5","475","","","","","","","1","0","0","0.2788639118","0.2150354531","","","","","0.2887719476","0.4076244479","0.2150354531","0.2118906364","0.07455979893","0.1807688322","0.2788639118","0.1211627972","","","","","","","","75","K","2","","","158","main_expt"
"","bandit","238","1089201","0.0-199.0-0.0","77874300","wem/bandit_double","A1QCUD55921N0P","both","4","5","305","","","","","","","1","1","0","0.3020710819","0.2221069796","","","","","0.2859462397","0.403953851","0.2221069796","0.2293976715","0.1009372764","0.1516426412","0.3020710819","0.1012897464","","","","","","","","75","K","2","","","159","main_expt"
"","bandit","239","1091138","0.0-200.0-0.0","77874300","wem/bandit_double","A1QCUD55921N0P","both","4","5","402","","","","","","","0","0","1","0.1638698877","0.4282135537","","","","","0.207432816","0.4282135537","0.2627335039","0.2186051381","0.05118862797","0.1638698877","0.3404227007","0.1188035868","","","","","","","","74","J","1","","","160","main_expt"
"","bandit","240","1092830","0.0-201.0-0.0","77874300","wem/bandit_double","A1QCUD55921N0P","both","4","5","175","","","","","","","0","1","0","0.1606836622","0.2175927206","","","","","0.1611694724","0.4479073124","0.2922457848","0.2175927206","0.05265847637","0.1645359983","0.2876249865","0.1606836622","","","","","","","","76","L","3","","","161","main_expt"
"","bandit","241","1094546","0.0-202.0-0.0","77874300","wem/bandit_double","A1QCUD55921N0P","both","4","5","193","","","","","","","0","0","1","0.07938684611","0.14378348","","","","","0.14378348","0.4456201243","0.3040212123","0.2370404117","0.07938684611","0.2509918509","0.2401308511","0.1859884171","","","","","","","","72","H","0","img/none_selected.jpg","","162","main_expt"
"","bandit","242","1097126","0.0-203.0-0.0","77874300","wem/bandit_double","A1QCUD55921N0P","both","4","5","1048","","","","","","","1","1","0","0.2486605046","0.2933359027","","","","","0.1707099899","0.4384930657","0.2933359027","0.2778780432","0.0970900163","0.1883685458","0.2486605046","0.2528258464","","","","","","","","75","K","2","","","163","main_expt"
"","bandit","243","1098902","0.0-204.0-0.0","77874300","wem/bandit_double","A1QCUD55921N0P","both","4","5","262","","","","","","","1","0","0","0.2179532334","0.4231568034","","","","","0.1933693166","0.4231568034","0.2388203062","0.2643388611","0.07401968201","0.2179532334","0.22675384","0.2515292425","","","","","","","","74","J","1","","","164","main_expt"
"","bandit","244","1100631","0.0-205.0-0.0","77874300","wem/bandit_double","A1QCUD55921N0P","both","4","5","193","","","","","","","0","1","0","0.2143704678","0.4412535734","","","","","0.2406324952","0.4412535734","0.2646204916","0.1967204453","0.06633104104","0.2143704678","0.2841151948","0.2068970429","","","","","","","","74","J","1","","","165","main_expt"
"","bandit","245","1102447","0.0-206.0-0.0","77874300","wem/bandit_double","A1QCUD55921N0P","both","4","5","286","","","","","","","0","0","1","0.1413778631","0.1567937345","","","","","0.2650462377","0.438364003","0.2591758032","0.1567937345","0.05309652092","0.2175899085","0.2842980464","0.1413778631","","","","","","","","76","L","3","","","166","main_expt"
"","bandit","246","1103979","0.0-207.0-0.0","77874300","wem/bandit_double","A1QCUD55921N0P","both","4","5","11","","","","","","","1","0","0","0.3007590714","0.1955934818","","","","","0.245875583","0.4290991351","0.1955934818","0.1201482918","0.07357446968","0.2137120923","0.3007590714","0.1999497975","","","","","","","","75","K","2","","","167","main_expt"
"","bandit","247","1105841","0.0-208.0-0.0","77874300","wem/bandit_double","A1QCUD55921N0P","both","4","5","335","","","","","","","1","0","0","0.2884936601","0.2090603634","","","","","0.257303599","0.4510860662","0.2090603634","0.0936051119","0.1054325378","0.2331560811","0.2884936601","0.1696145944","","","","","","","","75","K","2","","","168","main_expt"
"","bandit","248","1107676","0.0-209.0-0.0","77874300","wem/bandit_double","A1QCUD55921N0P","both","4","5","293","","","","","","","0","1","0","0.2803439438","0.2678479696","","","","","0.2993732043","0.4491424364","0.2678479696","0.08775096918","0.08536867429","0.2367963754","0.2803439438","0.1338518967","","","","","","","","75","K","2","","","169","main_expt"
"","bandit","249","1109570","0.0-210.0-0.0","77874300","wem/bandit_double","A1QCUD55921N0P","both","4","5","374","","","","","","","0","1","0","0.1083432756","0.3388977639","","","","","0.3388977639","0.4332244901","0.2532125956","0.06743429675","0.1083432756","0.2378050175","0.3010437192","0.1307598277","","","","","","","","72","H","0","img/none_selected.jpg","","170","main_expt"
"","bandit","250","1113105","0.0-211.0-0.0","77874300","wem/bandit_double","A1QCUD55921N0P","both","4","5","1991","","","","","","","0","1","0","0.09185370626","0.2947926635","","","","","0.2947926635","0.4405036994","0.2568627054","0.05979118822","0.09185370626","0.2253696972","0.3243802095","0.1200375331","","","","","","","","72","H","0","img/none_selected.jpg","","171","main_expt"
"","bandit","251","1115563","0.0-212.0-0.0","77874300","wem/bandit_double","A1QCUD55921N0P","both","4","5","929","","","","","","","0","1","0","0.2903394368","0.4358521759","","","","","0.2892529657","0.4358521759","0.2451563353","0.03200499914","0.09458096772","0.2903394368","0.3140094691","0.07514546963","","","","","","","","74","J","1","","","172","main_expt"
"","bandit","252","1118158","0.0-213.0-0.0","77874300","wem/bandit_double","A1QCUD55921N0P","both","4","5","1076","","","","","","","0","0","1","0.07704486673","0.04613358223","","","","","0.2571917514","0.4471617722","0.3003395367","0.04613358223","0.1016296913","0.2384828248","0.2433770114","0.07704486673","","","","","","","","76","L","3","","","173","main_expt"
"","bandit","253","1120658","0.0-214.0-0.0","77874300","wem/bandit_double","A1QCUD55921N0P","both","4","5","957","","","","","","","1","0","0","0.2080779891","0.2545998681","","","","","0.244173221","0.4560251174","0.2545998681","0.05969677181","0.117107939","0.2823111034","0.2080779891","0.04061738922","","","","","","","","75","K","2","","","174","main_expt"
"","bandit","254","1123376","0.0-215.0-0.0","77874300","wem/bandit_double","A1QCUD55921N0P","both","4","5","1184","","","","","","","0","0","1","0.2211365803","0.3383135611","","","","","0.2038098688","0.4379349024","0.3383135611","0.05930066603","0.1254773658","0.292147578","0.2211365803","0.02968316822","","","","","","","","75","K","2","","","175","main_expt"
"","bandit","255","1125324","0.0-216.0-0.0","77874300","wem/bandit_double","A1QCUD55921N0P","both","4","5","419","","","","","","","0","0","1","0.2928295457","0.4328841116","","","","","0.2053823003","0.4328841116","0.3880627729","0.08110879181","0.1518856622","0.2928295457","0.231280906","0.04419366322","","","","","","","","74","J","1","","","176","main_expt"
"","bandit","256","1127941","0.0-217.0-0.0","77874300","wem/bandit_double","A1QCUD55921N0P","both","4","5","1081","","","","","","","0","0","1","0.1502483312","0.2193083282","","","","","0.2193083282","0.3965365967","0.3920994557","0.07611568943","0.1502483312","0.297241693","0.1689881391","0.04140429262","","","","","","","","72","H","0","img/none_selected.jpg","","177","main_expt"
"","bandit","257","1129702","0.0-218.0-0.0","77874300","wem/bandit_double","A1QCUD55921N0P","both","4","5","243","","","","","","","0","1","0","0.1699404395","0.3882277994","","","","","0.1904263594","0.3899234309","0.3882277994","0.1220467165","0.2073149786","0.276241128","0.1699404395","0.06103489621","","","","","","","","75","K","2","","","178","main_expt"
"","bandit","258","1131716","0.0-219.0-0.0","77874300","wem/bandit_double","A1QCUD55921N0P","both","4","5","478","","","","","","","0","0","1","0.053608248","0.1698853315","","","","","0.2212788648","0.4238443777","0.3939691408","0.1698853315","0.1928578162","0.2405339857","0.1571972967","0.053608248","","","","","","","","76","L","3","","","179","main_expt"
"","bandit","259","1133597","0.0-220.0-0.0","77874300","wem/bandit_double","A1QCUD55921N0P","both","4","5","343","","","","","","","0","1","0","0.233428307","0.4487400994","","","","","0.2640717145","0.4487400994","0.4074656662","0.1374762061","0.1412953234","0.233428307","0.1567782565","0.06289379635","","","","","","","","74","J","1","","","180","main_expt"
"","bandit","260","1135467","0.0-221.0-0.0","77874300","wem/bandit_double","A1QCUD55921N0P","both","4","5","331","","","","","","","0","0","1","0.1258774719","0.2426483564","","","","","0.2426483564","0.4314573438","0.3724421945","0.09961924189","0.1258774719","0.1459310114","0.1492691696","0.07748386732","","","","","","","","72","H","0","img/none_selected.jpg","","181","main_expt"
"","bandit","261","1137021","0.0-222.0-0.0","77874300","wem/bandit_double","A1QCUD55921N0P","both","4","5","30","","","","","","","0","0","1","0.1121960069","0.2001563476","","","","","0.2001563476","0.4458059303","0.2998177931","0.1391043194","0.1121960069","0.1796360657","0.1609613705","0.096714051","","","","","","","","72","H","0","img/none_selected.jpg","","182","main_expt"
"","bandit","262","1138752","0.0-223.0-0.0","77874300","wem/bandit_double","A1QCUD55921N0P","both","4","5","208","","","","","","","0","0","1","0.1982891881","0.3629728763","","","","","0.2167094124","0.4485460149","0.3629728763","0.1336424596","0.08335286121","0.1907874973","0.1982891881","0.05351369794","","","","","","","","75","K","2","","","183","main_expt"
"","bandit","263","1140600","0.0-224.0-0.0","77874300","wem/bandit_double","A1QCUD55921N0P","both","4","5","314","","","","","","","0","0","1","0.1451627339","0.4078350507","","","","","0.2402813617","0.4078350507","0.3763603645","0.115911235","0.1085923678","0.1451627339","0.1703318442","0.08854511538","","","","","","","","74","J","1","","","184","main_expt"
"","bandit","264","1142639","0.0-225.0-0.0","77874300","wem/bandit_double","A1QCUD55921N0P","both","4","5","508","","","","","","","1","0","0","0.136385666","0.1394203739","","","","","0.2745112141","0.3805788675","0.3472982705","0.1394203739","0.1113654269","0.1692531577","0.09566746086","0.136385666","","","","","","","","76","L","3","","","185","main_expt"
"","bandit","265","1144549","0.0-226.0-0.0","77874300","wem/bandit_double","A1QCUD55921N0P","both","4","5","385","","","","","","","1","0","0","0.1848043888","0.1557479742","","","","","0.2774566956","0.4236809331","0.3095995051","0.1557479742","0.1383531569","0.1885113298","0.1254261761","0.1848043888","","","","","","","","76","L","3","","","186","main_expt"
"","bandit","266","1146374","0.0-227.0-0.0","77874300","wem/bandit_double","A1QCUD55921N0P","both","4","5","312","","","","","","","0","0","1","0.1640989128","0.1823611596","","","","","0.2876011691","0.4058627081","0.2567332284","0.1823611596","0.1739713275","0.2088125345","0.1081798115","0.1640989128","","","","","","","","76","L","3","","","187","main_expt"
"","bandit","267","1148321","0.0-228.0-0.0","77874300","wem/bandit_double","A1QCUD55921N0P","both","4","5","416","","","","","","","0","0","1","0.1926366302","0.2947112378","","","","","0.2947112378","0.3913346521","0.2555256861","0.1854179297","0.1926366302","0.2228369986","0.08529062399","0.1301402021","","","","","","","","72","H","0","img/none_selected.jpg","","188","main_expt"
"","bandit","268","1150283","0.0-229.0-0.0","77874300","wem/bandit_double","A1QCUD55921N0P","both","4","5","424","","","","","","","0","0","1","0.07250281893","0.2009875262","","","","","0.2581494","0.3760164219","0.2009875262","0.1875645599","0.2499935398","0.2567428292","0.07250281893","0.1980942663","","","","","","","","75","K","2","","","189","main_expt"
"","bandit","269","1153120","0.0-230.0-0.0","77874300","wem/bandit_double","A1QCUD55921N0P","both","4","5","1311","","","","","","","0","0","1","0.3177850294","0.3327352817","","","","","0.1756323468","0.3327352817","0.2055488595","0.2018323604","0.2367317824","0.3177850294","0.07895395147","0.1842725295","","","","","","","","74","J","1","","","190","main_expt"
"","bandit","270","1155595","0.0-231.0-0.0","77874300","wem/bandit_double","A1QCUD55921N0P","both","4","5","946","","","","","","","0","0","1","0.2087081259","0.221094727","","","","","0.2521570866","0.3015177445","0.1506387864","0.221094727","0.2515026666","0.2876912335","0.06204701637","0.2087081259","","","","","","","","76","L","3","","","191","main_expt"
"","bandit","271","1161035","0.0-232.0-0.0","77874300","wem/bandit_double","A1QCUD55921N0P","both","4","5","3902","","","","","","","0","1","0","0.064067899","0.2027442266","","","","","0.2964739449","0.2773298268","0.2027442266","0.2320570195","0.2451916405","0.2383873749","0.064067899","0.1800110976","","","","","","","","75","K","2","","","192","main_expt"
"","bandit","272","1164310","0.0-233.0-0.0","77874300","wem/bandit_double","A1QCUD55921N0P","both","4","5","1755","","","","","","","0","0","1","0.24690957","0.2836613797","","","","","0.2612966838","0.2836613797","0.1969137872","0.2948950962","0.2353451433","0.24690957","0.1286650472","0.1519186298","","","","","","","","74","J","1","","","193","main_expt"
"","bandit","273","1166059","0.0-234.0-0.0","77874300","wem/bandit_double","A1QCUD55921N0P","both","4","5","222","","","","","","","0","0","1","0.1431656489","0.2602906927","","","","","0.3292914436","0.2799350415","0.2114994946","0.2602906927","0.307075739","0.2728455101","0.1746490116","0.1431656489","","","","","","","","76","L","3","","","194","main_expt"
"","bandit","274","1167804","0.0-235.0-0.0","77874300","wem/bandit_double","A1QCUD55921N0P","both","4","5","206","","","","","","","0","0","1","0.3011001907","0.4070308407","","","","","0.4070308407","0.2068597772","0.2467939011","0.1771499101","0.3011001907","0.2421292151","0.129035247","0.1868251083","","","","","","","","72","H","0","img/none_selected.jpg","","195","main_expt"
"","bandit","275","1169917","0.0-236.0-0.0","77874300","wem/bandit_double","A1QCUD55921N0P","both","4","5","582","","","","","","","0","0","1","0.09052040682","0.2731811988","","","","","0.3494820729","0.2679469531","0.2731811988","0.1746274925","0.2861216794","0.2598052724","0.09052040682","0.176624335","","","","","","","","75","K","2","","","196","main_expt"
"","bandit","276","1171849","0.0-237.0-0.0","77874300","wem/bandit_double","A1QCUD55921N0P","both","4","5","400","","","","","","","1","0","0","0.2540930088","0.2448078588","","","","","0.3571939809","0.2448078588","0.2512114903","0.193224684","0.2121549007","0.2540930088","0.08675464884","0.2383323772","","","","","","","","74","J","1","","","197","main_expt"
"","bandit","277","1174085","0.0-238.0-0.0","77874300","wem/bandit_double","A1QCUD55921N0P","both","4","5","699","","","","","","","0","0","1","0.2460150375","0.2433987968","","","","","0.382430028","0.2433987968","0.190651112","0.1771509929","0.260340052","0.2460150375","0.09429549835","0.260618614","","","","","","","","74","J","1","","","198","main_expt"
"","bandit","278","1176241","0.0-239.0-0.0","77874300","wem/bandit_double","A1QCUD55921N0P","both","4","5","621","","","","","","","0","0","1","0.2935067364","0.2466668772","","","","","0.3353474301","0.2653624242","0.1701189695","0.2466668772","0.3009562829","0.2217343644","0.09303778716","0.2935067364","","","","","","","","76","L","3","","","199","main_expt"
"","bandit","279","1178153","0.0-240.0-0.0","77874300","wem/bandit_double","A1QCUD55921N0P","both","4","5","378","","","","","","","0","0","1","0.3430896668","0.3321976498","","","","","0.3321976498","0.2551376492","0.1656975488","0.2477816141","0.3430896668","0.2830302048","0.07354084322","0.362920627","","","","","","","","72","H","0","img/none_selected.jpg","","200","main_expt"
"","bandit","280","1180085","0.0-241.0-0.0","77874300","wem/bandit_double","A1QCUD55921N0P","both","4","5","406","","","","","","","1","0","0","0.08115367452","0.1647298582","","","","","0.3218117355","0.2660639347","0.1647298582","0.2744817861","0.2973668079","0.3175621279","0.08115367452","0.3119044903","","","","","","","","75","K","2","","","201","main_expt"
"","bandit","281","1181960","0.0-242.0-0.0","77874300","wem/bandit_double","A1QCUD55921N0P","both","4","5","359","","","","","","","1","0","0","0.0774842685","0.1242041815","","","","","0.2949214693","0.2220900594","0.1242041815","0.3043062986","0.3219337599","0.3049471546","0.0774842685","0.3095695708","","","","","","","","75","K","2","","","202","main_expt"
"","bandit","282","1183839","0.0-243.0-0.0","77874300","wem/bandit_double","A1QCUD55921N0P","both","4","5","364","","","","","","","0","0","1","0.09704724367","0.1684487429","","","","","0.300077299","0.1543353204","0.1684487429","0.272185569","0.3229991028","0.2975042969","0.09704724367","0.3005459379","","","","","","","","75","K","2","","","203","main_expt"
"","bandit","283","1185624","0.0-244.0-0.0","77874300","wem/bandit_double","A1QCUD55921N0P","both","4","5","255","","","","","","","0","0","1","0.2268457719","0.1605482003","","","","","0.2866085977","0.1605482003","0.1666409686","0.2610767704","0.3077995671","0.2268457719","0.1224111047","0.3116824409","","","","","","","","74","J","1","","","204","main_expt"
"","bandit","284","1187442","0.0-245.0-0.0","77874300","wem/bandit_double","A1QCUD55921N0P","both","4","5","283","","","","","","","0","0","1","0.3291635812","0.2832615928","","","","","0.2695546272","0.1406914754","0.2197286508","0.2832615928","0.3070199156","0.2582085449","0.1627664319","0.3291635812","","","","","","","","76","L","3","","","205","main_expt"
"","bandit","285","1189467","0.0-246.0-0.0","77874300","wem/bandit_double","A1QCUD55921N0P","both","4","5","504","","","","","","","0","0","1","0.3109683939","0.2622178416","","","","","0.2622178416","0.1138947463","0.2754509052","0.300913322","0.3109683939","0.2841247045","0.1604236747","0.4008790519","","","","","","","","72","H","0","img/none_selected.jpg","","206","main_expt"
"","bandit","286","1192345","0.0-247.0-0.0","77874300","wem/bandit_double","A1QCUD55921N0P","both","4","5","1346","","","","","","","1","0","0","0.2845075958","0.2498186578","","","","","0.2498186578","0.1096702189","0.2664869377","0.3260258847","0.2845075958","0.3333225396","0.126388554","0.4202180382","","","","","","","","72","H","0","img/none_selected.jpg","","207","main_expt"
"","bandit","287","1193981","0.0-248.0-0.0","77874300","wem/bandit_double","A1QCUD55921N0P","both","4","5","112","","","","","","","0","0","1","0.2419557814","0.2335358635","","","","","0.2335358635","0.09922356593","0.2686565688","0.3173829003","0.2419557814","0.290219871","0.1602309633","0.4168586074","","","","","","","","72","H","0","img/none_selected.jpg","","208","main_expt"
"","bandit","288","1196111","0.0-249.0-0.0","77874300","wem/bandit_double","A1QCUD55921N0P","both","4","5","603","","","","","","","0","1","0","0.2009997365","0.2380255957","","","","","0.2638942681","0.101567507","0.2380255957","0.3153846937","0.2449545816","0.3426384504","0.2009997365","0.3949328033","","","","","","","","75","K","2","","","209","main_expt"
"","bandit","289","1199072","0.0-250.0-0.0","77874300","wem/bandit_double","A1QCUD55921N0P","both","4","5","1431","","","","","","","0","0","1","0.1997114924","0.2507768727","","","","","0.2526926237","0.08675379402","0.2507768727","0.3010876552","0.2176860071","0.2932754766","0.1997114924","0.41782505","","","","","","","","75","K","2","","","210","main_expt"
"","bandit","290","1201102","0.0-251.0-0.0","77874300","wem/bandit_double","A1QCUD55921N0P","both","4","5","520","","","","","","","0","0","1","0.2522206247","0.07512021269","","","","","0.2740367769","0.07512021269","0.2685142319","0.2864900033","0.2460847292","0.2522206247","0.2631807131","0.4377941382","","","","","","","","74","J","1","","","211","main_expt"
"","bandit","291","1203032","0.0-252.0-0.0","77874300","wem/bandit_double","A1QCUD55921N0P","both","4","5","399","","","","","","","1","0","0","0.2008991105","0.260511483","","","","","0.2440836191","0.08144254236","0.260511483","0.3163372434","0.2017704833","0.2323705111","0.2008991105","0.4619006446","","","","","","","","75","K","2","","","212","main_expt"
"","bandit","292","1204940","0.0-253.0-0.0","77874300","wem/bandit_double","A1QCUD55921N0P","both","4","5","383","","","","","","","0","0","1","0.1656487101","0.2579605047","","","","","0.2341903104","0.06585574052","0.2579605047","0.2701305136","0.1891715169","0.2815580385","0.1656487101","0.4508737721","","","","","","","","75","K","2","","","213","main_expt"
"","bandit","293","1206769","0.0-254.0-0.0","77874300","wem/bandit_double","A1QCUD55921N0P","both","4","5","300","","","","","","","0","0","1","0.4639731149","0.302599165","","","","","0.2097526345","0.08686614453","0.2470456849","0.302599165","0.1819308411","0.2955812139","0.213788386","0.4639731149","","","","","","","","76","L","3","","","214","main_expt"
"","bandit","294","1208816","0.0-255.0-0.0","77874300","wem/bandit_double","A1QCUD55921N0P","both","4","5","523","","","","","","","0","1","0","0.1406935411","0.1796882487","","","","","0.1796882487","0.1068548489","0.3285383036","0.2968005471","0.1406935411","0.2988647484","0.2206736926","0.4690757113","","","","","","","","72","H","0","img/none_selected.jpg","","215","main_expt"
