"consent","trial_type","trial_index","time_elapsed","internal_node_id","subjID","study","MID","cond","drift1","drift2","rt","responses","key_press","expt_phase","like","value","connected","gems","bombs","no_reward","GemPrChosen","BombPrChosen","GainOverPainPr_0","GainOverPainPr_1","GainOverPainPr_2","GainOverPainPr_3","LosePr_0","LosePr_1","LosePr_2","LosePr_3","WinPr_0","WinPr_1","WinPr_2","WinPr_3","Q0","Q1","Q2","gender","age","ethnicity","target","respCharCode","respKey","respChoiceNum","respChoice","practice","trial_counter","trial_label"
"INL_behavioral_consent_30min_online.html","consent","0","22328","0.0-0.0","78681007","wem/bandit_double","A2JP9IKRHNLRPI","both","7","2","","","","","","","","","","","","","","","","","","","","","","","","","","","","","","","","","","","","","",""
"","survey-text","1","25774","0.0-1.0","78681007","wem/bandit_double","A2JP9IKRHNLRPI","both","7","2","2426","{""Q0"":""A2JP9IKRHNLRPI""}","","","","","","","","","","","","","","","","","","","","","","","","","","","","","","","","","","","",""
"","text","2","31754","0.0-2.0","78681007","wem/bandit_double","A2JP9IKRHNLRPI","both","7","2","4972","","32","","","","","","","","","","","","","","","","","","","","","","","","","","","","","","","","","","",""
"","text","3","35031","0.0-3.0","78681007","wem/bandit_double","A2JP9IKRHNLRPI","both","7","2","3276","","32","","","","","","","","","","","","","","","","","","","","","","","","","","","","","","","","","","",""
"","text","4","43969","0.0-4.0","78681007","wem/bandit_double","A2JP9IKRHNLRPI","both","7","2","8936","","32","","","","","","","","","","","","","","","","","","","","","","","","","","","","","","","","","","",""
"","text","5","52824","0.0-5.0","78681007","wem/bandit_double","A2JP9IKRHNLRPI","both","7","2","8853","","32","","","","","","","","","","","","","","","","","","","","","","","","","","","","","","","","","","",""
"","text","6","123226","0.0-6.0","78681007","wem/bandit_double","A2JP9IKRHNLRPI","both","7","2","70398","","32","","","","","","","","","","","","","","","","","","","","","","","","","","","","","","","","","","",""
"","text","7","128398","0.0-7.0","78681007","wem/bandit_double","A2JP9IKRHNLRPI","both","7","2","5167","","32","","","","","","","","","","","","","","","","","","","","","","","","","","","","","","","","","","",""
"","identification","8","132571","0.0-8.0-0.0","78681007","wem/bandit_double","A2JP9IKRHNLRPI","both","7","2","4147","","","","0","0","0","","","","","","","","","","","","","","","","","","","","","","","","the village of Zur","","","","","","",""
"","identification","9","135935","0.0-8.0-1.0","78681007","wem/bandit_double","A2JP9IKRHNLRPI","both","7","2","2341","","","","0","0","0","","","","","","","","","","","","","","","","","","","","","","","","the village of Nyx","","","","","","",""
"","text","10","147350","0.0-9.0","78681007","wem/bandit_double","A2JP9IKRHNLRPI","both","7","2","10409","","32","","","","","","","","","","","","","","","","","","","","","","","","","","","","","","","","","","",""
"","text","11","149557","0.0-10.0","78681007","wem/bandit_double","A2JP9IKRHNLRPI","both","7","2","2206","","32","","","","","","","","","","","","","","","","","","","","","","","","","","","","","","","","","","",""
"","text","12","150949","0.0-11.0","78681007","wem/bandit_double","A2JP9IKRHNLRPI","both","7","2","1390","","32","","","","","","","","","","","","","","","","","","","","","","","","","","","","","","","","","","",""
"","text","13","152222","0.0-12.0","78681007","wem/bandit_double","A2JP9IKRHNLRPI","both","7","2","1270","","32","","","","","","","","","","","","","","","","","","","","","","","","","","","","","","","","","","",""
"","text","14","154389","0.0-13.0","78681007","wem/bandit_double","A2JP9IKRHNLRPI","both","7","2","2164","","32","","","","","","","","","","","","","","","","","","","","","","","","","","","","","","","","","","",""
"","bandit","15","157420","0.0-14.0-0.0","78681007","wem/bandit_double","A2JP9IKRHNLRPI","both","7","2","1514","","","","","","","1","0","0","1","0","","","","","0","","","","1","","","","","","","","","","","74","J","0","img/none_selected_demo.jpg","true","0",""
"","bandit","16","159345","0.0-15.0-0.0","78681007","wem/bandit_double","A2JP9IKRHNLRPI","both","7","2","414","","","","","","","0","1","0","0","1","","","","","1","","","","0","","","","","","","","","","","75","K","0","img/none_selected_demo.jpg","true","0",""
"","text","17","163621","0.0-16.0","78681007","wem/bandit_double","A2JP9IKRHNLRPI","both","7","2","4274","","32","","","","","","","","","","","","","","","","","","","","","","","","","","","","","","","","","","",""
"","text","18","168582","0.0-17.0","78681007","wem/bandit_double","A2JP9IKRHNLRPI","both","7","2","4960","","32","","","","","","","","","","","","","","","","","","","","","","","","","","","","","","","","","","",""
"","text","19","171053","0.0-18.0","78681007","wem/bandit_double","A2JP9IKRHNLRPI","both","7","2","2469","","32","","","","","","","","","","","","","","","","","","","","","","","","","","","","","","","","","","",""
"","text","20","172397","0.0-19.0","78681007","wem/bandit_double","A2JP9IKRHNLRPI","both","7","2","1343","","32","","","","","","","","","","","","","","","","","","","","","","","","","","","","","","","","","","",""
"","bandit","21","175220","0.0-20.0-0.0","78681007","wem/bandit_double","A2JP9IKRHNLRPI","both","7","2","1308","","","","","","","1","0","0","0.8","0","","","","","0","0","","","0.8","0.2","","","","","","","","","","74","J","0","img/none_selected_demo.jpg","true","0","80_20_practice"
"","bandit","22","177100","0.0-20.0-1.0","78681007","wem/bandit_double","A2JP9IKRHNLRPI","both","7","2","365","","","","","","","0","0","1","0.8","0","","","","","0","0","","","0.8","0.2","","","","","","","","","","74","J","0","img/none_selected_demo.jpg","true","0","80_20_practice"
"","bandit","23","178842","0.0-20.0-2.0","78681007","wem/bandit_double","A2JP9IKRHNLRPI","both","7","2","229","","","","","","","1","0","0","0.8","0","","","","","0","0","","","0.8","0.2","","","","","","","","","","74","J","0","img/none_selected_demo.jpg","true","0","80_20_practice"
"","bandit","24","180410","0.0-20.0-3.0","78681007","wem/bandit_double","A2JP9IKRHNLRPI","both","7","2","56","","","","","","","1","0","0","0.8","0","","","","","0","0","","","0.8","0.2","","","","","","","","","","74","J","0","img/none_selected_demo.jpg","true","0","80_20_practice"
"","bandit","25","182053","0.0-20.0-4.0","78681007","wem/bandit_double","A2JP9IKRHNLRPI","both","7","2","128","","","","","","","1","0","0","0.8","0","","","","","0","0","","","0.8","0.2","","","","","","","","","","74","J","0","img/none_selected_demo.jpg","true","0","80_20_practice"
"","bandit","26","183630","0.0-20.0-5.0","78681007","wem/bandit_double","A2JP9IKRHNLRPI","both","7","2","67","","","","","","","1","0","0","0.8","0","","","","","0","0","","","0.8","0.2","","","","","","","","","","74","J","0","img/none_selected_demo.jpg","true","0","80_20_practice"
"","bandit","27","185147","0.0-20.0-6.0","78681007","wem/bandit_double","A2JP9IKRHNLRPI","both","7","2","3","","","","","","","1","0","0","0.8","0","","","","","0","0","","","0.8","0.2","","","","","","","","","","74","J","0","img/none_selected_demo.jpg","true","0","80_20_practice"
"","bandit","28","186789","0.0-20.0-7.0","78681007","wem/bandit_double","A2JP9IKRHNLRPI","both","7","2","134","","","","","","","1","0","0","0.8","0","","","","","0","0","","","0.8","0.2","","","","","","","","","","74","J","0","img/none_selected_demo.jpg","true","0","80_20_practice"
"","bandit","29","188536","0.0-20.0-8.0","78681007","wem/bandit_double","A2JP9IKRHNLRPI","both","7","2","234","","","","","","","1","0","0","0.8","0","","","","","0","0","","","0.8","0.2","","","","","","","","","","74","J","0","img/none_selected_demo.jpg","true","0","80_20_practice"
"","bandit","30","190104","0.0-20.0-9.0","78681007","wem/bandit_double","A2JP9IKRHNLRPI","both","7","2","56","","","","","","","0","0","1","0.2","0","","","","","0","0","","","0.8","0.2","","","","","","","","","","75","K","1","","true","0","80_20_practice"
"","bandit","31","191641","0.0-20.0-10.0","78681007","wem/bandit_double","A2JP9IKRHNLRPI","both","7","2","23","","","","","","","0","0","1","0.2","0","","","","","0","0","","","0.8","0.2","","","","","","","","","","75","K","1","","true","0","80_20_practice"
"","bandit","32","193441","0.0-20.0-11.0","78681007","wem/bandit_double","A2JP9IKRHNLRPI","both","7","2","287","","","","","","","0","0","1","0.2","0","","","","","0","0","","","0.8","0.2","","","","","","","","","","75","K","1","","true","0","80_20_practice"
"","bandit","33","194994","0.0-20.0-12.0","78681007","wem/bandit_double","A2JP9IKRHNLRPI","both","7","2","38","","","","","","","1","0","0","0.8","0","","","","","0","0","","","0.8","0.2","","","","","","","","","","74","J","0","img/none_selected_demo.jpg","true","0","80_20_practice"
"","bandit","34","196738","0.0-20.0-13.0","78681007","wem/bandit_double","A2JP9IKRHNLRPI","both","7","2","231","","","","","","","1","0","0","0.8","0","","","","","0","0","","","0.8","0.2","","","","","","","","","","74","J","0","img/none_selected_demo.jpg","true","0","80_20_practice"
"","bandit","35","198353","0.0-20.0-14.0","78681007","wem/bandit_double","A2JP9IKRHNLRPI","both","7","2","102","","","","","","","1","0","0","0.8","0","","","","","0","0","","","0.8","0.2","","","","","","","","","","74","J","0","img/none_selected_demo.jpg","true","0","80_20_practice"
"","bandit","36","199901","0.0-20.0-15.0","78681007","wem/bandit_double","A2JP9IKRHNLRPI","both","7","2","35","","","","","","","1","0","0","0.8","0","","","","","0","0","","","0.8","0.2","","","","","","","","","","74","J","0","img/none_selected_demo.jpg","true","0","80_20_practice"
"","bandit","37","201434","0.0-20.0-16.0","78681007","wem/bandit_double","A2JP9IKRHNLRPI","both","7","2","20","","","","","","","0","0","1","0.8","0","","","","","0","0","","","0.8","0.2","","","","","","","","","","74","J","0","img/none_selected_demo.jpg","true","0","80_20_practice"
"","bandit","38","202978","0.0-20.0-17.0","78681007","wem/bandit_double","A2JP9IKRHNLRPI","both","7","2","30","","","","","","","1","0","0","0.8","0","","","","","0","0","","","0.8","0.2","","","","","","","","","","74","J","0","img/none_selected_demo.jpg","true","0","80_20_practice"
"","bandit","39","204679","0.0-20.0-18.0","78681007","wem/bandit_double","A2JP9IKRHNLRPI","both","7","2","190","","","","","","","1","0","0","0.8","0","","","","","0","0","","","0.8","0.2","","","","","","","","","","74","J","0","img/none_selected_demo.jpg","true","0","80_20_practice"
"","bandit","40","206362","0.0-20.0-19.0","78681007","wem/bandit_double","A2JP9IKRHNLRPI","both","7","2","167","","","","","","","1","0","0","0.8","0","","","","","0","0","","","0.8","0.2","","","","","","","","","","74","J","0","img/none_selected_demo.jpg","true","0","80_20_practice"
"","text","41","211996","0.0-21.0","78681007","wem/bandit_double","A2JP9IKRHNLRPI","both","7","2","5631","","32","","","","","","","","","","","","","","","","","","","","","","","","","","","","","","","","","","",""
"","bandit","42","214650","0.0-22.0-0.0","78681007","wem/bandit_double","A2JP9IKRHNLRPI","both","7","2","1139","","","","","","","1","0","0","1","0","","","","","0","1","","","1","0","","","","","","","","","","74","J","0","img/none_selected_demo.jpg","true","0",""
"","text","43","304244","0.0-23.0","78681007","wem/bandit_double","A2JP9IKRHNLRPI","both","7","2","89587","","32","","","","","","","","","","","","","","","","","","","","","","","","","","","","","","","","","","",""
"","text","44","306314","0.0-24.0","78681007","wem/bandit_double","A2JP9IKRHNLRPI","both","7","2","2060","","32","","","","","","","","","","","","","","","","","","","","","","","","","","","","","","","","","","",""
"","text","45","307674","0.0-25.0","78681007","wem/bandit_double","A2JP9IKRHNLRPI","both","7","2","1358","","32","","","","","","","","","","","","","","","","","","","","","","","","","","","","","","","","","","",""
"","text","46","309114","0.0-26.0","78681007","wem/bandit_double","A2JP9IKRHNLRPI","both","7","2","1438","","32","","","","","","","","","","","","","","","","","","","","","","","","","","","","","","","","","","",""
"","text","47","310394","0.0-27.0","78681007","wem/bandit_double","A2JP9IKRHNLRPI","both","7","2","1278","","32","","","","","","","","","","","","","","","","","","","","","","","","","","","","","","","","","","",""
"","text","48","316292","0.0-28.0","78681007","wem/bandit_double","A2JP9IKRHNLRPI","both","7","2","5896","","32","","","","","","","","","","","","","","","","","","","","","","","","","","","","","","","","","","",""
"","text","49","321610","0.0-29.0","78681007","wem/bandit_double","A2JP9IKRHNLRPI","both","7","2","5315","","32","","","","","","","","","","","","","","","","","","","","","","","","","","","","","","","","","","",""
"","text","50","324370","0.0-30.0","78681007","wem/bandit_double","A2JP9IKRHNLRPI","both","7","2","2758","","32","","","","","","","","","","","","","","","","","","","","","","","","","","","","","","","","","","",""
"","text","51","326646","0.0-31.0","78681007","wem/bandit_double","A2JP9IKRHNLRPI","both","7","2","2274","","32","","","","","","","","","","","","","","","","","","","","","","","","","","","","","","","","","","",""
"","text","52","329419","0.0-32.0","78681007","wem/bandit_double","A2JP9IKRHNLRPI","both","7","2","2770","","32","","","","","","","","","","","","","","","","","","","","","","","","","","","","","","","","","","",""
"","text","53","330490","0.0-33.0","78681007","wem/bandit_double","A2JP9IKRHNLRPI","both","7","2","1068","","32","","","","","","","","","","","","","","","","","","","","","","","","","","","","","","","","","","",""
"","text","54","333531","0.0-34.0","78681007","wem/bandit_double","A2JP9IKRHNLRPI","both","7","2","3037","","32","","","","","","","","","","","","","","","","","","","","","","","","","","","","","","","","","","",""
"","bandit","55","336116","0.0-35.0-0.0","78681007","wem/bandit_double","A2JP9IKRHNLRPI","both","7","2","1066","","","","","","","1","0","0","0.8","0.8","","","","","0.8","0.2","0.6","0.2","0.8","0.2","0.6","0.2","","","","","","","","72","H","0","img/none_selected.jpg","true","0","full_practice"
"","bandit","56","337758","0.0-35.0-1.0","78681007","wem/bandit_double","A2JP9IKRHNLRPI","both","7","2","128","","","","","","","1","0","0","0.8","0.8","","","","","0.8","0.2","0.6","0.2","0.8","0.2","0.6","0.2","","","","","","","","72","H","0","img/none_selected.jpg","true","0","full_practice"
"","bandit","57","339480","0.0-35.0-2.0","78681007","wem/bandit_double","A2JP9IKRHNLRPI","both","7","2","208","","","","","","","1","1","0","0.8","0.8","","","","","0.8","0.2","0.6","0.2","0.8","0.2","0.6","0.2","","","","","","","","72","H","0","img/none_selected.jpg","true","0","full_practice"
"","bandit","58","340994","0.0-35.0-3.0","78681007","wem/bandit_double","A2JP9IKRHNLRPI","both","7","2","6","","","","","","","1","0","0","0.8","0.8","","","","","0.8","0.2","0.6","0.2","0.8","0.2","0.6","0.2","","","","","","","","72","H","0","img/none_selected.jpg","true","0","full_practice"
"","bandit","59","342726","0.0-35.0-4.0","78681007","wem/bandit_double","A2JP9IKRHNLRPI","both","7","2","221","","","","","","","1","1","0","0.8","0.8","","","","","0.8","0.2","0.6","0.2","0.8","0.2","0.6","0.2","","","","","","","","72","H","0","img/none_selected.jpg","true","0","full_practice"
"","bandit","60","344407","0.0-35.0-5.0","78681007","wem/bandit_double","A2JP9IKRHNLRPI","both","7","2","167","","","","","","","1","0","0","0.8","0.8","","","","","0.8","0.2","0.6","0.2","0.8","0.2","0.6","0.2","","","","","","","","72","H","0","img/none_selected.jpg","true","0","full_practice"
"","bandit","61","345998","0.0-35.0-6.0","78681007","wem/bandit_double","A2JP9IKRHNLRPI","both","7","2","80","","","","","","","1","1","0","0.8","0.8","","","","","0.8","0.2","0.6","0.2","0.8","0.2","0.6","0.2","","","","","","","","72","H","0","img/none_selected.jpg","true","0","full_practice"
"","bandit","62","347530","0.0-35.0-7.0","78681007","wem/bandit_double","A2JP9IKRHNLRPI","both","7","2","22","","","","","","","1","1","0","0.8","0.8","","","","","0.8","0.2","0.6","0.2","0.8","0.2","0.6","0.2","","","","","","","","72","H","0","img/none_selected.jpg","true","0","full_practice"
"","bandit","63","349257","0.0-35.0-8.0","78681007","wem/bandit_double","A2JP9IKRHNLRPI","both","7","2","212","","","","","","","1","1","0","0.8","0.8","","","","","0.8","0.2","0.6","0.2","0.8","0.2","0.6","0.2","","","","","","","","72","H","0","img/none_selected.jpg","true","0","full_practice"
"","bandit","64","350774","0.0-35.0-9.0","78681007","wem/bandit_double","A2JP9IKRHNLRPI","both","7","2","5","","","","","","","1","1","0","0.8","0.8","","","","","0.8","0.2","0.6","0.2","0.8","0.2","0.6","0.2","","","","","","","","72","H","0","img/none_selected.jpg","true","0","full_practice"
"","bandit","65","352343","0.0-35.0-10.0","78681007","wem/bandit_double","A2JP9IKRHNLRPI","both","7","2","53","","","","","","","1","1","0","0.8","0.8","","","","","0.8","0.2","0.6","0.2","0.8","0.2","0.6","0.2","","","","","","","","72","H","0","img/none_selected.jpg","true","0","full_practice"
"","bandit","66","353916","0.0-35.0-11.0","78681007","wem/bandit_double","A2JP9IKRHNLRPI","both","7","2","63","","","","","","","1","1","0","0.8","0.8","","","","","0.8","0.2","0.6","0.2","0.8","0.2","0.6","0.2","","","","","","","","72","H","0","img/none_selected.jpg","true","0","full_practice"
"","bandit","67","355536","0.0-35.0-12.0","78681007","wem/bandit_double","A2JP9IKRHNLRPI","both","7","2","106","","","","","","","1","1","0","0.8","0.8","","","","","0.8","0.2","0.6","0.2","0.8","0.2","0.6","0.2","","","","","","","","72","H","0","img/none_selected.jpg","true","0","full_practice"
"","bandit","68","357126","0.0-35.0-13.0","78681007","wem/bandit_double","A2JP9IKRHNLRPI","both","7","2","76","","","","","","","0","1","0","0.8","0.8","","","","","0.8","0.2","0.6","0.2","0.8","0.2","0.6","0.2","","","","","","","","72","H","0","img/none_selected.jpg","true","0","full_practice"
"","bandit","69","358687","0.0-35.0-14.0","78681007","wem/bandit_double","A2JP9IKRHNLRPI","both","7","2","46","","","","","","","1","1","0","0.8","0.8","","","","","0.8","0.2","0.6","0.2","0.8","0.2","0.6","0.2","","","","","","","","72","H","0","img/none_selected.jpg","true","0","full_practice"
"","bandit","70","360360","0.0-35.0-15.0","78681007","wem/bandit_double","A2JP9IKRHNLRPI","both","7","2","158","","","","","","","1","1","0","0.8","0.8","","","","","0.8","0.2","0.6","0.2","0.8","0.2","0.6","0.2","","","","","","","","72","H","0","img/none_selected.jpg","true","0","full_practice"
"","bandit","71","362032","0.0-35.0-16.0","78681007","wem/bandit_double","A2JP9IKRHNLRPI","both","7","2","156","","","","","","","0","1","0","0.8","0.8","","","","","0.8","0.2","0.6","0.2","0.8","0.2","0.6","0.2","","","","","","","","72","H","0","img/none_selected.jpg","true","0","full_practice"
"","bandit","72","363734","0.0-35.0-17.0","78681007","wem/bandit_double","A2JP9IKRHNLRPI","both","7","2","188","","","","","","","0","0","1","0.8","0.8","","","","","0.8","0.2","0.6","0.2","0.8","0.2","0.6","0.2","","","","","","","","72","H","0","img/none_selected.jpg","true","0","full_practice"
"","bandit","73","365436","0.0-35.0-18.0","78681007","wem/bandit_double","A2JP9IKRHNLRPI","both","7","2","189","","","","","","","1","1","0","0.8","0.8","","","","","0.8","0.2","0.6","0.2","0.8","0.2","0.6","0.2","","","","","","","","72","H","0","img/none_selected.jpg","true","0","full_practice"
"","bandit","74","367160","0.0-35.0-19.0","78681007","wem/bandit_double","A2JP9IKRHNLRPI","both","7","2","212","","","","","","","1","1","0","0.8","0.8","","","","","0.8","0.2","0.6","0.2","0.8","0.2","0.6","0.2","","","","","","","","72","H","0","img/none_selected.jpg","true","0","full_practice"
"","text","75","406588","0.0-36.0","78681007","wem/bandit_double","A2JP9IKRHNLRPI","both","7","2","39419","","32","","","","","","","","","","","","","","","","","","","","","","","","","","","","","","","","","","",""
"","text","76","413762","0.0-37.0","78681007","wem/bandit_double","A2JP9IKRHNLRPI","both","7","2","6162","","32","","","","","","","","","","","","","","","","","","","","","","","","","","","","","","","","","","",""
"","text","77","416699","0.0-38.0","78681007","wem/bandit_double","A2JP9IKRHNLRPI","both","7","2","2935","","32","","","","","","","","","","","","","","","","","","","","","","","","","","","","","","","","","","",""
"","text","78","419777","0.0-39.0","78681007","wem/bandit_double","A2JP9IKRHNLRPI","both","7","2","3075","","32","","","","","","","","","","","","","","","","","","","","","","","","","","","","","","","","","","",""
"","text","79","422201","0.0-40.0","78681007","wem/bandit_double","A2JP9IKRHNLRPI","both","7","2","2421","","32","","","","","","","","","","","","","","","","","","","","","","","","","","","","","","","","","","",""
"","bandit","80","425656","0.0-41.0-0.0","78681007","wem/bandit_double","A2JP9IKRHNLRPI","both","7","2","1939","","","","","","","0","0","1","0.06530018083","0.326135308","","","","","0.326135308","0.3653736811","0.4781977867","0.362799796","0.06530018083","0.1480066451","0.01738065524","0.1952616071","","","","","","","","72","H","0","img/none_selected.jpg","","1","main_expt"
"","bandit","81","427301","0.0-42.0-0.0","78681007","wem/bandit_double","A2JP9IKRHNLRPI","both","7","2","131","","","","","","","0","0","1","0.1011701763","0.3564958201","","","","","0.3564958201","0.3999069229","0.4765481994","0.3891507205","0.1011701763","0.1053714073","0.0196943787","0.1652234336","","","","","","","","72","H","0","img/none_selected.jpg","","2","main_expt"
"","bandit","82","428901","0.0-43.0-0.0","78681007","wem/bandit_double","A2JP9IKRHNLRPI","both","7","2","86","","","","","","","0","1","0","0.1460078221","0.4363582421","","","","","0.3309056029","0.4363582421","0.4722158263","0.3151339382","0.09486719381","0.1460078221","0.01678573497","0.1347382479","","","","","","","","74","J","1","","","3","main_expt"
"","bandit","83","430494","0.0-44.0-0.0","78681007","wem/bandit_double","A2JP9IKRHNLRPI","both","7","2","79","","","","","","","0","0","1","0.1866138214","0.4300921111","","","","","0.308467875","0.4300921111","0.4609570051","0.250648122","0.06705802814","0.1866138214","0.02981965743","0.1684625442","","","","","","","","74","J","1","","","4","main_expt"
"","bandit","84","432135","0.0-45.0-0.0","78681007","wem/bandit_double","A2JP9IKRHNLRPI","both","7","2","124","","","","","","","0","0","1","0.2445348717","0.3863220662","","","","","0.3349995635","0.3863220662","0.4707799186","0.2382585344","0.0822298525","0.2445348717","0.02600208211","0.1792029032","","","","","","","","74","J","1","","","5","main_expt"
"","bandit","85","434227","0.0-46.0-0.0","78681007","wem/bandit_double","A2JP9IKRHNLRPI","both","7","2","580","","","","","","","0","0","1","0.02332436933","0.4676743975","","","","","0.3743101545","0.4192648028","0.4676743975","0.2088101903","0.09162209411","0.2546962146","0.02332436933","0.2153873139","","","","","","","","75","K","2","","","6","main_expt"
"","bandit","86","435884","0.0-47.0-0.0","78681007","wem/bandit_double","A2JP9IKRHNLRPI","both","7","2","145","","","","","","","0","1","0","0.02864040813","0.4767364015","","","","","0.377506125","0.4218548145","0.4767364015","0.1884279889","0.1028820098","0.2344841702","0.02864040813","0.1757762721","","","","","","","","75","K","2","","","7","main_expt"
"","bandit","87","437592","0.0-48.0-0.0","78681007","wem/bandit_double","A2JP9IKRHNLRPI","both","7","2","199","","","","","","","0","0","1","0.02951264166","0.4837409877","","","","","0.3452849142","0.4298914749","0.4837409877","0.2297930851","0.1532270122","0.2473344203","0.02951264166","0.2241229746","","","","","","","","75","K","2","","","8","main_expt"
"","bandit","88","439284","0.0-49.0-0.0","78681007","wem/bandit_double","A2JP9IKRHNLRPI","both","7","2","179","","","","","","","0","1","0","0.2199426203","0.2219539873","","","","","0.2713567333","0.4215440671","0.4825212187","0.2219539873","0.2131450397","0.2642160399","0.02997011939","0.2199426203","","","","","","","","76","L","3","","","9","main_expt"
"","bandit","89","441013","0.0-50.0-0.0","78681007","wem/bandit_double","A2JP9IKRHNLRPI","both","7","2","216","","","","","","","0","0","1","0.1520686932","0.2398128751","","","","","0.2712708503","0.3991616263","0.4791264729","0.2398128751","0.2985754635","0.2104627424","0.02489651457","0.1520686932","","","","","","","","76","L","3","","","10","main_expt"
"","bandit","90","442560","0.0-51.0-0.0","78681007","wem/bandit_double","A2JP9IKRHNLRPI","both","7","2","30","","","","","","","0","0","1","0.2013349999","0.2551733424","","","","","0.2635531688","0.4002673883","0.4762013833","0.2551733424","0.2924640086","0.219372878","0.01651058827","0.2013349999","","","","","","","","76","L","3","","","11","main_expt"
"","bandit","91","444159","0.0-52.0-0.0","78681007","wem/bandit_double","A2JP9IKRHNLRPI","both","7","2","83","","","","","","","0","0","1","0.2156800105","0.2593424883","","","","","0.2669056975","0.368629831","0.4729837645","0.2593424883","0.3264291113","0.2105839871","0.02341729431","0.2156800105","","","","","","","","76","L","3","","","12","main_expt"
"","bandit","92","445782","0.0-53.0-0.0","78681007","wem/bandit_double","A2JP9IKRHNLRPI","both","7","2","107","","","","","","","0","1","0","0.0257410372","0.4749786695","","","","","0.3204456557","0.4189726289","0.4749786695","0.2493591627","0.3254913314","0.2511698571","0.0257410372","0.1833947696","","","","","","","","75","K","2","","","13","main_expt"
"","bandit","93","447427","0.0-54.0-0.0","78681007","wem/bandit_double","A2JP9IKRHNLRPI","both","7","2","133","","","","","","","0","1","0","0.02570014082","0.4810115094","","","","","0.3466526728","0.4352425359","0.4810115094","0.2686446846","0.3428504842","0.2158977649","0.02570014082","0.243643366","","","","","","","","75","K","2","","","14","main_expt"
"","bandit","94","449090","0.0-55.0-0.0","78681007","wem/bandit_double","A2JP9IKRHNLRPI","both","7","2","152","","","","","","","0","0","1","0.04268316416","0.4705329286","","","","","0.3736671224","0.3819090161","0.4705329286","0.2690169042","0.3244047679","0.2762480727","0.04268316416","0.2265365198","","","","","","","","75","K","2","","","15","main_expt"
"","bandit","95","450800","0.0-56.0-0.0","78681007","wem/bandit_double","A2JP9IKRHNLRPI","both","7","2","201","","","","","","","0","1","0","0.04667408308","0.4687419894","","","","","0.3778143907","0.3737760256","0.4687419894","0.2518303543","0.3025313629","0.3202890724","0.04667408308","0.2484951132","","","","","","","","75","K","2","","","16","main_expt"
"","bandit","96","452396","0.0-57.0-0.0","78681007","wem/bandit_double","A2JP9IKRHNLRPI","both","7","2","84","","","","","","","0","0","1","0.0506688767","0.4594180265","","","","","0.3845750066","0.4151791473","0.4594180265","0.2406549936","0.3291216938","0.3680552247","0.0506688767","0.2570267238","","","","","","","","75","K","2","","","17","main_expt"
"","bandit","97","454088","0.0-58.0-0.0","78681007","wem/bandit_double","A2JP9IKRHNLRPI","both","7","2","176","","","","","","","0","0","1","0.3968593921","0.4137363134","","","","","0.4041286345","0.4137363134","0.425397146","0.2670149403","0.2987881532","0.3968593921","0.02988526167","0.287418789","","","","","","","","74","J","1","","","18","main_expt"
"","bandit","98","455654","0.0-59.0-0.0","78681007","wem/bandit_double","A2JP9IKRHNLRPI","both","7","2","50","","","","","","","0","0","1","0.4192996399","0.4084056464","","","","","0.4127350431","0.4084056464","0.4201246927","0.2658482338","0.281207523","0.4192996399","0.03476350355","0.2338710899","","","","","","","","74","J","1","","","19","main_expt"
"","bandit","99","457317","0.0-60.0-0.0","78681007","wem/bandit_double","A2JP9IKRHNLRPI","both","7","2","149","","","","","","","0","0","1","0.4362768361","0.4129175496","","","","","0.4107359536","0.4129175496","0.3954271328","0.2452433766","0.291129981","0.4362768361","0.0233687216","0.2335293464","","","","","","","","74","J","1","","","20","main_expt"
"","bandit","100","458966","0.0-61.0-0.0","78681007","wem/bandit_double","A2JP9IKRHNLRPI","both","7","2","134","","","","","","","0","0","1","0.2729578326","0.3954861765","","","","","0.3954861765","0.3888488162","0.4196431029","0.2298761452","0.2729578326","0.4599691003","0.01272547494","0.2434826965","","","","","","","","72","H","0","img/none_selected.jpg","","21","main_expt"
"","bandit","101","460676","0.0-62.0-0.0","78681007","wem/bandit_double","A2JP9IKRHNLRPI","both","7","2","198","","","","","","","0","0","1","0.2805141014","0.3805979297","","","","","0.3805979297","0.3873149631","0.3843335182","0.266827693","0.2805141014","0.44353765","0.01739491555","0.2702300591","","","","","","","","72","H","0","img/none_selected.jpg","","22","main_expt"
"","bandit","102","462335","0.0-63.0-0.0","78681007","wem/bandit_double","A2JP9IKRHNLRPI","both","7","2","145","","","","","","","0","0","1","0.006692102231","0.3839977458","","","","","0.425451992","0.3659772031","0.3839977458","0.2519769849","0.3016389313","0.4105594395","0.006692102231","0.2424740502","","","","","","","","75","K","2","","","23","main_expt"
"","bandit","103","463907","0.0-64.0-0.0","78681007","wem/bandit_double","A2JP9IKRHNLRPI","both","7","2","59","","","","","","","0","1","0","0.01209419849","0.3338939571","","","","","0.4699447661","0.3594327093","0.3338939571","0.2447613107","0.2475621169","0.4243351486","0.01209419849","0.1754503809","","","","","","","","75","K","2","","","24","main_expt"
"","bandit","104","465489","0.0-65.0-0.0","78681007","wem/bandit_double","A2JP9IKRHNLRPI","both","7","2","74","","","","","","","0","0","1","0.009734580702","0.324486952","","","","","0.4484050393","0.3719143394","0.324486952","0.2350413847","0.2607476102","0.4172780312","0.009734580702","0.2023019753","","","","","","","","75","K","2","","","25","main_expt"
"","bandit","105","467093","0.0-66.0-0.0","78681007","wem/bandit_double","A2JP9IKRHNLRPI","both","7","2","87","","","","","","","0","0","1","0.008596148908","0.3095710384","","","","","0.4190234423","0.3690014044","0.3095710384","0.207774486","0.292589008","0.3981062588","0.008596148908","0.1887270612","","","","","","","","75","K","2","","","26","main_expt"
"","bandit","106","468667","0.0-67.0-0.0","78681007","wem/bandit_double","A2JP9IKRHNLRPI","both","7","2","61","","","","","","","0","0","1","0.01380650739","0.3355629191","","","","","0.4251478254","0.3940030818","0.3355629191","0.2164182795","0.2978950393","0.3889188119","0.01380650739","0.2526986378","","","","","","","","75","K","2","","","27","main_expt"
"","bandit","107","470222","0.0-68.0-0.0","78681007","wem/bandit_double","A2JP9IKRHNLRPI","both","7","2","38","","","","","","","1","0","0","0.2536033627","0.2164031865","","","","","0.4287328697","0.4111080327","0.3668681485","0.2164031865","0.337392419","0.3699095679","0.01160852189","0.2536033627","","","","","","","","76","L","3","","","28","main_expt"
"","bandit","108","471738","0.0-69.0-0.0","78681007","wem/bandit_double","A2JP9IKRHNLRPI","both","7","2","1","","","","","","","0","1","0","0.258258936","0.2770000278","","","","","0.4106025245","0.41290056","0.343198694","0.2770000278","0.3830759015","0.4087832773","0.02858314752","0.258258936","","","","","","","","76","L","3","","","29","main_expt"
"","bandit","109","473307","0.0-70.0-0.0","78681007","wem/bandit_double","A2JP9IKRHNLRPI","both","7","2","57","","","","","","","0","1","0","0.3152574144","0.2354797847","","","","","0.3942494676","0.3937480262","0.326069126","0.2354797847","0.3778881599","0.4162513677","0.0265596094","0.3152574144","","","","","","","","76","L","3","","","30","main_expt"
"","bandit","110","474838","0.0-71.0-0.0","78681007","wem/bandit_double","A2JP9IKRHNLRPI","both","7","2","19","","","","","","","1","1","0","0.3508579725","0.2692030882","","","","","0.4285056211","0.3997016236","0.3390127419","0.2692030882","0.3585458117","0.43337534","0.02828816112","0.3508579725","","","","","","","","76","L","3","","","31","main_expt"
"","bandit","111","476488","0.0-72.0-0.0","78681007","wem/bandit_double","A2JP9IKRHNLRPI","both","7","2","128","","","","","","","0","0","1","0.3902021543","0.2471118655","","","","","0.4249454459","0.3574295763","0.3360649894","0.2471118655","0.3511664436","0.4399105216","0.03857304495","0.3902021543","","","","","","","","76","L","3","","","32","main_expt"
"","bandit","112","478156","0.0-73.0-0.0","78681007","wem/bandit_double","A2JP9IKRHNLRPI","both","7","2","155","","","","","","","0","0","1","0.4112626521","0.2879199001","","","","","0.416417765","0.3877818659","0.3052602024","0.2879199001","0.3924960189","0.3859623535","0.02642959278","0.4112626521","","","","","","","","76","L","3","","","33","main_expt"
"","bandit","113","479836","0.0-74.0-0.0","78681007","wem/bandit_double","A2JP9IKRHNLRPI","both","7","2","166","","","","","","","0","1","0","0.3912589523","0.3180115212","","","","","0.4623714429","0.3799496232","0.3594788954","0.3180115212","0.3713907517","0.4231921331","0.06800028167","0.3912589523","","","","","","","","76","L","3","","","34","main_expt"
"","bandit","114","482078","0.0-75.0-0.0","78681007","wem/bandit_double","A2JP9IKRHNLRPI","both","7","2","728","","","","","","","0","1","0","0.3929004689","0.4591977302","","","","","0.4591977302","0.3577573403","0.380235832","0.2524306687","0.3929004689","0.3950458867","0.05710280771","0.3663646496","","","","","","","","72","H","0","img/none_selected.jpg","","35","main_expt"
"","bandit","115","483667","0.0-76.0-0.0","78681007","wem/bandit_double","A2JP9IKRHNLRPI","both","7","2","76","","","","","","","0","0","1","0.3820467604","0.4686235256","","","","","0.4686235256","0.3895375856","0.3459989602","0.2351869563","0.3820467604","0.4005306787","0.07756943076","0.3045225128","","","","","","","","72","H","0","img/none_selected.jpg","","36","main_expt"
"","bandit","116","485288","0.0-77.0-0.0","78681007","wem/bandit_double","A2JP9IKRHNLRPI","both","7","2","111","","","","","","","0","1","0","0.3948022939","0.4571547709","","","","","0.4571547709","0.3783527007","0.3320905149","0.2629170466","0.3948022939","0.3972735937","0.06074629621","0.2806474599","","","","","","","","72","H","0","img/none_selected.jpg","","37","main_expt"
"","bandit","117","487098","0.0-78.0-0.0","78681007","wem/bandit_double","A2JP9IKRHNLRPI","both","7","2","297","","","","","","","0","1","0","0.38339591","0.284076782","","","","","0.4688430709","0.284076782","0.3471020919","0.3090194305","0.3769579019","0.38339591","0.07063042774","0.3558759705","","","","","","","","74","J","1","","","38","main_expt"
"","bandit","118","488638","0.0-79.0-0.0","78681007","wem/bandit_double","A2JP9IKRHNLRPI","both","7","2","22","","","","","","","0","0","1","0.3906354184","0.3388972186","","","","","0.4612923778","0.3388972186","0.3401763967","0.2845371228","0.4030344636","0.3906354184","0.06209293178","0.3194138052","","","","","","","","74","J","1","","","39","main_expt"
"","bandit","119","490378","0.0-80.0-0.0","78681007","wem/bandit_double","A2JP9IKRHNLRPI","both","7","2","227","","","","","","","0","0","1","0.06952578958","0.3260487483","","","","","0.4576194683","0.2663655232","0.3260487483","0.3076259244","0.3622335218","0.3623676206","0.06952578958","0.3549086085","","","","","","","","75","K","2","","","40","main_expt"
"","bandit","120","491919","0.0-81.0-0.0","78681007","wem/bandit_double","A2JP9IKRHNLRPI","both","7","2","23","","","","","","","0","1","0","0.3452113815","0.2888769276","","","","","0.4473921051","0.2608266697","0.3390218734","0.2888769276","0.3911596719","0.3873704927","0.1291245709","0.3452113815","","","","","","","","76","L","3","","","41","main_expt"
"","bandit","121","493578","0.0-82.0-0.0","78681007","wem/bandit_double","A2JP9IKRHNLRPI","both","7","2","147","","","","","","","1","1","0","0.3522960267","0.2639198141","","","","","0.425470286","0.2287676803","0.2889680017","0.2639198141","0.3921858285","0.359823116","0.1174523948","0.3522960267","","","","","","","","76","L","3","","","42","main_expt"
"","bandit","122","495253","0.0-83.0-0.0","78681007","wem/bandit_double","A2JP9IKRHNLRPI","both","7","2","159","","","","","","","1","0","0","0.3093122096","0.2255441472","","","","","0.4030522017","0.2043112358","0.2784828801","0.2255441472","0.3831213528","0.3710191411","0.1201484523","0.3093122096","","","","","","","","76","L","3","","","43","main_expt"
"","bandit","123","496979","0.0-84.0-0.0","78681007","wem/bandit_double","A2JP9IKRHNLRPI","both","7","2","212","","","","","","","0","1","0","0.3026159556","0.2050272072","","","","","0.4106315797","0.1957049551","0.2805729819","0.2050272072","0.3518708159","0.3874065465","0.09958360536","0.3026159556","","","","","","","","76","L","3","","","44","main_expt"
"","bandit","124","498563","0.0-85.0-0.0","78681007","wem/bandit_double","A2JP9IKRHNLRPI","both","7","2","71","","","","","","","0","0","1","0.3336294247","0.239455925","","","","","0.4258527362","0.2207366272","0.2195119073","0.239455925","0.3122870636","0.3851533971","0.05173655998","0.3336294247","","","","","","","","76","L","3","","","45","main_expt"
"","bandit","125","500101","0.0-86.0-0.0","78681007","wem/bandit_double","A2JP9IKRHNLRPI","both","7","2","22","","","","","","","0","0","1","0.3400222736","0.2414778298","","","","","0.4425966235","0.1727988076","0.2657932304","0.2414778298","0.2635721956","0.4055883719","0.05945041096","0.3400222736","","","","","","","","76","L","3","","","46","main_expt"
"","bandit","126","501815","0.0-87.0-0.0","78681007","wem/bandit_double","A2JP9IKRHNLRPI","both","7","2","197","","","","","","","0","1","0","0.2856785865","0.4428977597","","","","","0.4428977597","0.1446735631","0.2678398397","0.1884211613","0.2856785865","0.3671593179","0.04375763727","0.328707825","","","","","","","","72","H","0","img/none_selected.jpg","","47","main_expt"
"","bandit","127","503340","0.0-88.0-0.0","78681007","wem/bandit_double","A2JP9IKRHNLRPI","both","7","2","11","","","","","","","0","0","1","0.2649087478","0.4479964269","","","","","0.4479964269","0.1681765936","0.2866904938","0.1755274282","0.2649087478","0.3198203038","0.0666370861","0.3307690822","","","","","","","","72","H","0","img/none_selected.jpg","","48","main_expt"
"","bandit","128","504892","0.0-89.0-0.0","78681007","wem/bandit_double","A2JP9IKRHNLRPI","both","7","2","37","","","","","","","0","0","1","0.3111357295","0.1473883531","","","","","0.4660387519","0.1473883531","0.2803848884","0.1646396384","0.2462979357","0.3111357295","0.08266213623","0.3438067684","","","","","","","","74","J","1","","","49","main_expt"
"","bandit","129","506559","0.0-90.0-0.0","78681007","wem/bandit_double","A2JP9IKRHNLRPI","both","7","2","152","","","","","","","0","0","1","0.08795051988","0.2587411269","","","","","0.4345757832","0.1378170987","0.2587411269","0.2024226619","0.2490076798","0.3196682981","0.08795051988","0.4037002216","","","","","","","","75","K","2","","","50","main_expt"
"","bandit","130","508077","0.0-91.0-0.0","78681007","wem/bandit_double","A2JP9IKRHNLRPI","both","7","2","1","","","","","","","1","0","0","0.3557518394","0.1976760068","","","","","0.4450950844","0.1430360168","0.2212901065","0.1976760068","0.305209751","0.3088596379","0.07533366945","0.3557518394","","","","","","","","76","L","3","","","51","main_expt"
"","bandit","131","509702","0.0-92.0-0.0","78681007","wem/bandit_double","A2JP9IKRHNLRPI","both","7","2","107","","","","","","","0","0","1","0.3254324358","0.1796352224","","","","","0.4475354499","0.1731798725","0.236006857","0.1796352224","0.3087204988","0.3060924957","0.06506638851","0.3254324358","","","","","","","","76","L","3","","","52","main_expt"
"","bandit","132","511219","0.0-93.0-0.0","78681007","wem/bandit_double","A2JP9IKRHNLRPI","both","7","2","1","","","","","","","0","1","0","0.2952150256","0.2451732725","","","","","0.4627294295","0.1312409056","0.2660825342","0.2451732725","0.2984188648","0.3229319808","0.06562792832","0.2952150256","","","","","","","","76","L","3","","","53","main_expt"
"","bandit","133","512798","0.0-94.0-0.0","78681007","wem/bandit_double","A2JP9IKRHNLRPI","both","7","2","61","","","","","","","0","0","1","0.300320608","0.2621482643","","","","","0.44829207","0.1862053218","0.2458345041","0.2621482643","0.3353917468","0.3280138586","0.04630081711","0.300320608","","","","","","","","76","L","3","","","54","main_expt"
"","bandit","134","514428","0.0-95.0-0.0","78681007","wem/bandit_double","A2JP9IKRHNLRPI","both","7","2","114","","","","","","","1","0","0","0.2985084879","0.2441780383","","","","","0.4505537928","0.1733563037","0.2265690781","0.2441780383","0.3259144651","0.2777260571","0.03868373719","0.2985084879","","","","","","","","76","L","3","","","55","main_expt"
"","bandit","135","516081","0.0-96.0-0.0","78681007","wem/bandit_double","A2JP9IKRHNLRPI","both","7","2","140","","","","","","","1","0","0","0.2607009345","0.199729785","","","","","0.4686400132","0.1728369204","0.2741820357","0.199729785","0.3259049121","0.1791004868","0.06235362297","0.2607009345","","","","","","","","76","L","3","","","56","main_expt"
"","bandit","136","517709","0.0-97.0-0.0","78681007","wem/bandit_double","A2JP9IKRHNLRPI","both","7","2","113","","","","","","","0","0","1","0.2565854794","0.1945085845","","","","","0.4572679106","0.09176359954","0.2937641054","0.1945085845","0.3687904078","0.2182265394","0.04639461243","0.2565854794","","","","","","","","76","L","3","","","57","main_expt"
"","bandit","137","519345","0.0-98.0-0.0","78681007","wem/bandit_double","A2JP9IKRHNLRPI","both","7","2","123","","","","","","","0","0","1","0.319121847","0.2614759052","","","","","0.4300169527","0.04991422033","0.2949827607","0.2614759052","0.3422038875","0.2970860181","0.08954448139","0.319121847","","","","","","","","76","L","3","","","58","main_expt"
"","bandit","138","521038","0.0-99.0-0.0","78681007","wem/bandit_double","A2JP9IKRHNLRPI","both","7","2","175","","","","","","","0","0","1","0.3269923399","0.2426118991","","","","","0.4050829606","0.053239915","0.2710075273","0.2426118991","0.3771421139","0.3249685468","0.07390342289","0.3269923399","","","","","","","","76","L","3","","","59","main_expt"
"","bandit","139","522682","0.0-100.0-0.0","78681007","wem/bandit_double","A2JP9IKRHNLRPI","both","7","2","130","","","","","","","1","1","0","0.3620124399","0.4070720156","","","","","0.4070720156","0.06994226662","0.2766623035","0.2623750897","0.3620124399","0.2931470039","0.05801548519","0.3150968823","","","","","","","","72","H","0","img/none_selected.jpg","","60","main_expt"
"","bandit","140","524300","0.0-101.0-0.0","78681007","wem/bandit_double","A2JP9IKRHNLRPI","both","7","2","104","","","","","","","0","1","0","0.3958116198","0.3895400789","","","","","0.3895400789","0.07064832373","0.2574592035","0.2139103784","0.3958116198","0.2646536279","0.07333263924","0.324539239","","","","","","","","72","H","0","img/none_selected.jpg","","61","main_expt"
"","bandit","141","526079","0.0-102.0-0.0","78681007","wem/bandit_double","A2JP9IKRHNLRPI","both","7","2","267","","","","","","","1","0","0","0.3615218546","0.4050708951","","","","","0.4050708951","0.08925217872","0.2425209234","0.2566580444","0.3615218546","0.242461968","0.07563430262","0.3066306166","","","","","","","","72","H","0","img/none_selected.jpg","","62","main_expt"
"","bandit","142","527811","0.0-103.0-0.0","78681007","wem/bandit_double","A2JP9IKRHNLRPI","both","7","2","217","","","","","","","1","0","0","0.3574266064","0.3765761212","","","","","0.3765761212","0.08505035955","0.2294211584","0.2393402704","0.3574266064","0.2206683029","0.06826526778","0.3068900116","","","","","","","","72","H","0","img/none_selected.jpg","","63","main_expt"
"","bandit","143","529330","0.0-104.0-0.0","78681007","wem/bandit_double","A2JP9IKRHNLRPI","both","7","2","3","","","","","","","0","0","1","0.3541915859","0.3859881554","","","","","0.3859881554","0.09892528285","0.2350173232","0.300105392","0.3541915859","0.2288959862","0.1175271989","0.2936494982","","","","","","","","72","H","0","img/none_selected.jpg","","64","main_expt"
"","bandit","144","530857","0.0-105.0-0.0","78681007","wem/bandit_double","A2JP9IKRHNLRPI","both","7","2","14","","","","","","","1","0","0","0.3339820985","0.3817039273","","","","","0.3817039273","0.1428545766","0.2775473173","0.2584268813","0.3339820985","0.2346523549","0.1273865191","0.290236101","","","","","","","","72","H","0","img/none_selected.jpg","","65","main_expt"
"","bandit","145","532489","0.0-106.0-0.0","78681007","wem/bandit_double","A2JP9IKRHNLRPI","both","7","2","120","","","","","","","0","0","1","0.3195467083","0.3622232449","","","","","0.3622232449","0.120440259","0.298861572","0.2536378703","0.3195467083","0.1881688105","0.09075088943","0.2512036594","","","","","","","","72","H","0","img/none_selected.jpg","","66","main_expt"
"","bandit","146","534104","0.0-107.0-0.0","78681007","wem/bandit_double","A2JP9IKRHNLRPI","both","7","2","98","","","","","","","0","0","1","0.3477383846","0.3768721334","","","","","0.3768721334","0.2019700983","0.3043747659","0.2548884231","0.3477383846","0.231043846","0.08077075725","0.263747572","","","","","","","","72","H","0","img/none_selected.jpg","","67","main_expt"
"","bandit","147","535716","0.0-108.0-0.0","78681007","wem/bandit_double","A2JP9IKRHNLRPI","both","7","2","96","","","","","","","0","0","1","0.2576664243","0.1467862533","","","","","0.3826604183","0.1467862533","0.2533072519","0.2105458193","0.3365352069","0.2576664243","0.08810311296","0.2892519303","","","","","","","","74","J","1","","","68","main_expt"
"","bandit","148","537415","0.0-109.0-0.0","78681007","wem/bandit_double","A2JP9IKRHNLRPI","both","7","2","180","","","","","","","0","0","1","0.2183283259","0.09022805221","","","","","0.3981811202","0.09022805221","0.2451677402","0.2901666962","0.3148812039","0.2183283259","0.1260156682","0.2383664846","","","","","","","","74","J","1","","","69","main_expt"
"","bandit","149","539106","0.0-110.0-0.0","78681007","wem/bandit_double","A2JP9IKRHNLRPI","both","7","2","173","","","","","","","0","0","1","0.08773951932","0.2403061491","","","","","0.3936557204","0.1128827508","0.2403061491","0.2973761433","0.3154014692","0.2260484764","0.08773951932","0.2497111545","","","","","","","","75","K","2","","","70","main_expt"
"","bandit","150","540675","0.0-111.0-0.0","78681007","wem/bandit_double","A2JP9IKRHNLRPI","both","7","2","55","","","","","","","0","0","1","0.1154304285","0.1917576795","","","","","0.3949471057","0.1184182172","0.1917576795","0.2737706179","0.219815459","0.3196469567","0.1154304285","0.2095843002","","","","","","","","75","K","2","","","71","main_expt"
"","bandit","151","542397","0.0-112.0-0.0","78681007","wem/bandit_double","A2JP9IKRHNLRPI","both","7","2","206","","","","","","","0","1","0","0.1972488467","0.3005227265","","","","","0.3888869603","0.1038133506","0.1894079546","0.3005227265","0.2623730272","0.3644141189","0.10097247","0.1972488467","","","","","","","","76","L","3","","","72","main_expt"
"","bandit","152","543987","0.0-113.0-0.0","78681007","wem/bandit_double","A2JP9IKRHNLRPI","both","7","2","75","","","","","","","0","0","1","0.15494396","0.3205676235","","","","","0.4015056825","0.07830871569","0.235909594","0.3205676235","0.2639805735","0.4081842109","0.0746930591","0.15494396","","","","","","","","76","L","3","","","73","main_expt"
"","bandit","153","545661","0.0-114.0-0.0","78681007","wem/bandit_double","A2JP9IKRHNLRPI","both","7","2","158","","","","","","","0","0","1","0.1324790415","0.3040473008","","","","","0.4200542591","0.09226686474","0.2772030277","0.3040473008","0.2770925356","0.4506698749","0.1124392477","0.1324790415","","","","","","","","76","L","3","","","74","main_expt"
"","bandit","154","547233","0.0-115.0-0.0","78681007","wem/bandit_double","A2JP9IKRHNLRPI","both","7","2","59","","","","","","","0","1","0","0.2796652475","0.4353174817","","","","","0.4353174817","0.07948082514","0.2237268092","0.2686744794","0.2796652475","0.454520075","0.113494578","0.179195356","","","","","","","","72","H","0","img/none_selected.jpg","","75","main_expt"
"","bandit","155","548911","0.0-116.0-0.0","78681007","wem/bandit_double","A2JP9IKRHNLRPI","both","7","2","159","","","","","","","0","1","0","0.3153427244","0.4196821318","","","","","0.4196821318","0.1279570505","0.1739375455","0.258707356","0.3153427244","0.466199952","0.1469344428","0.215808919","","","","","","","","72","H","0","img/none_selected.jpg","","76","main_expt"
"","bandit","156","550642","0.0-117.0-0.0","78681007","wem/bandit_double","A2JP9IKRHNLRPI","both","7","2","217","","","","","","","1","0","0","0.3676911864","0.3787369199","","","","","0.3787369199","0.1202820049","0.1648796623","0.3010070056","0.3676911864","0.4402141775","0.2152215887","0.2312347408","","","","","","","","72","H","0","img/none_selected.jpg","","77","main_expt"
"","bandit","157","552268","0.0-118.0-0.0","78681007","wem/bandit_double","A2JP9IKRHNLRPI","both","7","2","110","","","","","","","1","0","0","0.3434277392","0.4314930014","","","","","0.4314930014","0.1054071572","0.1637798684","0.2648586626","0.3434277392","0.4525957793","0.2055177618","0.2197025874","","","","","","","","72","H","0","img/none_selected.jpg","","78","main_expt"
"","bandit","158","553926","0.0-119.0-0.0","78681007","wem/bandit_double","A2JP9IKRHNLRPI","both","7","2","139","","","","","","","1","1","0","0.3758616161","0.4155078174","","","","","0.4155078174","0.1403095361","0.1490076182","0.1984114041","0.3758616161","0.4630799716","0.222262525","0.2227420924","","","","","","","","72","H","0","img/none_selected.jpg","","79","main_expt"
"","bandit","159","555517","0.0-120.0-0.0","78681007","wem/bandit_double","A2JP9IKRHNLRPI","both","7","2","74","","","","","","","0","1","0","0.3862393514","0.4226243671","","","","","0.4226243671","0.1891235553","0.1093198388","0.180325551","0.3862393514","0.423693353","0.2700860438","0.2283057493","","","","","","","","72","H","0","img/none_selected.jpg","","80","main_expt"
"","bandit","160","557034","0.0-121.0-0.0","78681007","wem/bandit_double","A2JP9IKRHNLRPI","both","7","2","2","","","","","","","0","1","0","0.3593770893","0.4474166549","","","","","0.4474166549","0.1858030354","0.08868186825","0.224531153","0.3593770893","0.4319112677","0.2642688004","0.2721525977","","","","","","","","72","H","0","img/none_selected.jpg","","81","main_expt"
"","bandit","161","558773","0.0-122.0-0.0","78681007","wem/bandit_double","A2JP9IKRHNLRPI","both","7","2","222","","","","","","","0","1","0","0.4035110645","0.4636297045","","","","","0.4636297045","0.2476542501","0.1073880826","0.221125015","0.4035110645","0.441827487","0.2824164754","0.2850237184","","","","","","","","72","H","0","img/none_selected.jpg","","82","main_expt"
"","bandit","162","560355","0.0-123.0-0.0","78681007","wem/bandit_double","A2JP9IKRHNLRPI","both","7","2","68","","","","","","","0","1","0","0.3719627038","0.467509749","","","","","0.467509749","0.2188241074","0.1022587498","0.2143237207","0.3719627038","0.4288861504","0.2819095575","0.3236436683","","","","","","","","72","H","0","img/none_selected.jpg","","83","main_expt"
"","bandit","163","561974","0.0-124.0-0.0","78681007","wem/bandit_double","A2JP9IKRHNLRPI","both","7","2","100","","","","","","","0","0","1","0.3349288927","0.4551111531","","","","","0.4551111531","0.2754771977","0.1085807699","0.2097367537","0.3349288927","0.4350385517","0.2589745902","0.3339638593","","","","","","","","72","H","0","img/none_selected.jpg","","84","main_expt"
"","bandit","164","563508","0.0-125.0-0.0","78681007","wem/bandit_double","A2JP9IKRHNLRPI","both","7","2","20","","","","","","","1","1","0","0.3247899262","0.4621419017","","","","","0.4621419017","0.2965575968","0.1263918358","0.1661536269","0.3247899262","0.4255505645","0.3626504113","0.3795022601","","","","","","","","72","H","0","img/none_selected.jpg","","85","main_expt"
"","bandit","165","565128","0.0-126.0-0.0","78681007","wem/bandit_double","A2JP9IKRHNLRPI","both","7","2","106","","","","","","","1","1","0","0.3443557019","0.4612050897","","","","","0.4612050897","0.257129161","0.1481941301","0.1364458955","0.3443557019","0.4330938692","0.3598915268","0.3835523064","","","","","","","","72","H","0","img/none_selected.jpg","","86","main_expt"
"","bandit","166","566690","0.0-127.0-0.0","78681007","wem/bandit_double","A2JP9IKRHNLRPI","both","7","2","49","","","","","","","0","0","1","0.3648776167","0.4334675206","","","","","0.4334675206","0.2338967043","0.1447872846","0.08235553135","0.3648776167","0.4548398529","0.3433052933","0.3772514457","","","","","","","","72","H","0","img/none_selected.jpg","","87","main_expt"
"","bandit","167","568338","0.0-128.0-0.0","78681007","wem/bandit_double","A2JP9IKRHNLRPI","both","7","2","133","","","","","","","0","0","1","0.3609631839","0.4397617206","","","","","0.4397617206","0.2161535794","0.1391637727","0.0754832669","0.3609631839","0.4493124031","0.4022938878","0.3766830519","","","","","","","","72","H","0","img/none_selected.jpg","","88","main_expt"
"","bandit","168","569913","0.0-129.0-0.0","78681007","wem/bandit_double","A2JP9IKRHNLRPI","both","7","2","62","","","","","","","1","1","0","0.4161110063","0.2043146745","","","","","0.4635478967","0.2043146745","0.1476089376","0.109361408","0.3636167192","0.4161110063","0.4141493151","0.3537755119","","","","","","","","74","J","1","","","89","main_expt"
"","bandit","169","571513","0.0-130.0-0.0","78681007","wem/bandit_double","A2JP9IKRHNLRPI","both","7","2","86","","","","","","","0","0","1","0.405260856","0.2346009907","","","","","0.4234969579","0.2346009907","0.2081489191","0.07391079866","0.3563441379","0.405260856","0.4136124289","0.3014761449","","","","","","","","74","J","1","","","90","main_expt"
"","bandit","170","573242","0.0-131.0-0.0","78681007","wem/bandit_double","A2JP9IKRHNLRPI","both","7","2","213","","","","","","","1","0","0","0.3827048226","0.2333967219","","","","","0.4267507071","0.2333967219","0.1834039029","0.1164594673","0.3389138503","0.3827048226","0.4184852842","0.2694038268","","","","","","","","74","J","1","","","91","main_expt"
"","bandit","171","574856","0.0-132.0-0.0","78681007","wem/bandit_double","A2JP9IKRHNLRPI","both","7","2","102","","","","","","","0","0","1","0.3552182969","0.2150480475","","","","","0.4089505196","0.2150480475","0.2027314649","0.113043345","0.3263360165","0.3552182969","0.4456808576","0.2651536323","","","","","","","","74","J","1","","","92","main_expt"
"","bandit","172","576383","0.0-133.0-0.0","78681007","wem/bandit_double","A2JP9IKRHNLRPI","both","7","2","14","","","","","","","0","1","0","0.3286897504","0.2588080464","","","","","0.4112501448","0.2588080464","0.1738894496","0.1714352716","0.2844131911","0.3286897504","0.4355219805","0.1997208586","","","","","","","","74","J","1","","","93","main_expt"
"","bandit","173","577954","0.0-134.0-0.0","78681007","wem/bandit_double","A2JP9IKRHNLRPI","both","7","2","57","","","","","","","0","0","1","0.3422490236","0.2748849181","","","","","0.452415855","0.2748849181","0.2484708832","0.1253024032","0.2978465223","0.3422490236","0.4609821192","0.2442555344","","","","","","","","74","J","1","","","94","main_expt"
"","bandit","174","579641","0.0-135.0-0.0","78681007","wem/bandit_double","A2JP9IKRHNLRPI","both","7","2","174","","","","","","","0","0","1","0.3160161054","0.2791739054","","","","","0.4589197587","0.2791739054","0.2914685715","0.1401284447","0.2638723705","0.3160161054","0.4419374505","0.2638839348","","","","","","","","74","J","1","","","95","main_expt"
"","bandit","175","581347","0.0-136.0-0.0","78681007","wem/bandit_double","A2JP9IKRHNLRPI","both","7","2","191","","","","","","","0","1","0","0.39438674","0.2417524935","","","","","0.4481870348","0.3149564315","0.2417524935","0.1320491369","0.2276010735","0.2945538732","0.39438674","0.2265245807","","","","","","","","75","K","2","","","96","main_expt"
"","bandit","176","582993","0.0-137.0-0.0","78681007","wem/bandit_double","A2JP9IKRHNLRPI","both","7","2","131","","","","","","","1","0","0","0.3617668419","0.2492821404","","","","","0.4597072186","0.372564007","0.2492821404","0.1518453759","0.2045446072","0.393563827","0.3617668419","0.1969189177","","","","","","","","75","K","2","","","97","main_expt"
"","bandit","177","584714","0.0-138.0-0.0","78681007","wem/bandit_double","A2JP9IKRHNLRPI","both","7","2","207","","","","","","","0","1","0","0.3737913853","0.3002958449","","","","","0.4705619112","0.393328365","0.3002958449","0.2173959583","0.2436418828","0.4046254927","0.3737913853","0.1761144245","","","","","","","","75","K","2","","","98","main_expt"
"","bandit","178","586444","0.0-139.0-0.0","78681007","wem/bandit_double","A2JP9IKRHNLRPI","both","7","2","214","","","","","","","0","0","1","0.4221129479","0.3544832656","","","","","0.4800968761","0.421239771","0.3544832656","0.2618725657","0.2473144087","0.3659012549","0.4221129479","0.1211630765","","","","","","","","75","K","2","","","99","main_expt"
"","bandit","179","588116","0.0-140.0-0.0","78681007","wem/bandit_double","A2JP9IKRHNLRPI","both","7","2","156","","","","","","","1","0","0","0.3857893684","0.3810954338","","","","","0.4780143146","0.4130759476","0.3810954338","0.2487788848","0.2707360286","0.400368336","0.3857893684","0.1257326749","","","","","","","","75","K","2","","","100","main_expt"
"","bandit","180","589805","0.0-141.0-0.0","78681007","wem/bandit_double","A2JP9IKRHNLRPI","both","7","2","170","","","","","","","0","0","1","0.3635527264","0.4042362267","","","","","0.4849002763","0.4089462913","0.4042362267","0.2890792313","0.3250409822","0.4367931528","0.3635527264","0.09975532208","","","","","","","","75","K","2","","","101","main_expt"
"","bandit","181","591323","0.0-142.0-0.0","78681007","wem/bandit_double","A2JP9IKRHNLRPI","both","7","2","4","","","","","","","0","0","1","0.3738375489","0.4594696392","","","","","0.4886078379","0.370330464","0.4594696392","0.3136369757","0.3088580598","0.4371155326","0.3738375489","0.1127414424","","","","","","","","75","K","2","","","102","main_expt"
"","bandit","182","592896","0.0-143.0-0.0","78681007","wem/bandit_double","A2JP9IKRHNLRPI","both","7","2","56","","","","","","","0","0","1","0.1232600734","0.2364671533","","","","","0.47121906","0.3306315663","0.4588766667","0.2364671533","0.2901001995","0.388648264","0.3860163181","0.1232600734","","","","","","","","76","L","3","","","103","main_expt"
"","bandit","183","594546","0.0-144.0-0.0","78681007","wem/bandit_double","A2JP9IKRHNLRPI","both","7","2","134","","","","","","","0","0","1","0.08156843846","0.2202486688","","","","","0.4760763377","0.354634178","0.4372785745","0.2202486688","0.309645936","0.3718469433","0.390692362","0.08156843846","","","","","","","","76","L","3","","","104","main_expt"
"","bandit","184","596450","0.0-145.0-0.0","78681007","wem/bandit_double","A2JP9IKRHNLRPI","both","7","2","390","","","","","","","0","1","0","0.3386062745","0.4701389446","","","","","0.4701389446","0.3896605338","0.4063887309","0.1854418088","0.3386062745","0.3920304628","0.4139082553","0.08245659199","","","","","","","","72","H","0","img/none_selected.jpg","","105","main_expt"
"","bandit","185","598146","0.0-146.0-0.0","78681007","wem/bandit_double","A2JP9IKRHNLRPI","both","7","2","181","","","","","","","0","1","0","0.3827539061","0.471324938","","","","","0.471324938","0.414339711","0.3778019321","0.1596754559","0.3827539061","0.3733497125","0.3295275825","0.1276639339","","","","","","","","72","H","0","img/none_selected.jpg","","106","main_expt"
"","bandit","186","599856","0.0-147.0-0.0","78681007","wem/bandit_double","A2JP9IKRHNLRPI","both","7","2","196","","","","","","","1","0","0","0.3401355396","0.4786694594","","","","","0.4786694594","0.4164239898","0.3614143111","0.137099288","0.3401355396","0.3878439861","0.3499712774","0.1812689745","","","","","","","","72","H","0","img/none_selected.jpg","","107","main_expt"
"","bandit","187","601611","0.0-148.0-0.0","78681007","wem/bandit_double","A2JP9IKRHNLRPI","both","7","2","235","","","","","","","1","1","0","0.3258039352","0.4810065258","","","","","0.4810065258","0.3836571442","0.3681250399","0.1443984823","0.3258039352","0.3529013302","0.2666891207","0.2187982558","","","","","","","","72","H","0","img/none_selected.jpg","","108","main_expt"
"","bandit","188","603303","0.0-149.0-0.0","78681007","wem/bandit_double","A2JP9IKRHNLRPI","both","7","2","173","","","","","","","0","0","1","0.374919859","0.4816764674","","","","","0.4816764674","0.3881214568","0.3446081275","0.1409511773","0.374919859","0.3457683734","0.2575067634","0.2201216928","","","","","","","","72","H","0","img/none_selected.jpg","","109","main_expt"
"","bandit","189","604988","0.0-150.0-0.0","78681007","wem/bandit_double","A2JP9IKRHNLRPI","both","7","2","168","","","","","","","1","1","0","0.3656186065","0.4882082215","","","","","0.4882082215","0.4266873791","0.3681270965","0.1787750665","0.3656186065","0.3316873257","0.2664913793","0.1789817232","","","","","","","","72","H","0","img/none_selected.jpg","","110","main_expt"
"","bandit","190","606604","0.0-151.0-0.0","78681007","wem/bandit_double","A2JP9IKRHNLRPI","both","7","2","98","","","","","","","0","0","1","0.3649701027","0.478642168","","","","","0.478642168","0.4475699482","0.391379093","0.1862786225","0.3649701027","0.3434945318","0.2233446911","0.2404947452","","","","","","","","72","H","0","img/none_selected.jpg","","111","main_expt"
"","bandit","191","608153","0.0-152.0-0.0","78681007","wem/bandit_double","A2JP9IKRHNLRPI","both","7","2","34","","","","","","","0","0","1","0.3371716456","0.4841415165","","","","","0.4841415165","0.4190314983","0.4131544452","0.1654620982","0.3371716456","0.2729480053","0.2170082082","0.2959558532","","","","","","","","72","H","0","img/none_selected.jpg","","112","main_expt"
"","bandit","192","610500","0.0-153.0-0.0","78681007","wem/bandit_double","A2JP9IKRHNLRPI","both","7","2","830","","","","","","","1","1","0","0.2579672073","0.3666128881","","","","","0.4883212127","0.3666128881","0.3963985948","0.1582981878","0.2587224119","0.2579672073","0.1912277411","0.2966985553","","","","","","","","74","J","1","","","113","main_expt"
"","bandit","193","612084","0.0-154.0-0.0","78681007","wem/bandit_double","A2JP9IKRHNLRPI","both","7","2","66","","","","","","","1","1","0","0.24654084","0.3866259854","","","","","0.4883790739","0.3866259854","0.4117985871","0.1922757069","0.2384324947","0.24654084","0.1691995451","0.3289730608","","","","","","","","74","J","1","","","114","main_expt"
"","bandit","194","613681","0.0-155.0-0.0","78681007","wem/bandit_double","A2JP9IKRHNLRPI","both","7","2","82","","","","","","","1","0","0","0.246649757","0.354161152","","","","","0.4902011966","0.354161152","0.394381103","0.185618385","0.2705755989","0.246649757","0.1263730162","0.2783705844","","","","","","","","74","J","1","","","115","main_expt"
"","bandit","195","615327","0.0-156.0-0.0","78681007","wem/bandit_double","A2JP9IKRHNLRPI","both","7","2","133","","","","","","","0","0","1","0.2190482835","0.3170745426","","","","","0.4844723045","0.3170745426","0.3762408663","0.2057277395","0.2666822","0.2190482835","0.1130092975","0.2990421824","","","","","","","","74","J","1","","","116","main_expt"
"","bandit","196","616928","0.0-157.0-0.0","78681007","wem/bandit_double","A2JP9IKRHNLRPI","both","7","2","88","","","","","","","0","0","1","0.1860086181","0.304536318","","","","","0.4895589844","0.304536318","0.3823674378","0.2288411079","0.2664749026","0.1860086181","0.1317362661","0.3214730448","","","","","","","","74","J","1","","","117","main_expt"
"","bandit","197","619426","0.0-158.0-0.0","78681007","wem/bandit_double","A2JP9IKRHNLRPI","both","7","2","985","","","","","","","0","0","1","0.08460291254","0.4050195855","","","","","0.4899729034","0.3411026949","0.4050195855","0.2207517482","0.285497096","0.1765749983","0.08460291254","0.3996160597","","","","","","","","75","K","2","","","118","main_expt"
"","bandit","198","621093","0.0-159.0-0.0","78681007","wem/bandit_double","A2JP9IKRHNLRPI","both","7","2","148","","","","","","","0","0","1","0.09168363065","0.4227562767","","","","","0.4947041593","0.3447942488","0.4227562767","0.1955286499","0.3004427434","0.1840588368","0.09168363065","0.4143362638","","","","","","","","75","K","2","","","119","main_expt"
"","bandit","199","622613","0.0-160.0-0.0","78681007","wem/bandit_double","A2JP9IKRHNLRPI","both","7","2","2","","","","","","","1","0","0","0.372340151","0.2427950695","","","","","0.4916865355","0.3686185352","0.4163810796","0.2427950695","0.2419855731","0.1988357929","0.06729372802","0.372340151","","","","","","","","76","L","3","","","120","main_expt"
"","bandit","200","624217","0.0-161.0-0.0","78681007","wem/bandit_double","A2JP9IKRHNLRPI","both","7","2","86","","","","","","","1","1","0","0.3910424524","0.2479682904","","","","","0.4860386064","0.3547669752","0.406821829","0.2479682904","0.3054132847","0.2315674","0.08346408207","0.3910424524","","","","","","","","76","L","3","","","121","main_expt"
"","bandit","201","625781","0.0-162.0-0.0","78681007","wem/bandit_double","A2JP9IKRHNLRPI","both","7","2","46","","","","","","","1","0","0","0.3813410711","0.3081985406","","","","","0.483083859","0.365994073","0.3999449125","0.3081985406","0.2473202095","0.2041322171","0.05632743158","0.3813410711","","","","","","","","76","L","3","","","122","main_expt"
"","bandit","202","627513","0.0-163.0-0.0","78681007","wem/bandit_double","A2JP9IKRHNLRPI","both","7","2","215","","","","","","","0","0","1","0.4247291795","0.3089359708","","","","","0.4791491275","0.3120596142","0.366626489","0.3089359708","0.2909195989","0.1945268209","0.05516745574","0.4247291795","","","","","","","","76","L","3","","","123","main_expt"
"","bandit","203","629161","0.0-164.0-0.0","78681007","wem/bandit_double","A2JP9IKRHNLRPI","both","7","2","132","","","","","","","0","0","1","0.4311179713","0.3298338218","","","","","0.4776777384","0.302161917","0.3706278578","0.3298338218","0.3493750294","0.2206749142","0.05528311039","0.4311179713","","","","","","","","76","L","3","","","124","main_expt"
"","bandit","204","630715","0.0-165.0-0.0","78681007","wem/bandit_double","A2JP9IKRHNLRPI","both","7","2","36","","","","","","","0","0","1","0.3883668019","0.478983255","","","","","0.478983255","0.2794370347","0.3545504723","0.2795250441","0.3883668019","0.212012295","0.07149807259","0.4085782939","","","","","","","","72","H","0","img/none_selected.jpg","","125","main_expt"
"","bandit","205","632233","0.0-166.0-0.0","78681007","wem/bandit_double","A2JP9IKRHNLRPI","both","7","2","3","","","","","","","0","1","0","0.3888129637","0.4724726719","","","","","0.4724726719","0.2466154908","0.3106298006","0.2184127205","0.3888129637","0.1656684785","0.1137803622","0.4110861309","","","","","","","","72","H","0","img/none_selected.jpg","","126","main_expt"
"","bandit","206","633904","0.0-167.0-0.0","78681007","wem/bandit_double","A2JP9IKRHNLRPI","both","7","2","155","","","","","","","0","1","0","0.3659195129","0.4796244369","","","","","0.4796244369","0.2712823261","0.3351405197","0.2488858907","0.3659195129","0.1685301808","0.1003054442","0.4214671818","","","","","","","","72","H","0","img/none_selected.jpg","","127","main_expt"
"","bandit","207","635662","0.0-168.0-0.0","78681007","wem/bandit_double","A2JP9IKRHNLRPI","both","7","2","240","","","","","","","1","0","0","0.3689954399","0.4825212971","","","","","0.4825212971","0.2095517986","0.2984422464","0.2850827173","0.3689954399","0.1703551811","0.1378169536","0.36889317","","","","","","","","72","H","0","img/none_selected.jpg","","128","main_expt"
"","bandit","208","637182","0.0-169.0-0.0","78681007","wem/bandit_double","A2JP9IKRHNLRPI","both","7","2","2","","","","","","","0","1","0","0.3600340942","0.4877535013","","","","","0.4877535013","0.1986866195","0.2027892291","0.2867242009","0.3600340942","0.1624753709","0.1333081235","0.3840267129","","","","","","","","72","H","0","img/none_selected.jpg","","129","main_expt"
"","bandit","209","638760","0.0-170.0-0.0","78681007","wem/bandit_double","A2JP9IKRHNLRPI","both","7","2","61","","","","","","","0","0","1","0.3580797835","0.4833646461","","","","","0.4833646461","0.172959111","0.13768179","0.2509552002","0.3580797835","0.2335662737","0.1682212827","0.3809677701","","","","","","","","72","H","0","img/none_selected.jpg","","130","main_expt"
"","bandit","210","640352","0.0-171.0-0.0","78681007","wem/bandit_double","A2JP9IKRHNLRPI","both","7","2","72","","","","","","","1","0","0","0.3785893338","0.4790990265","","","","","0.4790990265","0.163172462","0.1352832961","0.2172434631","0.3785893338","0.240441026","0.2193829955","0.3681933818","","","","","","","","72","H","0","img/none_selected.jpg","","131","main_expt"
"","bandit","211","642112","0.0-172.0-0.0","78681007","wem/bandit_double","A2JP9IKRHNLRPI","both","7","2","237","","","","","","","1","0","0","0.3764735404","0.4882311922","","","","","0.4882311922","0.161148659","0.08660982753","0.158295755","0.3764735404","0.2266699971","0.2693349046","0.3664045944","","","","","","","","72","H","0","img/none_selected.jpg","","132","main_expt"
"","bandit","212","643836","0.0-173.0-0.0","78681007","wem/bandit_double","A2JP9IKRHNLRPI","both","7","2","204","","","","","","","0","0","1","0.3433534211","0.4889625365","","","","","0.4889625365","0.1735641072","0.1020907376","0.185310911","0.3433534211","0.1994193025","0.2576546077","0.4046437197","","","","","","","","72","H","0","img/none_selected.jpg","","133","main_expt"
"","bandit","213","645606","0.0-174.0-0.0","78681007","wem/bandit_double","A2JP9IKRHNLRPI","both","7","2","256","","","","","","","1","1","0","0.3606247271","0.4916783795","","","","","0.4916783795","0.1597390633","0.1231499397","0.1966535246","0.3606247271","0.1891464922","0.2412372273","0.364490756","","","","","","","","72","H","0","img/none_selected.jpg","","134","main_expt"
"","bandit","214","647270","0.0-175.0-0.0","78681007","wem/bandit_double","A2JP9IKRHNLRPI","both","7","2","151","","","","","","","0","1","0","0.3268624306","0.4904315354","","","","","0.4904315354","0.1460070414","0.1524236556","0.2290191974","0.3268624306","0.1614798668","0.2198641054","0.311914316","","","","","","","","72","H","0","img/none_selected.jpg","","135","main_expt"
"","bandit","215","649083","0.0-176.0-0.0","78681007","wem/bandit_double","A2JP9IKRHNLRPI","both","7","2","296","","","","","","","0","1","0","0.2854606769","0.491666595","","","","","0.491666595","0.105474526","0.1954247664","0.2929229053","0.2854606769","0.1880386222","0.2504132697","0.2653901568","","","","","","","","72","H","0","img/none_selected.jpg","","136","main_expt"
"","bandit","216","650747","0.0-177.0-0.0","78681007","wem/bandit_double","A2JP9IKRHNLRPI","both","7","2","146","","","","","","","0","1","0","0.3311747399","0.4917142499","","","","","0.4917142499","0.08835118593","0.1833989084","0.2780805385","0.3311747399","0.1961818793","0.1912230989","0.2413295316","","","","","","","","72","H","0","img/none_selected.jpg","","137","main_expt"
"","bandit","217","652362","0.0-178.0-0.0","78681007","wem/bandit_double","A2JP9IKRHNLRPI","both","7","2","99","","","","","","","0","0","1","0.2570785188","0.4870170403","","","","","0.4870170403","0.06418360449","0.1490533902","0.217224157","0.2570785188","0.2857678963","0.1576256809","0.2060295423","","","","","","","","72","H","0","img/none_selected.jpg","","138","main_expt"
"","bandit","218","653880","0.0-179.0-0.0","78681007","wem/bandit_double","A2JP9IKRHNLRPI","both","7","2","2","","","","","","","1","0","0","0.2858060749","0.4834992155","","","","","0.4834992155","0.03554325754","0.1318817547","0.2323391466","0.2858060749","0.3449131854","0.1019788138","0.1809645164","","","","","","","","72","H","0","img/none_selected.jpg","","139","main_expt"
"","bandit","219","656156","0.0-180.0-0.0","78681007","wem/bandit_double","A2JP9IKRHNLRPI","both","7","2","757","","","","","","","1","1","0","0.2975559752","0.4927392517","","","","","0.4927392517","0.04477370895","0.1877412345","0.244475209","0.2975559752","0.2537716732","0.07754087054","0.1843216893","","","","","","","","72","H","0","img/none_selected.jpg","","140","main_expt"
"","bandit","220","658681","0.0-181.0-0.0","78681007","wem/bandit_double","A2JP9IKRHNLRPI","both","7","2","1008","","","","","","","1","0","0","0.2802168405","0.4872377518","","","","","0.4872377518","0.03780119019","0.2363671377","0.232604034","0.2802168405","0.2858111263","0.09489610577","0.1651876155","","","","","","","","72","H","0","img/none_selected.jpg","","141","main_expt"
"","bandit","221","660202","0.0-182.0-0.0","78681007","wem/bandit_double","A2JP9IKRHNLRPI","both","7","2","4","","","","","","","0","1","0","0.2231986748","0.4846254936","","","","","0.4846254936","0.03149913875","0.2546402356","0.2447345556","0.2231986748","0.303049367","0.09601428546","0.1536427928","","","","","","","","72","H","0","img/none_selected.jpg","","142","main_expt"
"","bandit","222","661843","0.0-183.0-0.0","78681007","wem/bandit_double","A2JP9IKRHNLRPI","both","7","2","123","","","","","","","0","0","1","0.2032880393","0.4815328815","","","","","0.4815328815","0.04191513266","0.2825544685","0.26413271","0.2032880393","0.2969419413","0.08301142993","0.1546140226","","","","","","","","72","H","0","img/none_selected.jpg","","143","main_expt"
"","bandit","223","663441","0.0-184.0-0.0","78681007","wem/bandit_double","A2JP9IKRHNLRPI","both","7","2","82","","","","","","","0","0","1","0.3128690494","0.05613120157","","","","","0.4854048375","0.05613120157","0.2731230023","0.1988203511","0.1967741464","0.3128690494","0.09599686985","0.1746031107","","","","","","","","74","J","1","","","144","main_expt"
"","bandit","224","665162","0.0-185.0-0.0","78681007","wem/bandit_double","A2JP9IKRHNLRPI","both","7","2","203","","","","","","","0","0","1","0.07499383622","0.2943814715","","","","","0.4813029389","0.03827589539","0.2943814715","0.217822638","0.2283154954","0.2991796355","0.07499383622","0.2021387556","","","","","","","","75","K","2","","","145","main_expt"
"","bandit","225","666883","0.0-186.0-0.0","78681007","wem/bandit_double","A2JP9IKRHNLRPI","both","7","2","201","","","","","","","1","0","0","0.2504344391","0.2009042904","","","","","0.4884824202","0.02861175853","0.328634005","0.2009042904","0.2118700154","0.3163763193","0.09566861","0.2504344391","","","","","","","","76","L","3","","","146","main_expt"
"","bandit","226","668603","0.0-187.0-0.0","78681007","wem/bandit_double","A2JP9IKRHNLRPI","both","7","2","201","","","","","","","0","1","0","0.210437557","0.4835291327","","","","","0.4835291327","0.02140640811","0.3511209141","0.2080446297","0.210437557","0.3198025905","0.08578591382","0.2437718569","","","","","","","","72","H","0","img/none_selected.jpg","","147","main_expt"
"","bandit","227","670272","0.0-188.0-0.0","78681007","wem/bandit_double","A2JP9IKRHNLRPI","both","7","2","153","","","","","","","1","0","0","0.2446677265","0.1536700415","","","","","0.4716003481","0.0202041473","0.3874996206","0.1536700415","0.2370661354","0.2588245921","0.1147887709","0.2446677265","","","","","","","","76","L","3","","","148","main_expt"
"","bandit","228","672027","0.0-189.0-0.0","78681007","wem/bandit_double","A2JP9IKRHNLRPI","both","7","2","234","","","","","","","0","0","1","0.2430363771","0.4341886607","","","","","0.4341886607","0.01154190459","0.3476646045","0.1593661633","0.2430363771","0.248712437","0.1378203382","0.2911002833","","","","","","","","72","H","0","img/none_selected.jpg","","149","main_expt"
"","bandit","229","673712","0.0-190.0-0.0","78681007","wem/bandit_double","A2JP9IKRHNLRPI","both","7","2","170","","","","","","","0","0","1","0.3529655025","0.144955896","","","","","0.4014438172","0.01291237021","0.3323010919","0.144955896","0.2242182381","0.179144869","0.1414499273","0.3529655025","","","","","","","","76","L","3","","","150","main_expt"
"","bandit","230","675298","0.0-191.0-0.0","78681007","wem/bandit_double","A2JP9IKRHNLRPI","both","7","2","70","","","","","","","1","0","0","0.1997145133","0.3980713407","","","","","0.3980713407","0.0137789916","0.3954477196","0.2123564028","0.1997145133","0.1545669956","0.07852348772","0.3885741111","","","","","","","","72","H","0","img/none_selected.jpg","","151","main_expt"
"","bandit","231","676827","0.0-192.0-0.0","78681007","wem/bandit_double","A2JP9IKRHNLRPI","both","7","2","13","","","","","","","0","1","0","0.2195927633","0.4002357887","","","","","0.4002357887","0.01985271471","0.4186327087","0.2301890466","0.2195927633","0.1651714415","0.08485793113","0.3690499696","","","","","","","","72","H","0","img/none_selected.jpg","","152","main_expt"
"","bandit","232","678646","0.0-193.0-0.0","78681007","wem/bandit_double","A2JP9IKRHNLRPI","both","7","2","306","","","","","","","0","0","1","0.2121816628","0.388677987","","","","","0.388677987","0.02951100453","0.4029566754","0.2295153641","0.2121816628","0.2396245514","0.1083789561","0.3710492515","","","","","","","","72","H","0","img/none_selected.jpg","","153","main_expt"
"","bandit","233","680274","0.0-194.0-0.0","78681007","wem/bandit_double","A2JP9IKRHNLRPI","both","7","2","112","","","","","","","0","1","0","0.1830588608","0.3817747688","","","","","0.3817747688","0.02325572033","0.4037751878","0.2163321136","0.1830588608","0.2085838567","0.109098481","0.3483335413","","","","","","","","72","H","0","img/none_selected.jpg","","154","main_expt"
"","bandit","234","681890","0.0-195.0-0.0","78681007","wem/bandit_double","A2JP9IKRHNLRPI","both","7","2","99","","","","","","","0","1","0","0.2031423662","0.327727533","","","","","0.327727533","0.03925092562","0.4078727314","0.2257858177","0.2031423662","0.1864274254","0.1758262092","0.3343760247","","","","","","","","72","H","0","img/none_selected.jpg","","155","main_expt"
"","bandit","235","683406","0.0-196.0-0.0","78681007","wem/bandit_double","A2JP9IKRHNLRPI","both","7","2","3","","","","","","","0","1","0","0.2022731065","0.2821504166","","","","","0.2821504166","0.05532081832","0.3941681487","0.2077891775","0.2022731065","0.1750870897","0.2046597001","0.3742013553","","","","","","","","72","H","0","img/none_selected.jpg","","156","main_expt"
"","bandit","236","685034","0.0-197.0-0.0","78681007","wem/bandit_double","A2JP9IKRHNLRPI","both","7","2","112","","","","","","","0","1","0","0.1826661219","0.2784527126","","","","","0.2784527126","0.05983660039","0.3417147062","0.1742908387","0.1826661219","0.1321985386","0.1774751899","0.3620366094","","","","","","","","72","H","0","img/none_selected.jpg","","157","main_expt"
"","bandit","237","686761","0.0-198.0-0.0","78681007","wem/bandit_double","A2JP9IKRHNLRPI","both","7","2","208","","","","","","","1","1","0","0.1658993888","0.2857058734","","","","","0.2857058734","0.09347744845","0.2963220618","0.162057643","0.1658993888","0.1341899746","0.1612033886","0.3671714071","","","","","","","","72","H","0","img/none_selected.jpg","","158","main_expt"
"","bandit","238","688303","0.0-199.0-0.0","78681007","wem/bandit_double","A2JP9IKRHNLRPI","both","7","2","23","","","","","","","0","1","0","0.1620079643","0.2349295223","","","","","0.2349295223","0.09649648717","0.2961528309","0.1805514511","0.1620079643","0.1567784951","0.1586838935","0.4015988616","","","","","","","","72","H","0","img/none_selected.jpg","","159","main_expt"
"","bandit","239","689867","0.0-200.0-0.0","78681007","wem/bandit_double","A2JP9IKRHNLRPI","both","7","2","47","","","","","","","1","0","0","0.2453635642","0.2275717407","","","","","0.2275717407","0.08382429791","0.2842772575","0.1724629995","0.2453635642","0.1615549635","0.2159944071","0.4004877553","","","","","","","","72","H","0","img/none_selected.jpg","","160","main_expt"
"","bandit","240","691622","0.0-201.0-0.0","78681007","wem/bandit_double","A2JP9IKRHNLRPI","both","7","2","239","","","","","","","0","0","1","0.2456373749","0.2559884592","","","","","0.2559884592","0.1466352983","0.2747674873","0.1660992999","0.2456373749","0.1854631015","0.2105769377","0.4095849454","","","","","","","","72","H","0","img/none_selected.jpg","","161","main_expt"
"","bandit","241","693175","0.0-202.0-0.0","78681007","wem/bandit_double","A2JP9IKRHNLRPI","both","7","2","39","","","","","","","0","1","0","0.2460125232","0.2670526618","","","","","0.2670526618","0.1569467617","0.2993190406","0.2281832109","0.2460125232","0.21229469","0.2006925765","0.3978002783","","","","","","","","72","H","0","img/none_selected.jpg","","162","main_expt"
"","bandit","242","694905","0.0-203.0-0.0","78681007","wem/bandit_double","A2JP9IKRHNLRPI","both","7","2","212","","","","","","","0","0","1","0.2013568893","0.2618894379","","","","","0.2618894379","0.1437935099","0.3102408377","0.2144285545","0.2013568893","0.162194177","0.2365124807","0.4180552148","","","","","","","","72","H","0","img/none_selected.jpg","","163","main_expt"
"","bandit","243","696534","0.0-204.0-0.0","78681007","wem/bandit_double","A2JP9IKRHNLRPI","both","7","2","116","","","","","","","1","0","0","0.1933595846","0.2977476978","","","","","0.2977476978","0.1503677763","0.2607878409","0.2131293933","0.1933595846","0.1535707797","0.2157370886","0.4407560021","","","","","","","","72","H","0","img/none_selected.jpg","","164","main_expt"
"","bandit","244","698328","0.0-205.0-0.0","78681007","wem/bandit_double","A2JP9IKRHNLRPI","both","7","2","278","","","","","","","1","0","0","0.167552211","0.3138636066","","","","","0.3138636066","0.1574825995","0.2470054868","0.251698227","0.167552211","0.2315934193","0.2166787898","0.4582960521","","","","","","","","72","H","0","img/none_selected.jpg","","165","main_expt"
"","bandit","245","700023","0.0-206.0-0.0","78681007","wem/bandit_double","A2JP9IKRHNLRPI","both","7","2","181","","","","","","","0","0","1","0.1311237951","0.3204338644","","","","","0.3204338644","0.1500633275","0.2629624785","0.2831539445","0.1311237951","0.2579087381","0.1846262972","0.4337500892","","","","","","","","72","H","0","img/none_selected.jpg","","166","main_expt"
"","bandit","246","701544","0.0-207.0-0.0","78681007","wem/bandit_double","A2JP9IKRHNLRPI","both","7","2","4","","","","","","","0","1","0","0.1714029316","0.3600517585","","","","","0.3600517585","0.1137242654","0.2745713682","0.2496169508","0.1714029316","0.2496457694","0.1888750078","0.4537582576","","","","","","","","72","H","0","img/none_selected.jpg","","167","main_expt"
"","bandit","247","703209","0.0-208.0-0.0","78681007","wem/bandit_double","A2JP9IKRHNLRPI","both","7","2","150","","","","","","","1","1","0","0.1494402723","0.3678373827","","","","","0.3678373827","0.145192941","0.2557249153","0.2315540067","0.1494402723","0.234558796","0.2315683769","0.4473485534","","","","","","","","72","H","0","img/none_selected.jpg","","168","main_expt"
"","bandit","248","704829","0.0-209.0-0.0","78681007","wem/bandit_double","A2JP9IKRHNLRPI","both","7","2","99","","","","","","","1","0","0","0.1819888556","0.3421512568","","","","","0.3421512568","0.1863479632","0.2016321063","0.1825517174","0.1819888556","0.2458600006","0.2018123945","0.4471591033","","","","","","","","72","H","0","img/none_selected.jpg","","169","main_expt"
"","bandit","249","706401","0.0-210.0-0.0","78681007","wem/bandit_double","A2JP9IKRHNLRPI","both","7","2","56","","","","","","","0","0","1","0.2329206984","0.3917895485","","","","","0.3917895485","0.142304713","0.2210696627","0.2535959064","0.2329206984","0.2214583157","0.139238222","0.4581839475","","","","","","","","72","H","0","img/none_selected.jpg","","170","main_expt"
"","bandit","250","707947","0.0-211.0-0.0","78681007","wem/bandit_double","A2JP9IKRHNLRPI","both","7","2","27","","","","","","","1","0","0","0.2000607923","0.3206692194","","","","","0.3206692194","0.1739768979","0.1627904758","0.3004284576","0.2000607923","0.296208115","0.1466511374","0.4674995421","","","","","","","","72","H","0","img/none_selected.jpg","","171","main_expt"
"","bandit","251","709540","0.0-212.0-0.0","78681007","wem/bandit_double","A2JP9IKRHNLRPI","both","7","2","73","","","","","","","0","0","1","0.2342957318","0.3198600846","","","","","0.3198600846","0.2172659048","0.1421076649","0.2716191145","0.2342957318","0.3062379281","0.1348290388","0.4455620345","","","","","","","","72","H","0","img/none_selected.jpg","","172","main_expt"
"","bandit","252","711236","0.0-213.0-0.0","78681007","wem/bandit_double","A2JP9IKRHNLRPI","both","7","2","175","","","","","","","0","0","1","0.2189308077","0.2641483633","","","","","0.2641483633","0.2419731025","0.165050165","0.3253138029","0.2189308077","0.2498067723","0.1521691919","0.4471610379","","","","","","","","72","H","0","img/none_selected.jpg","","173","main_expt"
"","bandit","253","712824","0.0-214.0-0.0","78681007","wem/bandit_double","A2JP9IKRHNLRPI","both","7","2","72","","","","","","","0","1","0","0.1803522277","0.2239571331","","","","","0.2248062597","0.2239571331","0.1406738207","0.3419591401","0.2373932689","0.1803522277","0.2191935525","0.4496576915","","","","","","","","74","J","1","","","174","main_expt"
"","bandit","254","714403","0.0-215.0-0.0","78681007","wem/bandit_double","A2JP9IKRHNLRPI","both","7","2","58","","","","","","","1","0","0","0.2014319342","0.2311410243","","","","","0.2370379408","0.2311410243","0.138310495","0.3442692367","0.2160264752","0.2014319342","0.219961305","0.4715297358","","","","","","","","74","J","1","","","175","main_expt"
"","bandit","255","716090","0.0-216.0-0.0","78681007","wem/bandit_double","A2JP9IKRHNLRPI","both","7","2","166","","","","","","","0","1","0","0.2122003168","0.2610077479","","","","","0.2157433706","0.2610077479","0.1675243642","0.3397266539","0.1990604306","0.2122003168","0.1882485239","0.477956151","","","","","","","","74","J","1","","","176","main_expt"
"","bandit","256","717663","0.0-217.0-0.0","78681007","wem/bandit_double","A2JP9IKRHNLRPI","both","7","2","59","","","","","","","0","0","1","0.2629069455","0.2780938204","","","","","0.2014791824","0.2780938204","0.1919885971","0.2997078274","0.1729978196","0.2629069455","0.1644902553","0.4563721206","","","","","","","","74","J","1","","","177","main_expt"
"","bandit","257","719339","0.0-218.0-0.0","78681007","wem/bandit_double","A2JP9IKRHNLRPI","both","7","2","157","","","","","","","0","0","1","0.2336104206","0.3151752793","","","","","0.1913564418","0.3151752793","0.2365392944","0.3064007527","0.1633080779","0.2336104206","0.1713669852","0.4409869931","","","","","","","","74","J","1","","","178","main_expt"
"","bandit","258","720895","0.0-219.0-0.0","78681007","wem/bandit_double","A2JP9IKRHNLRPI","both","7","2","39","","","","","","","0","0","1","0.2263400462","0.2509455726","","","","","0.1980728016","0.2799621139","0.2509455726","0.3533432679","0.1243251356","0.1887504226","0.2263400462","0.4243126063","","","","","","","","75","K","2","","","179","main_expt"
"","bandit","259","722500","0.0-220.0-0.0","78681007","wem/bandit_double","A2JP9IKRHNLRPI","both","7","2","86","","","","","","","0","0","1","0.2036870175","0.2767223981","","","","","0.1833491223","0.3170936092","0.2767223981","0.3652522579","0.1150149055","0.138376641","0.2036870175","0.4312830743","","","","","","","","75","K","2","","","180","main_expt"
"","bandit","260","724174","0.0-221.0-0.0","78681007","wem/bandit_double","A2JP9IKRHNLRPI","both","7","2","158","","","","","","","1","0","0","0.4433127893","0.3383156657","","","","","0.1342686697","0.28101752","0.314600373","0.3383156657","0.1407924877","0.1883992559","0.1934599198","0.4433127893","","","","","","","","76","L","3","","","181","main_expt"
"","bandit","261","725778","0.0-222.0-0.0","78681007","wem/bandit_double","A2JP9IKRHNLRPI","both","7","2","86","","","","","","","1","1","0","0.440136403","0.2902116232","","","","","0.1636660304","0.3043342224","0.3943610609","0.2902116232","0.09672650852","0.128889003","0.2424515525","0.440136403","","","","","","","","76","L","3","","","182","main_expt"
"","bandit","262","727495","0.0-223.0-0.0","78681007","wem/bandit_double","A2JP9IKRHNLRPI","both","7","2","201","","","","","","","0","0","1","0.4347693449","0.3026157476","","","","","0.136761637","0.3192524042","0.3586422101","0.3026157476","0.09888002855","0.1748769843","0.1961777535","0.4347693449","","","","","","","","76","L","3","","","183","main_expt"
"","bandit","263","729187","0.0-224.0-0.0","78681007","wem/bandit_double","A2JP9IKRHNLRPI","both","7","2","172","","","","","","","0","1","0","0.4277130926","0.3360229169","","","","","0.1685989701","0.3332516821","0.3879999062","0.3360229169","0.07200145298","0.1945994373","0.1489283113","0.4277130926","","","","","","","","76","L","3","","","184","main_expt"
"","bandit","264","730929","0.0-225.0-0.0","78681007","wem/bandit_double","A2JP9IKRHNLRPI","both","7","2","225","","","","","","","0","0","1","0.3956248437","0.3336456265","","","","","0.1663529744","0.3228184693","0.3831340227","0.3336456265","0.09476413333","0.1644748654","0.1499965078","0.3956248437","","","","","","","","76","L","3","","","185","main_expt"
"","bandit","265","732471","0.0-226.0-0.0","78681007","wem/bandit_double","A2JP9IKRHNLRPI","both","7","2","25","","","","","","","0","0","1","0.3748928266","0.3308881938","","","","","0.1916836285","0.3111703144","0.3999004662","0.3308881938","0.06556422103","0.1504635592","0.2169832988","0.3748928266","","","","","","","","76","L","3","","","186","main_expt"
"","bandit","266","734075","0.0-227.0-0.0","78681007","wem/bandit_double","A2JP9IKRHNLRPI","both","7","2","85","","","","","","","0","1","0","0.08901149072","0.1686829448","","","","","0.1686829448","0.3353611299","0.3875363153","0.325530054","0.08901149072","0.1760039214","0.2655186329","0.3848139325","","","","","","","","72","H","0","img/none_selected.jpg","","187","main_expt"
"","bandit","267","735671","0.0-228.0-0.0","78681007","wem/bandit_double","A2JP9IKRHNLRPI","both","7","2","79","","","","","","","0","0","1","0.09471428588","0.1461675531","","","","","0.1461675531","0.3646937268","0.3875691392","0.3055482451","0.09471428588","0.1203267588","0.2738785118","0.3990176401","","","","","","","","72","H","0","img/none_selected.jpg","","188","main_expt"
"","bandit","268","737338","0.0-229.0-0.0","78681007","wem/bandit_double","A2JP9IKRHNLRPI","both","7","2","146","","","","","","","0","0","1","0.05118235823","0.1382971047","","","","","0.1382971047","0.3891323825","0.4166866882","0.3002345065","0.05118235823","0.1171540391","0.3041874674","0.3581396838","","","","","","","","72","H","0","img/none_selected.jpg","","189","main_expt"
"","bandit","269","738910","0.0-230.0-0.0","78681007","wem/bandit_double","A2JP9IKRHNLRPI","both","7","2","56","","","","","","","0","0","1","0.1535230761","0.3860741766","","","","","0.1898135375","0.3860741766","0.4124474499","0.2693931213","0.05788318751","0.1535230761","0.3229453735","0.2882972244","","","","","","","","74","J","1","","","190","main_expt"
"","bandit","270","740535","0.0-231.0-0.0","78681007","wem/bandit_double","A2JP9IKRHNLRPI","both","7","2","106","","","","","","","0","0","1","0.1372750947","0.3864243721","","","","","0.1264917812","0.3864243721","0.3638199534","0.3009284261","0.08736915481","0.1372750947","0.3818249757","0.3145326233","","","","","","","","74","J","1","","","191","main_expt"
"","bandit","271","742160","0.0-232.0-0.0","78681007","wem/bandit_double","A2JP9IKRHNLRPI","both","7","2","109","","","","","","","1","1","0","0.4157726243","0.3711146034","","","","","0.1185409567","0.400448014","0.3711146034","0.3157917784","0.08251019118","0.1047771501","0.4157726243","0.3270603702","","","","","","","","75","K","2","","","192","main_expt"
"","bandit","272","743759","0.0-233.0-0.0","78681007","wem/bandit_double","A2JP9IKRHNLRPI","both","7","2","84","","","","","","","0","1","0","0.4611608212","0.3654165885","","","","","0.09837948322","0.3895367297","0.3654165885","0.2999212614","0.06897628064","0.1100845432","0.4611608212","0.3604030797","","","","","","","","75","K","2","","","193","main_expt"
"","bandit","273","745355","0.0-234.0-0.0","78681007","wem/bandit_double","A2JP9IKRHNLRPI","both","7","2","77","","","","","","","0","0","1","0.4508818777","0.3537818584","","","","","0.137690802","0.4032313792","0.3537818584","0.3287494418","0.06801266305","0.1468163818","0.4508818777","0.357423186","","","","","","","","75","K","2","","","194","main_expt"
"","bandit","274","747000","0.0-235.0-0.0","78681007","wem/bandit_double","A2JP9IKRHNLRPI","both","7","2","127","","","","","","","0","0","1","0.4278921451","0.3597494918","","","","","0.1683354775","0.337234763","0.3597494918","0.3031978913","0.09923709358","0.1495594621","0.4278921451","0.3697779856","","","","","","","","75","K","2","","","195","main_expt"
"","bandit","275","748634","0.0-236.0-0.0","78681007","wem/bandit_double","A2JP9IKRHNLRPI","both","7","2","116","","","","","","","0","0","1","0.3617177512","0.2901303692","","","","","0.1561951964","0.3950764453","0.3479121901","0.2901303692","0.1103063831","0.2263220537","0.4256293003","0.3617177512","","","","","","","","76","L","3","","","196","main_expt"
"","bandit","276","750282","0.0-237.0-0.0","78681007","wem/bandit_double","A2JP9IKRHNLRPI","both","7","2","127","","","","","","","0","0","1","0.3775990084","0.2444781728","","","","","0.1329868482","0.4193743727","0.3596292454","0.2444781728","0.07377144043","0.2204718804","0.4476975038","0.3775990084","","","","","","","","76","L","3","","","197","main_expt"
"","bandit","277","751969","0.0-238.0-0.0","78681007","wem/bandit_double","A2JP9IKRHNLRPI","both","7","2","167","","","","","","","0","0","1","0.08863448313","0.1730826789","","","","","0.1730826789","0.4375347816","0.3555371828","0.2140047665","0.08863448313","0.2401118457","0.4434357272","0.4144042571","","","","","","","","72","H","0","img/none_selected.jpg","","198","main_expt"
"","bandit","278","753488","0.0-239.0-0.0","78681007","wem/bandit_double","A2JP9IKRHNLRPI","both","7","2","2","","","","","","","0","0","1","0.1082179128","0.1385649096","","","","","0.1385649096","0.4315030007","0.4016486285","0.2077842613","0.1082179128","0.2673724497","0.4245114622","0.4081775392","","","","","","","","72","H","0","img/none_selected.jpg","","199","main_expt"
"","bandit","279","755268","0.0-240.0-0.0","78681007","wem/bandit_double","A2JP9IKRHNLRPI","both","7","2","259","","","","","","","0","1","0","0.3125307902","0.4340108373","","","","","0.1941139053","0.4340108373","0.3871107612","0.180488049","0.09350688576","0.3125307902","0.4087100315","0.4166156547","","","","","","","","74","J","1","","","200","main_expt"
"","bandit","280","756952","0.0-241.0-0.0","78681007","wem/bandit_double","A2JP9IKRHNLRPI","both","7","2","167","","","","","","","0","0","1","0.2914574258","0.441078118","","","","","0.1825013029","0.441078118","0.3856539452","0.2084987087","0.1036625099","0.2914574258","0.4361521275","0.4306537176","","","","","","","","74","J","1","","","201","main_expt"
"","bandit","281","758494","0.0-242.0-0.0","78681007","wem/bandit_double","A2JP9IKRHNLRPI","both","7","2","27","","","","","","","0","1","0","0.2550600684","0.4143682719","","","","","0.162440572","0.4143682719","0.358588673","0.1869669721","0.1216733889","0.2550600684","0.3332596158","0.449382563","","","","","","","","74","J","1","","","202","main_expt"
"","bandit","282","760171","0.0-243.0-0.0","78681007","wem/bandit_double","A2JP9IKRHNLRPI","both","7","2","154","","","","","","","1","1","0","0.3581848779","0.3460881607","","","","","0.1914238456","0.4280720422","0.3460881607","0.1383076553","0.120655788","0.2769745997","0.3581848779","0.4506576586","","","","","","","","75","K","2","","","203","main_expt"
"","bandit","283","761839","0.0-244.0-0.0","78681007","wem/bandit_double","A2JP9IKRHNLRPI","both","7","2","152","","","","","","","0","1","0","0.3597133043","0.3091432968","","","","","0.1849793247","0.4113524858","0.3091432968","0.1656187697","0.1082970726","0.2752990059","0.3597133043","0.454839243","","","","","","","","75","K","2","","","204","main_expt"
"","bandit","284","763366","0.0-245.0-0.0","78681007","wem/bandit_double","A2JP9IKRHNLRPI","both","7","2","12","","","","","","","0","0","1","0.3630183988","0.3016396897","","","","","0.1722293799","0.4151465815","0.3016396897","0.1699285253","0.09143681274","0.2901512169","0.3630183988","0.4512889682","","","","","","","","75","K","2","","","205","main_expt"
"","bandit","285","764928","0.0-246.0-0.0","78681007","wem/bandit_double","A2JP9IKRHNLRPI","both","7","2","45","","","","","","","1","0","0","0.3737494834","0.3300702997","","","","","0.1625694713","0.4002359997","0.3300702997","0.161732949","0.08377413986","0.2823763913","0.3737494834","0.4591490044","","","","","","","","75","K","2","","","206","main_expt"
"","bandit","286","766487","0.0-247.0-0.0","78681007","wem/bandit_double","A2JP9IKRHNLRPI","both","7","2","43","","","","","","","1","0","0","0.3668784438","0.2648848683","","","","","0.1079769143","0.3692387261","0.2648848683","0.1699017951","0.1585073664","0.2708062506","0.3668784438","0.4650593633","","","","","","","","75","K","2","","","207","main_expt"
"","bandit","287","768103","0.0-248.0-0.0","78681007","wem/bandit_double","A2JP9IKRHNLRPI","both","7","2","100","","","","","","","1","0","0","0.4045351895","0.2502792914","","","","","0.1380178959","0.3283471685","0.2502792914","0.1592107695","0.162299901","0.2641553663","0.4045351895","0.4641513068","","","","","","","","75","K","2","","","208","main_expt"
"","bandit","288","769705","0.0-249.0-0.0","78681007","wem/bandit_double","A2JP9IKRHNLRPI","both","7","2","84","","","","","","","0","0","1","0.4402386934","0.2770073026","","","","","0.1538506734","0.2924758898","0.2770073026","0.1659907122","0.1542266077","0.2704675845","0.4402386934","0.4567807332","","","","","","","","75","K","2","","","209","main_expt"
"","bandit","289","771261","0.0-250.0-0.0","78681007","wem/bandit_double","A2JP9IKRHNLRPI","both","7","2","40","","","","","","","0","0","1","0.4483623408","0.3451435735","","","","","0.1406222791","0.2279470939","0.3451435735","0.229525517","0.1890415559","0.3420868926","0.4483623408","0.428253188","","","","","","","","75","K","2","","","210","main_expt"
"","bandit","290","772967","0.0-251.0-0.0","78681007","wem/bandit_double","A2JP9IKRHNLRPI","both","7","2","189","","","","","","","0","0","1","0.1818133019","0.08987887408","","","","","0.08987887408","0.2131844406","0.3514478275","0.2434605193","0.1818133019","0.3069688952","0.4471415093","0.410271385","","","","","","","","72","H","0","img/none_selected.jpg","","211","main_expt"
"","bandit","291","774500","0.0-252.0-0.0","78681007","wem/bandit_double","A2JP9IKRHNLRPI","both","7","2","19","","","","","","","0","1","0","0.1782747956","0.1277875359","","","","","0.1277875359","0.1601793481","0.3579324364","0.1633214123","0.1782747956","0.3005379093","0.4374655127","0.4065587724","","","","","","","","72","H","0","img/none_selected.jpg","","212","main_expt"
