"consent","trial_type","trial_index","time_elapsed","internal_node_id","subjID","study","MID","cond","drift1","drift2","rt","responses","key_press","expt_phase","like","value","connected","gems","bombs","no_reward","GemPrChosen","BombPrChosen","GainOverPainPr_0","GainOverPainPr_1","GainOverPainPr_2","GainOverPainPr_3","LosePr_0","LosePr_1","LosePr_2","LosePr_3","WinPr_0","WinPr_1","WinPr_2","WinPr_3","Q0","Q1","Q2","gender","age","ethnicity","target","respCharCode","respKey","respChoiceNum","respChoice","practice","trial_counter","trial_label"
"INL_behavioral_consent_30min_online.html","consent","0","31072","0.0-0.0","90660643","wem/bandit_double","AIK9IRPT4M848","both","4","5","","","","","","","","","","","","","","","","","","","","","","","","","","","","","","","","","","","","","",""
"","survey-text","1","38042","0.0-1.0","90660643","wem/bandit_double","AIK9IRPT4M848","both","4","5","5957","{""Q0"":""AIK9IRPT4M848""}","","","","","","","","","","","","","","","","","","","","","","","","","","","","","","","","","","","",""
"","text","2","47619","0.0-2.0","90660643","wem/bandit_double","AIK9IRPT4M848","both","4","5","8570","","32","","","","","","","","","","","","","","","","","","","","","","","","","","","","","","","","","","",""
"","text","3","57234","0.0-3.0","90660643","wem/bandit_double","AIK9IRPT4M848","both","4","5","9608","","32","","","","","","","","","","","","","","","","","","","","","","","","","","","","","","","","","","",""
"","text","4","78814","0.0-4.0","90660643","wem/bandit_double","AIK9IRPT4M848","both","4","5","21576","","32","","","","","","","","","","","","","","","","","","","","","","","","","","","","","","","","","","",""
"","text","5","95844","0.0-5.0","90660643","wem/bandit_double","AIK9IRPT4M848","both","4","5","17028","","32","","","","","","","","","","","","","","","","","","","","","","","","","","","","","","","","","","",""
"","text","6","114604","0.0-6.0","90660643","wem/bandit_double","AIK9IRPT4M848","both","4","5","18758","","32","","","","","","","","","","","","","","","","","","","","","","","","","","","","","","","","","","",""
"","text","7","120657","0.0-7.0","90660643","wem/bandit_double","AIK9IRPT4M848","both","4","5","6050","","32","","","","","","","","","","","","","","","","","","","","","","","","","","","","","","","","","","",""
"","identification","8","131594","0.0-8.0-0.0","90660643","wem/bandit_double","AIK9IRPT4M848","both","4","5","10908","","","","6","6","6","","","","","","","","","","","","","","","","","","","","","","","","the village of Zur","","","","","","",""
"","identification","9","137422","0.0-8.0-1.0","90660643","wem/bandit_double","AIK9IRPT4M848","both","4","5","4807","","","","0","0","0","","","","","","","","","","","","","","","","","","","","","","","","the village of Nyx","","","","","","",""
"","text","10","146664","0.0-9.0","90660643","wem/bandit_double","AIK9IRPT4M848","both","4","5","8238","","32","","","","","","","","","","","","","","","","","","","","","","","","","","","","","","","","","","",""
"","text","11","150394","0.0-10.0","90660643","wem/bandit_double","AIK9IRPT4M848","both","4","5","3727","","32","","","","","","","","","","","","","","","","","","","","","","","","","","","","","","","","","","",""
"","text","12","152955","0.0-11.0","90660643","wem/bandit_double","AIK9IRPT4M848","both","4","5","2559","","32","","","","","","","","","","","","","","","","","","","","","","","","","","","","","","","","","","",""
"","text","13","160563","0.0-12.0","90660643","wem/bandit_double","AIK9IRPT4M848","both","4","5","7605","","32","","","","","","","","","","","","","","","","","","","","","","","","","","","","","","","","","","",""
"","text","14","163899","0.0-13.0","90660643","wem/bandit_double","AIK9IRPT4M848","both","4","5","3332","","32","","","","","","","","","","","","","","","","","","","","","","","","","","","","","","","","","","",""
"","bandit","15","167643","0.0-14.0-0.0","90660643","wem/bandit_double","AIK9IRPT4M848","both","4","5","2228","","","","","","","1","0","0","1","0","","","","","0","","","","1","","","","","","","","","","","74","J","0","img/none_selected_demo.jpg","true","0",""
"","bandit","16","171571","0.0-15.0-0.0","90660643","wem/bandit_double","AIK9IRPT4M848","both","4","5","2415","","","","","","","0","1","0","0","1","","","","","1","","","","0","","","","","","","","","","","75","K","0","img/none_selected_demo.jpg","true","0",""
"","text","17","178795","0.0-16.0","90660643","wem/bandit_double","AIK9IRPT4M848","both","4","5","7221","","32","","","","","","","","","","","","","","","","","","","","","","","","","","","","","","","","","","",""
"","text","18","189632","0.0-17.0","90660643","wem/bandit_double","AIK9IRPT4M848","both","4","5","10833","","32","","","","","","","","","","","","","","","","","","","","","","","","","","","","","","","","","","",""
"","text","19","198749","0.0-18.0","90660643","wem/bandit_double","AIK9IRPT4M848","both","4","5","9114","","32","","","","","","","","","","","","","","","","","","","","","","","","","","","","","","","","","","",""
"","text","20","206320","0.0-19.0","90660643","wem/bandit_double","AIK9IRPT4M848","both","4","5","7569","","32","","","","","","","","","","","","","","","","","","","","","","","","","","","","","","","","","","",""
"","bandit","21","208597","0.0-20.0-0.0","90660643","wem/bandit_double","AIK9IRPT4M848","both","4","5","766","","","","","","","1","0","0","0.8","0","","","","","0","0","","","0.8","0.2","","","","","","","","","","74","J","0","img/none_selected_demo.jpg","true","0","80_20_practice"
"","bandit","22","210451","0.0-20.0-1.0","90660643","wem/bandit_double","AIK9IRPT4M848","both","4","5","341","","","","","","","1","0","0","0.8","0","","","","","0","0","","","0.8","0.2","","","","","","","","","","74","J","0","img/none_selected_demo.jpg","true","0","80_20_practice"
"","bandit","23","212268","0.0-20.0-2.0","90660643","wem/bandit_double","AIK9IRPT4M848","both","4","5","305","","","","","","","1","0","0","0.8","0","","","","","0","0","","","0.8","0.2","","","","","","","","","","74","J","0","img/none_selected_demo.jpg","true","0","80_20_practice"
"","bandit","24","214082","0.0-20.0-3.0","90660643","wem/bandit_double","AIK9IRPT4M848","both","4","5","303","","","","","","","1","0","0","0.8","0","","","","","0","0","","","0.8","0.2","","","","","","","","","","74","J","0","img/none_selected_demo.jpg","true","0","80_20_practice"
"","bandit","25","216169","0.0-20.0-4.0","90660643","wem/bandit_double","AIK9IRPT4M848","both","4","5","577","","","","","","","1","0","0","0.8","0","","","","","0","0","","","0.8","0.2","","","","","","","","","","74","J","0","img/none_selected_demo.jpg","true","0","80_20_practice"
"","bandit","26","217940","0.0-20.0-5.0","90660643","wem/bandit_double","AIK9IRPT4M848","both","4","5","258","","","","","","","1","0","0","0.8","0","","","","","0","0","","","0.8","0.2","","","","","","","","","","74","J","0","img/none_selected_demo.jpg","true","0","80_20_practice"
"","bandit","27","220568","0.0-20.0-6.0","90660643","wem/bandit_double","AIK9IRPT4M848","both","4","5","1116","","","","","","","1","0","0","0.8","0","","","","","0","0","","","0.8","0.2","","","","","","","","","","74","J","0","img/none_selected_demo.jpg","true","0","80_20_practice"
"","bandit","28","222392","0.0-20.0-7.0","90660643","wem/bandit_double","AIK9IRPT4M848","both","4","5","307","","","","","","","1","0","0","0.8","0","","","","","0","0","","","0.8","0.2","","","","","","","","","","74","J","0","img/none_selected_demo.jpg","true","0","80_20_practice"
"","bandit","29","224220","0.0-20.0-8.0","90660643","wem/bandit_double","AIK9IRPT4M848","both","4","5","316","","","","","","","1","0","0","0.8","0","","","","","0","0","","","0.8","0.2","","","","","","","","","","74","J","0","img/none_selected_demo.jpg","true","0","80_20_practice"
"","bandit","30","228055","0.0-20.0-9.0","90660643","wem/bandit_double","AIK9IRPT4M848","both","4","5","2323","","","","","","","1","0","0","0.8","0","","","","","0","0","","","0.8","0.2","","","","","","","","","","74","J","0","img/none_selected_demo.jpg","true","0","80_20_practice"
"","bandit","31","230012","0.0-20.0-10.0","90660643","wem/bandit_double","AIK9IRPT4M848","both","4","5","448","","","","","","","0","0","1","0.2","0","","","","","0","0","","","0.8","0.2","","","","","","","","","","75","K","1","","true","0","80_20_practice"
"","bandit","32","231970","0.0-20.0-11.0","90660643","wem/bandit_double","AIK9IRPT4M848","both","4","5","448","","","","","","","1","0","0","0.8","0","","","","","0","0","","","0.8","0.2","","","","","","","","","","74","J","0","img/none_selected_demo.jpg","true","0","80_20_practice"
"","bandit","33","233517","0.0-20.0-12.0","90660643","wem/bandit_double","AIK9IRPT4M848","both","4","5","36","","","","","","","1","0","0","0.8","0","","","","","0","0","","","0.8","0.2","","","","","","","","","","74","J","0","img/none_selected_demo.jpg","true","0","80_20_practice"
"","bandit","34","235293","0.0-20.0-13.0","90660643","wem/bandit_double","AIK9IRPT4M848","both","4","5","263","","","","","","","1","0","0","0.8","0","","","","","0","0","","","0.8","0.2","","","","","","","","","","74","J","0","img/none_selected_demo.jpg","true","0","80_20_practice"
"","bandit","35","238652","0.0-20.0-14.0","90660643","wem/bandit_double","AIK9IRPT4M848","both","4","5","1845","","","","","","","1","0","0","0.8","0","","","","","0","0","","","0.8","0.2","","","","","","","","","","74","J","0","img/none_selected_demo.jpg","true","0","80_20_practice"
"","bandit","36","240465","0.0-20.0-15.0","90660643","wem/bandit_double","AIK9IRPT4M848","both","4","5","303","","","","","","","1","0","0","0.8","0","","","","","0","0","","","0.8","0.2","","","","","","","","","","74","J","0","img/none_selected_demo.jpg","true","0","80_20_practice"
"","bandit","37","242116","0.0-20.0-16.0","90660643","wem/bandit_double","AIK9IRPT4M848","both","4","5","139","","","","","","","1","0","0","0.8","0","","","","","0","0","","","0.8","0.2","","","","","","","","","","74","J","0","img/none_selected_demo.jpg","true","0","80_20_practice"
"","bandit","38","244575","0.0-20.0-17.0","90660643","wem/bandit_double","AIK9IRPT4M848","both","4","5","945","","","","","","","1","0","0","0.8","0","","","","","0","0","","","0.8","0.2","","","","","","","","","","74","J","0","img/none_selected_demo.jpg","true","0","80_20_practice"
"","bandit","39","247653","0.0-20.0-18.0","90660643","wem/bandit_double","AIK9IRPT4M848","both","4","5","1568","","","","","","","1","0","0","0.8","0","","","","","0","0","","","0.8","0.2","","","","","","","","","","74","J","0","img/none_selected_demo.jpg","true","0","80_20_practice"
"","bandit","40","249716","0.0-20.0-19.0","90660643","wem/bandit_double","AIK9IRPT4M848","both","4","5","548","","","","","","","0","0","1","0.8","0","","","","","0","0","","","0.8","0.2","","","","","","","","","","74","J","0","img/none_selected_demo.jpg","true","0","80_20_practice"
"","text","41","253060","0.0-21.0","90660643","wem/bandit_double","AIK9IRPT4M848","both","4","5","3339","","32","","","","","","","","","","","","","","","","","","","","","","","","","","","","","","","","","","",""
"","bandit","42","256456","0.0-22.0-0.0","90660643","wem/bandit_double","AIK9IRPT4M848","both","4","5","1883","","","","","","","1","0","0","1","0","","","","","0","1","","","1","0","","","","","","","","","","74","J","0","img/none_selected_demo.jpg","true","0",""
"","text","43","265668","0.0-23.0","90660643","wem/bandit_double","AIK9IRPT4M848","both","4","5","9204","","32","","","","","","","","","","","","","","","","","","","","","","","","","","","","","","","","","","",""
"","text","44","269067","0.0-24.0","90660643","wem/bandit_double","AIK9IRPT4M848","both","4","5","3396","","32","","","","","","","","","","","","","","","","","","","","","","","","","","","","","","","","","","",""
"","text","45","271708","0.0-25.0","90660643","wem/bandit_double","AIK9IRPT4M848","both","4","5","2636","","32","","","","","","","","","","","","","","","","","","","","","","","","","","","","","","","","","","",""
"","text","46","276012","0.0-26.0","90660643","wem/bandit_double","AIK9IRPT4M848","both","4","5","4300","","32","","","","","","","","","","","","","","","","","","","","","","","","","","","","","","","","","","",""
"","text","47","279257","0.0-27.0","90660643","wem/bandit_double","AIK9IRPT4M848","both","4","5","3241","","32","","","","","","","","","","","","","","","","","","","","","","","","","","","","","","","","","","",""
"","text","48","288957","0.0-28.0","90660643","wem/bandit_double","AIK9IRPT4M848","both","4","5","9696","","32","","","","","","","","","","","","","","","","","","","","","","","","","","","","","","","","","","",""
"","text","49","299802","0.0-29.0","90660643","wem/bandit_double","AIK9IRPT4M848","both","4","5","10841","","32","","","","","","","","","","","","","","","","","","","","","","","","","","","","","","","","","","",""
"","text","50","303157","0.0-30.0","90660643","wem/bandit_double","AIK9IRPT4M848","both","4","5","3352","","32","","","","","","","","","","","","","","","","","","","","","","","","","","","","","","","","","","",""
"","text","51","306594","0.0-31.0","90660643","wem/bandit_double","AIK9IRPT4M848","both","4","5","3433","","32","","","","","","","","","","","","","","","","","","","","","","","","","","","","","","","","","","",""
"","text","52","313994","0.0-32.0","90660643","wem/bandit_double","AIK9IRPT4M848","both","4","5","7397","","32","","","","","","","","","","","","","","","","","","","","","","","","","","","","","","","","","","",""
"","text","53","317175","0.0-33.0","90660643","wem/bandit_double","AIK9IRPT4M848","both","4","5","3175","","32","","","","","","","","","","","","","","","","","","","","","","","","","","","","","","","","","","",""
"","text","54","318665","0.0-34.0","90660643","wem/bandit_double","AIK9IRPT4M848","both","4","5","1483","","32","","","","","","","","","","","","","","","","","","","","","","","","","","","","","","","","","","",""
"","bandit","55","321273","0.0-35.0-0.0","90660643","wem/bandit_double","AIK9IRPT4M848","both","4","5","1097","","","","","","","0","1","0","0.8","0.8","","","","","0.8","0.2","0.6","0.2","0.8","0.2","0.6","0.2","","","","","","","","72","H","0","img/none_selected.jpg","true","0","full_practice"
"","bandit","56","323130","0.0-35.0-1.0","90660643","wem/bandit_double","AIK9IRPT4M848","both","4","5","344","","","","","","","1","0","0","0.2","0.2","","","","","0.8","0.2","0.6","0.2","0.8","0.2","0.6","0.2","","","","","","","","74","J","1","","true","0","full_practice"
"","bandit","57","324925","0.0-35.0-2.0","90660643","wem/bandit_double","AIK9IRPT4M848","both","4","5","284","","","","","","","1","1","0","0.6","0.6","","","","","0.8","0.2","0.6","0.2","0.8","0.2","0.6","0.2","","","","","","","","75","K","2","","true","0","full_practice"
"","bandit","58","326717","0.0-35.0-3.0","90660643","wem/bandit_double","AIK9IRPT4M848","both","4","5","275","","","","","","","0","0","1","0.2","0.2","","","","","0.8","0.2","0.6","0.2","0.8","0.2","0.6","0.2","","","","","","","","76","L","3","","true","0","full_practice"
"","bandit","59","328471","0.0-35.0-4.0","90660643","wem/bandit_double","AIK9IRPT4M848","both","4","5","242","","","","","","","0","1","0","0.6","0.6","","","","","0.8","0.2","0.6","0.2","0.8","0.2","0.6","0.2","","","","","","","","75","K","2","","true","0","full_practice"
"","bandit","60","330098","0.0-35.0-5.0","90660643","wem/bandit_double","AIK9IRPT4M848","both","4","5","116","","","","","","","0","0","1","0.6","0.6","","","","","0.8","0.2","0.6","0.2","0.8","0.2","0.6","0.2","","","","","","","","75","K","2","","true","0","full_practice"
"","bandit","61","332439","0.0-35.0-6.0","90660643","wem/bandit_double","AIK9IRPT4M848","both","4","5","827","","","","","","","1","1","0","0.6","0.6","","","","","0.8","0.2","0.6","0.2","0.8","0.2","0.6","0.2","","","","","","","","75","K","2","","true","0","full_practice"
"","bandit","62","334293","0.0-35.0-7.0","90660643","wem/bandit_double","AIK9IRPT4M848","both","4","5","340","","","","","","","1","1","0","0.6","0.6","","","","","0.8","0.2","0.6","0.2","0.8","0.2","0.6","0.2","","","","","","","","75","K","2","","true","0","full_practice"
"","bandit","63","336067","0.0-35.0-8.0","90660643","wem/bandit_double","AIK9IRPT4M848","both","4","5","263","","","","","","","0","1","0","0.6","0.6","","","","","0.8","0.2","0.6","0.2","0.8","0.2","0.6","0.2","","","","","","","","75","K","2","","true","0","full_practice"
"","bandit","64","338834","0.0-35.0-9.0","90660643","wem/bandit_double","AIK9IRPT4M848","both","4","5","1257","","","","","","","1","1","0","0.6","0.6","","","","","0.8","0.2","0.6","0.2","0.8","0.2","0.6","0.2","","","","","","","","75","K","2","","true","0","full_practice"
"","bandit","65","341464","0.0-35.0-10.0","90660643","wem/bandit_double","AIK9IRPT4M848","both","4","5","1119","","","","","","","1","1","0","0.6","0.6","","","","","0.8","0.2","0.6","0.2","0.8","0.2","0.6","0.2","","","","","","","","75","K","2","","true","0","full_practice"
"","bandit","66","343199","0.0-35.0-11.0","90660643","wem/bandit_double","AIK9IRPT4M848","both","4","5","223","","","","","","","1","1","0","0.6","0.6","","","","","0.8","0.2","0.6","0.2","0.8","0.2","0.6","0.2","","","","","","","","75","K","2","","true","0","full_practice"
"","bandit","67","345386","0.0-35.0-12.0","90660643","wem/bandit_double","AIK9IRPT4M848","both","4","5","674","","","","","","","0","1","0","0.6","0.6","","","","","0.8","0.2","0.6","0.2","0.8","0.2","0.6","0.2","","","","","","","","75","K","2","","true","0","full_practice"
"","bandit","68","347134","0.0-35.0-13.0","90660643","wem/bandit_double","AIK9IRPT4M848","both","4","5","237","","","","","","","1","0","0","0.6","0.6","","","","","0.8","0.2","0.6","0.2","0.8","0.2","0.6","0.2","","","","","","","","75","K","2","","true","0","full_practice"
"","bandit","69","348977","0.0-35.0-14.0","90660643","wem/bandit_double","AIK9IRPT4M848","both","4","5","332","","","","","","","1","0","0","0.6","0.6","","","","","0.8","0.2","0.6","0.2","0.8","0.2","0.6","0.2","","","","","","","","75","K","2","","true","0","full_practice"
"","bandit","70","350813","0.0-35.0-15.0","90660643","wem/bandit_double","AIK9IRPT4M848","both","4","5","324","","","","","","","0","1","0","0.6","0.6","","","","","0.8","0.2","0.6","0.2","0.8","0.2","0.6","0.2","","","","","","","","75","K","2","","true","0","full_practice"
"","bandit","71","352751","0.0-35.0-16.0","90660643","wem/bandit_double","AIK9IRPT4M848","both","4","5","426","","","","","","","0","1","0","0.6","0.6","","","","","0.8","0.2","0.6","0.2","0.8","0.2","0.6","0.2","","","","","","","","75","K","2","","true","0","full_practice"
"","bandit","72","354709","0.0-35.0-17.0","90660643","wem/bandit_double","AIK9IRPT4M848","both","4","5","447","","","","","","","0","1","0","0.6","0.6","","","","","0.8","0.2","0.6","0.2","0.8","0.2","0.6","0.2","","","","","","","","75","K","2","","true","0","full_practice"
"","bandit","73","356437","0.0-35.0-18.0","90660643","wem/bandit_double","AIK9IRPT4M848","both","4","5","214","","","","","","","0","0","1","0.2","0.2","","","","","0.8","0.2","0.6","0.2","0.8","0.2","0.6","0.2","","","","","","","","74","J","1","","true","0","full_practice"
"","bandit","74","358366","0.0-35.0-19.0","90660643","wem/bandit_double","AIK9IRPT4M848","both","4","5","418","","","","","","","1","0","0","0.8","0.8","","","","","0.8","0.2","0.6","0.2","0.8","0.2","0.6","0.2","","","","","","","","72","H","0","img/none_selected.jpg","true","0","full_practice"
"","text","75","362542","0.0-36.0","90660643","wem/bandit_double","AIK9IRPT4M848","both","4","5","4167","","32","","","","","","","","","","","","","","","","","","","","","","","","","","","","","","","","","","",""
"","text","76","375586","0.0-37.0","90660643","wem/bandit_double","AIK9IRPT4M848","both","4","5","12039","","32","","","","","","","","","","","","","","","","","","","","","","","","","","","","","","","","","","",""
"","text","77","381193","0.0-38.0","90660643","wem/bandit_double","AIK9IRPT4M848","both","4","5","5603","","32","","","","","","","","","","","","","","","","","","","","","","","","","","","","","","","","","","",""
"","text","78","387391","0.0-39.0","90660643","wem/bandit_double","AIK9IRPT4M848","both","4","5","6193","","32","","","","","","","","","","","","","","","","","","","","","","","","","","","","","","","","","","",""
"","text","79","392304","0.0-40.0","90660643","wem/bandit_double","AIK9IRPT4M848","both","4","5","4908","","32","","","","","","","","","","","","","","","","","","","","","","","","","","","","","","","","","","",""
"","bandit","80","395460","0.0-41.0-0.0","90660643","wem/bandit_double","AIK9IRPT4M848","both","4","5","1646","","","","","","","0","1","0","0.2771551185","0.4265570961","","","","","0.4265570961","0.3897275569","0.3340388524","0.1165465043","0.2771551185","0.3242650943","0.3894728165","0.3525715257","","","","","","","","72","H","0","img/none_selected.jpg","","1","main_expt"
"","bandit","81","397205","0.0-42.0-0.0","90660643","wem/bandit_double","AIK9IRPT4M848","both","4","5","233","","","","","","","0","0","1","0.3296228245","0.3911966266","","","","","0.4177099958","0.3911966266","0.3223834482","0.08371899021","0.3030893157","0.3296228245","0.363660736","0.390153736","","","","","","","","74","J","1","","","2","main_expt"
"","bandit","82","399062","0.0-43.0-0.0","90660643","wem/bandit_double","AIK9IRPT4M848","both","4","5","346","","","","","","","1","1","0","0.3842171554","0.3585509001","","","","","0.4192185534","0.4074861021","0.3585509001","0.04339790364","0.3211059343","0.3102780753","0.3842171554","0.3725447061","","","","","","","","75","K","2","","","3","main_expt"
"","bandit","83","400855","0.0-44.0-0.0","90660643","wem/bandit_double","AIK9IRPT4M848","both","4","5","281","","","","","","","1","1","0","0.3831963053","0.3416436242","","","","","0.4241610434","0.3965638453","0.3416436242","0.04073472785","0.2804386453","0.2749892112","0.3831963053","0.3431524481","","","","","","","","75","K","2","","","4","main_expt"
"","bandit","84","402654","0.0-45.0-0.0","90660643","wem/bandit_double","AIK9IRPT4M848","both","4","5","285","","","","","","","0","1","0","0.4056596471","0.3444758892","","","","","0.4284837315","0.3688269119","0.3444758892","0.04731773769","0.2609559086","0.3037824898","0.4056596471","0.3448007793","","","","","","","","75","K","2","","","5","main_expt"
"","bandit","85","404405","0.0-46.0-0.0","90660643","wem/bandit_double","AIK9IRPT4M848","both","4","5","240","","","","","","","1","0","0","0.4409946319","0.3574177426","","","","","0.4328708062","0.3865867917","0.3574177426","0.05617088868","0.2259287768","0.3217417103","0.4409946319","0.3980888019","","","","","","","","75","K","2","","","6","main_expt"
"","bandit","86","406180","0.0-47.0-0.0","90660643","wem/bandit_double","AIK9IRPT4M848","both","4","5","265","","","","","","","1","1","0","0.3821747998","0.3634052143","","","","","0.4176545671","0.4294719924","0.3634052143","0.05606577856","0.2433618728","0.3018715163","0.3821747998","0.3693121862","","","","","","","","75","K","2","","","7","main_expt"
"","bandit","87","407973","0.0-48.0-0.0","90660643","wem/bandit_double","AIK9IRPT4M848","both","4","5","279","","","","","","","0","0","1","0.3841844813","0.3675420607","","","","","0.4022395488","0.4210378118","0.3675420607","0.09244853328","0.2025356769","0.3643645816","0.3841844813","0.2933697555","","","","","","","","75","K","2","","","8","main_expt"
"","bandit","88","409747","0.0-49.0-0.0","90660643","wem/bandit_double","AIK9IRPT4M848","both","4","5","261","","","","","","","0","0","1","0.3412237964","0.3921196104","","","","","0.3929004949","0.4502112583","0.3921196104","0.1271341085","0.1441028094","0.3418610374","0.3412237964","0.3036212831","","","","","","","","75","K","2","","","9","main_expt"
"","bandit","89","411644","0.0-50.0-0.0","90660643","wem/bandit_double","AIK9IRPT4M848","both","4","5","380","","","","","","","1","0","0","0.3256420777","0.4026182126","","","","","0.3863711448","0.4452653155","0.4026182126","0.1370717255","0.1736005971","0.3190157878","0.3256420777","0.308020301","","","","","","","","75","K","2","","","10","main_expt"
"","bandit","90","413368","0.0-51.0-0.0","90660643","wem/bandit_double","AIK9IRPT4M848","both","4","5","213","","","","","","","0","1","0","0.3514007431","0.3543069494","","","","","0.4205849279","0.4352349267","0.3543069494","0.1275050207","0.1836365694","0.2998731478","0.3514007431","0.3065973113","","","","","","","","75","K","2","","","11","main_expt"
"","bandit","91","415540","0.0-52.0-0.0","90660643","wem/bandit_double","AIK9IRPT4M848","both","4","5","658","","","","","","","1","0","0","0.3271859636","0.122317004","","","","","0.4525069231","0.4029030639","0.3504097904","0.122317004","0.2143869662","0.2942822571","0.3722032088","0.3271859636","","","","","","","","76","L","3","","","12","main_expt"
"","bandit","92","417516","0.0-53.0-0.0","90660643","wem/bandit_double","AIK9IRPT4M848","both","4","5","461","","","","","","","0","0","1","0.2761076709","0.1251711411","","","","","0.4485799753","0.4198147105","0.2787441393","0.1251711411","0.1637139448","0.3009212619","0.3681707299","0.2761076709","","","","","","","","76","L","3","","","13","main_expt"
"","bandit","93","420982","0.0-54.0-0.0","90660643","wem/bandit_double","AIK9IRPT4M848","both","4","5","1951","","","","","","","0","0","1","0.3227424667","0.3761312174","","","","","0.4504049656","0.3761312174","0.2723245106","0.1380641988","0.1488535162","0.3227424667","0.3528222564","0.2311164494","","","","","","","","74","J","1","","","14","main_expt"
"","bandit","94","422723","0.0-55.0-0.0","90660643","wem/bandit_double","AIK9IRPT4M848","both","4","5","226","","","","","","","0","0","1","0.1332411271","0.4281165459","","","","","0.4281165459","0.4017507227","0.3687644442","0.2010812313","0.1332411271","0.3547546862","0.3738838661","0.2905977425","","","","","","","","72","H","0","img/none_selected.jpg","","15","main_expt"
"","bandit","95","425260","0.0-56.0-0.0","90660643","wem/bandit_double","AIK9IRPT4M848","both","4","5","1021","","","","","","","1","0","0","0.3385239332","0.3992289848","","","","","0.4035101098","0.3859888637","0.3992289848","0.1747275657","0.09882415698","0.3241157583","0.3385239332","0.2924554969","","","","","","","","75","K","2","","","16","main_expt"
"","bandit","96","427065","0.0-57.0-0.0","90660643","wem/bandit_double","AIK9IRPT4M848","both","4","5","292","","","","","","","0","1","0","0.3111355138","0.4067061876","","","","","0.4063691663","0.3706978481","0.4067061876","0.1816524112","0.1069157009","0.3363410386","0.3111355138","0.3114836302","","","","","","","","75","K","2","","","17","main_expt"
"","bandit","97","428631","0.0-58.0-0.0","90660643","wem/bandit_double","AIK9IRPT4M848","both","4","5","51","","","","","","","0","1","0","0.3487767647","0.3969002131","","","","","0.4201618032","0.3323991027","0.3969002131","0.1700798448","0.134958137","0.3880947854","0.3487767647","0.3215333475","","","","","","","","75","K","2","","","18","main_expt"
"","bandit","98","430423","0.0-59.0-0.0","90660643","wem/bandit_double","AIK9IRPT4M848","both","4","5","279","","","","","","","1","0","0","0.3010303499","0.3930099592","","","","","0.3868389751","0.3301718366","0.3930099592","0.1998500639","0.1230418706","0.4116912081","0.3010303499","0.2733398822","","","","","","","","75","K","2","","","19","main_expt"
"","bandit","99","432631","0.0-60.0-0.0","90660643","wem/bandit_double","AIK9IRPT4M848","both","4","5","697","","","","","","","0","0","1","0.2907203997","0.3791602553","","","","","0.3868875991","0.3714618997","0.3791602553","0.2418808817","0.09866604889","0.3973894305","0.2907203997","0.2351410235","","","","","","","","75","K","2","","","20","main_expt"
"","bandit","100","434409","0.0-61.0-0.0","90660643","wem/bandit_double","AIK9IRPT4M848","both","4","5","262","","","","","","","0","0","1","0.2257810982","0.2293341009","","","","","0.4253770554","0.3621694591","0.4127515201","0.2293341009","0.1021222834","0.369037109","0.3088108907","0.2257810982","","","","","","","","76","L","3","","","21","main_expt"
"","bandit","101","436072","0.0-62.0-0.0","90660643","wem/bandit_double","AIK9IRPT4M848","both","4","5","149","","","","","","","1","0","0","0.349202701","0.4164833055","","","","","0.4285762007","0.3648829928","0.4164833055","0.2074184163","0.1234138809","0.4179468344","0.349202701","0.2221856846","","","","","","","","75","K","2","","","22","main_expt"
"","bandit","102","438026","0.0-63.0-0.0","90660643","wem/bandit_double","AIK9IRPT4M848","both","4","5","440","","","","","","","0","0","1","0.3785068464","0.4143027846","","","","","0.4082522222","0.2856994719","0.4143027846","0.1832507358","0.1030640584","0.4276062926","0.3785068464","0.2127124712","","","","","","","","75","K","2","","","23","main_expt"
"","bandit","103","439751","0.0-64.0-0.0","90660643","wem/bandit_double","AIK9IRPT4M848","both","4","5","209","","","","","","","0","0","1","0.4078122208","0.3152516524","","","","","0.4027270218","0.3152516524","0.3649270698","0.1469425149","0.1261035851","0.4078122208","0.4012919653","0.1882566648","","","","","","","","74","J","1","","","24","main_expt"
"","bandit","104","441395","0.0-65.0-0.0","90660643","wem/bandit_double","AIK9IRPT4M848","both","4","5","131","","","","","","","0","0","1","0.1796705612","0.4100212433","","","","","0.4100212433","0.2778145345","0.392676409","0.102794739","0.1796705612","0.3950411191","0.400899794","0.1273223766","","","","","","","","72","H","0","img/none_selected.jpg","","25","main_expt"
"","bandit","105","444118","0.0-66.0-0.0","90660643","wem/bandit_double","AIK9IRPT4M848","both","4","5","1207","","","","","","","1","0","0","0.2414651519","0.4190791169","","","","","0.4190791169","0.3170506137","0.4031565401","0.1173732637","0.2414651519","0.4322303329","0.4126274585","0.15747458","","","","","","","","72","H","0","img/none_selected.jpg","","26","main_expt"
"","bandit","106","445939","0.0-67.0-0.0","90660643","wem/bandit_double","AIK9IRPT4M848","both","4","5","303","","","","","","","1","1","0","0.2005374927","0.4527212376","","","","","0.4527212376","0.3223143746","0.4245959001","0.08835016803","0.2005374927","0.4353643722","0.3992263875","0.1442684908","","","","","","","","72","H","0","img/none_selected.jpg","","27","main_expt"
"","bandit","107","447754","0.0-68.0-0.0","90660643","wem/bandit_double","AIK9IRPT4M848","both","4","5","301","","","","","","","0","0","1","0.3197257227","0.4480998813","","","","","0.4480998813","0.3234472479","0.4232885055","0.1134440288","0.3197257227","0.4464017809","0.3846584236","0.2255404594","","","","","","","","72","H","0","img/none_selected.jpg","","28","main_expt"
"","bandit","108","449429","0.0-69.0-0.0","90660643","wem/bandit_double","AIK9IRPT4M848","both","4","5","163","","","","","","","0","0","1","0.3141869899","0.4628669208","","","","","0.4628669208","0.2881425904","0.4495512981","0.1982905849","0.3141869899","0.4417109462","0.3561298134","0.2730951691","","","","","","","","72","H","0","img/none_selected.jpg","","29","main_expt"
"","bandit","109","451055","0.0-70.0-0.0","90660643","wem/bandit_double","AIK9IRPT4M848","both","4","5","112","","","","","","","0","1","0","0.4065908859","0.2326555855","","","","","0.4565655028","0.2326555855","0.4485299892","0.2366655967","0.3445991012","0.4065908859","0.3101363315","0.2890412698","","","","","","","","74","J","1","","","30","main_expt"
"","bandit","110","452872","0.0-71.0-0.0","90660643","wem/bandit_double","AIK9IRPT4M848","both","4","5","300","","","","","","","1","0","0","0.3954582793","0.2364604256","","","","","0.4686031056","0.2364604256","0.4599237238","0.1622470467","0.3456655029","0.3954582793","0.3322219809","0.3309226042","","","","","","","","74","J","1","","","31","main_expt"
"","bandit","111","454669","0.0-72.0-0.0","90660643","wem/bandit_double","AIK9IRPT4M848","both","4","5","280","","","","","","","1","0","0","0.3716723047","0.2451982598","","","","","0.4659582456","0.2451982598","0.4508116693","0.1771911602","0.3826172224","0.3716723047","0.3516269472","0.3519301717","","","","","","","","74","J","1","","","32","main_expt"
"","bandit","112","456565","0.0-73.0-0.0","90660643","wem/bandit_double","AIK9IRPT4M848","both","4","5","380","","","","","","","1","0","0","0.3799724366","0.2360369815","","","","","0.4810757035","0.2360369815","0.45101727","0.1622836308","0.3804083149","0.3799724366","0.3852085553","0.3414953842","","","","","","","","74","J","1","","","33","main_expt"
"","bandit","113","458360","0.0-74.0-0.0","90660643","wem/bandit_double","AIK9IRPT4M848","both","4","5","284","","","","","","","0","0","1","0.409480615","0.2317763892","","","","","0.4842727378","0.2317763892","0.4340174653","0.1655985557","0.3808178469","0.409480615","0.4196644934","0.2938412915","","","","","","","","74","J","1","","","34","main_expt"
"","bandit","114","459928","0.0-75.0-0.0","90660643","wem/bandit_double","AIK9IRPT4M848","both","4","5","56","","","","","","","1","0","0","0.3869649509","0.2527891731","","","","","0.4745470136","0.2527891731","0.4040147441","0.1492797185","0.376129724","0.3869649509","0.420891004","0.2256616696","","","","","","","","74","J","1","","","35","main_expt"
"","bandit","115","461724","0.0-76.0-0.0","90660643","wem/bandit_double","AIK9IRPT4M848","both","4","5","281","","","","","","","1","0","0","0.3045389962","0.2641283143","","","","","0.4440965139","0.2641283143","0.4268829696","0.1504543003","0.4027809904","0.3045389962","0.3808881167","0.2525957923","","","","","","","","74","J","1","","","36","main_expt"
"","bandit","116","463521","0.0-77.0-0.0","90660643","wem/bandit_double","AIK9IRPT4M848","both","4","5","280","","","","","","","1","0","0","0.2954217214","0.2309310423","","","","","0.4544425755","0.2309310423","0.4562327564","0.1064249526","0.3715556026","0.2954217214","0.3634360393","0.2333373749","","","","","","","","74","J","1","","","37","main_expt"
"","bandit","117","465396","0.0-78.0-0.0","90660643","wem/bandit_double","AIK9IRPT4M848","both","4","5","360","","","","","","","1","1","0","0.2749906923","0.2093170459","","","","","0.4700138218","0.2093170459","0.4481627861","0.1346530267","0.354842885","0.2749906923","0.3432691328","0.2126884676","","","","","","","","74","J","1","","","38","main_expt"
"","bandit","118","467187","0.0-79.0-0.0","90660643","wem/bandit_double","AIK9IRPT4M848","both","4","5","273","","","","","","","0","1","0","0.2911873598","0.1398625959","","","","","0.466948448","0.1398625959","0.4475890948","0.1303494481","0.3066825603","0.2911873598","0.3113322025","0.212498526","","","","","","","","74","J","1","","","39","main_expt"
"","bandit","119","468764","0.0-80.0-0.0","90660643","wem/bandit_double","AIK9IRPT4M848","both","4","5","63","","","","","","","1","0","0","0.3066149412","0.09690087606","","","","","0.4679256248","0.09690087606","0.4501575696","0.1492074344","0.3208648015","0.3066149412","0.3298138996","0.2031275136","","","","","","","","74","J","1","","","40","main_expt"
"","bandit","120","470302","0.0-81.0-0.0","90660643","wem/bandit_double","AIK9IRPT4M848","both","4","5","26","","","","","","","0","0","1","0.2612722093","0.1129569356","","","","","0.445537573","0.1129569356","0.4121884666","0.1370672299","0.2774570704","0.2612722093","0.3590557929","0.2409224204","","","","","","","","74","J","1","","","41","main_expt"
"","bandit","121","472035","0.0-82.0-0.0","90660643","wem/bandit_double","AIK9IRPT4M848","both","4","5","220","","","","","","","0","0","1","0.2579482203","0.1227033228","","","","","0.4521531226","0.1227033228","0.4379939247","0.08144147181","0.3092882543","0.2579482203","0.3455434044","0.2166695961","","","","","","","","74","J","1","","","42","main_expt"
"","bandit","122","473757","0.0-83.0-0.0","90660643","wem/bandit_double","AIK9IRPT4M848","both","4","5","204","","","","","","","0","1","0","0.4020043176","0.4271747655","","","","","0.4695072217","0.08393287497","0.4271747655","0.06793865388","0.3161251671","0.2232302517","0.4020043176","0.2314197793","","","","","","","","75","K","2","","","43","main_expt"
"","bandit","123","475568","0.0-84.0-0.0","90660643","wem/bandit_double","AIK9IRPT4M848","both","4","5","296","","","","","","","0","0","1","0.4088695108","0.4480494518","","","","","0.4807409838","0.06260074275","0.4480494518","0.05295344446","0.3032549762","0.2435669349","0.4088695108","0.1889371852","","","","","","","","75","K","2","","","44","main_expt"
"","bandit","124","477133","0.0-85.0-0.0","90660643","wem/bandit_double","AIK9IRPT4M848","both","4","5","50","","","","","","","0","0","1","0.2152104473","0.02744239742","","","","","0.4507048108","0.08062123592","0.4269729589","0.02744239742","0.3012359134","0.1885724617","0.3914045207","0.2152104473","","","","","","","","76","L","3","","","45","main_expt"
"","bandit","125","478788","0.0-86.0-0.0","90660643","wem/bandit_double","AIK9IRPT4M848","both","4","5","142","","","","","","","1","1","0","0.2994346937","0.4382321206","","","","","0.4382321206","0.1110847749","0.4475746277","0.02347437243","0.2994346937","0.104230756","0.3682142312","0.2260726972","","","","","","","","72","H","0","img/none_selected.jpg","","46","main_expt"
"","bandit","126","480638","0.0-87.0-0.0","90660643","wem/bandit_double","AIK9IRPT4M848","both","4","5","335","","","","","","","0","1","0","0.3169549043","0.4393937913","","","","","0.4393937913","0.05346849493","0.4295618238","0.02418160198","0.3169549043","0.09013225529","0.3462276735","0.2330399618","","","","","","","","72","H","0","img/none_selected.jpg","","47","main_expt"
"","bandit","127","482436","0.0-88.0-0.0","90660643","wem/bandit_double","AIK9IRPT4M848","both","4","5","283","","","","","","","0","0","1","0.3137179834","0.440318131","","","","","0.440318131","0.04499733497","0.4431907244","0.01182676654","0.3137179834","0.1066227192","0.3501405617","0.2769685944","","","","","","","","72","H","0","img/none_selected.jpg","","48","main_expt"
"","bandit","128","483963","0.0-89.0-0.0","90660643","wem/bandit_double","AIK9IRPT4M848","both","4","5","15","","","","","","","0","1","0","0.3026837323","0.4362102412","","","","","0.4362102412","0.07378534534","0.4187732916","0.0186287842","0.3026837323","0.1273062614","0.3607669766","0.2954986192","","","","","","","","72","H","0","img/none_selected.jpg","","49","main_expt"
"","bandit","129","485794","0.0-90.0-0.0","90660643","wem/bandit_double","AIK9IRPT4M848","both","4","5","317","","","","","","","0","0","1","0.2690248343","0.44488671","","","","","0.44488671","0.06168845619","0.356579213","0.02550629551","0.2690248343","0.08158159543","0.3776327681","0.2730110453","","","","","","","","72","H","0","img/none_selected.jpg","","50","main_expt"
"","bandit","130","487371","0.0-91.0-0.0","90660643","wem/bandit_double","AIK9IRPT4M848","both","4","5","60","","","","","","","0","0","1","0.2407215714","0.4633405548","","","","","0.4633405548","0.1062028567","0.2629404955","0.04366809707","0.2407215714","0.08035098666","0.3922012959","0.2672659715","","","","","","","","72","H","0","img/none_selected.jpg","","51","main_expt"
"","bandit","131","488995","0.0-92.0-0.0","90660643","wem/bandit_double","AIK9IRPT4M848","both","4","5","109","","","","","","","0","0","1","0.2758158767","0.4528043762","","","","","0.4528043762","0.1379608546","0.2919747068","0.04357168116","0.2758158767","0.1007468434","0.3532085343","0.2552972095","","","","","","","","72","H","0","img/none_selected.jpg","","52","main_expt"
"","bandit","132","490508","0.0-93.0-0.0","90660643","wem/bandit_double","AIK9IRPT4M848","both","4","5","1","","","","","","","0","0","1","0.1479770317","0.1356826849","","","","","0.4390431751","0.1356826849","0.3809901122","0.03899227154","0.2661511239","0.1479770317","0.3597378762","0.1954439593","","","","","","","","74","J","1","","","53","main_expt"
"","bandit","133","492633","0.0-94.0-0.0","90660643","wem/bandit_double","AIK9IRPT4M848","both","4","5","610","","","","","","","1","0","0","0.3553644404","0.3452518694","","","","","0.4549270822","0.1038772241","0.3452518694","0.04009146386","0.250303373","0.1450389045","0.3553644404","0.1250298759","","","","","","","","75","K","2","","","54","main_expt"
"","bandit","134","494466","0.0-95.0-0.0","90660643","wem/bandit_double","AIK9IRPT4M848","both","4","5","320","","","","","","","0","0","1","0.3427354451","0.3263112327","","","","","0.4710341864","0.1689791829","0.3263112327","0.0155768565","0.1850572083","0.1678096349","0.3427354451","0.1224949652","","","","","","","","75","K","2","","","55","main_expt"
"","bandit","135","495981","0.0-96.0-0.0","90660643","wem/bandit_double","AIK9IRPT4M848","both","4","5","2","","","","","","","0","0","1","0.1312048923","0.02112461672","","","","","0.4745834276","0.1108888145","0.3308963945","0.02112461672","0.2410157884","0.1748395718","0.3158877586","0.1312048923","","","","","","","","76","L","3","","","56","main_expt"
"","bandit","136","497861","0.0-97.0-0.0","90660643","wem/bandit_double","AIK9IRPT4M848","both","4","5","364","","","","","","","1","1","0","0.2657224069","0.489318572","","","","","0.489318572","0.1206542402","0.3150326571","0.0126553198","0.2657224069","0.146986137","0.3224611445","0.14452077","","","","","","","","72","H","0","img/none_selected.jpg","","57","main_expt"
"","bandit","137","499648","0.0-98.0-0.0","90660643","wem/bandit_double","AIK9IRPT4M848","both","4","5","269","","","","","","","1","0","0","0.2361308133","0.480037986","","","","","0.480037986","0.09707343937","0.3049116772","0.01131359515","0.2361308133","0.1316135006","0.3378672788","0.1198415177","","","","","","","","72","H","0","img/none_selected.jpg","","58","main_expt"
"","bandit","138","501449","0.0-99.0-0.0","90660643","wem/bandit_double","AIK9IRPT4M848","both","4","5","287","","","","","","","0","0","1","0.2078360154","0.4593461039","","","","","0.4593461039","0.1044384952","0.3050987947","0.01030075821","0.2078360154","0.1776120447","0.3438075972","0.1674914914","","","","","","","","72","H","0","img/none_selected.jpg","","59","main_expt"
"","bandit","139","503199","0.0-100.0-0.0","90660643","wem/bandit_double","AIK9IRPT4M848","both","4","5","235","","","","","","","0","0","1","0.2256957235","0.446051488","","","","","0.446051488","0.08890369623","0.3274009355","0.005868957973","0.2256957235","0.2034864675","0.2950987239","0.147959707","","","","","","","","72","H","0","img/none_selected.jpg","","60","main_expt"
"","bandit","140","505084","0.0-101.0-0.0","90660643","wem/bandit_double","AIK9IRPT4M848","both","4","5","370","","","","","","","0","0","1","0.1325668513","0.08921221942","","","","","0.4391285327","0.08921221942","0.3428943983","0.004361943215","0.2713547376","0.1325668513","0.2939622289","0.1217284172","","","","","","","","74","J","1","","","61","main_expt"
"","bandit","141","506923","0.0-102.0-0.0","90660643","wem/bandit_double","AIK9IRPT4M848","both","4","5","325","","","","","","","0","1","0","0.2907096119","0.3549763931","","","","","0.4063883723","0.09812025034","0.3549763931","0.005208412743","0.2800078023","0.125492747","0.2907096119","0.1392905859","","","","","","","","75","K","2","","","62","main_expt"
"","bandit","142","508680","0.0-103.0-0.0","90660643","wem/bandit_double","AIK9IRPT4M848","both","4","5","242","","","","","","","0","0","1","0.2696382907","0.3496678451","","","","","0.4330387396","0.09006279409","0.3496678451","0.006461011255","0.362183352","0.1081989139","0.2696382907","0.1953314019","","","","","","","","75","K","2","","","63","main_expt"
"","bandit","143","510686","0.0-104.0-0.0","90660643","wem/bandit_double","AIK9IRPT4M848","both","4","5","492","","","","","","","0","0","1","0.2618523415","0.01267926231","","","","","0.4207902426","0.1118976224","0.3188537263","0.01267926231","0.3354395381","0.09104284411","0.2496415039","0.2618523415","","","","","","","","76","L","3","","","64","main_expt"
"","bandit","144","512453","0.0-105.0-0.0","90660643","wem/bandit_double","AIK9IRPT4M848","both","4","5","255","","","","","","","1","1","0","0.2364994079","0.3191795336","","","","","0.3719582347","0.1053817613","0.3191795336","0.009732787917","0.2893845237","0.1264903162","0.2364994079","0.2686672798","","","","","","","","75","K","2","","","65","main_expt"
"","bandit","145","514302","0.0-106.0-0.0","90660643","wem/bandit_double","AIK9IRPT4M848","both","4","5","335","","","","","","","0","0","1","0.2541683514","0.268616347","","","","","0.3748569955","0.1307356695","0.268616347","0.01092542651","0.2355717356","0.1665937301","0.2541683514","0.2451656397","","","","","","","","75","K","2","","","66","main_expt"
"","bandit","146","516216","0.0-107.0-0.0","90660643","wem/bandit_double","AIK9IRPT4M848","both","4","5","401","","","","","","","0","0","1","0.2445320338","0.02125534741","","","","","0.335252031","0.1418436428","0.259194563","0.02125534741","0.2848755716","0.1740025863","0.2985471382","0.2445320338","","","","","","","","76","L","3","","","67","main_expt"
"","bandit","147","518047","0.0-108.0-0.0","90660643","wem/bandit_double","AIK9IRPT4M848","both","4","5","313","","","","","","","1","0","0","0.2261158315","0.02360283027","","","","","0.3199157278","0.1459089566","0.2281204868","0.02360283027","0.3341158043","0.2300011382","0.3391290389","0.2261158315","","","","","","","","76","L","3","","","68","main_expt"
"","bandit","148","519851","0.0-109.0-0.0","90660643","wem/bandit_double","AIK9IRPT4M848","both","4","5","288","","","","","","","0","0","1","0.1627286519","0.02539305756","","","","","0.3068525281","0.1809721424","0.2195844169","0.02539305756","0.3253412689","0.1768594062","0.3114764975","0.1627286519","","","","","","","","76","L","3","","","69","main_expt"
"","bandit","149","521633","0.0-110.0-0.0","90660643","wem/bandit_double","AIK9IRPT4M848","both","4","5","268","","","","","","","0","0","1","0.3280915152","0.3181076016","","","","","0.3181076016","0.1784068974","0.1883338509","0.05014388586","0.3280915152","0.1906145184","0.3056328376","0.1301009224","","","","","","","","72","H","0","img/none_selected.jpg","","70","main_expt"
"","bandit","150","523489","0.0-111.0-0.0","90660643","wem/bandit_double","AIK9IRPT4M848","both","4","5","343","","","","","","","0","0","1","0.1451664327","0.1973023396","","","","","0.2926426422","0.1973023396","0.1639708178","0.04209054697","0.3772643828","0.1451664327","0.3445325487","0.1356707761","","","","","","","","74","J","1","","","71","main_expt"
"","bandit","151","525395","0.0-112.0-0.0","90660643","wem/bandit_double","AIK9IRPT4M848","both","4","5","388","","","","","","","0","1","0","0.364612409","0.1312842785","","","","","0.2380263643","0.2436342847","0.1312842785","0.05611199342","0.4074174212","0.1091447996","0.364612409","0.1045412551","","","","","","","","75","K","2","","","72","main_expt"
"","bandit","152","527186","0.0-113.0-0.0","90660643","wem/bandit_double","AIK9IRPT4M848","both","4","5","278","","","","","","","0","0","1","0.4454774056","0.1805041857","","","","","0.2407197948","0.1992173182","0.1805041857","0.05293238473","0.3736299767","0.1248737042","0.4454774056","0.0867882282","","","","","","","","75","K","2","","","73","main_expt"
"","bandit","153","528971","0.0-114.0-0.0","90660643","wem/bandit_double","AIK9IRPT4M848","both","4","5","273","","","","","","","0","0","1","0.1018359722","0.0318456884","","","","","0.2317468449","0.2347098304","0.1739557812","0.0318456884","0.383211712","0.1073746888","0.4492830973","0.1018359722","","","","","","","","76","L","3","","","74","main_expt"
"","bandit","154","530878","0.0-115.0-0.0","90660643","wem/bandit_double","AIK9IRPT4M848","both","4","5","390","","","","","","","0","0","1","0.3681962321","0.2545997551","","","","","0.2545997551","0.2641442137","0.2434916027","0.03873230677","0.3681962321","0.1051395745","0.449321966","0.09443707336","","","","","","","","72","H","0","img/none_selected.jpg","","75","main_expt"
"","bandit","155","532719","0.0-116.0-0.0","90660643","wem/bandit_double","AIK9IRPT4M848","both","4","5","325","","","","","","","0","0","1","0.09171451076","0.3192644053","","","","","0.2890845388","0.3192644053","0.2438468568","0.03304947682","0.3574328021","0.09171451076","0.4299726132","0.08768691443","","","","","","","","74","J","1","","","76","main_expt"
"","bandit","156","534587","0.0-117.0-0.0","90660643","wem/bandit_double","AIK9IRPT4M848","both","4","5","353","","","","","","","0","0","1","0.4349340462","0.2425324642","","","","","0.2386362654","0.3351132613","0.2425324642","0.02607887458","0.4041720962","0.1256070833","0.4349340462","0.07744448812","","","","","","","","75","K","2","","","77","main_expt"
"","bandit","157","536568","0.0-118.0-0.0","90660643","wem/bandit_double","AIK9IRPT4M848","both","4","5","468","","","","","","","0","0","1","0.05712631425","0.02492981692","","","","","0.2673679704","0.3086784207","0.205588479","0.02492981692","0.4000946746","0.1398604905","0.4112950215","0.05712631425","","","","","","","","76","L","3","","","78","main_expt"
"","bandit","158","538428","0.0-119.0-0.0","90660643","wem/bandit_double","AIK9IRPT4M848","both","4","5","343","","","","","","","1","0","0","0.425248604","0.2813811921","","","","","0.2813811921","0.3076482073","0.213062191","0.01824110002","0.425248604","0.1303191282","0.4123046053","0.03981704588","","","","","","","","72","H","0","img/none_selected.jpg","","79","main_expt"
"","bandit","159","540331","0.0-120.0-0.0","90660643","wem/bandit_double","AIK9IRPT4M848","both","4","5","387","","","","","","","0","0","1","0.4263383456","0.2419447949","","","","","0.2419447949","0.3605025214","0.1852926048","0.0202176162","0.4263383456","0.1491340647","0.4345430878","0.02961196177","","","","","","","","72","H","0","img/none_selected.jpg","","80","main_expt"
"","bandit","160","542176","0.0-121.0-0.0","90660643","wem/bandit_double","AIK9IRPT4M848","both","4","5","330","","","","","","","0","0","1","0.4377411966","0.323481111","","","","","0.323481111","0.3286166321","0.2332942271","0.0252752587","0.4377411966","0.1484119081","0.4255274095","0.0408206899","","","","","","","","72","H","0","img/none_selected.jpg","","81","main_expt"
"","bandit","161","544088","0.0-122.0-0.0","90660643","wem/bandit_double","AIK9IRPT4M848","both","4","5","397","","","","","","","0","1","0","0.135460029","0.3459677762","","","","","0.3097244961","0.3459677762","0.2087797338","0.05668457717","0.4263216968","0.135460029","0.4266934287","0.03491361241","","","","","","","","74","J","1","","","82","main_expt"
"","bandit","162","545892","0.0-123.0-0.0","90660643","wem/bandit_double","AIK9IRPT4M848","both","4","5","289","","","","","","","0","0","1","0.09497461961","0.3092751195","","","","","0.2787498647","0.3092751195","0.2049979043","0.07760530004","0.4536492548","0.09497461961","0.4321646522","0.01881925386","","","","","","","","74","J","1","","","83","main_expt"
"","bandit","163","547712","0.0-124.0-0.0","90660643","wem/bandit_double","AIK9IRPT4M848","both","4","5","306","","","","","","","0","0","1","0.43129245","0.2151780091","","","","","0.2589524449","0.3044630387","0.2151780091","0.03696005566","0.4344769981","0.0956585677","0.43129245","0.03441768066","","","","","","","","75","K","2","","","84","main_expt"
"","bandit","164","549572","0.0-125.0-0.0","90660643","wem/bandit_double","AIK9IRPT4M848","both","4","5","343","","","","","","","1","0","0","0.4307495417","0.1497615914","","","","","0.2769318636","0.2812480587","0.1497615914","0.04177257934","0.4167097255","0.08427930603","0.4307495417","0.04015732792","","","","","","","","75","K","2","","","85","main_expt"
"","bandit","165","551359","0.0-126.0-0.0","90660643","wem/bandit_double","AIK9IRPT4M848","both","4","5","273","","","","","","","0","0","1","0.4327415212","0.1223687677","","","","","0.2849222391","0.2506532223","0.1223687677","0.0385770192","0.4215971904","0.09540141202","0.4327415212","0.0462821445","","","","","","","","75","K","2","","","86","main_expt"
"","bandit","166","554032","0.0-127.0-0.0","90660643","wem/bandit_double","AIK9IRPT4M848","both","4","5","1155","","","","","","","1","0","0","0.07236867375","0.03720252147","","","","","0.3131087309","0.2269900387","0.1472857413","0.03720252147","0.3962725568","0.06504543429","0.4507305815","0.07236867375","","","","","","","","76","L","3","","","87","main_expt"
"","bandit","167","555689","0.0-128.0-0.0","90660643","wem/bandit_double","AIK9IRPT4M848","both","4","5","143","","","","","","","1","0","0","0.1132918069","0.06746059371","","","","","0.3038587512","0.1504729919","0.1252586248","0.06746059371","0.4038430626","0.05894337134","0.4571393315","0.1132918069","","","","","","","","76","L","3","","","88","main_expt"
"","bandit","168","557444","0.0-129.0-0.0","90660643","wem/bandit_double","AIK9IRPT4M848","both","4","5","230","","","","","","","0","0","1","0.1466354559","0.04069757945","","","","","0.3308022157","0.1382070302","0.1194927994","0.04069757945","0.4247877058","0.06803635399","0.4639779763","0.1466354559","","","","","","","","76","L","3","","","89","main_expt"
"","bandit","169","559002","0.0-130.0-0.0","90660643","wem/bandit_double","AIK9IRPT4M848","both","4","5","40","","","","","","","0","0","1","0.1746819083","0.07325379503","","","","","0.3574922351","0.1364765349","0.1589750007","0.07325379503","0.4196700557","0.09657856289","0.4620017245","0.1746819083","","","","","","","","76","L","3","","","90","main_expt"
"","bandit","170","560546","0.0-131.0-0.0","90660643","wem/bandit_double","AIK9IRPT4M848","both","4","5","30","","","","","","","0","1","0","0.401758082","0.3729517688","","","","","0.3729517688","0.09318196272","0.1859960426","0.06877471811","0.401758082","0.08522031428","0.4492963398","0.1864657318","","","","","","","","72","H","0","img/none_selected.jpg","","91","main_expt"
"","bandit","171","562356","0.0-132.0-0.0","90660643","wem/bandit_double","AIK9IRPT4M848","both","4","5","293","","","","","","","0","0","1","0.3422099147","0.398352994","","","","","0.398352994","0.06946097624","0.192419488","0.04115987362","0.3422099147","0.07078380504","0.462009279","0.2124622091","","","","","","","","72","H","0","img/none_selected.jpg","","92","main_expt"
"","bandit","172","564126","0.0-133.0-0.0","90660643","wem/bandit_double","AIK9IRPT4M848","both","4","5","257","","","","","","","0","0","1","0.0564278809","0.08102832817","","","","","0.4135860398","0.08102832817","0.1716033463","0.07078892783","0.3279059742","0.0564278809","0.4363090379","0.245786276","","","","","","","","74","J","1","","","93","main_expt"
"","bandit","173","565956","0.0-134.0-0.0","90660643","wem/bandit_double","AIK9IRPT4M848","both","4","5","319","","","","","","","0","0","1","0.3155724737","0.3786880174","","","","","0.3786880174","0.1271360848","0.1935897604","0.05572868433","0.3155724737","0.06067733924","0.4457519602","0.2316759231","","","","","","","","72","H","0","img/none_selected.jpg","","94","main_expt"
"","bandit","174","567486","0.0-135.0-0.0","90660643","wem/bandit_double","AIK9IRPT4M848","both","4","5","14","","","","","","","0","0","1","0.4231248902","0.2193228015","","","","","0.3823424718","0.1097592989","0.2193228015","0.05056929995","0.3519625041","0.08632751489","0.4231248902","0.2231756969","","","","","","","","75","K","2","","","95","main_expt"
"","bandit","175","569256","0.0-136.0-0.0","90660643","wem/bandit_double","AIK9IRPT4M848","both","4","5","251","","","","","","","0","0","1","0.1957128212","0.04159874267","","","","","0.3642725552","0.1085490834","0.3262643469","0.04159874267","0.3661455107","0.08481729553","0.4210676831","0.1957128212","","","","","","","","76","L","3","","","96","main_expt"
"","bandit","176","571374","0.0-137.0-0.0","90660643","wem/bandit_double","AIK9IRPT4M848","both","4","5","601","","","","","","","0","1","0","0.3558031673","0.3197717944","","","","","0.3197717944","0.1049812554","0.3207405496","0.03654451862","0.3558031673","0.08386440452","0.4022895305","0.1638116915","","","","","","","","72","H","0","img/none_selected.jpg","","97","main_expt"
"","bandit","177","573217","0.0-138.0-0.0","90660643","wem/bandit_double","AIK9IRPT4M848","both","4","5","330","","","","","","","1","0","0","0.3558230887","0.2514424369","","","","","0.2514424369","0.08177978443","0.3712856991","0.04190300095","0.3558230887","0.0940701929","0.4187351015","0.1405816365","","","","","","","","72","H","0","img/none_selected.jpg","","98","main_expt"
"","bandit","178","574992","0.0-139.0-0.0","90660643","wem/bandit_double","AIK9IRPT4M848","both","4","5","258","","","","","","","0","0","1","0.3064708089","0.2926772137","","","","","0.2926772137","0.07574087804","0.3740145378","0.08742990617","0.3064708089","0.1285058524","0.3981340028","0.1435678602","","","","","","","","72","H","0","img/none_selected.jpg","","99","main_expt"
"","bandit","179","576762","0.0-140.0-0.0","90660643","wem/bandit_double","AIK9IRPT4M848","both","4","5","256","","","","","","","0","1","0","0.352498313","0.234485335","","","","","0.234485335","0.07829319678","0.3776295542","0.08966523481","0.352498313","0.065882019","0.3520446815","0.1478754355","","","","","","","","72","H","0","img/none_selected.jpg","","100","main_expt"
"","bandit","180","578517","0.0-141.0-0.0","90660643","wem/bandit_double","AIK9IRPT4M848","both","4","5","236","","","","","","","0","0","1","0.3511810171","0.250352175","","","","","0.250352175","0.07919243683","0.3592666398","0.07849065771","0.3511810171","0.05692140794","0.3715523215","0.1532559328","","","","","","","","72","H","0","img/none_selected.jpg","","101","main_expt"
"","bandit","181","580985","0.0-142.0-0.0","90660643","wem/bandit_double","AIK9IRPT4M848","both","4","5","950","","","","","","","0","0","1","0.3246867477","0.2139972863","","","","","0.2139972863","0.1052753188","0.3412191773","0.1054267613","0.3246867477","0.04322280369","0.3966955113","0.15857411","","","","","","","","72","H","0","img/none_selected.jpg","","102","main_expt"
"","bandit","182","582740","0.0-143.0-0.0","90660643","wem/bandit_double","AIK9IRPT4M848","both","4","5","237","","","","","","","0","0","1","0.05121437093","0.1248526142","","","","","0.20092706","0.1248526142","0.3133100433","0.1120981937","0.2827689756","0.05121437093","0.3865714765","0.1552377357","","","","","","","","74","J","1","","","103","main_expt"
"","bandit","183","584544","0.0-144.0-0.0","90660643","wem/bandit_double","AIK9IRPT4M848","both","4","5","287","","","","","","","1","0","0","0.3440646931","0.3219148419","","","","","0.2305366804","0.142969925","0.3219148419","0.1034740879","0.3307995119","0.06548077564","0.3440646931","0.1584193753","","","","","","","","75","K","2","","","104","main_expt"
"","bandit","184","586226","0.0-145.0-0.0","90660643","wem/bandit_double","AIK9IRPT4M848","both","4","5","168","","","","","","","1","0","0","0.330981063","0.3300892518","","","","","0.2102135581","0.13947254","0.3300892518","0.07597240327","0.3078297571","0.07577357845","0.330981063","0.192058402","","","","","","","","75","K","2","","","105","main_expt"
"","bandit","185","587992","0.0-146.0-0.0","90660643","wem/bandit_double","AIK9IRPT4M848","both","4","5","252","","","","","","","1","1","0","0.3317280627","0.3401839058","","","","","0.2219457329","0.1329526997","0.3401839058","0.1124257427","0.3202685942","0.09041352565","0.3317280627","0.1562344916","","","","","","","","75","K","2","","","106","main_expt"
"","bandit","186","589743","0.0-147.0-0.0","90660643","wem/bandit_double","AIK9IRPT4M848","both","4","5","221","","","","","","","0","0","1","0.2760665195","0.3784706915","","","","","0.3048423019","0.1727290233","0.3784706915","0.1133168519","0.3163418234","0.1184921167","0.2760665195","0.1493116313","","","","","","","","75","K","2","","","107","main_expt"
"","bandit","187","591694","0.0-148.0-0.0","90660643","wem/bandit_double","AIK9IRPT4M848","both","4","5","438","","","","","","","1","1","0","0.2826301941","0.3945753887","","","","","0.258150515","0.1864487031","0.3945753887","0.1752395656","0.3425943818","0.1057615429","0.2826301941","0.1357435498","","","","","","","","75","K","2","","","108","main_expt"
"","bandit","188","594092","0.0-149.0-0.0","90660643","wem/bandit_double","AIK9IRPT4M848","both","4","5","884","","","","","","","0","0","1","0.318117281","0.356827327","","","","","0.1859129148","0.2463216238","0.356827327","0.1862973424","0.2852030557","0.1464484126","0.318117281","0.1164074326","","","","","","","","75","K","2","","","109","main_expt"
"","bandit","189","595911","0.0-150.0-0.0","90660643","wem/bandit_double","AIK9IRPT4M848","both","4","5","304","","","","","","","0","0","1","0.1444451916","0.2015845776","","","","","0.1371624404","0.2431522628","0.2344179837","0.2015845776","0.3392406975","0.1641354829","0.3358587519","0.1444451916","","","","","","","","76","L","3","","","110","main_expt"
"","bandit","190","597927","0.0-151.0-0.0","90660643","wem/bandit_double","AIK9IRPT4M848","both","4","5","499","","","","","","","1","0","0","0.3023411017","0.1258232978","","","","","0.1258232978","0.1757476643","0.2644823096","0.2003651753","0.3023411017","0.1386891192","0.3031660534","0.09905323685","","","","","","","","72","H","0","img/none_selected.jpg","","111","main_expt"
"","bandit","191","599709","0.0-152.0-0.0","90660643","wem/bandit_double","AIK9IRPT4M848","both","4","5","265","","","","","","","1","0","0","0.296849772","0.1529967373","","","","","0.1529967373","0.2451518953","0.28311182","0.21392293","0.296849772","0.1847512065","0.2773548355","0.09652445584","","","","","","","","72","H","0","img/none_selected.jpg","","112","main_expt"
"","bandit","192","601437","0.0-153.0-0.0","90660643","wem/bandit_double","AIK9IRPT4M848","both","4","5","212","","","","","","","0","0","1","0.2673419259","0.148248117","","","","","0.148248117","0.2407836715","0.2413269532","0.1606798039","0.2673419259","0.1304555333","0.2370758425","0.09961189632","","","","","","","","72","H","0","img/none_selected.jpg","","113","main_expt"
"","bandit","193","603251","0.0-154.0-0.0","90660643","wem/bandit_double","AIK9IRPT4M848","both","4","5","298","","","","","","","0","0","1","0.1770102637","0.3099317417","","","","","0.1562208239","0.3099317417","0.3100969134","0.2095980235","0.2670531803","0.1770102637","0.1821928837","0.1036139638","","","","","","","","74","J","1","","","114","main_expt"
"","bandit","194","604899","0.0-155.0-0.0","90660643","wem/bandit_double","AIK9IRPT4M848","both","4","5","129","","","","","","","0","1","0","0.2825009356","0.2138032898","","","","","0.2138032898","0.3180754701","0.329842252","0.2550279667","0.2825009356","0.1564651975","0.1315453283","0.0968506792","","","","","","","","72","H","0","img/none_selected.jpg","","115","main_expt"
"","bandit","195","606711","0.0-156.0-0.0","90660643","wem/bandit_double","AIK9IRPT4M848","both","4","5","292","","","","","","","0","1","0","0.3237719372","0.2331260325","","","","","0.2331260325","0.2919742107","0.3223706096","0.2471764387","0.3237719372","0.1665702367","0.1102777544","0.08782875681","","","","","","","","72","H","0","img/none_selected.jpg","","116","main_expt"
"","bandit","196","608342","0.0-157.0-0.0","90660643","wem/bandit_double","AIK9IRPT4M848","both","4","5","117","","","","","","","0","0","1","0.3154846423","0.1826309729","","","","","0.1826309729","0.2799774295","0.3098408215","0.2730878341","0.3154846423","0.1530687496","0.1101610351","0.06031800864","","","","","","","","72","H","0","img/none_selected.jpg","","117","main_expt"
"","bandit","197","609857","0.0-158.0-0.0","90660643","wem/bandit_double","AIK9IRPT4M848","both","4","5","1","","","","","","","0","1","0","0.1674206906","0.2646714695","","","","","0.1511269107","0.2646714695","0.2974554567","0.2071462199","0.2584508078","0.1674206906","0.122460482","0.05633053331","","","","","","","","74","J","1","","","118","main_expt"
"","bandit","198","611639","0.0-159.0-0.0","90660643","wem/bandit_double","AIK9IRPT4M848","both","4","5","264","","","","","","","0","0","1","0.1990215448","0.3179839519","","","","","0.1559979654","0.3179839519","0.3598468986","0.2275232499","0.2141905193","0.1990215448","0.1451868924","0.07530514027","","","","","","","","74","J","1","","","119","main_expt"
"","bandit","199","613536","0.0-160.0-0.0","90660643","wem/bandit_double","AIK9IRPT4M848","both","4","5","381","","","","","","","0","0","1","0.2208640619","0.3302262658","","","","","0.1463004055","0.3302262658","0.2984373086","0.2767559596","0.2341954374","0.2208640619","0.09092593383","0.09639595661","","","","","","","","74","J","1","","","120","main_expt"
"","bandit","200","615308","0.0-161.0-0.0","90660643","wem/bandit_double","AIK9IRPT4M848","both","4","5","259","","","","","","","0","0","1","0.1080456108","0.2973090059","","","","","0.1418195479","0.3500549905","0.2973090059","0.3448590315","0.1886372651","0.2602917539","0.1080456108","0.1421799471","","","","","","","","75","K","2","","","121","main_expt"
"","bandit","201","616993","0.0-162.0-0.0","90660643","wem/bandit_double","AIK9IRPT4M848","both","4","5","168","","","","","","","0","1","0","0.1624760489","0.3593301016","","","","","0.1270782113","0.2686616284","0.3382791822","0.3593301016","0.1597592322","0.2512498235","0.1169053248","0.1624760489","","","","","","","","76","L","3","","","122","main_expt"
"","bandit","202","618749","0.0-163.0-0.0","90660643","wem/bandit_double","AIK9IRPT4M848","both","4","5","243","","","","","","","0","0","1","0.1640214383","0.3680529171","","","","","0.1207154071","0.2277230314","0.3154347028","0.3680529171","0.1895266442","0.2266242761","0.1571594809","0.1640214383","","","","","","","","76","L","3","","","123","main_expt"
"","bandit","203","620556","0.0-164.0-0.0","90660643","wem/bandit_double","AIK9IRPT4M848","both","4","5","291","","","","","","","0","0","1","0.2042850732","0.1229329119","","","","","0.1229329119","0.3287090939","0.2966737815","0.3476523483","0.2042850732","0.2373824638","0.2231804049","0.2014340991","","","","","","","","72","H","0","img/none_selected.jpg","","124","main_expt"
"","bandit","204","622306","0.0-165.0-0.0","90660643","wem/bandit_double","AIK9IRPT4M848","both","4","5","231","","","","","","","0","0","1","0.2229229076","0.3564603465","","","","","0.09241122996","0.3687339586","0.3094831126","0.3564603465","0.1812515389","0.2538727107","0.2232794356","0.2229229076","","","","","","","","76","L","3","","","125","main_expt"
"","bandit","205","624116","0.0-166.0-0.0","90660643","wem/bandit_double","AIK9IRPT4M848","both","4","5","296","","","","","","","0","0","1","0.290219491","0.3836195774","","","","","0.08418962236","0.3836195774","0.2488993205","0.3550684458","0.1694736183","0.290219491","0.2316903634","0.2324712723","","","","","","","","74","J","1","","","126","main_expt"
"","bandit","206","625895","0.0-167.0-0.0","90660643","wem/bandit_double","AIK9IRPT4M848","both","4","5","261","","","","","","","0","0","1","0.2337524142","0.1953487027","","","","","0.154715772","0.3617365958","0.1953487027","0.3235559827","0.1624528765","0.2542505169","0.2337524142","0.2628391623","","","","","","","","75","K","2","","","127","main_expt"
"","bandit","207","627788","0.0-168.0-0.0","90660643","wem/bandit_double","AIK9IRPT4M848","both","4","5","376","","","","","","","0","0","1","0.2654356302","0.312087491","","","","","0.1556709078","0.3235283493","0.2171889907","0.312087491","0.1632982916","0.2582316027","0.2198210178","0.2654356302","","","","","","","","76","L","3","","","128","main_expt"
"","bandit","208","629496","0.0-169.0-0.0","90660643","wem/bandit_double","AIK9IRPT4M848","both","4","5","194","","","","","","","0","0","1","0.2264598068","0.1214200615","","","","","0.1214200615","0.3453830546","0.2467699801","0.2843272188","0.2264598068","0.3267566011","0.2280168395","0.2070569149","","","","","","","","72","H","0","img/none_selected.jpg","","129","main_expt"
"","bandit","209","631287","0.0-170.0-0.0","90660643","wem/bandit_double","AIK9IRPT4M848","both","4","5","277","","","","","","","0","1","0","0.3323271388","0.3242747857","","","","","0.1377283829","0.3242747857","0.2814443482","0.2128416856","0.202760285","0.3323271388","0.243895296","0.2579182239","","","","","","","","74","J","1","","","130","main_expt"
"","bandit","210","633134","0.0-171.0-0.0","90660643","wem/bandit_double","AIK9IRPT4M848","both","4","5","329","","","","","","","0","0","1","0.2666668646","0.3417201858","","","","","0.1397421628","0.3417201858","0.2834176508","0.2403879813","0.1585094705","0.2666668646","0.2164454501","0.2329110821","","","","","","","","74","J","1","","","131","main_expt"
"","bandit","211","635041","0.0-172.0-0.0","90660643","wem/bandit_double","AIK9IRPT4M848","both","4","5","393","","","","","","","0","0","1","0.2359119393","0.3498614837","","","","","0.1061875113","0.3498614837","0.2429908031","0.2811421594","0.1304261544","0.2359119393","0.200468731","0.2400232435","","","","","","","","74","J","1","","","132","main_expt"
"","bandit","212","637014","0.0-173.0-0.0","90660643","wem/bandit_double","AIK9IRPT4M848","both","4","5","458","","","","","","","0","1","0","0.2038597077","0.3053559495","","","","","0.07774811701","0.3134828643","0.3053559495","0.3002858371","0.09339990826","0.2540740643","0.2038597077","0.2084798617","","","","","","","","75","K","2","","","133","main_expt"
"","bandit","213","638833","0.0-174.0-0.0","90660643","wem/bandit_double","AIK9IRPT4M848","both","4","5","302","","","","","","","0","1","0","0.2263269307","0.2693478067","","","","","0.08211281178","0.3554593188","0.2693478067","0.277406375","0.08524612959","0.2414927735","0.2263269307","0.2034544","","","","","","","","75","K","2","","","134","main_expt"
"","bandit","214","640675","0.0-175.0-0.0","90660643","wem/bandit_double","AIK9IRPT4M848","both","4","5","327","","","","","","","0","0","1","0.2686469146","0.3369166079","","","","","0.1123817552","0.3150900126","0.3369166079","0.2897147582","0.0622033461","0.2632369982","0.2686469146","0.2088958693","","","","","","","","75","K","2","","","135","main_expt"
"","bandit","215","642243","0.0-176.0-0.0","90660643","wem/bandit_double","AIK9IRPT4M848","both","4","5","50","","","","","","","1","0","0","0.2573758916","0.3590576628","","","","","0.1478339482","0.3199395785","0.268603144","0.3590576628","0.05632890875","0.3032623762","0.3170393738","0.2573758916","","","","","","","","76","L","3","","","136","main_expt"
"","bandit","216","643975","0.0-177.0-0.0","90660643","wem/bandit_double","AIK9IRPT4M848","both","4","5","218","","","","","","","0","1","0","0.2467438462","0.3822427384","","","","","0.1374936615","0.33362357","0.2373427956","0.3822427384","0.06052980877","0.2984046037","0.338962466","0.2467438462","","","","","","","","76","L","3","","","137","main_expt"
"","bandit","217","645693","0.0-178.0-0.0","90660643","wem/bandit_double","AIK9IRPT4M848","both","4","5","204","","","","","","","0","0","1","0.2221944767","0.3410071165","","","","","0.159761955","0.3611324022","0.2206869265","0.3410071165","0.1038497792","0.3110629865","0.3586643031","0.2221944767","","","","","","","","76","L","3","","","138","main_expt"
"","bandit","218","647627","0.0-179.0-0.0","90660643","wem/bandit_double","AIK9IRPT4M848","both","4","5","421","","","","","","","0","0","1","0.2750517365","0.3738014659","","","","","0.1363721132","0.3504145086","0.2177966349","0.3738014659","0.08561062373","0.3048373826","0.3430902759","0.2750517365","","","","","","","","76","L","3","","","139","main_expt"
"","bandit","219","649321","0.0-180.0-0.0","90660643","wem/bandit_double","AIK9IRPT4M848","both","4","5","179","","","","","","","0","0","1","0.277474309","0.422575493","","","","","0.1031445192","0.309774603","0.2387685432","0.422575493","0.08025295029","0.3163642845","0.3777112835","0.277474309","","","","","","","","76","L","3","","","140","main_expt"
"","bandit","220","651187","0.0-181.0-0.0","90660643","wem/bandit_double","AIK9IRPT4M848","both","4","5","350","","","","","","","0","1","0","0.4276051364","0.2575087366","","","","","0.09805286369","0.3506531288","0.2575087366","0.4439129864","0.09309891757","0.2213861514","0.4276051364","0.2932007391","","","","","","","","75","K","2","","","141","main_expt"
"","bandit","221","652729","0.0-182.0-0.0","90660643","wem/bandit_double","AIK9IRPT4M848","both","4","5","24","","","","","","","0","0","1","0.4312347149","0.2392038972","","","","","0.1149002948","0.2965027242","0.2392038972","0.4323802182","0.1107976638","0.2492613222","0.4312347149","0.3001807938","","","","","","","","75","K","2","","","142","main_expt"
"","bandit","222","654556","0.0-183.0-0.0","90660643","wem/bandit_double","AIK9IRPT4M848","both","4","5","310","","","","","","","0","0","1","0.386657586","0.2216470548","","","","","0.1209542099","0.2087517366","0.2216470548","0.4358412593","0.09575525052","0.2645663874","0.386657586","0.3640878437","","","","","","","","75","K","2","","","143","main_expt"
"","bandit","223","657069","0.0-184.0-0.0","90660643","wem/bandit_double","AIK9IRPT4M848","both","4","5","999","","","","","","","0","0","1","0.3409851627","0.2224896139","","","","","0.1202521083","0.2313605626","0.2224896139","0.4407373256","0.07222794989","0.2928215939","0.3409851627","0.2706796495","","","","","","","","75","K","2","","","144","main_expt"
"","bandit","224","658978","0.0-185.0-0.0","90660643","wem/bandit_double","AIK9IRPT4M848","both","4","5","393","","","","","","","0","0","1","0.3178979655","0.1785565547","","","","","0.1619743669","0.1785565547","0.1925605464","0.4661091035","0.03203798906","0.3178979655","0.3538709708","0.2359726437","","","","","","","","74","J","1","","","145","main_expt"
"","bandit","225","660953","0.0-186.0-0.0","90660643","wem/bandit_double","AIK9IRPT4M848","both","4","5","458","","","","","","","0","0","1","0.03073079809","0.1664631043","","","","","0.1664631043","0.1770660648","0.2069800611","0.4637097668","0.03073079809","0.2850957273","0.2745956728","0.2200332621","","","","","","","","72","H","0","img/none_selected.jpg","","146","main_expt"
"","bandit","226","662945","0.0-187.0-0.0","90660643","wem/bandit_double","AIK9IRPT4M848","both","4","5","477","","","","","","","0","1","0","0.1957794229","0.4700491642","","","","","0.1669241763","0.1063371611","0.2489662189","0.4700491642","0.05105424151","0.2483519338","0.2375793476","0.1957794229","","","","","","","","76","L","3","","","147","main_expt"
"","bandit","227","667126","0.0-188.0-0.0","90660643","wem/bandit_double","AIK9IRPT4M848","both","4","5","2666","","","","","","","1","0","0","0.2954602587","0.1946464158","","","","","0.1581456949","0.1216370817","0.1946464158","0.4648109734","0.04045355104","0.2309770791","0.2954602587","0.1790722045","","","","","","","","75","K","2","","","148","main_expt"
"","bandit","228","668942","0.0-189.0-0.0","90660643","wem/bandit_double","AIK9IRPT4M848","both","4","5","298","","","","","","","1","0","0","0.3435099865","0.1826562491","","","","","0.1698392466","0.1024256959","0.1826562491","0.4635511513","0.06416506337","0.1759049641","0.3435099865","0.2189150546","","","","","","","","75","K","2","","","149","main_expt"
"","bandit","229","670816","0.0-190.0-0.0","90660643","wem/bandit_double","AIK9IRPT4M848","both","4","5","359","","","","","","","0","0","1","0.268900415","0.1750473563","","","","","0.2140114634","0.1371094633","0.1750473563","0.4445017148","0.07819388902","0.1910702346","0.268900415","0.2119229637","","","","","","","","75","K","2","","","150","main_expt"
"","bandit","230","672649","0.0-191.0-0.0","90660643","wem/bandit_double","AIK9IRPT4M848","both","4","5","316","","","","","","","1","1","0","0.2326488896","0.1109536645","","","","","0.2392960001","0.1702433702","0.1109536645","0.4434799742","0.1186979887","0.1799178466","0.2326488896","0.2472398003","","","","","","","","75","K","2","","","151","main_expt"
"","bandit","231","674491","0.0-192.0-0.0","90660643","wem/bandit_double","AIK9IRPT4M848","both","4","5","325","","","","","","","0","1","0","0.2768057641","0.1143086707","","","","","0.2095863317","0.1860489046","0.1143086707","0.4451665291","0.1084773402","0.1826140084","0.2768057641","0.2148428051","","","","","","","","75","K","2","","","152","main_expt"
"","bandit","232","676316","0.0-193.0-0.0","90660643","wem/bandit_double","AIK9IRPT4M848","both","4","5","308","","","","","","","0","1","0","0.2997660112","0.1236290712","","","","","0.2543258611","0.2117094388","0.1236290712","0.4401532833","0.1314289417","0.147924298","0.2997660112","0.1598057249","","","","","","","","75","K","2","","","153","main_expt"
"","bandit","233","678087","0.0-194.0-0.0","90660643","wem/bandit_double","AIK9IRPT4M848","both","4","5","257","","","","","","","1","0","0","0.3196464983","0.1600695342","","","","","0.2602259906","0.2072389033","0.1600695342","0.4516855879","0.1354051011","0.1388357139","0.3196464983","0.1489099923","","","","","","","","75","K","2","","","154","main_expt"
"","bandit","234","679912","0.0-195.0-0.0","90660643","wem/bandit_double","AIK9IRPT4M848","both","4","5","309","","","","","","","0","0","1","0.3141654429","0.1770288166","","","","","0.2750581274","0.1986333914","0.1770288166","0.4480264808","0.1085215933","0.1658398244","0.3141654429","0.1502541116","","","","","","","","75","K","2","","","155","main_expt"
"","bandit","235","681687","0.0-196.0-0.0","90660643","wem/bandit_double","AIK9IRPT4M848","both","4","5","253","","","","","","","0","1","0","0.2667217688","0.1761817894","","","","","0.2438045727","0.2054640346","0.1761817894","0.4260414265","0.1383379057","0.1104921729","0.2667217688","0.1605084188","","","","","","","","75","K","2","","","156","main_expt"
"","bandit","236","683495","0.0-197.0-0.0","90660643","wem/bandit_double","AIK9IRPT4M848","both","4","5","291","","","","","","","0","0","1","0.2867075714","0.1998830888","","","","","0.2857025143","0.1810715383","0.1998830888","0.4365201507","0.1428990181","0.09530810267","0.2867075714","0.1684101418","","","","","","","","75","K","2","","","157","main_expt"
"","bandit","237","685267","0.0-198.0-0.0","90660643","wem/bandit_double","AIK9IRPT4M848","both","4","5","257","","","","","","","1","0","0","0.2788639118","0.2150354531","","","","","0.2887719476","0.2118906364","0.2150354531","0.4076244479","0.07455979893","0.1211627972","0.2788639118","0.1807688322","","","","","","","","75","K","2","","","158","main_expt"
"","bandit","238","687040","0.0-199.0-0.0","90660643","wem/bandit_double","AIK9IRPT4M848","both","4","5","259","","","","","","","1","0","0","0.3020710819","0.2221069796","","","","","0.2859462397","0.2293976715","0.2221069796","0.403953851","0.1009372764","0.1012897464","0.3020710819","0.1516426412","","","","","","","","75","K","2","","","159","main_expt"
"","bandit","239","688748","0.0-200.0-0.0","90660643","wem/bandit_double","AIK9IRPT4M848","both","4","5","186","","","","","","","1","0","0","0.3404227007","0.2627335039","","","","","0.207432816","0.2186051381","0.2627335039","0.4282135537","0.05118862797","0.1188035868","0.3404227007","0.1638698877","","","","","","","","75","K","2","","","160","main_expt"
"","bandit","240","690473","0.0-201.0-0.0","90660643","wem/bandit_double","AIK9IRPT4M848","both","4","5","209","","","","","","","0","1","0","0.2876249865","0.2922457848","","","","","0.1611694724","0.2175927206","0.2922457848","0.4479073124","0.05265847637","0.1606836622","0.2876249865","0.1645359983","","","","","","","","75","K","2","","","161","main_expt"
"","bandit","241","692348","0.0-202.0-0.0","90660643","wem/bandit_double","AIK9IRPT4M848","both","4","5","355","","","","","","","1","0","0","0.2401308511","0.3040212123","","","","","0.14378348","0.2370404117","0.3040212123","0.4456201243","0.07938684611","0.1859884171","0.2401308511","0.2509918509","","","","","","","","75","K","2","","","162","main_expt"
"","bandit","242","694273","0.0-203.0-0.0","90660643","wem/bandit_double","AIK9IRPT4M848","both","4","5","406","","","","","","","0","0","1","0.2486605046","0.2933359027","","","","","0.1707099899","0.2778780432","0.2933359027","0.4384930657","0.0970900163","0.2528258464","0.2486605046","0.1883685458","","","","","","","","75","K","2","","","163","main_expt"
"","bandit","243","695880","0.0-204.0-0.0","90660643","wem/bandit_double","AIK9IRPT4M848","both","4","5","91","","","","","","","0","0","1","0.22675384","0.2388203062","","","","","0.1933693166","0.2643388611","0.2388203062","0.4231568034","0.07401968201","0.2515292425","0.22675384","0.2179532334","","","","","","","","75","K","2","","","164","main_expt"
"","bandit","244","697695","0.0-205.0-0.0","90660643","wem/bandit_double","AIK9IRPT4M848","both","4","5","296","","","","","","","0","0","1","0.2841151948","0.2646204916","","","","","0.2406324952","0.1967204453","0.2646204916","0.4412535734","0.06633104104","0.2068970429","0.2841151948","0.2143704678","","","","","","","","75","K","2","","","165","main_expt"
"","bandit","245","699681","0.0-206.0-0.0","90660643","wem/bandit_double","AIK9IRPT4M848","both","4","5","472","","","","","","","0","1","0","0.1413778631","0.1567937345","","","","","0.2650462377","0.1567937345","0.2591758032","0.438364003","0.05309652092","0.1413778631","0.2842980464","0.2175899085","","","","","","","","74","J","1","","","166","main_expt"
"","bandit","246","701655","0.0-207.0-0.0","90660643","wem/bandit_double","AIK9IRPT4M848","both","4","5","458","","","","","","","0","1","0","0.1999497975","0.1201482918","","","","","0.245875583","0.1201482918","0.1955934818","0.4290991351","0.07357446968","0.1999497975","0.3007590714","0.2137120923","","","","","","","","74","J","1","","","167","main_expt"
"","bandit","247","703537","0.0-208.0-0.0","90660643","wem/bandit_double","AIK9IRPT4M848","both","4","5","368","","","","","","","0","0","1","0.1696145944","0.0936051119","","","","","0.257303599","0.0936051119","0.2090603634","0.4510860662","0.1054325378","0.1696145944","0.2884936601","0.2331560811","","","","","","","","74","J","1","","","168","main_expt"
"","bandit","248","705357","0.0-209.0-0.0","90660643","wem/bandit_double","AIK9IRPT4M848","both","4","5","302","","","","","","","0","0","1","0.1338518967","0.08775096918","","","","","0.2993732043","0.08775096918","0.2678479696","0.4491424364","0.08536867429","0.1338518967","0.2803439438","0.2367963754","","","","","","","","74","J","1","","","169","main_expt"
"","bandit","249","706941","0.0-210.0-0.0","90660643","wem/bandit_double","AIK9IRPT4M848","both","4","5","66","","","","","","","0","1","0","0.1083432756","0.3388977639","","","","","0.3388977639","0.06743429675","0.2532125956","0.4332244901","0.1083432756","0.1307598277","0.3010437192","0.2378050175","","","","","","","","72","H","0","img/none_selected.jpg","","170","main_expt"
"","bandit","250","708785","0.0-211.0-0.0","90660643","wem/bandit_double","AIK9IRPT4M848","both","4","5","324","","","","","","","0","1","0","0.09185370626","0.2947926635","","","","","0.2947926635","0.05979118822","0.2568627054","0.4405036994","0.09185370626","0.1200375331","0.3243802095","0.2253696972","","","","","","","","72","H","0","img/none_selected.jpg","","171","main_expt"
"","bandit","251","710553","0.0-212.0-0.0","90660643","wem/bandit_double","AIK9IRPT4M848","both","4","5","252","","","","","","","0","0","1","0.09458096772","0.2892529657","","","","","0.2892529657","0.03200499914","0.2451563353","0.4358521759","0.09458096772","0.07514546963","0.3140094691","0.2903394368","","","","","","","","72","H","0","img/none_selected.jpg","","172","main_expt"
"","bandit","252","712636","0.0-213.0-0.0","90660643","wem/bandit_double","AIK9IRPT4M848","both","4","5","568","","","","","","","0","0","1","0.1016296913","0.2571917514","","","","","0.2571917514","0.04613358223","0.3003395367","0.4471617722","0.1016296913","0.07704486673","0.2433770114","0.2384828248","","","","","","","","72","H","0","img/none_selected.jpg","","173","main_expt"
"","bandit","253","714434","0.0-214.0-0.0","90660643","wem/bandit_double","AIK9IRPT4M848","both","4","5","282","","","","","","","0","0","1","0.117107939","0.244173221","","","","","0.244173221","0.05969677181","0.2545998681","0.4560251174","0.117107939","0.04061738922","0.2080779891","0.2823111034","","","","","","","","72","H","0","img/none_selected.jpg","","174","main_expt"
"","bandit","254","716345","0.0-215.0-0.0","90660643","wem/bandit_double","AIK9IRPT4M848","both","4","5","392","","","","","","","0","1","0","0.292147578","0.4379349024","","","","","0.2038098688","0.05930066603","0.3383135611","0.4379349024","0.1254773658","0.02968316822","0.2211365803","0.292147578","","","","","","","","76","L","3","","","175","main_expt"
"","bandit","255","718343","0.0-216.0-0.0","90660643","wem/bandit_double","AIK9IRPT4M848","both","4","5","484","","","","","","","0","1","0","0.2928295457","0.4328841116","","","","","0.2053823003","0.08110879181","0.3880627729","0.4328841116","0.1518856622","0.04419366322","0.231280906","0.2928295457","","","","","","","","76","L","3","","","176","main_expt"
"","bandit","256","721277","0.0-217.0-0.0","90660643","wem/bandit_double","AIK9IRPT4M848","both","4","5","1419","","","","","","","1","0","0","0.297241693","0.3965365967","","","","","0.2193083282","0.07611568943","0.3920994557","0.3965365967","0.1502483312","0.04140429262","0.1689881391","0.297241693","","","","","","","","76","L","3","","","177","main_expt"
"","bandit","257","724898","0.0-218.0-0.0","90660643","wem/bandit_double","AIK9IRPT4M848","both","4","5","2105","","","","","","","0","0","1","0.276241128","0.3899234309","","","","","0.1904263594","0.1220467165","0.3882277994","0.3899234309","0.2073149786","0.06103489621","0.1699404395","0.276241128","","","","","","","","76","L","3","","","178","main_expt"
"","bandit","258","726802","0.0-219.0-0.0","90660643","wem/bandit_double","AIK9IRPT4M848","both","4","5","388","","","","","","","0","0","1","0.1571972967","0.3939691408","","","","","0.2212788648","0.1698853315","0.3939691408","0.4238443777","0.1928578162","0.053608248","0.1571972967","0.2405339857","","","","","","","","75","K","2","","","179","main_expt"
"","bandit","259","728680","0.0-220.0-0.0","90660643","wem/bandit_double","AIK9IRPT4M848","both","4","5","363","","","","","","","0","0","1","0.06289379635","0.1374762061","","","","","0.2640717145","0.1374762061","0.4074656662","0.4487400994","0.1412953234","0.06289379635","0.1567782565","0.233428307","","","","","","","","74","J","1","","","180","main_expt"
"","bandit","260","730604","0.0-221.0-0.0","90660643","wem/bandit_double","AIK9IRPT4M848","both","4","5","408","","","","","","","0","1","0","0.1258774719","0.2426483564","","","","","0.2426483564","0.09961924189","0.3724421945","0.4314573438","0.1258774719","0.07748386732","0.1492691696","0.1459310114","","","","","","","","72","H","0","img/none_selected.jpg","","181","main_expt"
"","bandit","261","732476","0.0-222.0-0.0","90660643","wem/bandit_double","AIK9IRPT4M848","both","4","5","331","","","","","","","0","0","1","0.1121960069","0.2001563476","","","","","0.2001563476","0.1391043194","0.2998177931","0.4458059303","0.1121960069","0.096714051","0.1609613705","0.1796360657","","","","","","","","72","H","0","img/none_selected.jpg","","182","main_expt"
"","bandit","262","734700","0.0-223.0-0.0","90660643","wem/bandit_double","AIK9IRPT4M848","both","4","5","710","","","","","","","0","0","1","0.05351369794","0.1336424596","","","","","0.2167094124","0.1336424596","0.3629728763","0.4485460149","0.08335286121","0.05351369794","0.1982891881","0.1907874973","","","","","","","","74","J","1","","","183","main_expt"
"","bandit","263","736550","0.0-224.0-0.0","90660643","wem/bandit_double","AIK9IRPT4M848","both","4","5","334","","","","","","","0","1","0","0.1703318442","0.3763603645","","","","","0.2402813617","0.115911235","0.3763603645","0.4078350507","0.1085923678","0.08854511538","0.1703318442","0.1451627339","","","","","","","","75","K","2","","","184","main_expt"
"","bandit","264","738391","0.0-225.0-0.0","90660643","wem/bandit_double","AIK9IRPT4M848","both","4","5","324","","","","","","","0","0","1","0.09566746086","0.3472982705","","","","","0.2745112141","0.1394203739","0.3472982705","0.3805788675","0.1113654269","0.136385666","0.09566746086","0.1692531577","","","","","","","","75","K","2","","","185","main_expt"
"","bandit","265","740235","0.0-226.0-0.0","90660643","wem/bandit_double","AIK9IRPT4M848","both","4","5","327","","","","","","","0","1","0","0.1885113298","0.4236809331","","","","","0.2774566956","0.1557479742","0.3095995051","0.4236809331","0.1383531569","0.1848043888","0.1254261761","0.1885113298","","","","","","","","76","L","3","","","186","main_expt"
"","bandit","266","742045","0.0-227.0-0.0","90660643","wem/bandit_double","AIK9IRPT4M848","both","4","5","291","","","","","","","1","1","0","0.2088125345","0.4058627081","","","","","0.2876011691","0.1823611596","0.2567332284","0.4058627081","0.1739713275","0.1640989128","0.1081798115","0.2088125345","","","","","","","","76","L","3","","","187","main_expt"
"","bandit","267","743868","0.0-228.0-0.0","90660643","wem/bandit_double","AIK9IRPT4M848","both","4","5","302","","","","","","","0","0","1","0.2228369986","0.3913346521","","","","","0.2947112378","0.1854179297","0.2555256861","0.3913346521","0.1926366302","0.1301402021","0.08529062399","0.2228369986","","","","","","","","76","L","3","","","188","main_expt"
"","bandit","268","745594","0.0-229.0-0.0","90660643","wem/bandit_double","AIK9IRPT4M848","both","4","5","207","","","","","","","0","0","1","0.2567428292","0.3760164219","","","","","0.2581494","0.1875645599","0.2009875262","0.3760164219","0.2499935398","0.1980942663","0.07250281893","0.2567428292","","","","","","","","76","L","3","","","189","main_expt"
"","bandit","269","747120","0.0-230.0-0.0","90660643","wem/bandit_double","AIK9IRPT4M848","both","4","5","1","","","","","","","1","1","0","0.3177850294","0.3327352817","","","","","0.1756323468","0.2018323604","0.2055488595","0.3327352817","0.2367317824","0.1842725295","0.07895395147","0.3177850294","","","","","","","","76","L","3","","","190","main_expt"
"","bandit","270","748959","0.0-231.0-0.0","90660643","wem/bandit_double","AIK9IRPT4M848","both","4","5","319","","","","","","","0","0","1","0.2876912335","0.3015177445","","","","","0.2521570866","0.221094727","0.1506387864","0.3015177445","0.2515026666","0.2087081259","0.06204701637","0.2876912335","","","","","","","","76","L","3","","","191","main_expt"
"","bandit","271","750789","0.0-232.0-0.0","90660643","wem/bandit_double","AIK9IRPT4M848","both","4","5","312","","","","","","","0","1","0","0.2383873749","0.2773298268","","","","","0.2964739449","0.2320570195","0.2027442266","0.2773298268","0.2451916405","0.1800110976","0.064067899","0.2383873749","","","","","","","","76","L","3","","","192","main_expt"
"","bandit","272","752490","0.0-233.0-0.0","90660643","wem/bandit_double","AIK9IRPT4M848","both","4","5","183","","","","","","","0","0","1","0.24690957","0.2836613797","","","","","0.2612966838","0.2948950962","0.1969137872","0.2836613797","0.2353451433","0.1519186298","0.1286650472","0.24690957","","","","","","","","76","L","3","","","193","main_expt"
"","bandit","273","754252","0.0-234.0-0.0","90660643","wem/bandit_double","AIK9IRPT4M848","both","4","5","241","","","","","","","0","0","1","0.2728455101","0.2799350415","","","","","0.3292914436","0.2602906927","0.2114994946","0.2799350415","0.307075739","0.1431656489","0.1746490116","0.2728455101","","","","","","","","76","L","3","","","194","main_expt"
"","bandit","274","755855","0.0-235.0-0.0","90660643","wem/bandit_double","AIK9IRPT4M848","both","4","5","81","","","","","","","0","0","1","0.2421292151","0.2068597772","","","","","0.4070308407","0.1771499101","0.2467939011","0.2068597772","0.3011001907","0.1868251083","0.129035247","0.2421292151","","","","","","","","76","L","3","","","195","main_expt"
"","bandit","275","757653","0.0-236.0-0.0","90660643","wem/bandit_double","AIK9IRPT4M848","both","4","5","282","","","","","","","0","1","0","0.09052040682","0.2731811988","","","","","0.3494820729","0.1746274925","0.2731811988","0.2679469531","0.2861216794","0.176624335","0.09052040682","0.2598052724","","","","","","","","75","K","2","","","196","main_expt"
"","bandit","276","759460","0.0-237.0-0.0","90660643","wem/bandit_double","AIK9IRPT4M848","both","4","5","285","","","","","","","1","0","0","0.08675464884","0.2512114903","","","","","0.3571939809","0.193224684","0.2512114903","0.2448078588","0.2121549007","0.2383323772","0.08675464884","0.2540930088","","","","","","","","75","K","2","","","197","main_expt"
"","bandit","277","761228","0.0-238.0-0.0","90660643","wem/bandit_double","AIK9IRPT4M848","both","4","5","252","","","","","","","0","1","0","0.09429549835","0.190651112","","","","","0.382430028","0.1771509929","0.190651112","0.2433987968","0.260340052","0.260618614","0.09429549835","0.2460150375","","","","","","","","75","K","2","","","198","main_expt"
"","bandit","278","763007","0.0-239.0-0.0","90660643","wem/bandit_double","AIK9IRPT4M848","both","4","5","260","","","","","","","1","0","0","0.09303778716","0.1701189695","","","","","0.3353474301","0.2466668772","0.1701189695","0.2653624242","0.3009562829","0.2935067364","0.09303778716","0.2217343644","","","","","","","","75","K","2","","","199","main_expt"
"","bandit","279","764719","0.0-240.0-0.0","90660643","wem/bandit_double","AIK9IRPT4M848","both","4","5","193","","","","","","","0","1","0","0.07354084322","0.1656975488","","","","","0.3321976498","0.2477816141","0.1656975488","0.2551376492","0.3430896668","0.362920627","0.07354084322","0.2830302048","","","","","","","","75","K","2","","","200","main_expt"
"","bandit","280","766479","0.0-241.0-0.0","90660643","wem/bandit_double","AIK9IRPT4M848","both","4","5","242","","","","","","","0","0","1","0.08115367452","0.1647298582","","","","","0.3218117355","0.2744817861","0.1647298582","0.2660639347","0.2973668079","0.3119044903","0.08115367452","0.3175621279","","","","","","","","75","K","2","","","201","main_expt"
"","bandit","281","768334","0.0-242.0-0.0","90660643","wem/bandit_double","AIK9IRPT4M848","both","4","5","338","","","","","","","0","0","1","0.3095695708","0.3043062986","","","","","0.2949214693","0.3043062986","0.1242041815","0.2220900594","0.3219337599","0.3095695708","0.0774842685","0.3049471546","","","","","","","","74","J","1","","","202","main_expt"
"","bandit","282","770097","0.0-243.0-0.0","90660643","wem/bandit_double","AIK9IRPT4M848","both","4","5","247","","","","","","","0","0","1","0.09704724367","0.1684487429","","","","","0.300077299","0.272185569","0.1684487429","0.1543353204","0.3229991028","0.3005459379","0.09704724367","0.2975042969","","","","","","","","75","K","2","","","203","main_expt"
"","bandit","283","771905","0.0-244.0-0.0","90660643","wem/bandit_double","AIK9IRPT4M848","both","4","5","290","","","","","","","1","1","0","0.3077995671","0.2866085977","","","","","0.2866085977","0.2610767704","0.1666409686","0.1605482003","0.3077995671","0.3116824409","0.1224111047","0.2268457719","","","","","","","","72","H","0","img/none_selected.jpg","","204","main_expt"
"","bandit","284","773772","0.0-245.0-0.0","90660643","wem/bandit_double","AIK9IRPT4M848","both","4","5","352","","","","","","","0","0","1","0.3070199156","0.2695546272","","","","","0.2695546272","0.2832615928","0.2197286508","0.1406914754","0.3070199156","0.3291635812","0.1627664319","0.2582085449","","","","","","","","72","H","0","img/none_selected.jpg","","205","main_expt"
"","bandit","285","775607","0.0-246.0-0.0","90660643","wem/bandit_double","AIK9IRPT4M848","both","4","5","313","","","","","","","0","0","1","0.3109683939","0.2622178416","","","","","0.2622178416","0.300913322","0.2754509052","0.1138947463","0.3109683939","0.4008790519","0.1604236747","0.2841247045","","","","","","","","72","H","0","img/none_selected.jpg","","206","main_expt"
"","bandit","286","777446","0.0-247.0-0.0","90660643","wem/bandit_double","AIK9IRPT4M848","both","4","5","322","","","","","","","1","0","0","0.2845075958","0.2498186578","","","","","0.2498186578","0.3260258847","0.2664869377","0.1096702189","0.2845075958","0.4202180382","0.126388554","0.3333225396","","","","","","","","72","H","0","img/none_selected.jpg","","207","main_expt"
"","bandit","287","779200","0.0-248.0-0.0","90660643","wem/bandit_double","AIK9IRPT4M848","both","4","5","237","","","","","","","0","1","0","0.2419557814","0.2335358635","","","","","0.2335358635","0.3173829003","0.2686565688","0.09922356593","0.2419557814","0.4168586074","0.1602309633","0.290219871","","","","","","","","72","H","0","img/none_selected.jpg","","208","main_expt"
"","bandit","288","781253","0.0-249.0-0.0","90660643","wem/bandit_double","AIK9IRPT4M848","both","4","5","537","","","","","","","0","0","1","0.2449545816","0.2638942681","","","","","0.2638942681","0.3153846937","0.2380255957","0.101567507","0.2449545816","0.3949328033","0.2009997365","0.3426384504","","","","","","","","72","H","0","img/none_selected.jpg","","209","main_expt"
"","bandit","289","782786","0.0-250.0-0.0","90660643","wem/bandit_double","AIK9IRPT4M848","both","4","5","18","","","","","","","0","0","1","0.2176860071","0.2526926237","","","","","0.2526926237","0.3010876552","0.2507768727","0.08675379402","0.2176860071","0.41782505","0.1997114924","0.2932754766","","","","","","","","72","H","0","img/none_selected.jpg","","210","main_expt"
"","bandit","290","784465","0.0-251.0-0.0","90660643","wem/bandit_double","AIK9IRPT4M848","both","4","5","164","","","","","","","1","1","0","0.2460847292","0.2740367769","","","","","0.2740367769","0.2864900033","0.2685142319","0.07512021269","0.2460847292","0.4377941382","0.2631807131","0.2522206247","","","","","","","","72","H","0","img/none_selected.jpg","","211","main_expt"
"","bandit","291","786168","0.0-252.0-0.0","90660643","wem/bandit_double","AIK9IRPT4M848","both","4","5","185","","","","","","","0","1","0","0.2017704833","0.2440836191","","","","","0.2440836191","0.3163372434","0.260511483","0.08144254236","0.2017704833","0.4619006446","0.2008991105","0.2323705111","","","","","","","","72","H","0","img/none_selected.jpg","","212","main_expt"
"","bandit","292","787904","0.0-253.0-0.0","90660643","wem/bandit_double","AIK9IRPT4M848","both","4","5","217","","","","","","","0","0","1","0.1891715169","0.2341903104","","","","","0.2341903104","0.2701305136","0.2579605047","0.06585574052","0.1891715169","0.4508737721","0.1656487101","0.2815580385","","","","","","","","72","H","0","img/none_selected.jpg","","213","main_expt"
"","bandit","293","790770","0.0-254.0-0.0","90660643","wem/bandit_double","AIK9IRPT4M848","both","4","5","1351","","","","","","","0","0","1","0.1819308411","0.2097526345","","","","","0.2097526345","0.302599165","0.2470456849","0.08686614453","0.1819308411","0.4639731149","0.213788386","0.2955812139","","","","","","","","72","H","0","img/none_selected.jpg","","214","main_expt"
"","bandit","294","794407","0.0-255.0-0.0","90660643","wem/bandit_double","AIK9IRPT4M848","both","4","5","2114","","","","","","","0","0","1","0.1406935411","0.1796882487","","","","","0.1796882487","0.2968005471","0.3285383036","0.1068548489","0.1406935411","0.4690757113","0.2206736926","0.2988647484","","","","","","","","72","H","0","img/none_selected.jpg","","215","main_expt"
