"consent","trial_type","trial_index","time_elapsed","internal_node_id","subjID","study","MID","cond","drift1","drift2","rt","responses","key_press","expt_phase","like","value","connected","gems","bombs","no_reward","GemPrChosen","BombPrChosen","GainOverPainPr_0","GainOverPainPr_1","GainOverPainPr_2","GainOverPainPr_3","LosePr_0","LosePr_1","LosePr_2","LosePr_3","WinPr_0","WinPr_1","WinPr_2","WinPr_3","Q0","Q1","Q2","gender","age","ethnicity","target","respCharCode","respKey","respChoiceNum","respChoice","practice","trial_counter","trial_label"
"INL_behavioral_consent_30min_online.html","consent","0","10030","0.0-0.0","94289434","wem/bandit_double","A3LC6M2EMDBBXP","both","6","3","","","","","","","","","","","","","","","","","","","","","","","","","","","","","","","","","","","","","",""
"","survey-text","1","16381","0.0-1.0","94289434","wem/bandit_double","A3LC6M2EMDBBXP","both","6","3","5331","{""Q0"":""A3LC6M2EMDBBXP""}","","","","","","","","","","","","","","","","","","","","","","","","","","","","","","","","","","","",""
"","text","2","24600","0.0-2.0","94289434","wem/bandit_double","A3LC6M2EMDBBXP","both","6","3","7214","","32","","","","","","","","","","","","","","","","","","","","","","","","","","","","","","","","","","",""
"","text","3","32313","0.0-3.0","94289434","wem/bandit_double","A3LC6M2EMDBBXP","both","6","3","7710","","32","","","","","","","","","","","","","","","","","","","","","","","","","","","","","","","","","","",""
"","text","4","55691","0.0-4.0","94289434","wem/bandit_double","A3LC6M2EMDBBXP","both","6","3","23375","","32","","","","","","","","","","","","","","","","","","","","","","","","","","","","","","","","","","",""
"","text","5","72172","0.0-5.0","94289434","wem/bandit_double","A3LC6M2EMDBBXP","both","6","3","16479","","32","","","","","","","","","","","","","","","","","","","","","","","","","","","","","","","","","","",""
"","text","6","89528","0.0-6.0","94289434","wem/bandit_double","A3LC6M2EMDBBXP","both","6","3","17354","","32","","","","","","","","","","","","","","","","","","","","","","","","","","","","","","","","","","",""
"","text","7","97630","0.0-7.0","94289434","wem/bandit_double","A3LC6M2EMDBBXP","both","6","3","8099","","32","","","","","","","","","","","","","","","","","","","","","","","","","","","","","","","","","","",""
"","identification","8","106837","0.0-8.0-0.0","94289434","wem/bandit_double","A3LC6M2EMDBBXP","both","6","3","9172","","","","2","2","1","","","","","","","","","","","","","","","","","","","","","","","","the village of Zur","","","","","","",""
"","identification","9","113399","0.0-8.0-1.0","94289434","wem/bandit_double","A3LC6M2EMDBBXP","both","6","3","5533","","","","2","2","0","","","","","","","","","","","","","","","","","","","","","","","","the village of Nyx","","","","","","",""
"","text","10","119274","0.0-9.0","94289434","wem/bandit_double","A3LC6M2EMDBBXP","both","6","3","4871","","32","","","","","","","","","","","","","","","","","","","","","","","","","","","","","","","","","","",""
"","text","11","122199","0.0-10.0","94289434","wem/bandit_double","A3LC6M2EMDBBXP","both","6","3","2923","","32","","","","","","","","","","","","","","","","","","","","","","","","","","","","","","","","","","",""
"","text","12","124846","0.0-11.0","94289434","wem/bandit_double","A3LC6M2EMDBBXP","both","6","3","2644","","32","","","","","","","","","","","","","","","","","","","","","","","","","","","","","","","","","","",""
"","text","13","126501","0.0-12.0","94289434","wem/bandit_double","A3LC6M2EMDBBXP","both","6","3","1652","","32","","","","","","","","","","","","","","","","","","","","","","","","","","","","","","","","","","",""
"","text","14","132229","0.0-13.0","94289434","wem/bandit_double","A3LC6M2EMDBBXP","both","6","3","5726","","32","","","","","","","","","","","","","","","","","","","","","","","","","","","","","","","","","","",""
"","bandit","15","135460","0.0-14.0-0.0","94289434","wem/bandit_double","A3LC6M2EMDBBXP","both","6","3","1715","","","","","","","1","0","0","1","0","","","","","0","","","","1","","","","","","","","","","","74","J","0","img/none_selected_demo.jpg","true","0",""
"","bandit","16","137645","0.0-15.0-0.0","94289434","wem/bandit_double","A3LC6M2EMDBBXP","both","6","3","674","","","","","","","0","1","0","0","1","","","","","1","","","","0","","","","","","","","","","","75","K","0","img/none_selected_demo.jpg","true","0",""
"","text","17","146427","0.0-16.0","94289434","wem/bandit_double","A3LC6M2EMDBBXP","both","6","3","8780","","32","","","","","","","","","","","","","","","","","","","","","","","","","","","","","","","","","","",""
"","text","18","155763","0.0-17.0","94289434","wem/bandit_double","A3LC6M2EMDBBXP","both","6","3","9334","","32","","","","","","","","","","","","","","","","","","","","","","","","","","","","","","","","","","",""
"","text","19","163794","0.0-18.0","94289434","wem/bandit_double","A3LC6M2EMDBBXP","both","6","3","8028","","32","","","","","","","","","","","","","","","","","","","","","","","","","","","","","","","","","","",""
"","text","20","168148","0.0-19.0","94289434","wem/bandit_double","A3LC6M2EMDBBXP","both","6","3","4349","","32","","","","","","","","","","","","","","","","","","","","","","","","","","","","","","","","","","",""
"","bandit","21","170712","0.0-20.0-0.0","94289434","wem/bandit_double","A3LC6M2EMDBBXP","both","6","3","1052","","","","","","","0","0","1","0.2","0","","","","","0","0","","","0.8","0.2","","","","","","","","","","75","K","1","","true","0","80_20_practice"
"","bandit","22","172857","0.0-20.0-1.0","94289434","wem/bandit_double","A3LC6M2EMDBBXP","both","6","3","609","","","","","","","1","0","0","0.8","0","","","","","0","0","","","0.8","0.2","","","","","","","","","","74","J","0","img/none_selected_demo.jpg","true","0","80_20_practice"
"","bandit","23","174758","0.0-20.0-2.0","94289434","wem/bandit_double","A3LC6M2EMDBBXP","both","6","3","387","","","","","","","1","0","0","0.8","0","","","","","0","0","","","0.8","0.2","","","","","","","","","","74","J","0","img/none_selected_demo.jpg","true","0","80_20_practice"
"","bandit","24","176658","0.0-20.0-3.0","94289434","wem/bandit_double","A3LC6M2EMDBBXP","both","6","3","387","","","","","","","1","0","0","0.8","0","","","","","0","0","","","0.8","0.2","","","","","","","","","","74","J","0","img/none_selected_demo.jpg","true","0","80_20_practice"
"","bandit","25","178545","0.0-20.0-4.0","94289434","wem/bandit_double","A3LC6M2EMDBBXP","both","6","3","376","","","","","","","1","0","0","0.8","0","","","","","0","0","","","0.8","0.2","","","","","","","","","","74","J","0","img/none_selected_demo.jpg","true","0","80_20_practice"
"","bandit","26","180370","0.0-20.0-5.0","94289434","wem/bandit_double","A3LC6M2EMDBBXP","both","6","3","312","","","","","","","1","0","0","0.8","0","","","","","0","0","","","0.8","0.2","","","","","","","","","","74","J","0","img/none_selected_demo.jpg","true","0","80_20_practice"
"","bandit","27","182242","0.0-20.0-6.0","94289434","wem/bandit_double","A3LC6M2EMDBBXP","both","6","3","363","","","","","","","1","0","0","0.8","0","","","","","0","0","","","0.8","0.2","","","","","","","","","","74","J","0","img/none_selected_demo.jpg","true","0","80_20_practice"
"","bandit","28","184113","0.0-20.0-7.0","94289434","wem/bandit_double","A3LC6M2EMDBBXP","both","6","3","353","","","","","","","1","0","0","0.8","0","","","","","0","0","","","0.8","0.2","","","","","","","","","","74","J","0","img/none_selected_demo.jpg","true","0","80_20_practice"
"","bandit","29","185947","0.0-20.0-8.0","94289434","wem/bandit_double","A3LC6M2EMDBBXP","both","6","3","324","","","","","","","1","0","0","0.8","0","","","","","0","0","","","0.8","0.2","","","","","","","","","","74","J","0","img/none_selected_demo.jpg","true","0","80_20_practice"
"","bandit","30","187759","0.0-20.0-9.0","94289434","wem/bandit_double","A3LC6M2EMDBBXP","both","6","3","299","","","","","","","1","0","0","0.8","0","","","","","0","0","","","0.8","0.2","","","","","","","","","","74","J","0","img/none_selected_demo.jpg","true","0","80_20_practice"
"","bandit","31","189645","0.0-20.0-10.0","94289434","wem/bandit_double","A3LC6M2EMDBBXP","both","6","3","376","","","","","","","1","0","0","0.8","0","","","","","0","0","","","0.8","0.2","","","","","","","","","","74","J","0","img/none_selected_demo.jpg","true","0","80_20_practice"
"","bandit","32","191479","0.0-20.0-11.0","94289434","wem/bandit_double","A3LC6M2EMDBBXP","both","6","3","323","","","","","","","1","0","0","0.8","0","","","","","0","0","","","0.8","0.2","","","","","","","","","","74","J","0","img/none_selected_demo.jpg","true","0","80_20_practice"
"","bandit","33","193355","0.0-20.0-12.0","94289434","wem/bandit_double","A3LC6M2EMDBBXP","both","6","3","365","","","","","","","0","0","1","0.8","0","","","","","0","0","","","0.8","0.2","","","","","","","","","","74","J","0","img/none_selected_demo.jpg","true","0","80_20_practice"
"","bandit","34","195341","0.0-20.0-13.0","94289434","wem/bandit_double","A3LC6M2EMDBBXP","both","6","3","472","","","","","","","1","0","0","0.8","0","","","","","0","0","","","0.8","0.2","","","","","","","","","","74","J","0","img/none_selected_demo.jpg","true","0","80_20_practice"
"","bandit","35","197385","0.0-20.0-14.0","94289434","wem/bandit_double","A3LC6M2EMDBBXP","both","6","3","533","","","","","","","0","0","1","0.8","0","","","","","0","0","","","0.8","0.2","","","","","","","","","","74","J","0","img/none_selected_demo.jpg","true","0","80_20_practice"
"","bandit","36","199342","0.0-20.0-15.0","94289434","wem/bandit_double","A3LC6M2EMDBBXP","both","6","3","446","","","","","","","0","0","1","0.8","0","","","","","0","0","","","0.8","0.2","","","","","","","","","","74","J","0","img/none_selected_demo.jpg","true","0","80_20_practice"
"","bandit","37","201533","0.0-20.0-16.0","94289434","wem/bandit_double","A3LC6M2EMDBBXP","both","6","3","681","","","","","","","1","0","0","0.8","0","","","","","0","0","","","0.8","0.2","","","","","","","","","","74","J","0","img/none_selected_demo.jpg","true","0","80_20_practice"
"","bandit","38","203564","0.0-20.0-17.0","94289434","wem/bandit_double","A3LC6M2EMDBBXP","both","6","3","517","","","","","","","1","0","0","0.8","0","","","","","0","0","","","0.8","0.2","","","","","","","","","","74","J","0","img/none_selected_demo.jpg","true","0","80_20_practice"
"","bandit","39","205483","0.0-20.0-18.0","94289434","wem/bandit_double","A3LC6M2EMDBBXP","both","6","3","407","","","","","","","1","0","0","0.8","0","","","","","0","0","","","0.8","0.2","","","","","","","","","","74","J","0","img/none_selected_demo.jpg","true","0","80_20_practice"
"","bandit","40","207338","0.0-20.0-19.0","94289434","wem/bandit_double","A3LC6M2EMDBBXP","both","6","3","342","","","","","","","1","0","0","0.8","0","","","","","0","0","","","0.8","0.2","","","","","","","","","","74","J","0","img/none_selected_demo.jpg","true","0","80_20_practice"
"","text","41","211404","0.0-21.0","94289434","wem/bandit_double","A3LC6M2EMDBBXP","both","6","3","4062","","32","","","","","","","","","","","","","","","","","","","","","","","","","","","","","","","","","","",""
"","bandit","42","214736","0.0-22.0-0.0","94289434","wem/bandit_double","A3LC6M2EMDBBXP","both","6","3","1818","","","","","","","1","0","0","1","0","","","","","0","1","","","1","0","","","","","","","","","","74","J","0","img/none_selected_demo.jpg","true","0",""
"","text","43","221020","0.0-23.0","94289434","wem/bandit_double","A3LC6M2EMDBBXP","both","6","3","6281","","32","","","","","","","","","","","","","","","","","","","","","","","","","","","","","","","","","","",""
"","text","44","223844","0.0-24.0","94289434","wem/bandit_double","A3LC6M2EMDBBXP","both","6","3","2821","","32","","","","","","","","","","","","","","","","","","","","","","","","","","","","","","","","","","",""
"","text","45","226787","0.0-25.0","94289434","wem/bandit_double","A3LC6M2EMDBBXP","both","6","3","2940","","32","","","","","","","","","","","","","","","","","","","","","","","","","","","","","","","","","","",""
"","text","46","229429","0.0-26.0","94289434","wem/bandit_double","A3LC6M2EMDBBXP","both","6","3","2639","","32","","","","","","","","","","","","","","","","","","","","","","","","","","","","","","","","","","",""
"","text","47","233472","0.0-27.0","94289434","wem/bandit_double","A3LC6M2EMDBBXP","both","6","3","4039","","32","","","","","","","","","","","","","","","","","","","","","","","","","","","","","","","","","","",""
"","text","48","241025","0.0-28.0","94289434","wem/bandit_double","A3LC6M2EMDBBXP","both","6","3","7550","","32","","","","","","","","","","","","","","","","","","","","","","","","","","","","","","","","","","",""
"","text","49","245886","0.0-29.0","94289434","wem/bandit_double","A3LC6M2EMDBBXP","both","6","3","4858","","32","","","","","","","","","","","","","","","","","","","","","","","","","","","","","","","","","","",""
"","text","50","250889","0.0-30.0","94289434","wem/bandit_double","A3LC6M2EMDBBXP","both","6","3","5000","","32","","","","","","","","","","","","","","","","","","","","","","","","","","","","","","","","","","",""
"","text","51","263065","0.0-31.0","94289434","wem/bandit_double","A3LC6M2EMDBBXP","both","6","3","12172","","32","","","","","","","","","","","","","","","","","","","","","","","","","","","","","","","","","","",""
"","text","52","268688","0.0-32.0","94289434","wem/bandit_double","A3LC6M2EMDBBXP","both","6","3","5620","","32","","","","","","","","","","","","","","","","","","","","","","","","","","","","","","","","","","",""
"","text","53","271118","0.0-33.0","94289434","wem/bandit_double","A3LC6M2EMDBBXP","both","6","3","2426","","32","","","","","","","","","","","","","","","","","","","","","","","","","","","","","","","","","","",""
"","text","54","274753","0.0-34.0","94289434","wem/bandit_double","A3LC6M2EMDBBXP","both","6","3","3630","","32","","","","","","","","","","","","","","","","","","","","","","","","","","","","","","","","","","",""
"","bandit","55","276903","0.0-35.0-0.0","94289434","wem/bandit_double","A3LC6M2EMDBBXP","both","6","3","638","","","","","","","1","1","0","0.8","0.8","","","","","0.8","0.2","0.6","0.2","0.8","0.2","0.6","0.2","","","","","","","","72","H","0","img/none_selected.jpg","true","0","full_practice"
"","bandit","56","278854","0.0-35.0-1.0","94289434","wem/bandit_double","A3LC6M2EMDBBXP","both","6","3","437","","","","","","","0","0","1","0.2","0.2","","","","","0.8","0.2","0.6","0.2","0.8","0.2","0.6","0.2","","","","","","","","74","J","1","","true","0","full_practice"
"","bandit","57","280725","0.0-35.0-2.0","94289434","wem/bandit_double","A3LC6M2EMDBBXP","both","6","3","358","","","","","","","1","0","0","0.6","0.6","","","","","0.8","0.2","0.6","0.2","0.8","0.2","0.6","0.2","","","","","","","","75","K","2","","true","0","full_practice"
"","bandit","58","282796","0.0-35.0-3.0","94289434","wem/bandit_double","A3LC6M2EMDBBXP","both","6","3","561","","","","","","","0","1","0","0.2","0.2","","","","","0.8","0.2","0.6","0.2","0.8","0.2","0.6","0.2","","","","","","","","76","L","3","","true","0","full_practice"
"","bandit","59","284717","0.0-35.0-4.0","94289434","wem/bandit_double","A3LC6M2EMDBBXP","both","6","3","410","","","","","","","1","1","0","0.8","0.8","","","","","0.8","0.2","0.6","0.2","0.8","0.2","0.6","0.2","","","","","","","","72","H","0","img/none_selected.jpg","true","0","full_practice"
"","bandit","60","286601","0.0-35.0-5.0","94289434","wem/bandit_double","A3LC6M2EMDBBXP","both","6","3","371","","","","","","","1","1","0","0.8","0.8","","","","","0.8","0.2","0.6","0.2","0.8","0.2","0.6","0.2","","","","","","","","72","H","0","img/none_selected.jpg","true","0","full_practice"
"","bandit","61","288557","0.0-35.0-6.0","94289434","wem/bandit_double","A3LC6M2EMDBBXP","both","6","3","446","","","","","","","1","1","0","0.8","0.8","","","","","0.8","0.2","0.6","0.2","0.8","0.2","0.6","0.2","","","","","","","","72","H","0","img/none_selected.jpg","true","0","full_practice"
"","bandit","62","290444","0.0-35.0-7.0","94289434","wem/bandit_double","A3LC6M2EMDBBXP","both","6","3","375","","","","","","","1","1","0","0.8","0.8","","","","","0.8","0.2","0.6","0.2","0.8","0.2","0.6","0.2","","","","","","","","72","H","0","img/none_selected.jpg","true","0","full_practice"
"","bandit","63","292272","0.0-35.0-8.0","94289434","wem/bandit_double","A3LC6M2EMDBBXP","both","6","3","314","","","","","","","1","0","0","0.8","0.8","","","","","0.8","0.2","0.6","0.2","0.8","0.2","0.6","0.2","","","","","","","","72","H","0","img/none_selected.jpg","true","0","full_practice"
"","bandit","64","294157","0.0-35.0-9.0","94289434","wem/bandit_double","A3LC6M2EMDBBXP","both","6","3","372","","","","","","","0","0","1","0.2","0.2","","","","","0.8","0.2","0.6","0.2","0.8","0.2","0.6","0.2","","","","","","","","74","J","1","","true","0","full_practice"
"","bandit","65","296383","0.0-35.0-10.0","94289434","wem/bandit_double","A3LC6M2EMDBBXP","both","6","3","718","","","","","","","0","0","1","0.2","0.2","","","","","0.8","0.2","0.6","0.2","0.8","0.2","0.6","0.2","","","","","","","","76","L","3","","true","0","full_practice"
"","bandit","66","298262","0.0-35.0-11.0","94289434","wem/bandit_double","A3LC6M2EMDBBXP","both","6","3","367","","","","","","","0","0","1","0.6","0.6","","","","","0.8","0.2","0.6","0.2","0.8","0.2","0.6","0.2","","","","","","","","75","K","2","","true","0","full_practice"
"","bandit","67","300097","0.0-35.0-12.0","94289434","wem/bandit_double","A3LC6M2EMDBBXP","both","6","3","323","","","","","","","1","1","0","0.6","0.6","","","","","0.8","0.2","0.6","0.2","0.8","0.2","0.6","0.2","","","","","","","","75","K","2","","true","0","full_practice"
"","bandit","68","301942","0.0-35.0-13.0","94289434","wem/bandit_double","A3LC6M2EMDBBXP","both","6","3","331","","","","","","","1","1","0","0.6","0.6","","","","","0.8","0.2","0.6","0.2","0.8","0.2","0.6","0.2","","","","","","","","75","K","2","","true","0","full_practice"
"","bandit","69","303979","0.0-35.0-14.0","94289434","wem/bandit_double","A3LC6M2EMDBBXP","both","6","3","526","","","","","","","0","1","0","0.6","0.6","","","","","0.8","0.2","0.6","0.2","0.8","0.2","0.6","0.2","","","","","","","","75","K","2","","true","0","full_practice"
"","bandit","70","306000","0.0-35.0-15.0","94289434","wem/bandit_double","A3LC6M2EMDBBXP","both","6","3","456","","","","","","","1","1","0","0.8","0.8","","","","","0.8","0.2","0.6","0.2","0.8","0.2","0.6","0.2","","","","","","","","72","H","0","img/none_selected.jpg","true","0","full_practice"
"","bandit","71","308061","0.0-35.0-16.0","94289434","wem/bandit_double","A3LC6M2EMDBBXP","both","6","3","552","","","","","","","0","0","1","0.8","0.8","","","","","0.8","0.2","0.6","0.2","0.8","0.2","0.6","0.2","","","","","","","","72","H","0","img/none_selected.jpg","true","0","full_practice"
"","bandit","72","309965","0.0-35.0-17.0","94289434","wem/bandit_double","A3LC6M2EMDBBXP","both","6","3","392","","","","","","","0","1","0","0.8","0.8","","","","","0.8","0.2","0.6","0.2","0.8","0.2","0.6","0.2","","","","","","","","72","H","0","img/none_selected.jpg","true","0","full_practice"
"","bandit","73","311865","0.0-35.0-18.0","94289434","wem/bandit_double","A3LC6M2EMDBBXP","both","6","3","390","","","","","","","1","1","0","0.2","0.2","","","","","0.8","0.2","0.6","0.2","0.8","0.2","0.6","0.2","","","","","","","","74","J","1","","true","0","full_practice"
"","bandit","74","313779","0.0-35.0-19.0","94289434","wem/bandit_double","A3LC6M2EMDBBXP","both","6","3","400","","","","","","","0","0","1","0.2","0.2","","","","","0.8","0.2","0.6","0.2","0.8","0.2","0.6","0.2","","","","","","","","74","J","1","","true","0","full_practice"
"","text","75","316710","0.0-36.0","94289434","wem/bandit_double","A3LC6M2EMDBBXP","both","6","3","2922","","32","","","","","","","","","","","","","","","","","","","","","","","","","","","","","","","","","","",""
"","text","76","329421","0.0-37.0","94289434","wem/bandit_double","A3LC6M2EMDBBXP","both","6","3","11707","","32","","","","","","","","","","","","","","","","","","","","","","","","","","","","","","","","","","",""
"","text","77","333895","0.0-38.0","94289434","wem/bandit_double","A3LC6M2EMDBBXP","both","6","3","4468","","32","","","","","","","","","","","","","","","","","","","","","","","","","","","","","","","","","","",""
"","text","78","339974","0.0-39.0","94289434","wem/bandit_double","A3LC6M2EMDBBXP","both","6","3","6076","","32","","","","","","","","","","","","","","","","","","","","","","","","","","","","","","","","","","",""
"","text","79","344758","0.0-40.0","94289434","wem/bandit_double","A3LC6M2EMDBBXP","both","6","3","4781","","32","","","","","","","","","","","","","","","","","","","","","","","","","","","","","","","","","","",""
"","bandit","80","347038","0.0-41.0-0.0","94289434","wem/bandit_double","A3LC6M2EMDBBXP","both","6","3","766","","","","","","","0","0","1","0.1720655487","0.1426046982","","","","","0.1646489015","0.1426046982","0.4870892339","0.07685641067","0.4656478179","0.1720655487","0.06094066238","0.1734470434","","","","","","","","74","J","1","","","1","main_expt"
"","bandit","81","349108","0.0-42.0-0.0","94289434","wem/bandit_double","A3LC6M2EMDBBXP","both","6","3","561","","","","","","","0","1","0","0.04941180107","0.4875162112","","","","","0.2180431119","0.1597004976","0.4875162112","0.08388143876","0.4661883906","0.1607886358","0.04941180107","0.1582158198","","","","","","","","75","K","2","","","2","main_expt"
"","bandit","82","351040","0.0-43.0-0.0","94289434","wem/bandit_double","A3LC6M2EMDBBXP","both","6","3","419","","","","","","","0","1","0","0.1264016625","0.06528774038","","","","","0.2294217256","0.1381850853","0.4909945117","0.06528774038","0.4608397999","0.1825924006","0.09066711981","0.1264016625","","","","","","","","76","L","3","","","3","main_expt"
"","bandit","83","353035","0.0-44.0-0.0","94289434","wem/bandit_double","A3LC6M2EMDBBXP","both","6","3","482","","","","","","","1","1","0","0.4568511376","0.2162119515","","","","","0.2162119515","0.1787932262","0.482579304","0.07987899881","0.4568511376","0.1572982515","0.07815644495","0.1212924903","","","","","","","","72","H","0","img/none_selected.jpg","","4","main_expt"
"","bandit","84","354918","0.0-45.0-0.0","94289434","wem/bandit_double","A3LC6M2EMDBBXP","both","6","3","372","","","","","","","0","0","1","0.4576747282","0.2246316054","","","","","0.2246316054","0.1795032464","0.4887913002","0.0432391811","0.4576747282","0.1873501432","0.06547040057","0.1603104869","","","","","","","","72","H","0","img/none_selected.jpg","","5","main_expt"
"","bandit","85","356796","0.0-46.0-0.0","94289434","wem/bandit_double","A3LC6M2EMDBBXP","both","6","3","365","","","","","","","1","0","0","0.4673201091","0.2061018479","","","","","0.2061018479","0.164375756","0.4887860333","0.03467601655","0.4673201091","0.1484719509","0.09500806419","0.1916070739","","","","","","","","72","H","0","img/none_selected.jpg","","6","main_expt"
"","bandit","86","358651","0.0-47.0-0.0","94289434","wem/bandit_double","A3LC6M2EMDBBXP","both","6","3","344","","","","","","","0","0","1","0.4671816856","0.1795347326","","","","","0.1795347326","0.204957223","0.4901971563","0.05033951668","0.4671816856","0.1368680622","0.1156714339","0.1624213819","","","","","","","","72","H","0","img/none_selected.jpg","","7","main_expt"
"","bandit","87","360518","0.0-48.0-0.0","94289434","wem/bandit_double","A3LC6M2EMDBBXP","both","6","3","356","","","","","","","0","0","1","0.1412197478","0.2162036531","","","","","0.1290452752","0.2162036531","0.4862230721","0.07676355645","0.4577650209","0.1412197478","0.08939878806","0.1529627983","","","","","","","","74","J","1","","","8","main_expt"
"","bandit","88","362363","0.0-49.0-0.0","94289434","wem/bandit_double","A3LC6M2EMDBBXP","both","6","3","332","","","","","","","0","0","1","0.1285241668","0.2167418122","","","","","0.1559184374","0.2167418122","0.4759730645","0.08620859221","0.4538037209","0.1285241668","0.1379609943","0.1638779","","","","","","","","74","J","1","","","9","main_expt"
"","bandit","89","364193","0.0-50.0-0.0","94289434","wem/bandit_double","A3LC6M2EMDBBXP","both","6","3","315","","","","","","","0","0","1","0.1137500729","0.1607923637","","","","","0.1381514788","0.1607923637","0.4560980466","0.1103839657","0.4567906288","0.1137500729","0.08892925829","0.1682184418","","","","","","","","74","J","1","","","10","main_expt"
"","bandit","90","366062","0.0-51.0-0.0","94289434","wem/bandit_double","A3LC6M2EMDBBXP","both","6","3","356","","","","","","","0","0","1","0.1053961985","0.4775116046","","","","","0.1271140015","0.1386410957","0.4775116046","0.1334948588","0.4707556997","0.1134058804","0.1053961985","0.1511948373","","","","","","","","75","K","2","","","11","main_expt"
"","bandit","91","367987","0.0-52.0-0.0","94289434","wem/bandit_double","A3LC6M2EMDBBXP","both","6","3","413","","","","","","","0","0","1","0.2144966391","0.1535602519","","","","","0.1854664659","0.1718380738","0.4705073552","0.1535602519","0.4534589675","0.1358134986","0.1267534428","0.2144966391","","","","","","","","76","L","3","","","12","main_expt"
"","bandit","92","369874","0.0-53.0-0.0","94289434","wem/bandit_double","A3LC6M2EMDBBXP","both","6","3","374","","","","","","","0","0","1","0.1443049275","0.127854239","","","","","0.1869952656","0.1686303413","0.4851887342","0.127854239","0.4474824422","0.1105925571","0.1179877152","0.1443049275","","","","","","","","76","L","3","","","13","main_expt"
"","bandit","93","371679","0.0-54.0-0.0","94289434","wem/bandit_double","A3LC6M2EMDBBXP","both","6","3","292","","","","","","","0","0","1","0.1300626215","0.4731273917","","","","","0.2035171393","0.1460019496","0.4731273917","0.1507911491","0.4125602811","0.09057326494","0.1300626215","0.149160688","","","","","","","","75","K","2","","","14","main_expt"
"","bandit","94","373501","0.0-55.0-0.0","94289434","wem/bandit_double","A3LC6M2EMDBBXP","both","6","3","310","","","","","","","0","1","0","0.1129073675","0.4585867004","","","","","0.2800299461","0.1667614464","0.4585867004","0.1741212098","0.3715785473","0.05963436345","0.1129073675","0.1525333278","","","","","","","","75","K","2","","","15","main_expt"
"","bandit","95","375329","0.0-56.0-0.0","94289434","wem/bandit_double","A3LC6M2EMDBBXP","both","6","3","318","","","","","","","0","0","1","0.1132840383","0.4366533258","","","","","0.2725454461","0.1973644546","0.4366533258","0.1918308831","0.3670357029","0.03970917029","0.1132840383","0.1437253933","","","","","","","","75","K","2","","","16","main_expt"
"","bandit","96","377163","0.0-57.0-0.0","94289434","wem/bandit_double","A3LC6M2EMDBBXP","both","6","3","321","","","","","","","0","0","1","0.333794799","0.1570621471","","","","","0.1570621471","0.1873415792","0.4405228744","0.1950212473","0.333794799","0.03301664506","0.1530786807","0.1191274054","","","","","","","","72","H","0","img/none_selected.jpg","","17","main_expt"
"","bandit","97","379008","0.0-58.0-0.0","94289434","wem/bandit_double","A3LC6M2EMDBBXP","both","6","3","333","","","","","","","1","0","0","0.3720862831","0.1968188506","","","","","0.1968188506","0.1875860444","0.4678551263","0.2094813194","0.3720862831","0.0325619","0.1367655081","0.1231388663","","","","","","","","72","H","0","img/none_selected.jpg","","18","main_expt"
"","bandit","98","380941","0.0-59.0-0.0","94289434","wem/bandit_double","A3LC6M2EMDBBXP","both","6","3","421","","","","","","","1","0","0","0.3940248177","0.2439518204","","","","","0.2439518204","0.1988439388","0.466140525","0.2628959394","0.3940248177","0.05136562407","0.1519969922","0.1014962652","","","","","","","","72","H","0","img/none_selected.jpg","","19","main_expt"
"","bandit","99","382836","0.0-60.0-0.0","94289434","wem/bandit_double","A3LC6M2EMDBBXP","both","6","3","382","","","","","","","1","1","0","0.3980303587","0.2806117898","","","","","0.2806117898","0.1813993393","0.4094087999","0.2116504525","0.3980303587","0.05620034239","0.2344823222","0.1184271466","","","","","","","","72","H","0","img/none_selected.jpg","","20","main_expt"
"","bandit","100","384708","0.0-61.0-0.0","94289434","wem/bandit_double","A3LC6M2EMDBBXP","both","6","3","360","","","","","","","0","0","1","0.405953395","0.2658005831","","","","","0.2658005831","0.2012004452","0.4386974508","0.1904426465","0.405953395","0.04865895453","0.2227593861","0.1434190777","","","","","","","","72","H","0","img/none_selected.jpg","","21","main_expt"
"","bandit","101","386573","0.0-62.0-0.0","94289434","wem/bandit_double","A3LC6M2EMDBBXP","both","6","3","354","","","","","","","0","0","1","0.37898799","0.2774390086","","","","","0.2774390086","0.1958646163","0.4505723784","0.1581796968","0.37898799","0.05276066643","0.1831098024","0.1323354157","","","","","","","","72","H","0","img/none_selected.jpg","","22","main_expt"
"","bandit","102","388444","0.0-63.0-0.0","94289434","wem/bandit_double","A3LC6M2EMDBBXP","both","6","3","358","","","","","","","1","0","0","0.3661255489","0.2795917474","","","","","0.2795917474","0.2626819079","0.4568000239","0.2039009352","0.3661255489","0.05284133488","0.1660310818","0.1384191998","","","","","","","","72","H","0","img/none_selected.jpg","","23","main_expt"
"","bandit","103","390442","0.0-64.0-0.0","94289434","wem/bandit_double","A3LC6M2EMDBBXP","both","6","3","486","","","","","","","0","1","0","0.3576379461","0.2981059477","","","","","0.2981059477","0.2906682881","0.4518339256","0.228339491","0.3576379461","0.0333904923","0.1400827643","0.1395593146","","","","","","","","72","H","0","img/none_selected.jpg","","24","main_expt"
"","bandit","104","392324","0.0-65.0-0.0","94289434","wem/bandit_double","A3LC6M2EMDBBXP","both","6","3","370","","","","","","","0","0","1","0.3346121782","0.3272059922","","","","","0.3272059922","0.3270173502","0.4120159309","0.2602465224","0.3346121782","0.04666446392","0.2022937807","0.1696236693","","","","","","","","72","H","0","img/none_selected.jpg","","25","main_expt"
"","bandit","105","394360","0.0-66.0-0.0","94289434","wem/bandit_double","A3LC6M2EMDBBXP","both","6","3","522","","","","","","","0","1","0","0.1754084838","0.1939420306","","","","","0.3369826645","0.2951289915","0.4134154185","0.1939420306","0.3790434843","0.04067930801","0.1725383963","0.1754084838","","","","","","","","76","L","3","","","26","main_expt"
"","bandit","106","397211","0.0-67.0-0.0","94289434","wem/bandit_double","A3LC6M2EMDBBXP","both","6","3","1339","","","","","","","0","1","0","0.118483546","0.2387331149","","","","","0.2531212506","0.3520126272","0.4031068294","0.2387331149","0.3744762435","0.03070036018","0.1735642386","0.118483546","","","","","","","","76","L","3","","","27","main_expt"
"","bandit","107","399118","0.0-68.0-0.0","94289434","wem/bandit_double","A3LC6M2EMDBBXP","both","6","3","392","","","","","","","0","0","1","0.1259847853","0.2183458617","","","","","0.2170461037","0.3369287003","0.4305883772","0.2183458617","0.3650769418","0.02292460278","0.149532802","0.1259847853","","","","","","","","76","L","3","","","28","main_expt"
"","bandit","108","401000","0.0-69.0-0.0","94289434","wem/bandit_double","A3LC6M2EMDBBXP","both","6","3","368","","","","","","","0","0","1","0.1072727049","0.2151501268","","","","","0.2346211465","0.3591799128","0.4383329838","0.2151501268","0.3299345172","0.03476379039","0.1597785082","0.1072727049","","","","","","","","76","L","3","","","29","main_expt"
"","bandit","109","403143","0.0-70.0-0.0","94289434","wem/bandit_double","A3LC6M2EMDBBXP","both","6","3","634","","","","","","","0","0","1","0.07952930744","0.2267233056","","","","","0.2450860663","0.3324285477","0.4233276099","0.2267233056","0.3010095271","0.04211589453","0.1978771271","0.07952930744","","","","","","","","76","L","3","","","30","main_expt"
"","bandit","110","405205","0.0-71.0-0.0","94289434","wem/bandit_double","A3LC6M2EMDBBXP","both","6","3","552","","","","","","","0","0","1","0.1928768267","0.4016185005","","","","","0.2141169407","0.327032362","0.4016185005","0.2663701676","0.331530841","0.04495483672","0.1928768267","0.09691030242","","","","","","","","75","K","2","","","31","main_expt"
"","bandit","111","407470","0.0-72.0-0.0","94289434","wem/bandit_double","A3LC6M2EMDBBXP","both","6","3","757","","","","","","","0","0","1","0.04126869591","0.3230905041","","","","","0.2347854155","0.3230905041","0.4134940178","0.275969473","0.3469043085","0.04126869591","0.1511047494","0.1338720944","","","","","","","","74","J","1","","","32","main_expt"
"","bandit","112","409404","0.0-73.0-0.0","94289434","wem/bandit_double","A3LC6M2EMDBBXP","both","6","3","421","","","","","","","0","1","0","0.02396570111","0.2969008969","","","","","0.246596708","0.2969008969","0.4331174495","0.3365270118","0.2778139242","0.02396570111","0.09247049486","0.1428203538","","","","","","","","74","J","1","","","33","main_expt"
"","bandit","113","411424","0.0-74.0-0.0","94289434","wem/bandit_double","A3LC6M2EMDBBXP","both","6","3","508","","","","","","","0","0","1","0.236883459","0.1914370393","","","","","0.1914370393","0.2536392951","0.4454497031","0.2916301021","0.236883459","0.03561151332","0.1127946788","0.1258169527","","","","","","","","72","H","0","img/none_selected.jpg","","34","main_expt"
"","bandit","114","413349","0.0-75.0-0.0","94289434","wem/bandit_double","A3LC6M2EMDBBXP","both","6","3","412","","","","","","","0","0","1","0.2656196476","0.1408207185","","","","","0.1408207185","0.2336030597","0.4419706984","0.3236538836","0.2656196476","0.04565222073","0.1279928094","0.1652362889","","","","","","","","72","H","0","img/none_selected.jpg","","35","main_expt"
"","bandit","115","415374","0.0-76.0-0.0","94289434","wem/bandit_double","A3LC6M2EMDBBXP","both","6","3","512","","","","","","","0","0","1","0.2309028503","0.09539735145","","","","","0.09539735145","0.3110392291","0.4205940312","0.3317439785","0.2309028503","0.05036449293","0.09285608896","0.1472348388","","","","","","","","72","H","0","img/none_selected.jpg","","36","main_expt"
"","bandit","116","417256","0.0-77.0-0.0","94289434","wem/bandit_double","A3LC6M2EMDBBXP","both","6","3","369","","","","","","","0","0","1","0.1961267878","0.08867332122","","","","","0.08867332122","0.3354302382","0.4227305347","0.3620900841","0.1961267878","0.04764774511","0.1251507517","0.20581188","","","","","","","","72","H","0","img/none_selected.jpg","","37","main_expt"
"","bandit","117","419167","0.0-78.0-0.0","94289434","wem/bandit_double","A3LC6M2EMDBBXP","both","6","3","398","","","","","","","0","0","1","0.2197692452","0.0804097964","","","","","0.0804097964","0.3359947902","0.3904174821","0.3649119955","0.2197692452","0.04692466818","0.1248439258","0.2096070571","","","","","","","","72","H","0","img/none_selected.jpg","","38","main_expt"
"","bandit","118","421144","0.0-79.0-0.0","94289434","wem/bandit_double","A3LC6M2EMDBBXP","both","6","3","465","","","","","","","0","0","1","0.1783178102","0.1092906338","","","","","0.1092906338","0.3719467902","0.3704092514","0.3993258453","0.1783178102","0.06150360576","0.1192858938","0.1888903691","","","","","","","","72","H","0","img/none_selected.jpg","","39","main_expt"
"","bandit","119","422796","0.0-80.0-0.0","94289434","wem/bandit_double","A3LC6M2EMDBBXP","both","6","3","137","","","","","","","0","0","1","0.1025324214","0.37180955","","","","","0.08771014895","0.37180955","0.3250394812","0.43145226","0.1354267005","0.1025324214","0.1457630933","0.1769314034","","","","","","","","74","J","1","","","40","main_expt"
"","bandit","120","424901","0.0-81.0-0.0","94289434","wem/bandit_double","A3LC6M2EMDBBXP","both","6","3","593","","","","","","","0","1","0","0.1278282258","0.3972707938","","","","","0.1065106481","0.3972707938","0.3633775572","0.3925837484","0.1307301687","0.1278282258","0.1788887836","0.1764673912","","","","","","","","74","J","1","","","41","main_expt"
"","bandit","121","426824","0.0-82.0-0.0","94289434","wem/bandit_double","A3LC6M2EMDBBXP","both","6","3","411","","","","","","","0","1","0","0.1144783829","0.3981555674","","","","","0.0926848955","0.3981555674","0.3708570881","0.4020613291","0.1002459791","0.1144783829","0.1550439797","0.1164002711","","","","","","","","74","J","1","","","42","main_expt"
"","bandit","122","428435","0.0-83.0-0.0","94289434","wem/bandit_double","A3LC6M2EMDBBXP","both","6","3","97","","","","","","","0","1","0","0.148274456","0.3698022864","","","","","0.09213729174","0.3698022864","0.3852030547","0.4199094288","0.06131682752","0.148274456","0.1624336935","0.1248357276","","","","","","","","74","J","1","","","43","main_expt"
"","bandit","123","430302","0.0-84.0-0.0","94289434","wem/bandit_double","A3LC6M2EMDBBXP","both","6","3","351","","","","","","","0","0","1","0.2610419313","0.3653477133","","","","","0.0950319608","0.3278340923","0.3653477133","0.4362917367","0.05757194937","0.1733993608","0.2610419313","0.1801883524","","","","","","","","75","K","2","","","44","main_expt"
"","bandit","124","432204","0.0-85.0-0.0","94289434","wem/bandit_double","A3LC6M2EMDBBXP","both","6","3","386","","","","","","","0","1","0","0.2547096211","0.3423722135","","","","","0.07917944011","0.4004869948","0.3423722135","0.4310393502","0.06317169253","0.1731137141","0.2547096211","0.1536252234","","","","","","","","75","K","2","","","45","main_expt"
"","bandit","125","433842","0.0-86.0-0.0","94289434","wem/bandit_double","A3LC6M2EMDBBXP","both","6","3","127","","","","","","","0","0","1","0.2690630982","0.2713785315","","","","","0.08528552535","0.4389658195","0.2713785315","0.4301719659","0.08604650327","0.2577534017","0.2690630982","0.1453657368","","","","","","","","75","K","2","","","46","main_expt"
"","bandit","126","435711","0.0-87.0-0.0","94289434","wem/bandit_double","A3LC6M2EMDBBXP","both","6","3","355","","","","","","","0","1","0","0.2613787364","0.2675382036","","","","","0.08303267599","0.4294918489","0.2675382036","0.4274268526","0.07503215105","0.2436059896","0.2613787364","0.1163474927","","","","","","","","75","K","2","","","47","main_expt"
"","bandit","127","437602","0.0-88.0-0.0","94289434","wem/bandit_double","A3LC6M2EMDBBXP","both","6","3","378","","","","","","","0","0","1","0.2764851171","0.3006553151","","","","","0.1183490009","0.3948346084","0.3006553151","0.4559220927","0.09661626413","0.261356988","0.2764851171","0.1187671899","","","","","","","","75","K","2","","","48","main_expt"
"","bandit","128","439735","0.0-89.0-0.0","94289434","wem/bandit_double","A3LC6M2EMDBBXP","both","6","3","621","","","","","","","0","0","1","0.1321787199","0.4362936898","","","","","0.09831357925","0.4226663974","0.2865645246","0.4362936898","0.141419135","0.2707362224","0.2628846066","0.1321787199","","","","","","","","76","L","3","","","49","main_expt"
"","bandit","129","441678","0.0-90.0-0.0","94289434","wem/bandit_double","A3LC6M2EMDBBXP","both","6","3","429","","","","","","","0","0","1","0.1310663867","0.4001593617","","","","","0.0896163698","0.3943232949","0.2842330123","0.4001593617","0.1341637883","0.2733601765","0.3634831931","0.1310663867","","","","","","","","76","L","3","","","50","main_expt"
"","bandit","130","443552","0.0-91.0-0.0","94289434","wem/bandit_double","A3LC6M2EMDBBXP","both","6","3","361","","","","","","","0","1","0","0.1450472339","0.3737598101","","","","","0.08239790895","0.3911898034","0.2933637591","0.3737598101","0.1225974466","0.2590969561","0.3771608335","0.1450472339","","","","","","","","76","L","3","","","51","main_expt"
"","bandit","131","445362","0.0-92.0-0.0","94289434","wem/bandit_double","A3LC6M2EMDBBXP","both","6","3","298","","","","","","","0","0","1","0.1731775471","0.3490564905","","","","","0.06509061927","0.3897106723","0.2802127762","0.3490564905","0.1145468474","0.2515646212","0.3093307572","0.1731775471","","","","","","","","76","L","3","","","52","main_expt"
"","bandit","132","447203","0.0-93.0-0.0","94289434","wem/bandit_double","A3LC6M2EMDBBXP","both","6","3","326","","","","","","","0","0","1","0.1059564611","0.05503049918","","","","","0.05503049918","0.3977919118","0.2567133084","0.3606416198","0.1059564611","0.2257746054","0.2990929044","0.2258016315","","","","","","","","72","H","0","img/none_selected.jpg","","53","main_expt"
"","bandit","133","449078","0.0-94.0-0.0","94289434","wem/bandit_double","A3LC6M2EMDBBXP","both","6","3","362","","","","","","","1","0","0","0.1090017536","0.06606451817","","","","","0.06606451817","0.3803623479","0.304436262","0.3920172378","0.1090017536","0.2750925763","0.2221679908","0.2172527187","","","","","","","","72","H","0","img/none_selected.jpg","","54","main_expt"
"","bandit","134","450929","0.0-95.0-0.0","94289434","wem/bandit_double","A3LC6M2EMDBBXP","both","6","3","339","","","","","","","0","0","1","0.1249444004","0.0812436444","","","","","0.0812436444","0.3898030924","0.3050376594","0.3841867886","0.1249444004","0.3608357377","0.1886471815","0.1652356872","","","","","","","","72","H","0","img/none_selected.jpg","","55","main_expt"
"","bandit","135","452799","0.0-96.0-0.0","94289434","wem/bandit_double","A3LC6M2EMDBBXP","both","6","3","356","","","","","","","0","0","1","0.09043885587","0.05752214818","","","","","0.05752214818","0.4332266089","0.2874076515","0.3752679739","0.09043885587","0.4022545085","0.1973213641","0.1576418272","","","","","","","","72","H","0","img/none_selected.jpg","","56","main_expt"
"","bandit","136","454759","0.0-97.0-0.0","94289434","wem/bandit_double","A3LC6M2EMDBBXP","both","6","3","447","","","","","","","0","0","1","0.07448640425","0.05957573693","","","","","0.05957573693","0.4598680415","0.2633226407","0.3595388075","0.07448640425","0.3867568464","0.2207101474","0.180776926","","","","","","","","72","H","0","img/none_selected.jpg","","57","main_expt"
"","bandit","137","456655","0.0-98.0-0.0","94289434","wem/bandit_double","A3LC6M2EMDBBXP","both","6","3","382","","","","","","","0","0","1","0.09808879237","0.08347810371","","","","","0.08347810371","0.4510058242","0.282557186","0.2926617498","0.09808879237","0.3840355114","0.2480089655","0.1489081552","","","","","","","","72","H","0","img/none_selected.jpg","","58","main_expt"
"","bandit","138","458427","0.0-99.0-0.0","94289434","wem/bandit_double","A3LC6M2EMDBBXP","both","6","3","256","","","","","","","1","0","0","0.0721355853","0.1166757522","","","","","0.1166757522","0.4587464736","0.2675679041","0.2854140482","0.0721355853","0.3617876187","0.2667579505","0.125555473","","","","","","","","72","H","0","img/none_selected.jpg","","59","main_expt"
"","bandit","139","460279","0.0-100.0-0.0","94289434","wem/bandit_double","A3LC6M2EMDBBXP","both","6","3","323","","","","","","","0","0","1","0.08871326978","0.1223048521","","","","","0.1223048521","0.4534111386","0.2654645802","0.2767785787","0.08871326978","0.3018070945","0.2637313595","0.1228814318","","","","","","","","72","H","0","img/none_selected.jpg","","60","main_expt"
"","bandit","140","462221","0.0-101.0-0.0","94289434","wem/bandit_double","A3LC6M2EMDBBXP","both","6","3","427","","","","","","","0","0","1","0.1472383223","0.1341525672","","","","","0.1341525672","0.4581751116","0.2326588137","0.3110110239","0.1472383223","0.2687465691","0.2400462537","0.195834737","","","","","","","","72","H","0","img/none_selected.jpg","","61","main_expt"
"","bandit","141","464141","0.0-102.0-0.0","94289434","wem/bandit_double","A3LC6M2EMDBBXP","both","6","3","408","","","","","","","0","0","1","0.1625866577","0.1748443247","","","","","0.1748443247","0.4447189615","0.2430345153","0.2739379344","0.1625866577","0.287622952","0.2396546157","0.1952904108","","","","","","","","72","H","0","img/none_selected.jpg","","62","main_expt"
"","bandit","142","466036","0.0-103.0-0.0","94289434","wem/bandit_double","A3LC6M2EMDBBXP","both","6","3","381","","","","","","","0","1","0","0.1196153378","0.1872250423","","","","","0.1872250423","0.4351057758","0.2682261916","0.2518438402","0.1196153378","0.2060093557","0.2558687718","0.187392073","","","","","","","","72","H","0","img/none_selected.jpg","","63","main_expt"
"","bandit","143","467915","0.0-104.0-0.0","94289434","wem/bandit_double","A3LC6M2EMDBBXP","both","6","3","365","","","","","","","0","0","1","0.1025290435","0.1592276408","","","","","0.1592276408","0.4559228662","0.3136585585","0.216118181","0.1025290435","0.1865830226","0.1789331692","0.1774517964","","","","","","","","72","H","0","img/none_selected.jpg","","64","main_expt"
"","bandit","144","470262","0.0-105.0-0.0","94289434","wem/bandit_double","A3LC6M2EMDBBXP","both","6","3","773","","","","","","","0","0","1","0.06637487434","0.1881419285","","","","","0.1881419285","0.4526438492","0.3208042698","0.1961712117","0.06637487434","0.2242960511","0.2041721298","0.1956590225","","","","","","","","72","H","0","img/none_selected.jpg","","65","main_expt"
"","bandit","145","472158","0.0-106.0-0.0","94289434","wem/bandit_double","A3LC6M2EMDBBXP","both","6","3","382","","","","","","","0","0","1","0.09888809835","0.2075830042","","","","","0.2075830042","0.4604690516","0.3550213758","0.1821057022","0.09888809835","0.213739571","0.1083731131","0.1559932489","","","","","","","","72","H","0","img/none_selected.jpg","","66","main_expt"
"","bandit","146","474031","0.0-107.0-0.0","94289434","wem/bandit_double","A3LC6M2EMDBBXP","both","6","3","328","","","","","","","1","0","0","0.08542348091","0.210321401","","","","","0.210321401","0.4479534522","0.2883445083","0.2221692745","0.08542348091","0.2463093088","0.08148965902","0.1327283285","","","","","","","","72","H","0","img/none_selected.jpg","","67","main_expt"
"","bandit","147","476221","0.0-108.0-0.0","94289434","wem/bandit_double","A3LC6M2EMDBBXP","both","6","3","671","","","","","","","0","0","1","0.05648132023","0.1740681144","","","","","0.1740681144","0.4420076102","0.2492112051","0.2385328342","0.05648132023","0.1863602012","0.115871946","0.1646421129","","","","","","","","72","H","0","img/none_selected.jpg","","68","main_expt"
"","bandit","148","478652","0.0-109.0-0.0","94289434","wem/bandit_double","A3LC6M2EMDBBXP","both","6","3","916","","","","","","","0","1","0","0.07427448495","0.1495678232","","","","","0.1495678232","0.3840886122","0.1725364023","0.2693988132","0.07427448495","0.1481768435","0.1049465522","0.1879918005","","","","","","","","72","H","0","img/none_selected.jpg","","69","main_expt"
"","bandit","149","480321","0.0-110.0-0.0","94289434","wem/bandit_double","A3LC6M2EMDBBXP","both","6","3","154","","","","","","","0","0","1","0.2062415021","0.3764426572","","","","","0.1594524764","0.3764426572","0.2081322216","0.2633889128","0.1052870039","0.2062415021","0.1224614501","0.1708527721","","","","","","","","74","J","1","","","70","main_expt"
"","bandit","150","482122","0.0-111.0-0.0","94289434","wem/bandit_double","A3LC6M2EMDBBXP","both","6","3","289","","","","","","","0","0","1","0.2175562698","0.3925575972","","","","","0.1308665948","0.3925575972","0.2222096595","0.2881785301","0.1114501371","0.2175562698","0.1687358413","0.1930923514","","","","","","","","74","J","1","","","71","main_expt"
"","bandit","151","484091","0.0-112.0-0.0","94289434","wem/bandit_double","A3LC6M2EMDBBXP","both","6","3","456","","","","","","","0","0","1","0.2182173038","0.4055717031","","","","","0.1413665491","0.4055717031","0.2276413934","0.3496752211","0.1282799478","0.2182173038","0.1902964731","0.2289396243","","","","","","","","74","J","1","","","72","main_expt"
"","bandit","152","485944","0.0-113.0-0.0","94289434","wem/bandit_double","A3LC6M2EMDBBXP","both","6","3","340","","","","","","","0","1","0","0.1629952044","0.4313753627","","","","","0.1562096843","0.4313753627","0.202726327","0.3662649551","0.1113050996","0.1629952044","0.1764690901","0.2223781067","","","","","","","","74","J","1","","","73","main_expt"
"","bandit","153","487809","0.0-114.0-0.0","94289434","wem/bandit_double","A3LC6M2EMDBBXP","both","6","3","350","","","","","","","0","1","0","0.1720288853","0.2465356434","","","","","0.1601549975","0.4294283137","0.2465356434","0.3318597218","0.1573287606","0.2291178652","0.1720288853","0.1664819569","","","","","","","","75","K","2","","","74","main_expt"
"","bandit","154","489626","0.0-115.0-0.0","94289434","wem/bandit_double","A3LC6M2EMDBBXP","both","6","3","302","","","","","","","1","0","0","0.098780463","0.2780880013","","","","","0.1962365409","0.4114775526","0.2780880013","0.3129946244","0.168318459","0.2087405931","0.098780463","0.1157276324","","","","","","","","75","K","2","","","75","main_expt"
"","bandit","155","491479","0.0-116.0-0.0","94289434","wem/bandit_double","A3LC6M2EMDBBXP","both","6","3","339","","","","","","","0","1","0","0.08192786134","0.230570622","","","","","0.2315068675","0.4038916894","0.230570622","0.3299880354","0.131742089","0.1981976751","0.08192786134","0.06912044911","","","","","","","","75","K","2","","","76","main_expt"
"","bandit","156","493287","0.0-117.0-0.0","94289434","wem/bandit_double","A3LC6M2EMDBBXP","both","6","3","292","","","","","","","0","0","1","0.03620126105","0.1747897532","","","","","0.1749603823","0.4028298088","0.1747897532","0.2704336052","0.1382621175","0.2302368041","0.03620126105","0.06151132513","","","","","","","","75","K","2","","","77","main_expt"
"","bandit","157","495313","0.0-118.0-0.0","94289434","wem/bandit_double","A3LC6M2EMDBBXP","both","6","3","513","","","","","","","0","0","1","0.03362754592","0.2009150394","","","","","0.2091975686","0.4004321452","0.2009150394","0.2489008917","0.1351161864","0.2538269909","0.03362754592","0.08824794056","","","","","","","","75","K","2","","","78","main_expt"
"","bandit","158","497165","0.0-119.0-0.0","94289434","wem/bandit_double","A3LC6M2EMDBBXP","both","6","3","336","","","","","","","0","0","1","0.03917851348","0.2090883318","","","","","0.2699334682","0.3909827091","0.2090883318","0.2182462247","0.1125986002","0.221492582","0.03917851348","0.08425003046","","","","","","","","75","K","2","","","79","main_expt"
"","bandit","159","499015","0.0-120.0-0.0","94289434","wem/bandit_double","A3LC6M2EMDBBXP","both","6","3","337","","","","","","","0","0","1","0.06916691586","0.215522018","","","","","0.2712134299","0.4289339141","0.215522018","0.1591694045","0.1071358869","0.2126184008","0.06916691586","0.1059393704","","","","","","","","75","K","2","","","80","main_expt"
"","bandit","160","500953","0.0-121.0-0.0","94289434","wem/bandit_double","A3LC6M2EMDBBXP","both","6","3","425","","","","","","","0","1","0","0.1110223174","0.2655955182","","","","","0.2563236188","0.4256341571","0.2655955182","0.1661146317","0.1410751298","0.1803612399","0.1110223174","0.114990546","","","","","","","","75","K","2","","","81","main_expt"
"","bandit","161","502781","0.0-122.0-0.0","94289434","wem/bandit_double","A3LC6M2EMDBBXP","both","6","3","314","","","","","","","0","1","0","0.08899533144","0.2642342948","","","","","0.2474856626","0.4153375647","0.2642342948","0.2249160828","0.1518454263","0.1883980103","0.08899533144","0.1246300745","","","","","","","","75","K","2","","","82","main_expt"
"","bandit","162","504433","0.0-123.0-0.0","94289434","wem/bandit_double","A3LC6M2EMDBBXP","both","6","3","138","","","","","","","0","0","1","0.1383499545","0.2615040017","","","","","0.2338037125","0.4239102097","0.2615040017","0.2194800234","0.1285150734","0.2099895667","0.1383499545","0.1523433176","","","","","","","","75","K","2","","","83","main_expt"
"","bandit","163","506791","0.0-124.0-0.0","94289434","wem/bandit_double","A3LC6M2EMDBBXP","both","6","3","846","","","","","","","0","1","0","0.1815119679","0.3136368113","","","","","0.2929655049","0.4021041833","0.3136368113","0.2020024956","0.1083679187","0.1760666055","0.1815119679","0.1230513595","","","","","","","","75","K","2","","","84","main_expt"
"","bandit","164","508671","0.0-125.0-0.0","94289434","wem/bandit_double","A3LC6M2EMDBBXP","both","6","3","364","","","","","","","0","0","1","0.08985983991","0.2755572306","","","","","0.2755572306","0.4322374594","0.2433538552","0.1639230135","0.08985983991","0.2077415988","0.2121304898","0.1460595132","","","","","","","","72","H","0","img/none_selected.jpg","","85","main_expt"
"","bandit","165","510472","0.0-126.0-0.0","94289434","wem/bandit_double","A3LC6M2EMDBBXP","both","6","3","286","","","","","","","0","0","1","0.08377758623","0.2706615249","","","","","0.2706615249","0.4247618508","0.2583740773","0.1423092638","0.08377758623","0.1940704576","0.1931166697","0.1578730034","","","","","","","","72","H","0","img/none_selected.jpg","","86","main_expt"
"","bandit","166","512586","0.0-127.0-0.0","94289434","wem/bandit_double","A3LC6M2EMDBBXP","both","6","3","603","","","","","","","0","0","1","0.08340742779","0.3259805539","","","","","0.3259805539","0.4130492334","0.2656778135","0.1623313408","0.08340742779","0.1920524506","0.1908876969","0.1329566931","","","","","","","","72","H","0","img/none_selected.jpg","","87","main_expt"
"","bandit","167","514388","0.0-128.0-0.0","94289434","wem/bandit_double","A3LC6M2EMDBBXP","both","6","3","287","","","","","","","0","0","1","0.06937011617","0.3471137027","","","","","0.3471137027","0.3883747858","0.2565525481","0.1459946163","0.06937011617","0.2525081946","0.1727332377","0.1156353122","","","","","","","","72","H","0","img/none_selected.jpg","","88","main_expt"
"","bandit","168","516262","0.0-129.0-0.0","94289434","wem/bandit_double","A3LC6M2EMDBBXP","both","6","3","353","","","","","","","0","0","1","0.08556693901","0.3715311126","","","","","0.3715311126","0.3950807547","0.2471999074","0.1684807643","0.08556693901","0.2476280913","0.1747664758","0.1169245856","","","","","","","","72","H","0","img/none_selected.jpg","","89","main_expt"
"","bandit","169","518138","0.0-130.0-0.0","94289434","wem/bandit_double","A3LC6M2EMDBBXP","both","6","3","361","","","","","","","0","1","0","0.1013294801","0.3571728809","","","","","0.3571728809","0.420982679","0.2204199549","0.1937692241","0.1013294801","0.2476417222","0.1302891894","0.1276927611","","","","","","","","72","H","0","img/none_selected.jpg","","90","main_expt"
"","bandit","170","520019","0.0-131.0-0.0","94289434","wem/bandit_double","A3LC6M2EMDBBXP","both","6","3","365","","","","","","","0","1","0","0.1567130635","0.3348642023","","","","","0.3348642023","0.4012606491","0.2013548925","0.1670397906","0.1567130635","0.1875867431","0.1143331172","0.1633868825","","","","","","","","72","H","0","img/none_selected.jpg","","91","main_expt"
"","bandit","171","521906","0.0-132.0-0.0","94289434","wem/bandit_double","A3LC6M2EMDBBXP","both","6","3","371","","","","","","","0","1","0","0.1214255195","0.3551195155","","","","","0.3551195155","0.3950870333","0.174921714","0.1936095216","0.1214255195","0.1804963823","0.1674068059","0.2172033847","","","","","","","","72","H","0","img/none_selected.jpg","","92","main_expt"
"","bandit","172","524279","0.0-133.0-0.0","94289434","wem/bandit_double","A3LC6M2EMDBBXP","both","6","3","861","","","","","","","0","0","1","0.1317465968","0.3494458231","","","","","0.3494458231","0.3797372222","0.1972058505","0.2399824117","0.1317465968","0.1468121695","0.1405005834","0.2178255547","","","","","","","","72","H","0","img/none_selected.jpg","","93","main_expt"
"","bandit","173","526589","0.0-134.0-0.0","94289434","wem/bandit_double","A3LC6M2EMDBBXP","both","6","3","797","","","","","","","0","0","1","0.1810196293","0.3759818745","","","","","0.3759818745","0.3346339076","0.2144007407","0.242536602","0.1810196293","0.1270151289","0.1338278818","0.2058786334","","","","","","","","72","H","0","img/none_selected.jpg","","94","main_expt"
"","bandit","174","528467","0.0-135.0-0.0","94289434","wem/bandit_double","A3LC6M2EMDBBXP","both","6","3","361","","","","","","","0","1","0","0.1537803575","0.3467088588","","","","","0.3467088588","0.3433005441","0.2025691914","0.3081296623","0.1537803575","0.1049494322","0.16416917","0.2009860572","","","","","","","","72","H","0","img/none_selected.jpg","","95","main_expt"
"","bandit","175","529982","0.0-136.0-0.0","94289434","wem/bandit_double","A3LC6M2EMDBBXP","both","6","3","2","","","","","","","0","0","1","0.2255368078","0.3520186383","","","","","0.3520186383","0.2900415689","0.1750118246","0.371766452","0.2255368078","0.1242023773","0.1075549125","0.2792576191","","","","","","","","72","H","0","img/none_selected.jpg","","96","main_expt"
"","bandit","176","531883","0.0-137.0-0.0","94289434","wem/bandit_double","A3LC6M2EMDBBXP","both","6","3","388","","","","","","","0","0","1","0.1881791955","0.342216001","","","","","0.342216001","0.3136050561","0.2433812568","0.3737721809","0.1881791955","0.101802889","0.07285617598","0.291042229","","","","","","","","72","H","0","img/none_selected.jpg","","97","main_expt"
"","bandit","177","533866","0.0-138.0-0.0","94289434","wem/bandit_double","A3LC6M2EMDBBXP","both","6","3","469","","","","","","","0","0","1","0.1722186849","0.3775958225","","","","","0.3775958225","0.3236610102","0.1834100281","0.3662625892","0.1722186849","0.08559904752","0.1128802937","0.2919937097","","","","","","","","72","H","0","img/none_selected.jpg","","98","main_expt"
"","bandit","178","535669","0.0-139.0-0.0","94289434","wem/bandit_double","A3LC6M2EMDBBXP","both","6","3","287","","","","","","","0","0","1","0.338066437","0.3912879072","","","","","0.3490624926","0.3116662608","0.146161558","0.3912879072","0.2581810796","0.04480153982","0.07338875894","0.338066437","","","","","","","","76","L","3","","","99","main_expt"
"","bandit","179","537536","0.0-140.0-0.0","94289434","wem/bandit_double","A3LC6M2EMDBBXP","both","6","3","353","","","","","","","0","1","0","0.3466775547","0.3916888764","","","","","0.3418910903","0.3806420769","0.1186266926","0.3916888764","0.3094702251","0.03694367041","0.06256672301","0.3466775547","","","","","","","","76","L","3","","","100","main_expt"
"","bandit","180","539503","0.0-141.0-0.0","94289434","wem/bandit_double","A3LC6M2EMDBBXP","both","6","3","453","","","","","","","0","0","1","0.3776837944","0.3803758031","","","","","0.3544055354","0.3825052475","0.1467879228","0.3803758031","0.3217449289","0.02534596886","0.06765033746","0.3776837944","","","","","","","","76","L","3","","","101","main_expt"
"","bandit","181","541488","0.0-142.0-0.0","94289434","wem/bandit_double","A3LC6M2EMDBBXP","both","6","3","469","","","","","","","0","0","1","0.3988278911","0.3685266224","","","","","0.3580864163","0.3799327693","0.1336514036","0.3685266224","0.3656493725","0.03456503798","0.08460413752","0.3988278911","","","","","","","","76","L","3","","","102","main_expt"
"","bandit","182","543379","0.0-143.0-0.0","94289434","wem/bandit_double","A3LC6M2EMDBBXP","both","6","3","377","","","","","","","0","0","1","0.3642388176","0.3754978655","","","","","0.336528594","0.3502018886","0.1325092095","0.3754978655","0.4097417878","0.03116272615","0.1149622558","0.3642388176","","","","","","","","76","L","3","","","103","main_expt"
"","bandit","183","545822","0.0-144.0-0.0","94289434","wem/bandit_double","A3LC6M2EMDBBXP","both","6","3","924","","","","","","","0","0","1","0.1223821921","0.1162839287","","","","","0.3190078166","0.3443431466","0.1162839287","0.4033056484","0.4005896235","0.04034009898","0.1223821921","0.3059376685","","","","","","","","75","K","2","","","104","main_expt"
"","bandit","184","548145","0.0-145.0-0.0","94289434","wem/bandit_double","A3LC6M2EMDBBXP","both","6","3","809","","","","","","","0","0","1","0.1302837569","0.115620258","","","","","0.3100940773","0.3551378046","0.115620258","0.3617388181","0.3967946647","0.06132200156","0.1302837569","0.2658022239","","","","","","","","75","K","2","","","105","main_expt"
"","bandit","185","550141","0.0-146.0-0.0","94289434","wem/bandit_double","A3LC6M2EMDBBXP","both","6","3","481","","","","","","","0","0","1","0.1405927316","0.1102569517","","","","","0.2964842485","0.3177956882","0.1102569517","0.3656875331","0.3920329447","0.03171667797","0.1405927316","0.2583534607","","","","","","","","75","K","2","","","106","main_expt"
"","bandit","186","551993","0.0-147.0-0.0","94289434","wem/bandit_double","A3LC6M2EMDBBXP","both","6","3","332","","","","","","","0","1","0","0.06603394544","0.3463124521","","","","","0.3224579283","0.3463124521","0.110599846","0.3478183852","0.3973329777","0.06603394544","0.1835021143","0.2402432731","","","","","","","","74","J","1","","","107","main_expt"
"","bandit","187","554002","0.0-148.0-0.0","94289434","wem/bandit_double","A3LC6M2EMDBBXP","both","6","3","493","","","","","","","0","1","0","0.08137973005","0.330790185","","","","","0.3365568187","0.330790185","0.1647947233","0.3715517583","0.3839010997","0.08137973005","0.2124513917","0.2364509509","","","","","","","","74","J","1","","","108","main_expt"
"","bandit","188","555911","0.0-149.0-0.0","94289434","wem/bandit_double","A3LC6M2EMDBBXP","both","6","3","393","","","","","","","0","1","0","0.04765661509","0.3259779601","","","","","0.3200824859","0.3259779601","0.146095753","0.3713851569","0.3879107289","0.04765661509","0.218007314","0.2164051194","","","","","","","","74","J","1","","","109","main_expt"
"","bandit","189","557769","0.0-150.0-0.0","94289434","wem/bandit_double","A3LC6M2EMDBBXP","both","6","3","344","","","","","","","0","1","0","0.06789381979","0.3169053314","","","","","0.3179471713","0.3169053314","0.1691954855","0.3401672382","0.3989855113","0.06789381979","0.229469423","0.1611838666","","","","","","","","74","J","1","","","110","main_expt"
"","bandit","190","559734","0.0-151.0-0.0","94289434","wem/bandit_double","A3LC6M2EMDBBXP","both","6","3","449","","","","","","","0","0","1","0.08972795074","0.342138516","","","","","0.3168158386","0.342138516","0.1690298198","0.3242328008","0.3959495959","0.08972795074","0.2923436213","0.2042622235","","","","","","","","74","J","1","","","111","main_expt"
"","bandit","191","561589","0.0-152.0-0.0","94289434","wem/bandit_double","A3LC6M2EMDBBXP","both","6","3","339","","","","","","","0","0","1","0.1176683061","0.3597886873","","","","","0.3551606626","0.3597886873","0.2196992501","0.2991119965","0.335596647","0.1176683061","0.2778802509","0.2113733305","","","","","","","","74","J","1","","","112","main_expt"
"","bandit","192","563524","0.0-153.0-0.0","94289434","wem/bandit_double","A3LC6M2EMDBBXP","both","6","3","419","","","","","","","1","1","0","0.1973953549","0.3580549124","","","","","0.3615444015","0.3580549124","0.2723467559","0.3364281798","0.2876347753","0.1973953549","0.2852166322","0.220236308","","","","","","","","74","J","1","","","113","main_expt"
"","bandit","193","565377","0.0-154.0-0.0","94289434","wem/bandit_double","A3LC6M2EMDBBXP","both","6","3","337","","","","","","","0","0","1","0.200840576","0.3556181037","","","","","0.4043222556","0.3556181037","0.2470985199","0.3495122724","0.2811359795","0.200840576","0.3222351196","0.2453392608","","","","","","","","74","J","1","","","114","main_expt"
"","bandit","194","567265","0.0-155.0-0.0","94289434","wem/bandit_double","A3LC6M2EMDBBXP","both","6","3","374","","","","","","","0","0","1","0.2544006126","0.3489042174","","","","","0.4179696435","0.3489042174","0.2482590513","0.324938203","0.2056035349","0.2544006126","0.2865303103","0.2311931225","","","","","","","","74","J","1","","","115","main_expt"
"","bandit","195","569466","0.0-156.0-0.0","94289434","wem/bandit_double","A3LC6M2EMDBBXP","both","6","3","690","","","","","","","1","1","0","0.2264812366","0.3466245191","","","","","0.4324393975","0.3466245191","0.1992012358","0.3227512736","0.2435386161","0.2264812366","0.1901772154","0.2290532582","","","","","","","","74","J","1","","","116","main_expt"
"","bandit","196","571884","0.0-157.0-0.0","94289434","wem/bandit_double","A3LC6M2EMDBBXP","both","6","3","902","","","","","","","0","1","0","0.2535822563","0.3581754781","","","","","0.4290779421","0.3581754781","0.216355905","0.2585209305","0.2523066444","0.2535822563","0.1854727963","0.2610634121","","","","","","","","74","J","1","","","117","main_expt"
"","bandit","197","573802","0.0-158.0-0.0","94289434","wem/bandit_double","A3LC6M2EMDBBXP","both","6","3","402","","","","","","","1","0","0","0.288462609","0.283939031","","","","","0.4459264202","0.283939031","0.1715453935","0.2817260076","0.258758296","0.288462609","0.223078523","0.2915584027","","","","","","","","74","J","1","","","118","main_expt"
"","bandit","198","576263","0.0-159.0-0.0","94289434","wem/bandit_double","A3LC6M2EMDBBXP","both","6","3","946","","","","","","","0","0","1","0.3077733757","0.2992634423","","","","","0.436995295","0.2992634423","0.1843456939","0.328214026","0.2513882557","0.3077733757","0.2157898803","0.3240034744","","","","","","","","74","J","1","","","119","main_expt"
"","bandit","199","579434","0.0-160.0-0.0","94289434","wem/bandit_double","A3LC6M2EMDBBXP","both","6","3","1655","","","","","","","1","0","0","0.3470363664","0.1878150733","","","","","0.4151314625","0.1878150733","0.1848061615","0.3355603121","0.2178230887","0.3470363664","0.2055853597","0.3584552205","","","","","","","","74","J","1","","","120","main_expt"
"","bandit","200","581500","0.0-161.0-0.0","94289434","wem/bandit_double","A3LC6M2EMDBBXP","both","6","3","552","","","","","","","1","1","0","0.36369082","0.1447458933","","","","","0.4384064527","0.1447458933","0.1679578636","0.3829587724","0.2249913612","0.36369082","0.2308362602","0.3392259721","","","","","","","","74","J","1","","","121","main_expt"
"","bandit","201","583479","0.0-162.0-0.0","94289434","wem/bandit_double","A3LC6M2EMDBBXP","both","6","3","463","","","","","","","0","0","1","0.3740977319","0.1176060398","","","","","0.4417589501","0.1176060398","0.197295971","0.3995678287","0.2135386538","0.3740977319","0.1858821776","0.3211990091","","","","","","","","74","J","1","","","122","main_expt"
"","bandit","202","585294","0.0-163.0-0.0","94289434","wem/bandit_double","A3LC6M2EMDBBXP","both","6","3","298","","","","","","","0","0","1","0.3617230251","0.1097677055","","","","","0.4017154396","0.1097677055","0.2184653352","0.3656739583","0.2742148462","0.3617230251","0.1948645322","0.3082515077","","","","","","","","74","J","1","","","123","main_expt"
"","bandit","203","587203","0.0-164.0-0.0","94289434","wem/bandit_double","A3LC6M2EMDBBXP","both","6","3","393","","","","","","","1","0","0","0.3189133642","0.08048168986","","","","","0.3619070526","0.08048168986","0.2147868977","0.3862549257","0.3092488957","0.3189133642","0.1875433284","0.3337980485","","","","","","","","74","J","1","","","124","main_expt"
"","bandit","204","589038","0.0-165.0-0.0","94289434","wem/bandit_double","A3LC6M2EMDBBXP","both","6","3","318","","","","","","","0","0","1","0.3134342975","0.07842900555","","","","","0.3567490645","0.07842900555","0.1667936559","0.3593796239","0.2832498899","0.3134342975","0.1805360773","0.2815584253","","","","","","","","74","J","1","","","125","main_expt"
"","bandit","205","591186","0.0-166.0-0.0","94289434","wem/bandit_double","A3LC6M2EMDBBXP","both","6","3","416","","","","","","","0","0","1","0.2889117865","0.08318363027","","","","","0.3558473019","0.08318363027","0.1453295256","0.3413194209","0.321902755","0.2889117865","0.2199741614","0.2544389989","","","","","","","","74","J","1","","","126","main_expt"
"","bandit","206","593112","0.0-167.0-0.0","94289434","wem/bandit_double","A3LC6M2EMDBBXP","both","6","3","408","","","","","","","0","0","1","0.3101500906","0.06812438963","","","","","0.3543069734","0.06812438963","0.1635755653","0.3369929262","0.3163630435","0.3101500906","0.212963778","0.217883989","","","","","","","","74","J","1","","","127","main_expt"
"","bandit","207","595304","0.0-168.0-0.0","94289434","wem/bandit_double","A3LC6M2EMDBBXP","both","6","3","679","","","","","","","0","0","1","0.3257933697","0.08303766286","","","","","0.3328374851","0.08303766286","0.1872639566","0.2922989636","0.3242789072","0.3257933697","0.1853882534","0.1941215274","","","","","","","","74","J","1","","","128","main_expt"
"","bandit","208","597950","0.0-169.0-0.0","94289434","wem/bandit_double","A3LC6M2EMDBBXP","both","6","3","1128","","","","","","","0","0","1","0.2767822115","0.09047360051","","","","","0.3238683282","0.09047360051","0.2032718864","0.3095146075","0.3430844202","0.2767822115","0.1486900389","0.2093197904","","","","","","","","74","J","1","","","129","main_expt"
"","bandit","209","600530","0.0-170.0-0.0","94289434","wem/bandit_double","A3LC6M2EMDBBXP","both","6","3","1063","","","","","","","1","1","0","0.3389859305","0.131542256","","","","","0.2750329062","0.131542256","0.2025864764","0.3068425872","0.3487272729","0.3389859305","0.1581202816","0.2325895014","","","","","","","","74","J","1","","","130","main_expt"
"","bandit","210","603812","0.0-171.0-0.0","94289434","wem/bandit_double","A3LC6M2EMDBBXP","both","6","3","1765","","","","","","","1","0","0","0.2807576759","0.1492019489","","","","","0.2751886228","0.1492019489","0.2158584071","0.3112504131","0.3850752379","0.2807576759","0.1189605486","0.2680880231","","","","","","","","74","J","1","","","131","main_expt"
"","bandit","211","607331","0.0-172.0-0.0","94289434","wem/bandit_double","A3LC6M2EMDBBXP","both","6","3","2003","","","","","","","0","0","1","0.2044414959","0.1571188116","","","","","0.2729729886","0.1571188116","0.2105840197","0.3595653039","0.3547422913","0.2044414959","0.08638656351","0.2053564998","","","","","","","","74","J","1","","","132","main_expt"
"","bandit","212","609943","0.0-173.0-0.0","94289434","wem/bandit_double","A3LC6M2EMDBBXP","both","6","3","1095","","","","","","","1","0","0","0.2352631215","0.2021073832","","","","","0.3248088544","0.2021073832","0.2328486735","0.3873527377","0.3256782816","0.2352631215","0.104542274","0.2102644512","","","","","","","","74","J","1","","","133","main_expt"
"","bandit","213","613266","0.0-174.0-0.0","94289434","wem/bandit_double","A3LC6M2EMDBBXP","both","6","3","1806","","","","","","","0","1","0","0.2808822736","0.2693148074","","","","","0.3596446835","0.2693148074","0.2589092944","0.3973884711","0.2479378245","0.2808822736","0.1401790922","0.2028105977","","","","","","","","74","J","1","","","134","main_expt"
"","bandit","214","615171","0.0-175.0-0.0","94289434","wem/bandit_double","A3LC6M2EMDBBXP","both","6","3","388","","","","","","","1","1","0","0.3053704558","0.2625780805","","","","","0.318377279","0.2625780805","0.2637326353","0.4080523157","0.24301602","0.3053704558","0.1818128853","0.1556880781","","","","","","","","74","J","1","","","135","main_expt"
"","bandit","215","619721","0.0-176.0-0.0","94289434","wem/bandit_double","A3LC6M2EMDBBXP","both","6","3","3030","","","","","","","1","0","0","0.3140058771","0.2981707722","","","","","0.3160887017","0.2981707722","0.2718680576","0.4176503084","0.2630427063","0.3140058771","0.1583738081","0.1428421262","","","","","","","","74","J","1","","","136","main_expt"
"","bandit","216","622945","0.0-177.0-0.0","94289434","wem/bandit_double","A3LC6M2EMDBBXP","both","6","3","1706","","","","","","","0","1","0","0.323699752","0.3148158286","","","","","0.2883225013","0.3148158286","0.2919957672","0.3859803947","0.3053425806","0.323699752","0.1497920091","0.1039390038","","","","","","","","74","J","1","","","137","main_expt"
"","bandit","217","625313","0.0-178.0-0.0","94289434","wem/bandit_double","A3LC6M2EMDBBXP","both","6","3","850","","","","","","","0","0","1","0.3435108126","0.3111523267","","","","","0.3009152141","0.3111523267","0.3193993407","0.358492916","0.3588623722","0.3435108126","0.1128601551","0.07132433681","","","","","","","","74","J","1","","","138","main_expt"
"","bandit","218","627205","0.0-179.0-0.0","94289434","wem/bandit_double","A3LC6M2EMDBBXP","both","6","3","375","","","","","","","0","0","1","0.3505637202","0.3034593298","","","","","0.293720077","0.3034593298","0.3404434035","0.3608756281","0.2762704672","0.3505637202","0.1073604677","0.1047165976","","","","","","","","74","J","1","","","139","main_expt"
"","bandit","219","629181","0.0-180.0-0.0","94289434","wem/bandit_double","A3LC6M2EMDBBXP","both","6","3","459","","","","","","","0","1","0","0.4185251601","0.2507495005","","","","","0.286059761","0.2507495005","0.3278052243","0.3421836092","0.2475753012","0.4185251601","0.1376710563","0.09043849554","","","","","","","","74","J","1","","","140","main_expt"
"","bandit","220","632186","0.0-181.0-0.0","94289434","wem/bandit_double","A3LC6M2EMDBBXP","both","6","3","1465","","","","","","","0","0","1","0.4225289085","0.2220694513","","","","","0.2931724706","0.2220694513","0.3038906839","0.3737340371","0.2436306075","0.4225289085","0.1412662962","0.05096505815","","","","","","","","74","J","1","","","141","main_expt"
"","bandit","221","634762","0.0-182.0-0.0","94289434","wem/bandit_double","A3LC6M2EMDBBXP","both","6","3","1060","","","","","","","0","1","0","0.455259632","0.2119249064","","","","","0.2182180164","0.2119249064","0.2924195757","0.3461121542","0.1998899021","0.455259632","0.1543424817","0.02973759478","","","","","","","","74","J","1","","","142","main_expt"
"","bandit","222","637008","0.0-183.0-0.0","94289434","wem/bandit_double","A3LC6M2EMDBBXP","both","6","3","733","","","","","","","1","1","0","0.4287003803","0.2665135591","","","","","0.2015475508","0.2665135591","0.2816149275","0.3305931074","0.2568100034","0.4287003803","0.1552636118","0.04457260366","","","","","","","","74","J","1","","","143","main_expt"
"","bandit","223","638916","0.0-184.0-0.0","94289434","wem/bandit_double","A3LC6M2EMDBBXP","both","6","3","391","","","","","","","1","0","0","0.4260506414","0.2854155153","","","","","0.2074070562","0.2854155153","0.2355525614","0.3561039987","0.2859833531","0.4260506414","0.2241753426","0.04060115041","","","","","","","","74","J","1","","","144","main_expt"
"","bandit","224","640902","0.0-185.0-0.0","94289434","wem/bandit_double","A3LC6M2EMDBBXP","both","6","3","468","","","","","","","0","0","1","0.4202170594","0.2521048148","","","","","0.1415368311","0.2521048148","0.2185662272","0.3648023512","0.2080640158","0.4202170594","0.2484131349","0.06712401514","","","","","","","","74","J","1","","","145","main_expt"
"","bandit","225","644197","0.0-186.0-0.0","94289434","wem/bandit_double","A3LC6M2EMDBBXP","both","6","3","1778","","","","","","","1","0","0","0.4333226383","0.2321266643","","","","","0.1549520657","0.2321266643","0.2209315791","0.3450315","0.2469639643","0.4333226383","0.2905032103","0.08780921534","","","","","","","","74","J","1","","","146","main_expt"
"","bandit","226","647316","0.0-187.0-0.0","94289434","wem/bandit_double","A3LC6M2EMDBBXP","both","6","3","1603","","","","","","","1","0","0","0.4340954059","0.3159383216","","","","","0.1469310363","0.3159383216","0.2889766311","0.2720321141","0.2169279296","0.4340954059","0.2846703457","0.1333368233","","","","","","","","74","J","1","","","147","main_expt"
"","bandit","227","649540","0.0-188.0-0.0","94289434","wem/bandit_double","A3LC6M2EMDBBXP","both","6","3","708","","","","","","","0","0","1","0.3903754431","0.2673485129","","","","","0.1332828417","0.2673485129","0.2859466156","0.2598972664","0.1248284812","0.3903754431","0.3010433131","0.09264147873","","","","","","","","74","J","1","","","148","main_expt"
"","bandit","228","652588","0.0-189.0-0.0","94289434","wem/bandit_double","A3LC6M2EMDBBXP","both","6","3","1479","","","","","","","1","0","0","0.4161192262","0.3348600541","","","","","0.1102010463","0.3348600541","0.2588478233","0.2343157719","0.1498862571","0.4161192262","0.3421268102","0.123708687","","","","","","","","74","J","1","","","149","main_expt"
"","bandit","229","654697","0.0-190.0-0.0","94289434","wem/bandit_double","A3LC6M2EMDBBXP","both","6","3","594","","","","","","","1","0","0","0.4545257836","0.3659656834","","","","","0.1356103494","0.3659656834","0.2224653457","0.2451363599","0.2044632824","0.4545257836","0.3382865341","0.1087811601","","","","","","","","74","J","1","","","150","main_expt"
"","bandit","230","656902","0.0-191.0-0.0","94289434","wem/bandit_double","A3LC6M2EMDBBXP","both","6","3","690","","","","","","","0","0","1","0.4553704948","0.36397653","","","","","0.1621229287","0.36397653","0.2387237716","0.2053737132","0.1630699797","0.4553704948","0.3031951358","0.1640336927","","","","","","","","74","J","1","","","151","main_expt"
"","bandit","231","659540","0.0-192.0-0.0","94289434","wem/bandit_double","A3LC6M2EMDBBXP","both","6","3","1124","","","","","","","0","0","1","0.4692720684","0.3710672623","","","","","0.1412745606","0.3710672623","0.2519133504","0.2396242378","0.1534962237","0.4692720684","0.3163498213","0.1474195158","","","","","","","","74","J","1","","","152","main_expt"
"","bandit","232","662551","0.0-193.0-0.0","94289434","wem/bandit_double","A3LC6M2EMDBBXP","both","6","3","1491","","","","","","","1","0","0","0.4794448159","0.3828607765","","","","","0.1707580034","0.3828607765","0.3078499427","0.2923277395","0.1506701345","0.4794448159","0.3205280093","0.1200421148","","","","","","","","74","J","1","","","153","main_expt"
"","bandit","233","664883","0.0-194.0-0.0","94289434","wem/bandit_double","A3LC6M2EMDBBXP","both","6","3","819","","","","","","","1","1","0","0.4762011242","0.3526468527","","","","","0.1717455462","0.3526468527","0.3283820497","0.3166515581","0.1810992197","0.4762011242","0.2780981807","0.1295208369","","","","","","","","74","J","1","","","154","main_expt"
"","bandit","234","668200","0.0-195.0-0.0","94289434","wem/bandit_double","A3LC6M2EMDBBXP","both","6","3","1800","","","","","","","1","1","0","0.4797315341","0.3865981945","","","","","0.1785539081","0.3865981945","0.3303057687","0.3194616596","0.2574031695","0.4797315341","0.2543788853","0.1189574303","","","","","","","","74","J","1","","","155","main_expt"
"","bandit","235","669869","0.0-196.0-0.0","94289434","wem/bandit_double","A3LC6M2EMDBBXP","both","6","3","153","","","","","","","0","0","1","0.4815153028","0.4328422877","","","","","0.2175815231","0.4328422877","0.3178912443","0.3767011333","0.1838662476","0.4815153028","0.2601772157","0.1511338071","","","","","","","","74","J","1","","","156","main_expt"
"","bandit","236","671733","0.0-197.0-0.0","94289434","wem/bandit_double","A3LC6M2EMDBBXP","both","6","3","348","","","","","","","0","0","1","0.4769669351","0.4224906378","","","","","0.216674397","0.4224906378","0.3236874272","0.3853144204","0.1951262555","0.4769669351","0.27050514","0.1494559257","","","","","","","","74","J","1","","","157","main_expt"
"","bandit","237","673753","0.0-198.0-0.0","94289434","wem/bandit_double","A3LC6M2EMDBBXP","both","6","3","502","","","","","","","1","0","0","0.4819637572","0.4428847078","","","","","0.2184316938","0.4428847078","0.3731337511","0.3519128793","0.1711173681","0.4819637572","0.2912044809","0.1398300683","","","","","","","","74","J","1","","","158","main_expt"
"","bandit","238","677390","0.0-199.0-0.0","94289434","wem/bandit_double","A3LC6M2EMDBBXP","both","6","3","2120","","","","","","","1","0","0","0.4802617926","0.4498083842","","","","","0.2603966468","0.4498083842","0.3758107074","0.3255157266","0.1262927185","0.4802617926","0.2863852675","0.1482700517","","","","","","","","74","J","1","","","159","main_expt"
"","bandit","239","680231","0.0-200.0-0.0","94289434","wem/bandit_double","A3LC6M2EMDBBXP","both","6","3","1325","","","","","","","1","1","0","0.4834703177","0.4319550234","","","","","0.2242017374","0.4319550234","0.3494215766","0.379238532","0.1289005464","0.4834703177","0.3188379944","0.1327856751","","","","","","","","74","J","1","","","160","main_expt"
"","bandit","240","682767","0.0-201.0-0.0","94289434","wem/bandit_double","A3LC6M2EMDBBXP","both","6","3","1020","","","","","","","0","1","0","0.4783639554","0.4417514389","","","","","0.2014027125","0.4417514389","0.3327111917","0.3776335756","0.07062595825","0.4783639554","0.3918259889","0.1936248495","","","","","","","","74","J","1","","","161","main_expt"
"","bandit","241","684740","0.0-202.0-0.0","94289434","wem/bandit_double","A3LC6M2EMDBBXP","both","6","3","457","","","","","","","1","1","0","0.4702379588","0.4081293495","","","","","0.2038621466","0.4081293495","0.3171011618","0.2955751891","0.08554885259","0.4702379588","0.3825352776","0.1917288119","","","","","","","","74","J","1","","","162","main_expt"
"","bandit","242","686955","0.0-203.0-0.0","94289434","wem/bandit_double","A3LC6M2EMDBBXP","both","6","3","701","","","","","","","1","0","0","0.4761999765","0.4265776113","","","","","0.1238136799","0.4265776113","0.364183239","0.30851492","0.05790820845","0.4761999765","0.3500114378","0.2410074379","","","","","","","","74","J","1","","","163","main_expt"
"","bandit","243","689241","0.0-204.0-0.0","94289434","wem/bandit_double","A3LC6M2EMDBBXP","both","6","3","775","","","","","","","1","0","0","0.4683988395","0.427472809","","","","","0.1104941302","0.427472809","0.3917374524","0.3074756362","0.04744410613","0.4683988395","0.3138306729","0.2717164652","","","","","","","","74","J","1","","","164","main_expt"
"","bandit","244","691620","0.0-205.0-0.0","94289434","wem/bandit_double","A3LC6M2EMDBBXP","both","6","3","865","","","","","","","0","0","1","0.4594806004","0.4016343469","","","","","0.1099358877","0.4016343469","0.3629360172","0.2743039079","0.07721988326","0.4594806004","0.3066591237","0.3360488911","","","","","","","","74","J","1","","","165","main_expt"
"","bandit","245","693752","0.0-206.0-0.0","94289434","wem/bandit_double","A3LC6M2EMDBBXP","both","6","3","619","","","","","","","1","0","0","0.4769271284","0.3578169927","","","","","0.08082918558","0.3578169927","0.3697042915","0.2900226329","0.09276645858","0.4769271284","0.359337808","0.3288768439","","","","","","","","74","J","1","","","166","main_expt"
"","bandit","246","696812","0.0-207.0-0.0","94289434","wem/bandit_double","A3LC6M2EMDBBXP","both","6","3","1545","","","","","","","0","0","1","0.4824675089","0.3346076013","","","","","0.08539074978","0.3346076013","0.3626443337","0.3444017494","0.1092251717","0.4824675089","0.3888119778","0.341079324","","","","","","","","74","J","1","","","167","main_expt"
"","bandit","247","698945","0.0-208.0-0.0","94289434","wem/bandit_double","A3LC6M2EMDBBXP","both","6","3","618","","","","","","","0","1","0","0.4731218304","0.36326211","","","","","0.1307687804","0.36326211","0.3488380128","0.3934904689","0.09704797424","0.4731218304","0.3188253523","0.2972081376","","","","","","","","74","J","1","","","168","main_expt"
"","bandit","248","700976","0.0-209.0-0.0","94289434","wem/bandit_double","A3LC6M2EMDBBXP","both","6","3","514","","","","","","","0","1","0","0.4558692975","0.3389060657","","","","","0.09435724838","0.3389060657","0.3338465455","0.3712778229","0.1131958007","0.4558692975","0.3035082617","0.2716537329","","","","","","","","74","J","1","","","169","main_expt"
"","bandit","249","702843","0.0-210.0-0.0","94289434","wem/bandit_double","A3LC6M2EMDBBXP","both","6","3","349","","","","","","","0","1","0","0.424927817","0.3820287301","","","","","0.09371103674","0.3820287301","0.3675902536","0.3348119161","0.1636150477","0.424927817","0.3540810543","0.3705489528","","","","","","","","74","J","1","","","170","main_expt"
"","bandit","250","704781","0.0-211.0-0.0","94289434","wem/bandit_double","A3LC6M2EMDBBXP","both","6","3","422","","","","","","","0","1","0","0.4254050478","0.3738350687","","","","","0.0912992704","0.3738350687","0.3663425941","0.3697689907","0.1889182236","0.4254050478","0.2912941695","0.3259531709","","","","","","","","74","J","1","","","171","main_expt"
"","bandit","251","706616","0.0-212.0-0.0","94289434","wem/bandit_double","A3LC6M2EMDBBXP","both","6","3","315","","","","","","","0","1","0","0.4319935488","0.3449486646","","","","","0.1053216192","0.3449486646","0.3571019768","0.3438364448","0.1494540944","0.4319935488","0.2964718019","0.3253578443","","","","","","","","74","J","1","","","172","main_expt"
"","bandit","252","708440","0.0-213.0-0.0","94289434","wem/bandit_double","A3LC6M2EMDBBXP","both","6","3","308","","","","","","","0","0","1","0.1700291406","0.1119971747","","","","","0.1119971747","0.3754463001","0.383943734","0.4064517123","0.1700291406","0.4157756128","0.2411205861","0.3133285256","","","","","","","","72","H","0","img/none_selected.jpg","","173","main_expt"
"","bandit","253","710328","0.0-214.0-0.0","94289434","wem/bandit_double","A3LC6M2EMDBBXP","both","6","3","373","","","","","","","1","0","0","0.2132737127","0.378453819","","","","","0.1049574405","0.3983783957","0.378453819","0.4266345201","0.2007600912","0.3650518631","0.2132737127","0.3470844982","","","","","","","","75","K","2","","","174","main_expt"
"","bandit","254","712330","0.0-215.0-0.0","94289434","wem/bandit_double","A3LC6M2EMDBBXP","both","6","3","485","","","","","","","0","0","1","0.2722172758","0.3577460836","","","","","0.07351671593","0.4176958341","0.3577460836","0.4413212306","0.1613291475","0.3583375904","0.2722172758","0.3615725976","","","","","","","","75","K","2","","","175","main_expt"
"","bandit","255","714200","0.0-216.0-0.0","94289434","wem/bandit_double","A3LC6M2EMDBBXP","both","6","3","353","","","","","","","1","1","0","0.3158297255","0.3346789668","","","","","0.06097876817","0.4336280271","0.3346789668","0.438548454","0.1618540135","0.3849487833","0.3158297255","0.3592449917","","","","","","","","75","K","2","","","176","main_expt"
"","bandit","256","716068","0.0-217.0-0.0","94289434","wem/bandit_double","A3LC6M2EMDBBXP","both","6","3","350","","","","","","","0","1","0","0.3033070912","0.3720341948","","","","","0.05873143133","0.3863917124","0.3720341948","0.4350726265","0.1337509382","0.3741193846","0.3033070912","0.3614776984","","","","","","","","75","K","2","","","177","main_expt"
"","bandit","257","718009","0.0-218.0-0.0","94289434","wem/bandit_double","A3LC6M2EMDBBXP","both","6","3","425","","","","","","","0","1","0","0.3070990366","0.4243236705","","","","","0.07829718294","0.3826512014","0.4243236705","0.4029859975","0.172909152","0.3704436283","0.3070990366","0.4042649322","","","","","","","","75","K","2","","","178","main_expt"
"","bandit","258","720306","0.0-219.0-0.0","94289434","wem/bandit_double","A3LC6M2EMDBBXP","both","6","3","781","","","","","","","1","0","0","0.349206168","0.4396564102","","","","","0.05868413977","0.3681046487","0.4396564102","0.3738585124","0.2306318455","0.3718647044","0.349206168","0.3626499081","","","","","","","","75","K","2","","","179","main_expt"
"","bandit","259","722487","0.0-220.0-0.0","94289434","wem/bandit_double","A3LC6M2EMDBBXP","both","6","3","666","","","","","","","0","0","1","0.3533593609","0.4501825932","","","","","0.04540529238","0.374340785","0.4501825932","0.3884150149","0.2531752843","0.3144845341","0.3533593609","0.365831292","","","","","","","","75","K","2","","","180","main_expt"
"","bandit","260","724788","0.0-221.0-0.0","94289434","wem/bandit_double","A3LC6M2EMDBBXP","both","6","3","788","","","","","","","1","0","0","0.3792633926","0.4527537228","","","","","0.04810206047","0.3844034803","0.4527537228","0.3977335033","0.2995137733","0.3328992573","0.3792633926","0.3720079561","","","","","","","","75","K","2","","","181","main_expt"
"","bandit","261","726677","0.0-222.0-0.0","94289434","wem/bandit_double","A3LC6M2EMDBBXP","both","6","3","374","","","","","","","0","1","0","0.4170401524","0.4733821952","","","","","0.0564969073","0.3569363444","0.4733821952","0.4194204302","0.2818604164","0.3443004049","0.4170401524","0.3747751333","","","","","","","","75","K","2","","","182","main_expt"
"","bandit","262","728923","0.0-223.0-0.0","94289434","wem/bandit_double","A3LC6M2EMDBBXP","both","6","3","731","","","","","","","1","1","0","0.4349898381","0.4741352064","","","","","0.06674959941","0.3930074682","0.4741352064","0.4050300101","0.2706787236","0.3572445505","0.4349898381","0.3772869326","","","","","","","","75","K","2","","","183","main_expt"
"","bandit","263","731131","0.0-224.0-0.0","94289434","wem/bandit_double","A3LC6M2EMDBBXP","both","6","3","695","","","","","","","0","1","0","0.4355724899","0.4835015011","","","","","0.05730522946","0.4105724965","0.4835015011","0.4272992256","0.2788381055","0.358140682","0.4355724899","0.3719200221","","","","","","","","75","K","2","","","184","main_expt"
"","bandit","264","733002","0.0-225.0-0.0","94289434","wem/bandit_double","A3LC6M2EMDBBXP","both","6","3","352","","","","","","","1","0","0","0.443517249","0.4907566516","","","","","0.0759668512","0.4230276401","0.4907566516","0.4213026748","0.2591604306","0.2938856532","0.443517249","0.3759280431","","","","","","","","75","K","2","","","185","main_expt"
"","bandit","265","736408","0.0-226.0-0.0","94289434","wem/bandit_double","A3LC6M2EMDBBXP","both","6","3","1886","","","","","","","0","1","0","0.4185550765","0.4777100538","","","","","0.0736669194","0.4243078066","0.4777100538","0.3729626057","0.1717283936","0.2570442146","0.4185550765","0.3686405037","","","","","","","","75","K","2","","","186","main_expt"
"","bandit","266","738350","0.0-227.0-0.0","94289434","wem/bandit_double","A3LC6M2EMDBBXP","both","6","3","423","","","","","","","1","0","0","0.4582246802","0.4751658893","","","","","0.1020870739","0.419104652","0.4751658893","0.4022080601","0.1399016055","0.2781151114","0.4582246802","0.3693778387","","","","","","","","75","K","2","","","187","main_expt"
"","bandit","267","740528","0.0-228.0-0.0","94289434","wem/bandit_double","A3LC6M2EMDBBXP","both","6","3","664","","","","","","","0","0","1","0.4499637214","0.4711403756","","","","","0.110066606","0.3917910895","0.4711403756","0.4218987807","0.116743447","0.2510368257","0.4499637214","0.3858781765","","","","","","","","75","K","2","","","188","main_expt"
"","bandit","268","742653","0.0-229.0-0.0","94289434","wem/bandit_double","A3LC6M2EMDBBXP","both","6","3","609","","","","","","","0","1","0","0.4681283031","0.4848283219","","","","","0.1616324423","0.3696037293","0.4848283219","0.4284519853","0.09810356538","0.2299291889","0.4681283031","0.353665234","","","","","","","","75","K","2","","","189","main_expt"
"","bandit","269","744804","0.0-230.0-0.0","94289434","wem/bandit_double","A3LC6M2EMDBBXP","both","6","3","635","","","","","","","0","1","0","0.4672384316","0.4906713727","","","","","0.1401199573","0.3722688899","0.4906713727","0.4104863902","0.1333212727","0.2957770397","0.4672384316","0.3702546744","","","","","","","","75","K","2","","","190","main_expt"
"","bandit","270","746671","0.0-231.0-0.0","94289434","wem/bandit_double","A3LC6M2EMDBBXP","both","6","3","351","","","","","","","1","0","0","0.4633056668","0.4944082075","","","","","0.1782786715","0.3956575009","0.4944082075","0.4071825693","0.07289491444","0.2806998676","0.4633056668","0.3373283559","","","","","","","","75","K","2","","","191","main_expt"
"","bandit","271","748587","0.0-232.0-0.0","94289434","wem/bandit_double","A3LC6M2EMDBBXP","both","6","3","396","","","","","","","1","1","0","0.4701423021","0.4922337742","","","","","0.203517815","0.3843500594","0.4922337742","0.4172763132","0.09060717316","0.2578649702","0.4701423021","0.3717228864","","","","","","","","75","K","2","","","192","main_expt"
"","bandit","272","750135","0.0-233.0-0.0","94289434","wem/bandit_double","A3LC6M2EMDBBXP","both","6","3","30","","","","","","","1","1","0","0.4625827917","0.4887356563","","","","","0.172030281","0.3801723293","0.4887356563","0.3965334946","0.1038106097","0.3019093773","0.4625827917","0.3861484819","","","","","","","","75","K","2","","","193","main_expt"
"","bandit","273","753325","0.0-234.0-0.0","94289434","wem/bandit_double","A3LC6M2EMDBBXP","both","6","3","1671","","","","","","","1","0","0","0.4480064119","0.4850955297","","","","","0.1813301739","0.3871645121","0.4850955297","0.383316574","0.1222204007","0.3028603149","0.4480064119","0.3884838939","","","","","","","","75","K","2","","","194","main_expt"
"","bandit","274","756841","0.0-235.0-0.0","94289434","wem/bandit_double","A3LC6M2EMDBBXP","both","6","3","1995","","","","","","","1","0","0","0.4263193963","0.4848341758","","","","","0.2284295163","0.3633903175","0.4848341758","0.3965345796","0.1230179676","0.2933095063","0.4263193963","0.4058549971","","","","","","","","75","K","2","","","195","main_expt"
"","bandit","275","760575","0.0-236.0-0.0","94289434","wem/bandit_double","A3LC6M2EMDBBXP","both","6","3","2214","","","","","","","1","0","0","0.4399191733","0.490049139","","","","","0.2501246714","0.3811675741","0.490049139","0.3978469093","0.1972068901","0.3333663608","0.4399191733","0.3894648227","","","","","","","","75","K","2","","","196","main_expt"
"","bandit","276","762533","0.0-237.0-0.0","94289434","wem/bandit_double","A3LC6M2EMDBBXP","both","6","3","440","","","","","","","1","1","0","0.4303685687","0.4912643012","","","","","0.3150809007","0.3487868089","0.4912643012","0.3172926233","0.2091218652","0.3472763543","0.4303685687","0.3452919481","","","","","","","","75","K","2","","","197","main_expt"
"","bandit","277","766234","0.0-238.0-0.0","94289434","wem/bandit_double","A3LC6M2EMDBBXP","both","6","3","2181","","","","","","","0","0","1","0.4166638701","0.4793615714","","","","","0.3442077965","0.2986771554","0.4793615714","0.3113170709","0.2316117542","0.3420385624","0.4166638701","0.3571156804","","","","","","","","75","K","2","","","198","main_expt"
"","bandit","278","768442","0.0-239.0-0.0","94289434","wem/bandit_double","A3LC6M2EMDBBXP","both","6","3","691","","","","","","","1","0","0","0.4166192342","0.4661622676","","","","","0.3675051223","0.3481418533","0.4661622676","0.3066116159","0.1983173389","0.3009927129","0.4166192342","0.3761278261","","","","","","","","75","K","2","","","199","main_expt"
"","bandit","279","772744","0.0-240.0-0.0","94289434","wem/bandit_double","A3LC6M2EMDBBXP","both","6","3","2763","","","","","","","0","1","0","0.4065109498","0.4479238565","","","","","0.3044821291","0.353319573","0.4479238565","0.2521122026","0.2275108597","0.2834367318","0.4065109498","0.3623939384","","","","","","","","75","K","2","","","200","main_expt"
"","bandit","280","774735","0.0-241.0-0.0","94289434","wem/bandit_double","A3LC6M2EMDBBXP","both","6","3","475","","","","","","","1","1","0","0.4210367682","0.4429166455","","","","","0.3013824411","0.3676338631","0.4429166455","0.2679963248","0.2753755663","0.2305195973","0.4210367682","0.3470966653","","","","","","","","75","K","2","","","201","main_expt"
"","bandit","281","776600","0.0-242.0-0.0","94289434","wem/bandit_double","A3LC6M2EMDBBXP","both","6","3","349","","","","","","","1","0","0","0.4059774394","0.442820363","","","","","0.3001954661","0.311657493","0.442820363","0.2076546236","0.2867984519","0.236439039","0.4059774394","0.3738670455","","","","","","","","75","K","2","","","202","main_expt"
"","bandit","282","779568","0.0-243.0-0.0","94289434","wem/bandit_double","A3LC6M2EMDBBXP","both","6","3","1450","","","","","","","1","1","0","0.4217634448","0.4539008368","","","","","0.3189156814","0.3364041998","0.4539008368","0.1881707852","0.227681123","0.207292508","0.4217634448","0.4434414113","","","","","","","","75","K","2","","","203","main_expt"
"","bandit","283","781921","0.0-244.0-0.0","94289434","wem/bandit_double","A3LC6M2EMDBBXP","both","6","3","838","","","","","","","0","1","0","0.417590799","0.4163307037","","","","","0.3162062407","0.3148670147","0.4163307037","0.2057853427","0.2421814767","0.2706274655","0.417590799","0.4363530878","","","","","","","","75","K","2","","","204","main_expt"
"","bandit","284","784805","0.0-245.0-0.0","94289434","wem/bandit_double","A3LC6M2EMDBBXP","both","6","3","1368","","","","","","","1","1","0","0.3892328218","0.4045388199","","","","","0.347278619","0.3293187519","0.4045388199","0.2564451259","0.2250127273","0.2688171721","0.3892328218","0.4390009565","","","","","","","","75","K","2","","","205","main_expt"
"","bandit","285","791767","0.0-246.0-0.0","94289434","wem/bandit_double","A3LC6M2EMDBBXP","both","6","3","5446","","","","","","","1","0","0","0.3877758809","0.4083422121","","","","","0.2970129147","0.2705077244","0.4083422121","0.3082896296","0.2148063869","0.2774640617","0.3877758809","0.4606838579","","","","","","","","75","K","2","","","206","main_expt"
"","bandit","286","793697","0.0-247.0-0.0","94289434","wem/bandit_double","A3LC6M2EMDBBXP","both","6","3","414","","","","","","","0","1","0","0.3344078408","0.4033585138","","","","","0.3331481178","0.3083591011","0.4033585138","0.3235103938","0.2370073307","0.31303597","0.3344078408","0.4679198071","","","","","","","","75","K","2","","","207","main_expt"
"","bandit","287","795557","0.0-248.0-0.0","94289434","wem/bandit_double","A3LC6M2EMDBBXP","both","6","3","343","","","","","","","0","0","1","0.3285414067","0.3753320851","","","","","0.3195917859","0.2489273718","0.3753320851","0.3563539536","0.1736764344","0.3187850143","0.3285414067","0.4731710197","","","","","","","","75","K","2","","","208","main_expt"
"","bandit","288","797188","0.0-249.0-0.0","94289434","wem/bandit_double","A3LC6M2EMDBBXP","both","6","3","113","","","","","","","0","0","1","0.337659841","0.3864970555","","","","","0.3642345195","0.2224321457","0.3864970555","0.3821305916","0.2033963155","0.3031297305","0.337659841","0.472507437","","","","","","","","75","K","2","","","209","main_expt"
"","bandit","289","799247","0.0-250.0-0.0","94289434","wem/bandit_double","A3LC6M2EMDBBXP","both","6","3","544","","","","","","","0","0","1","0.322880172","0.3894881908","","","","","0.3518797164","0.2184729634","0.3894881908","0.4067483812","0.1849029676","0.3593083662","0.322880172","0.4759946166","","","","","","","","75","K","2","","","210","main_expt"
"","bandit","290","801186","0.0-251.0-0.0","94289434","wem/bandit_double","A3LC6M2EMDBBXP","both","6","3","420","","","","","","","0","1","0","0.3440981268","0.4052823736","","","","","0.3781537602","0.2178464352","0.4052823736","0.376825818","0.08033524441","0.3758292662","0.3440981268","0.4838002785","","","","","","","","75","K","2","","","211","main_expt"
"","bandit","291","804220","0.0-252.0-0.0","94289434","wem/bandit_double","A3LC6M2EMDBBXP","both","6","3","1514","","","","","","","0","0","1","0.3135232579","0.3783189977","","","","","0.3773353051","0.1644702768","0.3783189977","0.3481764155","0.1024936548","0.3771764803","0.3135232579","0.4871609062","","","","","","","","75","K","2","","","212","main_expt"
"","bandit","292","806800","0.0-253.0-0.0","94289434","wem/bandit_double","A3LC6M2EMDBBXP","both","6","3","1059","","","","","","","0","0","1","0.328558382","0.3804187243","","","","","0.3448860985","0.1271660564","0.3804187243","0.3239198888","0.1380366818","0.3935517348","0.328558382","0.4829725273","","","","","","","","75","K","2","","","213","main_expt"
"","bandit","293","809257","0.0-254.0-0.0","94289434","wem/bandit_double","A3LC6M2EMDBBXP","both","6","3","939","","","","","","","1","1","0","0.3024402918","0.3964056757","","","","","0.3622000499","0.1368129038","0.3964056757","0.3592643085","0.1206441992","0.3792377037","0.3024402918","0.4742933803","","","","","","","","75","K","2","","","214","main_expt"
"","bandit","294","812487","0.0-255.0-0.0","94289434","wem/bandit_double","A3LC6M2EMDBBXP","both","6","3","1712","","","","","","","1","0","0","0.3024001881","0.3939862607","","","","","0.3408682726","0.07615368859","0.3939862607","0.3482739819","0.1320715796","0.3364308411","0.3024001881","0.4754417465","","","","","","","","75","K","2","","","215","main_expt"
