"consent","trial_type","trial_index","time_elapsed","internal_node_id","subjID","study","MID","cond","drift1","drift2","rt","responses","key_press","expt_phase","like","value","connected","gems","bombs","no_reward","GemPrChosen","BombPrChosen","GainOverPainPr_0","GainOverPainPr_1","GainOverPainPr_2","GainOverPainPr_3","LosePr_0","LosePr_1","LosePr_2","LosePr_3","WinPr_0","WinPr_1","WinPr_2","WinPr_3","Q0","Q1","Q2","gender","age","ethnicity","target","respCharCode","respKey","respChoiceNum","respChoice","practice","trial_counter","trial_label"
"INL_behavioral_consent_30min_online.html","consent","0","7324","0.0-0.0","99329280","wem/bandit_double","A256FHXGSY0E5D","both","4","5","","","","","","","","","","","","","","","","","","","","","","","","","","","","","","","","","","","","","",""
"","survey-text","1","255185","0.0-1.0","99329280","wem/bandit_double","A256FHXGSY0E5D","both","4","5","246852","{""Q0"":""A256FHXGSY0E5D""}","","","","","","","","","","","","","","","","","","","","","","","","","","","","","","","","","","","",""
"","text","2","295538","0.0-2.0","99329280","wem/bandit_double","A256FHXGSY0E5D","both","4","5","39349","","32","","","","","","","","","","","","","","","","","","","","","","","","","","","","","","","","","","",""
"","text","3","317819","0.0-3.0","99329280","wem/bandit_double","A256FHXGSY0E5D","both","4","5","22277","","32","","","","","","","","","","","","","","","","","","","","","","","","","","","","","","","","","","",""
"","text","4","330391","0.0-4.0","99329280","wem/bandit_double","A256FHXGSY0E5D","both","4","5","12570","","32","","","","","","","","","","","","","","","","","","","","","","","","","","","","","","","","","","",""
"","text","5","347428","0.0-5.0","99329280","wem/bandit_double","A256FHXGSY0E5D","both","4","5","17036","","32","","","","","","","","","","","","","","","","","","","","","","","","","","","","","","","","","","",""
"","text","6","362690","0.0-6.0","99329280","wem/bandit_double","A256FHXGSY0E5D","both","4","5","15261","","32","","","","","","","","","","","","","","","","","","","","","","","","","","","","","","","","","","",""
"","text","7","368387","0.0-7.0","99329280","wem/bandit_double","A256FHXGSY0E5D","both","4","5","5695","","32","","","","","","","","","","","","","","","","","","","","","","","","","","","","","","","","","","",""
"","identification","8","376640","0.0-8.0-0.0","99329280","wem/bandit_double","A256FHXGSY0E5D","both","4","5","8243","","","","5","6","4","","","","","","","","","","","","","","","","","","","","","","","","the village of Zur","","","","","","",""
"","identification","9","383167","0.0-8.0-1.0","99329280","wem/bandit_double","A256FHXGSY0E5D","both","4","5","5516","","","","0","0","0","","","","","","","","","","","","","","","","","","","","","","","","the village of Nyx","","","","","","",""
"","text","10","389054","0.0-9.0","99329280","wem/bandit_double","A256FHXGSY0E5D","both","4","5","4883","","32","","","","","","","","","","","","","","","","","","","","","","","","","","","","","","","","","","",""
"","text","11","391727","0.0-10.0","99329280","wem/bandit_double","A256FHXGSY0E5D","both","4","5","2672","","32","","","","","","","","","","","","","","","","","","","","","","","","","","","","","","","","","","",""
"","text","12","393503","0.0-11.0","99329280","wem/bandit_double","A256FHXGSY0E5D","both","4","5","1775","","32","","","","","","","","","","","","","","","","","","","","","","","","","","","","","","","","","","",""
"","text","13","395014","0.0-12.0","99329280","wem/bandit_double","A256FHXGSY0E5D","both","4","5","1510","","32","","","","","","","","","","","","","","","","","","","","","","","","","","","","","","","","","","",""
"","text","14","402219","0.0-13.0","99329280","wem/bandit_double","A256FHXGSY0E5D","both","4","5","7205","","32","","","","","","","","","","","","","","","","","","","","","","","","","","","","","","","","","","",""
"","bandit","15","405635","0.0-14.0-0.0","99329280","wem/bandit_double","A256FHXGSY0E5D","both","4","5","1909","","","","","","","1","0","0","1","0","","","","","0","","","","1","","","","","","","","","","","74","J","0","img/none_selected_demo.jpg","true","0",""
"","bandit","16","407966","0.0-15.0-0.0","99329280","wem/bandit_double","A256FHXGSY0E5D","both","4","5","827","","","","","","","0","1","0","0","1","","","","","1","","","","0","","","","","","","","","","","75","K","0","img/none_selected_demo.jpg","true","0",""
"","text","17","413726","0.0-16.0","99329280","wem/bandit_double","A256FHXGSY0E5D","both","4","5","5758","","32","","","","","","","","","","","","","","","","","","","","","","","","","","","","","","","","","","",""
"","text","18","420859","0.0-17.0","99329280","wem/bandit_double","A256FHXGSY0E5D","both","4","5","7132","","32","","","","","","","","","","","","","","","","","","","","","","","","","","","","","","","","","","",""
"","text","19","426493","0.0-18.0","99329280","wem/bandit_double","A256FHXGSY0E5D","both","4","5","5633","","32","","","","","","","","","","","","","","","","","","","","","","","","","","","","","","","","","","",""
"","text","20","430202","0.0-19.0","99329280","wem/bandit_double","A256FHXGSY0E5D","both","4","5","3708","","32","","","","","","","","","","","","","","","","","","","","","","","","","","","","","","","","","","",""
"","bandit","21","432210","0.0-20.0-0.0","99329280","wem/bandit_double","A256FHXGSY0E5D","both","4","5","502","","","","","","","1","0","0","0.8","0","","","","","0","0","","","0.8","0.2","","","","","","","","","","74","J","0","img/none_selected_demo.jpg","true","0","80_20_practice"
"","bandit","22","434175","0.0-20.0-1.0","99329280","wem/bandit_double","A256FHXGSY0E5D","both","4","5","461","","","","","","","1","0","0","0.8","0","","","","","0","0","","","0.8","0.2","","","","","","","","","","74","J","0","img/none_selected_demo.jpg","true","0","80_20_practice"
"","bandit","23","435909","0.0-20.0-2.0","99329280","wem/bandit_double","A256FHXGSY0E5D","both","4","5","229","","","","","","","0","0","1","0.2","0","","","","","0","0","","","0.8","0.2","","","","","","","","","","75","K","1","","true","0","80_20_practice"
"","bandit","24","437725","0.0-20.0-3.0","99329280","wem/bandit_double","A256FHXGSY0E5D","both","4","5","311","","","","","","","1","0","0","0.8","0","","","","","0","0","","","0.8","0.2","","","","","","","","","","74","J","0","img/none_selected_demo.jpg","true","0","80_20_practice"
"","bandit","25","439452","0.0-20.0-4.0","99329280","wem/bandit_double","A256FHXGSY0E5D","both","4","5","222","","","","","","","1","0","0","0.8","0","","","","","0","0","","","0.8","0.2","","","","","","","","","","74","J","0","img/none_selected_demo.jpg","true","0","80_20_practice"
"","bandit","26","441174","0.0-20.0-5.0","99329280","wem/bandit_double","A256FHXGSY0E5D","both","4","5","217","","","","","","","1","0","0","0.8","0","","","","","0","0","","","0.8","0.2","","","","","","","","","","74","J","0","img/none_selected_demo.jpg","true","0","80_20_practice"
"","bandit","27","442970","0.0-20.0-6.0","99329280","wem/bandit_double","A256FHXGSY0E5D","both","4","5","290","","","","","","","1","0","0","0.8","0","","","","","0","0","","","0.8","0.2","","","","","","","","","","74","J","0","img/none_selected_demo.jpg","true","0","80_20_practice"
"","bandit","28","444813","0.0-20.0-7.0","99329280","wem/bandit_double","A256FHXGSY0E5D","both","4","5","337","","","","","","","0","0","1","0.8","0","","","","","0","0","","","0.8","0.2","","","","","","","","","","74","J","0","img/none_selected_demo.jpg","true","0","80_20_practice"
"","bandit","29","447107","0.0-20.0-8.0","99329280","wem/bandit_double","A256FHXGSY0E5D","both","4","5","788","","","","","","","1","0","0","0.8","0","","","","","0","0","","","0.8","0.2","","","","","","","","","","74","J","0","img/none_selected_demo.jpg","true","0","80_20_practice"
"","bandit","30","449011","0.0-20.0-9.0","99329280","wem/bandit_double","A256FHXGSY0E5D","both","4","5","399","","","","","","","1","0","0","0.8","0","","","","","0","0","","","0.8","0.2","","","","","","","","","","74","J","0","img/none_selected_demo.jpg","true","0","80_20_practice"
"","bandit","31","450849","0.0-20.0-10.0","99329280","wem/bandit_double","A256FHXGSY0E5D","both","4","5","332","","","","","","","1","0","0","0.8","0","","","","","0","0","","","0.8","0.2","","","","","","","","","","74","J","0","img/none_selected_demo.jpg","true","0","80_20_practice"
"","bandit","32","452881","0.0-20.0-11.0","99329280","wem/bandit_double","A256FHXGSY0E5D","both","4","5","528","","","","","","","1","0","0","0.8","0","","","","","0","0","","","0.8","0.2","","","","","","","","","","74","J","0","img/none_selected_demo.jpg","true","0","80_20_practice"
"","bandit","33","455320","0.0-20.0-12.0","99329280","wem/bandit_double","A256FHXGSY0E5D","both","4","5","932","","","","","","","0","0","1","0.8","0","","","","","0","0","","","0.8","0.2","","","","","","","","","","74","J","0","img/none_selected_demo.jpg","true","0","80_20_practice"
"","bandit","34","457228","0.0-20.0-13.0","99329280","wem/bandit_double","A256FHXGSY0E5D","both","4","5","403","","","","","","","1","0","0","0.8","0","","","","","0","0","","","0.8","0.2","","","","","","","","","","74","J","0","img/none_selected_demo.jpg","true","0","80_20_practice"
"","bandit","35","458936","0.0-20.0-14.0","99329280","wem/bandit_double","A256FHXGSY0E5D","both","4","5","203","","","","","","","1","0","0","0.8","0","","","","","0","0","","","0.8","0.2","","","","","","","","","","74","J","0","img/none_selected_demo.jpg","true","0","80_20_practice"
"","bandit","36","461379","0.0-20.0-15.0","99329280","wem/bandit_double","A256FHXGSY0E5D","both","4","5","936","","","","","","","0","0","1","0.8","0","","","","","0","0","","","0.8","0.2","","","","","","","","","","74","J","0","img/none_selected_demo.jpg","true","0","80_20_practice"
"","bandit","37","466166","0.0-20.0-16.0","99329280","wem/bandit_double","A256FHXGSY0E5D","both","4","5","3281","","","","","","","1","0","0","0.8","0","","","","","0","0","","","0.8","0.2","","","","","","","","","","74","J","0","img/none_selected_demo.jpg","true","0","80_20_practice"
"","bandit","38","467966","0.0-20.0-17.0","99329280","wem/bandit_double","A256FHXGSY0E5D","both","4","5","295","","","","","","","0","0","1","0.8","0","","","","","0","0","","","0.8","0.2","","","","","","","","","","74","J","0","img/none_selected_demo.jpg","true","0","80_20_practice"
"","bandit","39","469718","0.0-20.0-18.0","99329280","wem/bandit_double","A256FHXGSY0E5D","both","4","5","242","","","","","","","0","0","1","0.8","0","","","","","0","0","","","0.8","0.2","","","","","","","","","","74","J","0","img/none_selected_demo.jpg","true","0","80_20_practice"
"","bandit","40","471493","0.0-20.0-19.0","99329280","wem/bandit_double","A256FHXGSY0E5D","both","4","5","259","","","","","","","1","0","0","0.8","0","","","","","0","0","","","0.8","0.2","","","","","","","","","","74","J","0","img/none_selected_demo.jpg","true","0","80_20_practice"
"","text","41","474208","0.0-21.0","99329280","wem/bandit_double","A256FHXGSY0E5D","both","4","5","2714","","32","","","","","","","","","","","","","","","","","","","","","","","","","","","","","","","","","","",""
"","bandit","42","476868","0.0-22.0-0.0","99329280","wem/bandit_double","A256FHXGSY0E5D","both","4","5","1156","","","","","","","1","0","0","1","0","","","","","0","1","","","1","0","","","","","","","","","","74","J","0","img/none_selected_demo.jpg","true","0",""
"","text","43","482363","0.0-23.0","99329280","wem/bandit_double","A256FHXGSY0E5D","both","4","5","5494","","32","","","","","","","","","","","","","","","","","","","","","","","","","","","","","","","","","","",""
"","text","44","484892","0.0-24.0","99329280","wem/bandit_double","A256FHXGSY0E5D","both","4","5","2527","","32","","","","","","","","","","","","","","","","","","","","","","","","","","","","","","","","","","",""
"","text","45","486274","0.0-25.0","99329280","wem/bandit_double","A256FHXGSY0E5D","both","4","5","1380","","32","","","","","","","","","","","","","","","","","","","","","","","","","","","","","","","","","","",""
"","text","46","488720","0.0-26.0","99329280","wem/bandit_double","A256FHXGSY0E5D","both","4","5","2445","","32","","","","","","","","","","","","","","","","","","","","","","","","","","","","","","","","","","",""
"","text","47","490823","0.0-27.0","99329280","wem/bandit_double","A256FHXGSY0E5D","both","4","5","2101","","32","","","","","","","","","","","","","","","","","","","","","","","","","","","","","","","","","","",""
"","text","48","500204","0.0-28.0","99329280","wem/bandit_double","A256FHXGSY0E5D","both","4","5","9380","","32","","","","","","","","","","","","","","","","","","","","","","","","","","","","","","","","","","",""
"","text","49","505266","0.0-29.0","99329280","wem/bandit_double","A256FHXGSY0E5D","both","4","5","5060","","32","","","","","","","","","","","","","","","","","","","","","","","","","","","","","","","","","","",""
"","text","50","508447","0.0-30.0","99329280","wem/bandit_double","A256FHXGSY0E5D","both","4","5","3179","","32","","","","","","","","","","","","","","","","","","","","","","","","","","","","","","","","","","",""
"","text","51","511234","0.0-31.0","99329280","wem/bandit_double","A256FHXGSY0E5D","both","4","5","2785","","32","","","","","","","","","","","","","","","","","","","","","","","","","","","","","","","","","","",""
"","text","52","514742","0.0-32.0","99329280","wem/bandit_double","A256FHXGSY0E5D","both","4","5","3508","","32","","","","","","","","","","","","","","","","","","","","","","","","","","","","","","","","","","",""
"","text","53","516403","0.0-33.0","99329280","wem/bandit_double","A256FHXGSY0E5D","both","4","5","1658","","32","","","","","","","","","","","","","","","","","","","","","","","","","","","","","","","","","","",""
"","text","54","519675","0.0-34.0","99329280","wem/bandit_double","A256FHXGSY0E5D","both","4","5","3269","","32","","","","","","","","","","","","","","","","","","","","","","","","","","","","","","","","","","",""
"","bandit","55","521739","0.0-35.0-0.0","99329280","wem/bandit_double","A256FHXGSY0E5D","both","4","5","530","","","","","","","1","0","0","0.8","0.8","","","","","0.8","0.2","0.6","0.2","0.8","0.2","0.6","0.2","","","","","","","","72","H","0","img/none_selected.jpg","true","0","full_practice"
"","bandit","56","523562","0.0-35.0-1.0","99329280","wem/bandit_double","A256FHXGSY0E5D","both","4","5","315","","","","","","","0","0","1","0.2","0.2","","","","","0.8","0.2","0.6","0.2","0.8","0.2","0.6","0.2","","","","","","","","74","J","1","","true","0","full_practice"
"","bandit","57","525274","0.0-35.0-2.0","99329280","wem/bandit_double","A256FHXGSY0E5D","both","4","5","208","","","","","","","0","1","0","0.6","0.6","","","","","0.8","0.2","0.6","0.2","0.8","0.2","0.6","0.2","","","","","","","","75","K","2","","true","0","full_practice"
"","bandit","58","526953","0.0-35.0-3.0","99329280","wem/bandit_double","A256FHXGSY0E5D","both","4","5","174","","","","","","","0","0","1","0.2","0.2","","","","","0.8","0.2","0.6","0.2","0.8","0.2","0.6","0.2","","","","","","","","76","L","3","","true","0","full_practice"
"","bandit","59","528620","0.0-35.0-4.0","99329280","wem/bandit_double","A256FHXGSY0E5D","both","4","5","162","","","","","","","0","0","1","0.6","0.6","","","","","0.8","0.2","0.6","0.2","0.8","0.2","0.6","0.2","","","","","","","","75","K","2","","true","0","full_practice"
"","bandit","60","530127","0.0-35.0-5.0","99329280","wem/bandit_double","A256FHXGSY0E5D","both","4","5","2","","","","","","","1","1","0","0.8","0.8","","","","","0.8","0.2","0.6","0.2","0.8","0.2","0.6","0.2","","","","","","","","72","H","0","img/none_selected.jpg","true","0","full_practice"
"","bandit","61","531812","0.0-35.0-6.0","99329280","wem/bandit_double","A256FHXGSY0E5D","both","4","5","181","","","","","","","1","1","0","0.8","0.8","","","","","0.8","0.2","0.6","0.2","0.8","0.2","0.6","0.2","","","","","","","","72","H","0","img/none_selected.jpg","true","0","full_practice"
"","bandit","62","533425","0.0-35.0-7.0","99329280","wem/bandit_double","A256FHXGSY0E5D","both","4","5","109","","","","","","","1","1","0","0.8","0.8","","","","","0.8","0.2","0.6","0.2","0.8","0.2","0.6","0.2","","","","","","","","72","H","0","img/none_selected.jpg","true","0","full_practice"
"","bandit","63","535159","0.0-35.0-8.0","99329280","wem/bandit_double","A256FHXGSY0E5D","both","4","5","229","","","","","","","1","1","0","0.8","0.8","","","","","0.8","0.2","0.6","0.2","0.8","0.2","0.6","0.2","","","","","","","","72","H","0","img/none_selected.jpg","true","0","full_practice"
"","bandit","64","536906","0.0-35.0-9.0","99329280","wem/bandit_double","A256FHXGSY0E5D","both","4","5","242","","","","","","","1","1","0","0.8","0.8","","","","","0.8","0.2","0.6","0.2","0.8","0.2","0.6","0.2","","","","","","","","72","H","0","img/none_selected.jpg","true","0","full_practice"
"","bandit","65","538801","0.0-35.0-10.0","99329280","wem/bandit_double","A256FHXGSY0E5D","both","4","5","390","","","","","","","1","1","0","0.8","0.8","","","","","0.8","0.2","0.6","0.2","0.8","0.2","0.6","0.2","","","","","","","","72","H","0","img/none_selected.jpg","true","0","full_practice"
"","bandit","66","540955","0.0-35.0-11.0","99329280","wem/bandit_double","A256FHXGSY0E5D","both","4","5","648","","","","","","","1","1","0","0.8","0.8","","","","","0.8","0.2","0.6","0.2","0.8","0.2","0.6","0.2","","","","","","","","72","H","0","img/none_selected.jpg","true","0","full_practice"
"","bandit","67","543155","0.0-35.0-12.0","99329280","wem/bandit_double","A256FHXGSY0E5D","both","4","5","694","","","","","","","0","1","0","0.8","0.8","","","","","0.8","0.2","0.6","0.2","0.8","0.2","0.6","0.2","","","","","","","","72","H","0","img/none_selected.jpg","true","0","full_practice"
"","bandit","68","545008","0.0-35.0-13.0","99329280","wem/bandit_double","A256FHXGSY0E5D","both","4","5","348","","","","","","","1","1","0","0.8","0.8","","","","","0.8","0.2","0.6","0.2","0.8","0.2","0.6","0.2","","","","","","","","72","H","0","img/none_selected.jpg","true","0","full_practice"
"","bandit","69","546780","0.0-35.0-14.0","99329280","wem/bandit_double","A256FHXGSY0E5D","both","4","5","265","","","","","","","1","0","0","0.8","0.8","","","","","0.8","0.2","0.6","0.2","0.8","0.2","0.6","0.2","","","","","","","","72","H","0","img/none_selected.jpg","true","0","full_practice"
"","bandit","70","548600","0.0-35.0-15.0","99329280","wem/bandit_double","A256FHXGSY0E5D","both","4","5","315","","","","","","","0","1","0","0.8","0.8","","","","","0.8","0.2","0.6","0.2","0.8","0.2","0.6","0.2","","","","","","","","72","H","0","img/none_selected.jpg","true","0","full_practice"
"","bandit","71","550179","0.0-35.0-16.0","99329280","wem/bandit_double","A256FHXGSY0E5D","both","4","5","72","","","","","","","1","0","0","0.8","0.8","","","","","0.8","0.2","0.6","0.2","0.8","0.2","0.6","0.2","","","","","","","","72","H","0","img/none_selected.jpg","true","0","full_practice"
"","bandit","72","551924","0.0-35.0-17.0","99329280","wem/bandit_double","A256FHXGSY0E5D","both","4","5","238","","","","","","","1","1","0","0.2","0.2","","","","","0.8","0.2","0.6","0.2","0.8","0.2","0.6","0.2","","","","","","","","74","J","1","","true","0","full_practice"
"","bandit","73","553717","0.0-35.0-18.0","99329280","wem/bandit_double","A256FHXGSY0E5D","both","4","5","261","","","","","","","0","0","1","0.2","0.2","","","","","0.8","0.2","0.6","0.2","0.8","0.2","0.6","0.2","","","","","","","","74","J","1","","true","0","full_practice"
"","bandit","74","555258","0.0-35.0-19.0","99329280","wem/bandit_double","A256FHXGSY0E5D","both","4","5","35","","","","","","","0","0","1","0.2","0.2","","","","","0.8","0.2","0.6","0.2","0.8","0.2","0.6","0.2","","","","","","","","74","J","1","","true","0","full_practice"
"","text","75","557566","0.0-36.0","99329280","wem/bandit_double","A256FHXGSY0E5D","both","4","5","2305","","32","","","","","","","","","","","","","","","","","","","","","","","","","","","","","","","","","","",""
"","text","76","568519","0.0-37.0","99329280","wem/bandit_double","A256FHXGSY0E5D","both","4","5","9949","","32","","","","","","","","","","","","","","","","","","","","","","","","","","","","","","","","","","",""
"","text","77","572751","0.0-38.0","99329280","wem/bandit_double","A256FHXGSY0E5D","both","4","5","4230","","32","","","","","","","","","","","","","","","","","","","","","","","","","","","","","","","","","","",""
"","text","78","577974","0.0-39.0","99329280","wem/bandit_double","A256FHXGSY0E5D","both","4","5","5221","","32","","","","","","","","","","","","","","","","","","","","","","","","","","","","","","","","","","",""
"","text","79","583199","0.0-40.0","99329280","wem/bandit_double","A256FHXGSY0E5D","both","4","5","5223","","32","","","","","","","","","","","","","","","","","","","","","","","","","","","","","","","","","","",""
"","bandit","80","585387","0.0-41.0-0.0","99329280","wem/bandit_double","A256FHXGSY0E5D","both","4","5","679","","","","","","","0","0","1","0.3525715257","0.1165465043","","","","","0.1165465043","0.3897275569","0.3340388524","0.4265570961","0.3525715257","0.3242650943","0.3894728165","0.2771551185","","","","","","","","72","H","0","img/none_selected.jpg","","1","main_expt"
"","bandit","81","587381","0.0-42.0-0.0","99329280","wem/bandit_double","A256FHXGSY0E5D","both","4","5","472","","","","","","","1","0","0","0.3296228245","0.3911966266","","","","","0.08371899021","0.3911966266","0.3223834482","0.4177099958","0.390153736","0.3296228245","0.363660736","0.3030893157","","","","","","","","74","J","1","","","2","main_expt"
"","bandit","82","589112","0.0-43.0-0.0","99329280","wem/bandit_double","A256FHXGSY0E5D","both","4","5","224","","","","","","","0","0","1","0.3842171554","0.3585509001","","","","","0.04339790364","0.4074861021","0.3585509001","0.4192185534","0.3725447061","0.3102780753","0.3842171554","0.3211059343","","","","","","","","75","K","2","","","3","main_expt"
"","bandit","83","590758","0.0-44.0-0.0","99329280","wem/bandit_double","A256FHXGSY0E5D","both","4","5","141","","","","","","","1","0","0","0.2804386453","0.4241610434","","","","","0.04073472785","0.3965638453","0.3416436242","0.4241610434","0.3431524481","0.2749892112","0.3831963053","0.2804386453","","","","","","","","76","L","3","","","4","main_expt"
"","bandit","84","592440","0.0-45.0-0.0","99329280","wem/bandit_double","A256FHXGSY0E5D","both","4","5","175","","","","","","","0","0","1","0.3448007793","0.04731773769","","","","","0.04731773769","0.3688269119","0.3444758892","0.4284837315","0.3448007793","0.3037824898","0.4056596471","0.2609559086","","","","","","","","72","H","0","img/none_selected.jpg","","5","main_expt"
"","bandit","85","594353","0.0-46.0-0.0","99329280","wem/bandit_double","A256FHXGSY0E5D","both","4","5","408","","","","","","","0","0","1","0.3217417103","0.3865867917","","","","","0.05617088868","0.3865867917","0.3574177426","0.4328708062","0.3980888019","0.3217417103","0.4409946319","0.2259287768","","","","","","","","74","J","1","","","6","main_expt"
"","bandit","86","595958","0.0-47.0-0.0","99329280","wem/bandit_double","A256FHXGSY0E5D","both","4","5","99","","","","","","","1","0","0","0.2433618728","0.4176545671","","","","","0.05606577856","0.4294719924","0.3634052143","0.4176545671","0.3693121862","0.3018715163","0.3821747998","0.2433618728","","","","","","","","76","L","3","","","7","main_expt"
"","bandit","87","597634","0.0-48.0-0.0","99329280","wem/bandit_double","A256FHXGSY0E5D","both","4","5","169","","","","","","","0","0","1","0.2025356769","0.4022395488","","","","","0.09244853328","0.4210378118","0.3675420607","0.4022395488","0.2933697555","0.3643645816","0.3841844813","0.2025356769","","","","","","","","76","L","3","","","8","main_expt"
"","bandit","88","599323","0.0-49.0-0.0","99329280","wem/bandit_double","A256FHXGSY0E5D","both","4","5","184","","","","","","","0","1","0","0.3412237964","0.3921196104","","","","","0.1271341085","0.4502112583","0.3921196104","0.3929004949","0.3036212831","0.3418610374","0.3412237964","0.1441028094","","","","","","","","75","K","2","","","9","main_expt"
"","bandit","89","600893","0.0-50.0-0.0","99329280","wem/bandit_double","A256FHXGSY0E5D","both","4","5","64","","","","","","","0","0","1","0.3256420777","0.4026182126","","","","","0.1370717255","0.4452653155","0.4026182126","0.3863711448","0.308020301","0.3190157878","0.3256420777","0.1736005971","","","","","","","","75","K","2","","","10","main_expt"
"","bandit","90","602596","0.0-51.0-0.0","99329280","wem/bandit_double","A256FHXGSY0E5D","both","4","5","198","","","","","","","1","0","0","0.3065973113","0.1275050207","","","","","0.1275050207","0.4352349267","0.3543069494","0.4205849279","0.3065973113","0.2998731478","0.3514007431","0.1836365694","","","","","","","","72","H","0","img/none_selected.jpg","","11","main_expt"
"","bandit","91","604171","0.0-52.0-0.0","99329280","wem/bandit_double","A256FHXGSY0E5D","both","4","5","70","","","","","","","0","0","1","0.3271859636","0.122317004","","","","","0.122317004","0.4029030639","0.3504097904","0.4525069231","0.3271859636","0.2942822571","0.3722032088","0.2143869662","","","","","","","","72","H","0","img/none_selected.jpg","","12","main_expt"
"","bandit","92","605682","0.0-53.0-0.0","99329280","wem/bandit_double","A256FHXGSY0E5D","both","4","5","6","","","","","","","0","1","0","0.3009212619","0.4198147105","","","","","0.1251711411","0.4198147105","0.2787441393","0.4485799753","0.2761076709","0.3009212619","0.3681707299","0.1637139448","","","","","","","","74","J","1","","","13","main_expt"
"","bandit","93","607292","0.0-54.0-0.0","99329280","wem/bandit_double","A256FHXGSY0E5D","both","4","5","104","","","","","","","0","0","1","0.3227424667","0.3761312174","","","","","0.1380641988","0.3761312174","0.2723245106","0.4504049656","0.2311164494","0.3227424667","0.3528222564","0.1488535162","","","","","","","","74","J","1","","","14","main_expt"
"","bandit","94","608957","0.0-55.0-0.0","99329280","wem/bandit_double","A256FHXGSY0E5D","both","4","5","160","","","","","","","0","1","0","0.1332411271","0.4281165459","","","","","0.2010812313","0.4017507227","0.3687644442","0.4281165459","0.2905977425","0.3547546862","0.3738838661","0.1332411271","","","","","","","","76","L","3","","","15","main_expt"
"","bandit","95","610715","0.0-56.0-0.0","99329280","wem/bandit_double","A256FHXGSY0E5D","both","4","5","223","","","","","","","1","0","0","0.09882415698","0.4035101098","","","","","0.1747275657","0.3859888637","0.3992289848","0.4035101098","0.2924554969","0.3241157583","0.3385239332","0.09882415698","","","","","","","","76","L","3","","","16","main_expt"
"","bandit","96","612226","0.0-57.0-0.0","99329280","wem/bandit_double","A256FHXGSY0E5D","both","4","5","4","","","","","","","1","0","0","0.1069157009","0.4063691663","","","","","0.1816524112","0.3706978481","0.4067061876","0.4063691663","0.3114836302","0.3363410386","0.3111355138","0.1069157009","","","","","","","","76","L","3","","","17","main_expt"
"","bandit","97","613811","0.0-58.0-0.0","99329280","wem/bandit_double","A256FHXGSY0E5D","both","4","5","80","","","","","","","0","1","0","0.134958137","0.4201618032","","","","","0.1700798448","0.3323991027","0.3969002131","0.4201618032","0.3215333475","0.3880947854","0.3487767647","0.134958137","","","","","","","","76","L","3","","","18","main_expt"
"","bandit","98","615769","0.0-59.0-0.0","99329280","wem/bandit_double","A256FHXGSY0E5D","both","4","5","453","","","","","","","0","1","0","0.1230418706","0.3868389751","","","","","0.1998500639","0.3301718366","0.3930099592","0.3868389751","0.2733398822","0.4116912081","0.3010303499","0.1230418706","","","","","","","","76","L","3","","","19","main_expt"
"","bandit","99","617530","0.0-60.0-0.0","99329280","wem/bandit_double","A256FHXGSY0E5D","both","4","5","257","","","","","","","0","1","0","0.09866604889","0.3868875991","","","","","0.2418808817","0.3714618997","0.3791602553","0.3868875991","0.2351410235","0.3973894305","0.2907203997","0.09866604889","","","","","","","","76","L","3","","","20","main_expt"
"","bandit","100","619199","0.0-61.0-0.0","99329280","wem/bandit_double","A256FHXGSY0E5D","both","4","5","163","","","","","","","0","1","0","0.1021222834","0.4253770554","","","","","0.2293341009","0.3621694591","0.4127515201","0.4253770554","0.2257810982","0.369037109","0.3088108907","0.1021222834","","","","","","","","76","L","3","","","21","main_expt"
"","bandit","101","620835","0.0-62.0-0.0","99329280","wem/bandit_double","A256FHXGSY0E5D","both","4","5","130","","","","","","","0","0","1","0.1234138809","0.4285762007","","","","","0.2074184163","0.3648829928","0.4164833055","0.4285762007","0.2221856846","0.4179468344","0.349202701","0.1234138809","","","","","","","","76","L","3","","","22","main_expt"
"","bandit","102","622369","0.0-63.0-0.0","99329280","wem/bandit_double","A256FHXGSY0E5D","both","4","5","28","","","","","","","0","1","0","0.3785068464","0.4143027846","","","","","0.1832507358","0.2856994719","0.4143027846","0.4082522222","0.2127124712","0.4276062926","0.3785068464","0.1030640584","","","","","","","","75","K","2","","","23","main_expt"
"","bandit","103","624140","0.0-64.0-0.0","99329280","wem/bandit_double","A256FHXGSY0E5D","both","4","5","266","","","","","","","0","0","1","0.4012919653","0.3649270698","","","","","0.1469425149","0.3152516524","0.3649270698","0.4027270218","0.1882566648","0.4078122208","0.4012919653","0.1261035851","","","","","","","","75","K","2","","","24","main_expt"
"","bandit","104","625733","0.0-65.0-0.0","99329280","wem/bandit_double","A256FHXGSY0E5D","both","4","5","86","","","","","","","1","1","0","0.3950411191","0.2778145345","","","","","0.102794739","0.2778145345","0.392676409","0.4100212433","0.1273223766","0.3950411191","0.400899794","0.1796705612","","","","","","","","74","J","1","","","25","main_expt"
"","bandit","105","627396","0.0-66.0-0.0","99329280","wem/bandit_double","A256FHXGSY0E5D","both","4","5","159","","","","","","","1","1","0","0.4322303329","0.3170506137","","","","","0.1173732637","0.3170506137","0.4031565401","0.4190791169","0.15747458","0.4322303329","0.4126274585","0.2414651519","","","","","","","","74","J","1","","","26","main_expt"
"","bandit","106","629158","0.0-67.0-0.0","99329280","wem/bandit_double","A256FHXGSY0E5D","both","4","5","255","","","","","","","0","0","1","0.4353643722","0.3223143746","","","","","0.08835016803","0.3223143746","0.4245959001","0.4527212376","0.1442684908","0.4353643722","0.3992263875","0.2005374927","","","","","","","","74","J","1","","","27","main_expt"
"","bandit","107","630884","0.0-68.0-0.0","99329280","wem/bandit_double","A256FHXGSY0E5D","both","4","5","219","","","","","","","0","0","1","0.4464017809","0.3234472479","","","","","0.1134440288","0.3234472479","0.4232885055","0.4480998813","0.2255404594","0.4464017809","0.3846584236","0.3197257227","","","","","","","","74","J","1","","","28","main_expt"
"","bandit","108","632503","0.0-69.0-0.0","99329280","wem/bandit_double","A256FHXGSY0E5D","both","4","5","113","","","","","","","1","1","0","0.4417109462","0.2881425904","","","","","0.1982905849","0.2881425904","0.4495512981","0.4628669208","0.2730951691","0.4417109462","0.3561298134","0.3141869899","","","","","","","","74","J","1","","","29","main_expt"
"","bandit","109","634228","0.0-70.0-0.0","99329280","wem/bandit_double","A256FHXGSY0E5D","both","4","5","219","","","","","","","0","0","1","0.4065908859","0.2326555855","","","","","0.2366655967","0.2326555855","0.4485299892","0.4565655028","0.2890412698","0.4065908859","0.3101363315","0.3445991012","","","","","","","","74","J","1","","","30","main_expt"
"","bandit","110","636116","0.0-71.0-0.0","99329280","wem/bandit_double","A256FHXGSY0E5D","both","4","5","383","","","","","","","0","0","1","0.3456655029","0.4686031056","","","","","0.1622470467","0.2364604256","0.4599237238","0.4686031056","0.3309226042","0.3954582793","0.3322219809","0.3456655029","","","","","","","","76","L","3","","","31","main_expt"
"","bandit","111","637632","0.0-72.0-0.0","99329280","wem/bandit_double","A256FHXGSY0E5D","both","4","5","10","","","","","","","0","0","1","0.3519301717","0.1771911602","","","","","0.1771911602","0.2451982598","0.4508116693","0.4659582456","0.3519301717","0.3716723047","0.3516269472","0.3826172224","","","","","","","","72","H","0","img/none_selected.jpg","","32","main_expt"
"","bandit","112","639336","0.0-73.0-0.0","99329280","wem/bandit_double","A256FHXGSY0E5D","both","4","5","197","","","","","","","0","0","1","0.3852085553","0.45101727","","","","","0.1622836308","0.2360369815","0.45101727","0.4810757035","0.3414953842","0.3799724366","0.3852085553","0.3804083149","","","","","","","","75","K","2","","","33","main_expt"
"","bandit","113","641221","0.0-74.0-0.0","99329280","wem/bandit_double","A256FHXGSY0E5D","both","4","5","381","","","","","","","0","0","1","0.409480615","0.2317763892","","","","","0.1655985557","0.2317763892","0.4340174653","0.4842727378","0.2938412915","0.409480615","0.4196644934","0.3808178469","","","","","","","","74","J","1","","","34","main_expt"
"","bandit","114","643019","0.0-75.0-0.0","99329280","wem/bandit_double","A256FHXGSY0E5D","both","4","5","293","","","","","","","1","0","0","0.3869649509","0.2527891731","","","","","0.1492797185","0.2527891731","0.4040147441","0.4745470136","0.2256616696","0.3869649509","0.420891004","0.376129724","","","","","","","","74","J","1","","","35","main_expt"
"","bandit","115","644639","0.0-76.0-0.0","99329280","wem/bandit_double","A256FHXGSY0E5D","both","4","5","113","","","","","","","0","0","1","0.3045389962","0.2641283143","","","","","0.1504543003","0.2641283143","0.4268829696","0.4440965139","0.2525957923","0.3045389962","0.3808881167","0.4027809904","","","","","","","","74","J","1","","","36","main_expt"
"","bandit","116","646374","0.0-77.0-0.0","99329280","wem/bandit_double","A256FHXGSY0E5D","both","4","5","232","","","","","","","0","0","1","0.2954217214","0.2309310423","","","","","0.1064249526","0.2309310423","0.4562327564","0.4544425755","0.2333373749","0.2954217214","0.3634360393","0.3715556026","","","","","","","","74","J","1","","","37","main_expt"
"","bandit","117","648031","0.0-78.0-0.0","99329280","wem/bandit_double","A256FHXGSY0E5D","both","4","5","152","","","","","","","0","1","0","0.354842885","0.4700138218","","","","","0.1346530267","0.2093170459","0.4481627861","0.4700138218","0.2126884676","0.2749906923","0.3432691328","0.354842885","","","","","","","","76","L","3","","","38","main_expt"
"","bandit","118","649764","0.0-79.0-0.0","99329280","wem/bandit_double","A256FHXGSY0E5D","both","4","5","224","","","","","","","0","1","0","0.3066825603","0.466948448","","","","","0.1303494481","0.1398625959","0.4475890948","0.466948448","0.212498526","0.2911873598","0.3113322025","0.3066825603","","","","","","","","76","L","3","","","39","main_expt"
"","bandit","119","651447","0.0-80.0-0.0","99329280","wem/bandit_double","A256FHXGSY0E5D","both","4","5","178","","","","","","","0","1","0","0.3208648015","0.4679256248","","","","","0.1492074344","0.09690087606","0.4501575696","0.4679256248","0.2031275136","0.3066149412","0.3298138996","0.3208648015","","","","","","","","76","L","3","","","40","main_expt"
"","bandit","120","653092","0.0-81.0-0.0","99329280","wem/bandit_double","A256FHXGSY0E5D","both","4","5","138","","","","","","","0","1","0","0.2774570704","0.445537573","","","","","0.1370672299","0.1129569356","0.4121884666","0.445537573","0.2409224204","0.2612722093","0.3590557929","0.2774570704","","","","","","","","76","L","3","","","41","main_expt"
"","bandit","121","654665","0.0-82.0-0.0","99329280","wem/bandit_double","A256FHXGSY0E5D","both","4","5","66","","","","","","","0","0","1","0.3092882543","0.4521531226","","","","","0.08144147181","0.1227033228","0.4379939247","0.4521531226","0.2166695961","0.2579482203","0.3455434044","0.3092882543","","","","","","","","76","L","3","","","42","main_expt"
"","bandit","122","656304","0.0-83.0-0.0","99329280","wem/bandit_double","A256FHXGSY0E5D","both","4","5","134","","","","","","","0","0","1","0.4020043176","0.4271747655","","","","","0.06793865388","0.08393287497","0.4271747655","0.4695072217","0.2314197793","0.2232302517","0.4020043176","0.3161251671","","","","","","","","75","K","2","","","43","main_expt"
"","bandit","123","657945","0.0-84.0-0.0","99329280","wem/bandit_double","A256FHXGSY0E5D","both","4","5","137","","","","","","","0","0","1","0.1889371852","0.05295344446","","","","","0.05295344446","0.06260074275","0.4480494518","0.4807409838","0.1889371852","0.2435669349","0.4088695108","0.3032549762","","","","","","","","72","H","0","img/none_selected.jpg","","44","main_expt"
"","bandit","124","659513","0.0-85.0-0.0","99329280","wem/bandit_double","A256FHXGSY0E5D","both","4","5","62","","","","","","","0","0","1","0.1885724617","0.08062123592","","","","","0.02744239742","0.08062123592","0.4269729589","0.4507048108","0.2152104473","0.1885724617","0.3914045207","0.3012359134","","","","","","","","74","J","1","","","45","main_expt"
"","bandit","125","661118","0.0-86.0-0.0","99329280","wem/bandit_double","A256FHXGSY0E5D","both","4","5","99","","","","","","","1","1","0","0.2994346937","0.4382321206","","","","","0.02347437243","0.1110847749","0.4475746277","0.4382321206","0.2260726972","0.104230756","0.3682142312","0.2994346937","","","","","","","","76","L","3","","","46","main_expt"
"","bandit","126","662754","0.0-87.0-0.0","99329280","wem/bandit_double","A256FHXGSY0E5D","both","4","5","131","","","","","","","0","0","1","0.3169549043","0.4393937913","","","","","0.02418160198","0.05346849493","0.4295618238","0.4393937913","0.2330399618","0.09013225529","0.3462276735","0.3169549043","","","","","","","","76","L","3","","","47","main_expt"
"","bandit","127","664345","0.0-88.0-0.0","99329280","wem/bandit_double","A256FHXGSY0E5D","both","4","5","86","","","","","","","1","0","0","0.3137179834","0.440318131","","","","","0.01182676654","0.04499733497","0.4431907244","0.440318131","0.2769685944","0.1066227192","0.3501405617","0.3137179834","","","","","","","","76","L","3","","","48","main_expt"
"","bandit","128","668551","0.0-89.0-0.0","99329280","wem/bandit_double","A256FHXGSY0E5D","both","4","5","2699","","","","","","","1","1","0","0.3026837323","0.4362102412","","","","","0.0186287842","0.07378534534","0.4187732916","0.4362102412","0.2954986192","0.1273062614","0.3607669766","0.3026837323","","","","","","","","76","L","3","","","49","main_expt"
"","bandit","129","670690","0.0-90.0-0.0","99329280","wem/bandit_double","A256FHXGSY0E5D","both","4","5","633","","","","","","","0","1","0","0.2690248343","0.44488671","","","","","0.02550629551","0.06168845619","0.356579213","0.44488671","0.2730110453","0.08158159543","0.3776327681","0.2690248343","","","","","","","","76","L","3","","","50","main_expt"
"","bandit","130","672918","0.0-91.0-0.0","99329280","wem/bandit_double","A256FHXGSY0E5D","both","4","5","722","","","","","","","1","1","0","0.2407215714","0.4633405548","","","","","0.04366809707","0.1062028567","0.2629404955","0.4633405548","0.2672659715","0.08035098666","0.3922012959","0.2407215714","","","","","","","","76","L","3","","","51","main_expt"
"","bandit","131","674916","0.0-92.0-0.0","99329280","wem/bandit_double","A256FHXGSY0E5D","both","4","5","493","","","","","","","1","1","0","0.2758158767","0.4528043762","","","","","0.04357168116","0.1379608546","0.2919747068","0.4528043762","0.2552972095","0.1007468434","0.3532085343","0.2758158767","","","","","","","","76","L","3","","","52","main_expt"
"","bandit","132","676729","0.0-93.0-0.0","99329280","wem/bandit_double","A256FHXGSY0E5D","both","4","5","307","","","","","","","1","0","0","0.2661511239","0.4390431751","","","","","0.03899227154","0.1356826849","0.3809901122","0.4390431751","0.1954439593","0.1479770317","0.3597378762","0.2661511239","","","","","","","","76","L","3","","","53","main_expt"
"","bandit","133","678460","0.0-94.0-0.0","99329280","wem/bandit_double","A256FHXGSY0E5D","both","4","5","226","","","","","","","0","1","0","0.250303373","0.4549270822","","","","","0.04009146386","0.1038772241","0.3452518694","0.4549270822","0.1250298759","0.1450389045","0.3553644404","0.250303373","","","","","","","","76","L","3","","","54","main_expt"
"","bandit","134","680198","0.0-95.0-0.0","99329280","wem/bandit_double","A256FHXGSY0E5D","both","4","5","232","","","","","","","0","0","1","0.1850572083","0.4710341864","","","","","0.0155768565","0.1689791829","0.3263112327","0.4710341864","0.1224949652","0.1678096349","0.3427354451","0.1850572083","","","","","","","","76","L","3","","","55","main_expt"
"","bandit","135","681775","0.0-96.0-0.0","99329280","wem/bandit_double","A256FHXGSY0E5D","both","4","5","71","","","","","","","0","1","0","0.2410157884","0.4745834276","","","","","0.02112461672","0.1108888145","0.3308963945","0.4745834276","0.1312048923","0.1748395718","0.3158877586","0.2410157884","","","","","","","","76","L","3","","","56","main_expt"
"","bandit","136","683529","0.0-97.0-0.0","99329280","wem/bandit_double","A256FHXGSY0E5D","both","4","5","248","","","","","","","1","0","0","0.2657224069","0.489318572","","","","","0.0126553198","0.1206542402","0.3150326571","0.489318572","0.14452077","0.146986137","0.3224611445","0.2657224069","","","","","","","","76","L","3","","","57","main_expt"
"","bandit","137","685181","0.0-98.0-0.0","99329280","wem/bandit_double","A256FHXGSY0E5D","both","4","5","146","","","","","","","0","1","0","0.2361308133","0.480037986","","","","","0.01131359515","0.09707343937","0.3049116772","0.480037986","0.1198415177","0.1316135006","0.3378672788","0.2361308133","","","","","","","","76","L","3","","","58","main_expt"
"","bandit","138","686904","0.0-99.0-0.0","99329280","wem/bandit_double","A256FHXGSY0E5D","both","4","5","218","","","","","","","0","1","0","0.2078360154","0.4593461039","","","","","0.01030075821","0.1044384952","0.3050987947","0.4593461039","0.1674914914","0.1776120447","0.3438075972","0.2078360154","","","","","","","","76","L","3","","","59","main_expt"
"","bandit","139","688674","0.0-100.0-0.0","99329280","wem/bandit_double","A256FHXGSY0E5D","both","4","5","262","","","","","","","1","0","0","0.2256957235","0.446051488","","","","","0.005868957973","0.08890369623","0.3274009355","0.446051488","0.147959707","0.2034864675","0.2950987239","0.2256957235","","","","","","","","76","L","3","","","60","main_expt"
"","bandit","140","690398","0.0-101.0-0.0","99329280","wem/bandit_double","A256FHXGSY0E5D","both","4","5","218","","","","","","","1","1","0","0.2713547376","0.4391285327","","","","","0.004361943215","0.08921221942","0.3428943983","0.4391285327","0.1217284172","0.1325668513","0.2939622289","0.2713547376","","","","","","","","76","L","3","","","61","main_expt"
"","bandit","141","692102","0.0-102.0-0.0","99329280","wem/bandit_double","A256FHXGSY0E5D","both","4","5","196","","","","","","","1","1","0","0.2800078023","0.4063883723","","","","","0.005208412743","0.09812025034","0.3549763931","0.4063883723","0.1392905859","0.125492747","0.2907096119","0.2800078023","","","","","","","","76","L","3","","","62","main_expt"
"","bandit","142","693830","0.0-103.0-0.0","99329280","wem/bandit_double","A256FHXGSY0E5D","both","4","5","221","","","","","","","0","0","1","0.362183352","0.4330387396","","","","","0.006461011255","0.09006279409","0.3496678451","0.4330387396","0.1953314019","0.1081989139","0.2696382907","0.362183352","","","","","","","","76","L","3","","","63","main_expt"
"","bandit","143","695403","0.0-104.0-0.0","99329280","wem/bandit_double","A256FHXGSY0E5D","both","4","5","68","","","","","","","0","0","1","0.3354395381","0.4207902426","","","","","0.01267926231","0.1118976224","0.3188537263","0.4207902426","0.2618523415","0.09104284411","0.2496415039","0.3354395381","","","","","","","","76","L","3","","","64","main_expt"
"","bandit","144","697312","0.0-105.0-0.0","99329280","wem/bandit_double","A256FHXGSY0E5D","both","4","5","403","","","","","","","1","0","0","0.2364994079","0.3191795336","","","","","0.009732787917","0.1053817613","0.3191795336","0.3719582347","0.2686672798","0.1264903162","0.2364994079","0.2893845237","","","","","","","","75","K","2","","","65","main_expt"
"","bandit","145","698821","0.0-106.0-0.0","99329280","wem/bandit_double","A256FHXGSY0E5D","both","4","5","3","","","","","","","0","0","1","0.2541683514","0.268616347","","","","","0.01092542651","0.1307356695","0.268616347","0.3748569955","0.2451656397","0.1665937301","0.2541683514","0.2355717356","","","","","","","","75","K","2","","","66","main_expt"
"","bandit","146","700468","0.0-107.0-0.0","99329280","wem/bandit_double","A256FHXGSY0E5D","both","4","5","142","","","","","","","0","0","1","0.1740025863","0.1418436428","","","","","0.02125534741","0.1418436428","0.259194563","0.335252031","0.2445320338","0.1740025863","0.2985471382","0.2848755716","","","","","","","","74","J","1","","","67","main_expt"
"","bandit","147","702365","0.0-108.0-0.0","99329280","wem/bandit_double","A256FHXGSY0E5D","both","4","5","391","","","","","","","0","0","1","0.2261158315","0.02360283027","","","","","0.02360283027","0.1459089566","0.2281204868","0.3199157278","0.2261158315","0.2300011382","0.3391290389","0.3341158043","","","","","","","","72","H","0","img/none_selected.jpg","","68","main_expt"
"","bandit","148","704060","0.0-109.0-0.0","99329280","wem/bandit_double","A256FHXGSY0E5D","both","4","5","188","","","","","","","1","0","0","0.3253412689","0.3068525281","","","","","0.02539305756","0.1809721424","0.2195844169","0.3068525281","0.1627286519","0.1768594062","0.3114764975","0.3253412689","","","","","","","","76","L","3","","","69","main_expt"
"","bandit","149","705736","0.0-110.0-0.0","99329280","wem/bandit_double","A256FHXGSY0E5D","both","4","5","171","","","","","","","1","1","0","0.3280915152","0.3181076016","","","","","0.05014388586","0.1784068974","0.1883338509","0.3181076016","0.1301009224","0.1906145184","0.3056328376","0.3280915152","","","","","","","","76","L","3","","","70","main_expt"
"","bandit","150","707443","0.0-111.0-0.0","99329280","wem/bandit_double","A256FHXGSY0E5D","both","4","5","201","","","","","","","0","1","0","0.3772643828","0.2926426422","","","","","0.04209054697","0.1973023396","0.1639708178","0.2926426422","0.1356707761","0.1451664327","0.3445325487","0.3772643828","","","","","","","","76","L","3","","","71","main_expt"
"","bandit","151","709181","0.0-112.0-0.0","99329280","wem/bandit_double","A256FHXGSY0E5D","both","4","5","231","","","","","","","1","0","0","0.4074174212","0.2380263643","","","","","0.05611199342","0.2436342847","0.1312842785","0.2380263643","0.1045412551","0.1091447996","0.364612409","0.4074174212","","","","","","","","76","L","3","","","72","main_expt"
"","bandit","152","710880","0.0-113.0-0.0","99329280","wem/bandit_double","A256FHXGSY0E5D","both","4","5","193","","","","","","","1","1","0","0.3736299767","0.2407197948","","","","","0.05293238473","0.1992173182","0.1805041857","0.2407197948","0.0867882282","0.1248737042","0.4454774056","0.3736299767","","","","","","","","76","L","3","","","73","main_expt"
"","bandit","153","712546","0.0-114.0-0.0","99329280","wem/bandit_double","A256FHXGSY0E5D","both","4","5","159","","","","","","","1","0","0","0.383211712","0.2317468449","","","","","0.0318456884","0.2347098304","0.1739557812","0.2317468449","0.1018359722","0.1073746888","0.4492830973","0.383211712","","","","","","","","76","L","3","","","74","main_expt"
"","bandit","154","714145","0.0-115.0-0.0","99329280","wem/bandit_double","A256FHXGSY0E5D","both","4","5","94","","","","","","","1","0","0","0.3681962321","0.2545997551","","","","","0.03873230677","0.2641442137","0.2434916027","0.2545997551","0.09443707336","0.1051395745","0.449321966","0.3681962321","","","","","","","","76","L","3","","","75","main_expt"
"","bandit","155","715661","0.0-116.0-0.0","99329280","wem/bandit_double","A256FHXGSY0E5D","both","4","5","11","","","","","","","1","0","0","0.3574328021","0.2890845388","","","","","0.03304947682","0.3192644053","0.2438468568","0.2890845388","0.08768691443","0.09171451076","0.4299726132","0.3574328021","","","","","","","","76","L","3","","","76","main_expt"
"","bandit","156","717433","0.0-117.0-0.0","99329280","wem/bandit_double","A256FHXGSY0E5D","both","4","5","266","","","","","","","0","0","1","0.4041720962","0.2386362654","","","","","0.02607887458","0.3351132613","0.2425324642","0.2386362654","0.07744448812","0.1256070833","0.4349340462","0.4041720962","","","","","","","","76","L","3","","","77","main_expt"
"","bandit","157","719162","0.0-118.0-0.0","99329280","wem/bandit_double","A256FHXGSY0E5D","both","4","5","221","","","","","","","1","0","0","0.4000946746","0.2673679704","","","","","0.02492981692","0.3086784207","0.205588479","0.2673679704","0.05712631425","0.1398604905","0.4112950215","0.4000946746","","","","","","","","76","L","3","","","78","main_expt"
"","bandit","158","721014","0.0-119.0-0.0","99329280","wem/bandit_double","A256FHXGSY0E5D","both","4","5","346","","","","","","","1","0","0","0.425248604","0.2813811921","","","","","0.01824110002","0.3076482073","0.213062191","0.2813811921","0.03981704588","0.1303191282","0.4123046053","0.425248604","","","","","","","","76","L","3","","","79","main_expt"
"","bandit","159","722903","0.0-120.0-0.0","99329280","wem/bandit_double","A256FHXGSY0E5D","both","4","5","380","","","","","","","0","1","0","0.4263383456","0.2419447949","","","","","0.0202176162","0.3605025214","0.1852926048","0.2419447949","0.02961196177","0.1491340647","0.4345430878","0.4263383456","","","","","","","","76","L","3","","","80","main_expt"
"","bandit","160","724709","0.0-121.0-0.0","99329280","wem/bandit_double","A256FHXGSY0E5D","both","4","5","301","","","","","","","0","0","1","0.4377411966","0.323481111","","","","","0.0252752587","0.3286166321","0.2332942271","0.323481111","0.0408206899","0.1484119081","0.4255274095","0.4377411966","","","","","","","","76","L","3","","","81","main_expt"
"","bandit","161","726260","0.0-122.0-0.0","99329280","wem/bandit_double","A256FHXGSY0E5D","both","4","5","46","","","","","","","0","0","1","0.4263216968","0.3097244961","","","","","0.05668457717","0.3459677762","0.2087797338","0.3097244961","0.03491361241","0.135460029","0.4266934287","0.4263216968","","","","","","","","76","L","3","","","82","main_expt"
"","bandit","162","728046","0.0-123.0-0.0","99329280","wem/bandit_double","A256FHXGSY0E5D","both","4","5","280","","","","","","","1","1","0","0.4536492548","0.2787498647","","","","","0.07760530004","0.3092751195","0.2049979043","0.2787498647","0.01881925386","0.09497461961","0.4321646522","0.4536492548","","","","","","","","76","L","3","","","83","main_expt"
"","bandit","163","729757","0.0-124.0-0.0","99329280","wem/bandit_double","A256FHXGSY0E5D","both","4","5","205","","","","","","","1","0","0","0.4344769981","0.2589524449","","","","","0.03696005566","0.3044630387","0.2151780091","0.2589524449","0.03441768066","0.0956585677","0.43129245","0.4344769981","","","","","","","","76","L","3","","","84","main_expt"
"","bandit","164","731595","0.0-125.0-0.0","99329280","wem/bandit_double","A256FHXGSY0E5D","both","4","5","333","","","","","","","1","0","0","0.4167097255","0.2769318636","","","","","0.04177257934","0.2812480587","0.1497615914","0.2769318636","0.04015732792","0.08427930603","0.4307495417","0.4167097255","","","","","","","","76","L","3","","","85","main_expt"
"","bandit","165","733757","0.0-126.0-0.0","99329280","wem/bandit_double","A256FHXGSY0E5D","both","4","5","656","","","","","","","0","0","1","0.4215971904","0.2849222391","","","","","0.0385770192","0.2506532223","0.1223687677","0.2849222391","0.0462821445","0.09540141202","0.4327415212","0.4215971904","","","","","","","","76","L","3","","","86","main_expt"
"","bandit","166","735451","0.0-127.0-0.0","99329280","wem/bandit_double","A256FHXGSY0E5D","both","4","5","187","","","","","","","0","0","1","0.4507305815","0.1472857413","","","","","0.03720252147","0.2269900387","0.1472857413","0.3131087309","0.07236867375","0.06504543429","0.4507305815","0.3962725568","","","","","","","","75","K","2","","","87","main_expt"
"","bandit","167","737380","0.0-128.0-0.0","99329280","wem/bandit_double","A256FHXGSY0E5D","both","4","5","403","","","","","","","0","0","1","0.05894337134","0.1504729919","","","","","0.06746059371","0.1504729919","0.1252586248","0.3038587512","0.1132918069","0.05894337134","0.4571393315","0.4038430626","","","","","","","","74","J","1","","","88","main_expt"
"","bandit","168","739008","0.0-129.0-0.0","99329280","wem/bandit_double","A256FHXGSY0E5D","both","4","5","120","","","","","","","0","0","1","0.1466354559","0.04069757945","","","","","0.04069757945","0.1382070302","0.1194927994","0.3308022157","0.1466354559","0.06803635399","0.4639779763","0.4247877058","","","","","","","","72","H","0","img/none_selected.jpg","","89","main_expt"
"","bandit","169","740912","0.0-130.0-0.0","99329280","wem/bandit_double","A256FHXGSY0E5D","both","4","5","397","","","","","","","0","0","1","0.09657856289","0.1364765349","","","","","0.07325379503","0.1364765349","0.1589750007","0.3574922351","0.1746819083","0.09657856289","0.4620017245","0.4196700557","","","","","","","","74","J","1","","","90","main_expt"
"","bandit","170","742585","0.0-131.0-0.0","99329280","wem/bandit_double","A256FHXGSY0E5D","both","4","5","166","","","","","","","0","1","0","0.4492963398","0.1859960426","","","","","0.06877471811","0.09318196272","0.1859960426","0.3729517688","0.1864657318","0.08522031428","0.4492963398","0.401758082","","","","","","","","75","K","2","","","91","main_expt"
"","bandit","171","744179","0.0-132.0-0.0","99329280","wem/bandit_double","A256FHXGSY0E5D","both","4","5","87","","","","","","","1","0","0","0.462009279","0.192419488","","","","","0.04115987362","0.06946097624","0.192419488","0.398352994","0.2124622091","0.07078380504","0.462009279","0.3422099147","","","","","","","","75","K","2","","","92","main_expt"
"","bandit","172","745789","0.0-133.0-0.0","99329280","wem/bandit_double","A256FHXGSY0E5D","both","4","5","104","","","","","","","1","0","0","0.4363090379","0.1716033463","","","","","0.07078892783","0.08102832817","0.1716033463","0.4135860398","0.245786276","0.0564278809","0.4363090379","0.3279059742","","","","","","","","75","K","2","","","93","main_expt"
"","bandit","173","747385","0.0-134.0-0.0","99329280","wem/bandit_double","A256FHXGSY0E5D","both","4","5","90","","","","","","","1","0","0","0.4457519602","0.1935897604","","","","","0.05572868433","0.1271360848","0.1935897604","0.3786880174","0.2316759231","0.06067733924","0.4457519602","0.3155724737","","","","","","","","75","K","2","","","94","main_expt"
"","bandit","174","748970","0.0-135.0-0.0","99329280","wem/bandit_double","A256FHXGSY0E5D","both","4","5","79","","","","","","","0","0","1","0.4231248902","0.2193228015","","","","","0.05056929995","0.1097592989","0.2193228015","0.3823424718","0.2231756969","0.08632751489","0.4231248902","0.3519625041","","","","","","","","75","K","2","","","95","main_expt"
"","bandit","175","750565","0.0-136.0-0.0","99329280","wem/bandit_double","A256FHXGSY0E5D","both","4","5","89","","","","","","","1","1","0","0.3661455107","0.3642725552","","","","","0.04159874267","0.1085490834","0.3262643469","0.3642725552","0.1957128212","0.08481729553","0.4210676831","0.3661455107","","","","","","","","76","L","3","","","96","main_expt"
"","bandit","176","752245","0.0-137.0-0.0","99329280","wem/bandit_double","A256FHXGSY0E5D","both","4","5","175","","","","","","","0","0","1","0.3558031673","0.3197717944","","","","","0.03654451862","0.1049812554","0.3207405496","0.3197717944","0.1638116915","0.08386440452","0.4022895305","0.3558031673","","","","","","","","76","L","3","","","97","main_expt"
"","bandit","177","753824","0.0-138.0-0.0","99329280","wem/bandit_double","A256FHXGSY0E5D","both","4","5","72","","","","","","","1","0","0","0.3558230887","0.2514424369","","","","","0.04190300095","0.08177978443","0.3712856991","0.2514424369","0.1405816365","0.0940701929","0.4187351015","0.3558230887","","","","","","","","76","L","3","","","98","main_expt"
"","bandit","178","755440","0.0-139.0-0.0","99329280","wem/bandit_double","A256FHXGSY0E5D","both","4","5","111","","","","","","","0","0","1","0.3064708089","0.2926772137","","","","","0.08742990617","0.07574087804","0.3740145378","0.2926772137","0.1435678602","0.1285058524","0.3981340028","0.3064708089","","","","","","","","76","L","3","","","99","main_expt"
"","bandit","179","756982","0.0-140.0-0.0","99329280","wem/bandit_double","A256FHXGSY0E5D","both","4","5","35","","","","","","","0","1","0","0.3520446815","0.3776295542","","","","","0.08966523481","0.07829319678","0.3776295542","0.234485335","0.1478754355","0.065882019","0.3520446815","0.352498313","","","","","","","","75","K","2","","","100","main_expt"
"","bandit","180","758594","0.0-141.0-0.0","99329280","wem/bandit_double","A256FHXGSY0E5D","both","4","5","107","","","","","","","1","0","0","0.3715523215","0.3592666398","","","","","0.07849065771","0.07919243683","0.3592666398","0.250352175","0.1532559328","0.05692140794","0.3715523215","0.3511810171","","","","","","","","75","K","2","","","101","main_expt"
"","bandit","181","760146","0.0-142.0-0.0","99329280","wem/bandit_double","A256FHXGSY0E5D","both","4","5","46","","","","","","","0","1","0","0.3966955113","0.3412191773","","","","","0.1054267613","0.1052753188","0.3412191773","0.2139972863","0.15857411","0.04322280369","0.3966955113","0.3246867477","","","","","","","","75","K","2","","","102","main_expt"
"","bandit","182","761729","0.0-143.0-0.0","99329280","wem/bandit_double","A256FHXGSY0E5D","both","4","5","76","","","","","","","0","1","0","0.3865714765","0.3133100433","","","","","0.1120981937","0.1248526142","0.3133100433","0.20092706","0.1552377357","0.05121437093","0.3865714765","0.2827689756","","","","","","","","75","K","2","","","103","main_expt"
"","bandit","183","763365","0.0-144.0-0.0","99329280","wem/bandit_double","A256FHXGSY0E5D","both","4","5","130","","","","","","","0","0","1","0.3440646931","0.3219148419","","","","","0.1034740879","0.142969925","0.3219148419","0.2305366804","0.1584193753","0.06548077564","0.3440646931","0.3307995119","","","","","","","","75","K","2","","","104","main_expt"
"","bandit","184","765013","0.0-145.0-0.0","99329280","wem/bandit_double","A256FHXGSY0E5D","both","4","5","141","","","","","","","1","0","0","0.330981063","0.3300892518","","","","","0.07597240327","0.13947254","0.3300892518","0.2102135581","0.192058402","0.07577357845","0.330981063","0.3078297571","","","","","","","","75","K","2","","","105","main_expt"
"","bandit","185","766551","0.0-146.0-0.0","99329280","wem/bandit_double","A256FHXGSY0E5D","both","4","5","33","","","","","","","0","1","0","0.3317280627","0.3401839058","","","","","0.1124257427","0.1329526997","0.3401839058","0.2219457329","0.1562344916","0.09041352565","0.3317280627","0.3202685942","","","","","","","","75","K","2","","","106","main_expt"
"","bandit","186","768101","0.0-147.0-0.0","99329280","wem/bandit_double","A256FHXGSY0E5D","both","4","5","43","","","","","","","0","1","0","0.3163418234","0.3048423019","","","","","0.1133168519","0.1727290233","0.3784706915","0.3048423019","0.1493116313","0.1184921167","0.2760665195","0.3163418234","","","","","","","","76","L","3","","","107","main_expt"
"","bandit","187","769703","0.0-148.0-0.0","99329280","wem/bandit_double","A256FHXGSY0E5D","both","4","5","98","","","","","","","0","0","1","0.2826301941","0.3945753887","","","","","0.1752395656","0.1864487031","0.3945753887","0.258150515","0.1357435498","0.1057615429","0.2826301941","0.3425943818","","","","","","","","75","K","2","","","108","main_expt"
"","bandit","188","771273","0.0-149.0-0.0","99329280","wem/bandit_double","A256FHXGSY0E5D","both","4","5","63","","","","","","","0","0","1","0.2852030557","0.1859129148","","","","","0.1862973424","0.2463216238","0.356827327","0.1859129148","0.1164074326","0.1464484126","0.318117281","0.2852030557","","","","","","","","76","L","3","","","109","main_expt"
"","bandit","189","773003","0.0-150.0-0.0","99329280","wem/bandit_double","A256FHXGSY0E5D","both","4","5","224","","","","","","","1","0","0","0.3392406975","0.1371624404","","","","","0.2015845776","0.2431522628","0.2344179837","0.1371624404","0.1444451916","0.1641354829","0.3358587519","0.3392406975","","","","","","","","76","L","3","","","110","main_expt"
"","bandit","190","774561","0.0-151.0-0.0","99329280","wem/bandit_double","A256FHXGSY0E5D","both","4","5","51","","","","","","","1","0","0","0.3023411017","0.1258232978","","","","","0.2003651753","0.1757476643","0.2644823096","0.1258232978","0.09905323685","0.1386891192","0.3031660534","0.3023411017","","","","","","","","76","L","3","","","111","main_expt"
"","bandit","191","776241","0.0-152.0-0.0","99329280","wem/bandit_double","A256FHXGSY0E5D","both","4","5","174","","","","","","","1","0","0","0.296849772","0.1529967373","","","","","0.21392293","0.2451518953","0.28311182","0.1529967373","0.09652445584","0.1847512065","0.2773548355","0.296849772","","","","","","","","76","L","3","","","112","main_expt"
"","bandit","192","777900","0.0-153.0-0.0","99329280","wem/bandit_double","A256FHXGSY0E5D","both","4","5","154","","","","","","","0","0","1","0.2673419259","0.148248117","","","","","0.1606798039","0.2407836715","0.2413269532","0.148248117","0.09961189632","0.1304555333","0.2370758425","0.2673419259","","","","","","","","76","L","3","","","113","main_expt"
"","bandit","193","779522","0.0-154.0-0.0","99329280","wem/bandit_double","A256FHXGSY0E5D","both","4","5","115","","","","","","","0","0","1","0.1036139638","0.2095980235","","","","","0.2095980235","0.3099317417","0.3100969134","0.1562208239","0.1036139638","0.1770102637","0.1821928837","0.2670531803","","","","","","","","72","H","0","img/none_selected.jpg","","114","main_expt"
"","bandit","194","781095","0.0-155.0-0.0","99329280","wem/bandit_double","A256FHXGSY0E5D","both","4","5","68","","","","","","","0","0","1","0.1564651975","0.3180754701","","","","","0.2550279667","0.3180754701","0.329842252","0.2138032898","0.0968506792","0.1564651975","0.1315453283","0.2825009356","","","","","","","","74","J","1","","","115","main_expt"
"","bandit","195","782789","0.0-156.0-0.0","99329280","wem/bandit_double","A256FHXGSY0E5D","both","4","5","187","","","","","","","0","1","0","0.1102777544","0.3223706096","","","","","0.2471764387","0.2919742107","0.3223706096","0.2331260325","0.08782875681","0.1665702367","0.1102777544","0.3237719372","","","","","","","","75","K","2","","","116","main_expt"
"","bandit","196","784497","0.0-157.0-0.0","99329280","wem/bandit_double","A256FHXGSY0E5D","both","4","5","201","","","","","","","0","0","1","0.1101610351","0.3098408215","","","","","0.2730878341","0.2799774295","0.3098408215","0.1826309729","0.06031800864","0.1530687496","0.1101610351","0.3154846423","","","","","","","","75","K","2","","","117","main_expt"
"","bandit","197","786138","0.0-158.0-0.0","99329280","wem/bandit_double","A256FHXGSY0E5D","both","4","5","133","","","","","","","1","0","0","0.122460482","0.2974554567","","","","","0.2071462199","0.2646714695","0.2974554567","0.1511269107","0.05633053331","0.1674206906","0.122460482","0.2584508078","","","","","","","","75","K","2","","","118","main_expt"
"","bandit","198","787775","0.0-159.0-0.0","99329280","wem/bandit_double","A256FHXGSY0E5D","both","4","5","130","","","","","","","0","0","1","0.1451868924","0.3598468986","","","","","0.2275232499","0.3179839519","0.3598468986","0.1559979654","0.07530514027","0.1990215448","0.1451868924","0.2141905193","","","","","","","","75","K","2","","","119","main_expt"
"","bandit","199","789380","0.0-160.0-0.0","99329280","wem/bandit_double","A256FHXGSY0E5D","both","4","5","98","","","","","","","0","0","1","0.2341954374","0.1463004055","","","","","0.2767559596","0.3302262658","0.2984373086","0.1463004055","0.09639595661","0.2208640619","0.09092593383","0.2341954374","","","","","","","","76","L","3","","","120","main_expt"
"","bandit","200","791117","0.0-161.0-0.0","99329280","wem/bandit_double","A256FHXGSY0E5D","both","4","5","229","","","","","","","0","0","1","0.2602917539","0.3500549905","","","","","0.3448590315","0.3500549905","0.2973090059","0.1418195479","0.1421799471","0.2602917539","0.1080456108","0.1886372651","","","","","","","","74","J","1","","","121","main_expt"
"","bandit","201","792695","0.0-162.0-0.0","99329280","wem/bandit_double","A256FHXGSY0E5D","both","4","5","68","","","","","","","0","1","0","0.2512498235","0.2686616284","","","","","0.3593301016","0.2686616284","0.3382791822","0.1270782113","0.1624760489","0.2512498235","0.1169053248","0.1597592322","","","","","","","","74","J","1","","","122","main_expt"
"","bandit","202","794264","0.0-163.0-0.0","99329280","wem/bandit_double","A256FHXGSY0E5D","both","4","5","63","","","","","","","0","0","1","0.2266242761","0.2277230314","","","","","0.3680529171","0.2277230314","0.3154347028","0.1207154071","0.1640214383","0.2266242761","0.1571594809","0.1895266442","","","","","","","","74","J","1","","","123","main_expt"
"","bandit","203","795881","0.0-164.0-0.0","99329280","wem/bandit_double","A256FHXGSY0E5D","both","4","5","111","","","","","","","0","0","1","0.2014340991","0.3476523483","","","","","0.3476523483","0.3287090939","0.2966737815","0.1229329119","0.2014340991","0.2373824638","0.2231804049","0.2042850732","","","","","","","","72","H","0","img/none_selected.jpg","","124","main_expt"
"","bandit","204","797556","0.0-165.0-0.0","99329280","wem/bandit_double","A256FHXGSY0E5D","both","4","5","169","","","","","","","1","0","0","0.2232794356","0.3094831126","","","","","0.3564603465","0.3687339586","0.3094831126","0.09241122996","0.2229229076","0.2538727107","0.2232794356","0.1812515389","","","","","","","","75","K","2","","","125","main_expt"
"","bandit","205","799330","0.0-166.0-0.0","99329280","wem/bandit_double","A256FHXGSY0E5D","both","4","5","267","","","","","","","0","1","0","0.2316903634","0.2488993205","","","","","0.3550684458","0.3836195774","0.2488993205","0.08418962236","0.2324712723","0.290219491","0.2316903634","0.1694736183","","","","","","","","75","K","2","","","126","main_expt"
"","bandit","206","800998","0.0-167.0-0.0","99329280","wem/bandit_double","A256FHXGSY0E5D","both","4","5","160","","","","","","","0","1","0","0.2337524142","0.1953487027","","","","","0.3235559827","0.3617365958","0.1953487027","0.154715772","0.2628391623","0.2542505169","0.2337524142","0.1624528765","","","","","","","","75","K","2","","","127","main_expt"
"","bandit","207","802756","0.0-168.0-0.0","99329280","wem/bandit_double","A256FHXGSY0E5D","both","4","5","250","","","","","","","0","1","0","0.2198210178","0.2171889907","","","","","0.312087491","0.3235283493","0.2171889907","0.1556709078","0.2654356302","0.2582316027","0.2198210178","0.1632982916","","","","","","","","75","K","2","","","128","main_expt"
"","bandit","208","804546","0.0-169.0-0.0","99329280","wem/bandit_double","A256FHXGSY0E5D","both","4","5","283","","","","","","","0","0","1","0.2280168395","0.2467699801","","","","","0.2843272188","0.3453830546","0.2467699801","0.1214200615","0.2070569149","0.3267566011","0.2280168395","0.2264598068","","","","","","","","75","K","2","","","129","main_expt"
"","bandit","209","806101","0.0-170.0-0.0","99329280","wem/bandit_double","A256FHXGSY0E5D","both","4","5","49","","","","","","","0","0","1","0.202760285","0.1377283829","","","","","0.2128416856","0.3242747857","0.2814443482","0.1377283829","0.2579182239","0.3323271388","0.243895296","0.202760285","","","","","","","","76","L","3","","","130","main_expt"
"","bandit","210","807728","0.0-171.0-0.0","99329280","wem/bandit_double","A256FHXGSY0E5D","both","4","5","121","","","","","","","0","0","1","0.2164454501","0.2834176508","","","","","0.2403879813","0.3417201858","0.2834176508","0.1397421628","0.2329110821","0.2666668646","0.2164454501","0.1585094705","","","","","","","","75","K","2","","","131","main_expt"
"","bandit","211","809341","0.0-172.0-0.0","99329280","wem/bandit_double","A256FHXGSY0E5D","both","4","5","104","","","","","","","0","1","0","0.200468731","0.2429908031","","","","","0.2811421594","0.3498614837","0.2429908031","0.1061875113","0.2400232435","0.2359119393","0.200468731","0.1304261544","","","","","","","","75","K","2","","","132","main_expt"
"","bandit","212","810907","0.0-173.0-0.0","99329280","wem/bandit_double","A256FHXGSY0E5D","both","4","5","59","","","","","","","0","0","1","0.2038597077","0.3053559495","","","","","0.3002858371","0.3134828643","0.3053559495","0.07774811701","0.2084798617","0.2540740643","0.2038597077","0.09339990826","","","","","","","","75","K","2","","","133","main_expt"
"","bandit","213","812492","0.0-174.0-0.0","99329280","wem/bandit_double","A256FHXGSY0E5D","both","4","5","80","","","","","","","0","0","1","0.2414927735","0.3554593188","","","","","0.277406375","0.3554593188","0.2693478067","0.08211281178","0.2034544","0.2414927735","0.2263269307","0.08524612959","","","","","","","","74","J","1","","","134","main_expt"
"","bandit","214","814014","0.0-175.0-0.0","99329280","wem/bandit_double","A256FHXGSY0E5D","both","4","5","17","","","","","","","0","1","0","0.2088958693","0.2897147582","","","","","0.2897147582","0.3150900126","0.3369166079","0.1123817552","0.2088958693","0.2632369982","0.2686469146","0.0622033461","","","","","","","","72","H","0","img/none_selected.jpg","","135","main_expt"
"","bandit","215","815649","0.0-176.0-0.0","99329280","wem/bandit_double","A256FHXGSY0E5D","both","4","5","126","","","","","","","1","1","0","0.2573758916","0.3590576628","","","","","0.3590576628","0.3199395785","0.268603144","0.1478339482","0.2573758916","0.3032623762","0.3170393738","0.05632890875","","","","","","","","72","H","0","img/none_selected.jpg","","136","main_expt"
"","bandit","216","817329","0.0-177.0-0.0","99329280","wem/bandit_double","A256FHXGSY0E5D","both","4","5","170","","","","","","","1","1","0","0.2467438462","0.3822427384","","","","","0.3822427384","0.33362357","0.2373427956","0.1374936615","0.2467438462","0.2984046037","0.338962466","0.06052980877","","","","","","","","72","H","0","img/none_selected.jpg","","137","main_expt"
"","bandit","217","819064","0.0-178.0-0.0","99329280","wem/bandit_double","A256FHXGSY0E5D","both","4","5","229","","","","","","","0","1","0","0.2221944767","0.3410071165","","","","","0.3410071165","0.3611324022","0.2206869265","0.159761955","0.2221944767","0.3110629865","0.3586643031","0.1038497792","","","","","","","","72","H","0","img/none_selected.jpg","","138","main_expt"
"","bandit","218","820667","0.0-179.0-0.0","99329280","wem/bandit_double","A256FHXGSY0E5D","both","4","5","96","","","","","","","0","0","1","0.2750517365","0.3738014659","","","","","0.3738014659","0.3504145086","0.2177966349","0.1363721132","0.2750517365","0.3048373826","0.3430902759","0.08561062373","","","","","","","","72","H","0","img/none_selected.jpg","","139","main_expt"
"","bandit","219","822174","0.0-180.0-0.0","99329280","wem/bandit_double","A256FHXGSY0E5D","both","4","5","1","","","","","","","0","0","1","0.277474309","0.422575493","","","","","0.422575493","0.309774603","0.2387685432","0.1031445192","0.277474309","0.3163642845","0.3777112835","0.08025295029","","","","","","","","72","H","0","img/none_selected.jpg","","140","main_expt"
"","bandit","220","823814","0.0-181.0-0.0","99329280","wem/bandit_double","A256FHXGSY0E5D","both","4","5","133","","","","","","","0","1","0","0.2932007391","0.4439129864","","","","","0.4439129864","0.3506531288","0.2575087366","0.09805286369","0.2932007391","0.2213861514","0.4276051364","0.09309891757","","","","","","","","72","H","0","img/none_selected.jpg","","141","main_expt"
"","bandit","221","825481","0.0-182.0-0.0","99329280","wem/bandit_double","A256FHXGSY0E5D","both","4","5","161","","","","","","","0","0","1","0.3001807938","0.4323802182","","","","","0.4323802182","0.2965027242","0.2392038972","0.1149002948","0.3001807938","0.2492613222","0.4312347149","0.1107976638","","","","","","","","72","H","0","img/none_selected.jpg","","142","main_expt"
"","bandit","222","827097","0.0-183.0-0.0","99329280","wem/bandit_double","A256FHXGSY0E5D","both","4","5","109","","","","","","","1","0","0","0.09575525052","0.1209542099","","","","","0.4358412593","0.2087517366","0.2216470548","0.1209542099","0.3640878437","0.2645663874","0.386657586","0.09575525052","","","","","","","","76","L","3","","","143","main_expt"
"","bandit","223","828839","0.0-184.0-0.0","99329280","wem/bandit_double","A256FHXGSY0E5D","both","4","5","235","","","","","","","0","0","1","0.07222794989","0.1202521083","","","","","0.4407373256","0.2313605626","0.2224896139","0.1202521083","0.2706796495","0.2928215939","0.3409851627","0.07222794989","","","","","","","","76","L","3","","","144","main_expt"
"","bandit","224","830574","0.0-185.0-0.0","99329280","wem/bandit_double","A256FHXGSY0E5D","both","4","5","229","","","","","","","0","1","0","0.3178979655","0.1785565547","","","","","0.4661091035","0.1785565547","0.1925605464","0.1619743669","0.2359726437","0.3178979655","0.3538709708","0.03203798906","","","","","","","","74","J","1","","","145","main_expt"
"","bandit","225","832269","0.0-186.0-0.0","99329280","wem/bandit_double","A256FHXGSY0E5D","both","4","5","188","","","","","","","0","0","1","0.2850957273","0.1770660648","","","","","0.4637097668","0.1770660648","0.2069800611","0.1664631043","0.2200332621","0.2850957273","0.2745956728","0.03073079809","","","","","","","","74","J","1","","","146","main_expt"
"","bandit","226","833802","0.0-187.0-0.0","99329280","wem/bandit_double","A256FHXGSY0E5D","both","4","5","27","","","","","","","0","0","1","0.2375793476","0.2489662189","","","","","0.4700491642","0.1063371611","0.2489662189","0.1669241763","0.1957794229","0.2483519338","0.2375793476","0.05105424151","","","","","","","","75","K","2","","","147","main_expt"
"","bandit","227","835438","0.0-188.0-0.0","99329280","wem/bandit_double","A256FHXGSY0E5D","both","4","5","129","","","","","","","1","0","0","0.2309770791","0.1216370817","","","","","0.4648109734","0.1216370817","0.1946464158","0.1581456949","0.1790722045","0.2309770791","0.2954602587","0.04045355104","","","","","","","","74","J","1","","","148","main_expt"
"","bandit","228","837191","0.0-189.0-0.0","99329280","wem/bandit_double","A256FHXGSY0E5D","both","4","5","247","","","","","","","0","0","1","0.1759049641","0.1024256959","","","","","0.4635511513","0.1024256959","0.1826562491","0.1698392466","0.2189150546","0.1759049641","0.3435099865","0.06416506337","","","","","","","","74","J","1","","","149","main_expt"
"","bandit","229","838699","0.0-190.0-0.0","99329280","wem/bandit_double","A256FHXGSY0E5D","both","4","5","2","","","","","","","0","0","1","0.2119229637","0.4445017148","","","","","0.4445017148","0.1371094633","0.1750473563","0.2140114634","0.2119229637","0.1910702346","0.268900415","0.07819388902","","","","","","","","72","H","0","img/none_selected.jpg","","150","main_expt"
"","bandit","230","840304","0.0-191.0-0.0","99329280","wem/bandit_double","A256FHXGSY0E5D","both","4","5","99","","","","","","","1","0","0","0.2326488896","0.1109536645","","","","","0.4434799742","0.1702433702","0.1109536645","0.2392960001","0.2472398003","0.1799178466","0.2326488896","0.1186979887","","","","","","","","75","K","2","","","151","main_expt"
"","bandit","231","841877","0.0-192.0-0.0","99329280","wem/bandit_double","A256FHXGSY0E5D","both","4","5","66","","","","","","","0","0","1","0.2768057641","0.1143086707","","","","","0.4451665291","0.1860489046","0.1143086707","0.2095863317","0.2148428051","0.1826140084","0.2768057641","0.1084773402","","","","","","","","75","K","2","","","152","main_expt"
"","bandit","232","843405","0.0-193.0-0.0","99329280","wem/bandit_double","A256FHXGSY0E5D","both","4","5","21","","","","","","","0","0","1","0.147924298","0.2117094388","","","","","0.4401532833","0.2117094388","0.1236290712","0.2543258611","0.1598057249","0.147924298","0.2997660112","0.1314289417","","","","","","","","74","J","1","","","153","main_expt"
"","bandit","233","845015","0.0-194.0-0.0","99329280","wem/bandit_double","A256FHXGSY0E5D","both","4","5","104","","","","","","","0","1","0","0.1489099923","0.4516855879","","","","","0.4516855879","0.2072389033","0.1600695342","0.2602259906","0.1489099923","0.1388357139","0.3196464983","0.1354051011","","","","","","","","72","H","0","img/none_selected.jpg","","154","main_expt"
"","bandit","234","847142","0.0-195.0-0.0","99329280","wem/bandit_double","A256FHXGSY0E5D","both","4","5","620","","","","","","","0","1","0","0.1502541116","0.4480264808","","","","","0.4480264808","0.1986333914","0.1770288166","0.2750581274","0.1502541116","0.1658398244","0.3141654429","0.1085215933","","","","","","","","72","H","0","img/none_selected.jpg","","155","main_expt"
"","bandit","235","848865","0.0-196.0-0.0","99329280","wem/bandit_double","A256FHXGSY0E5D","both","4","5","216","","","","","","","0","0","1","0.1383379057","0.2438045727","","","","","0.4260414265","0.2054640346","0.1761817894","0.2438045727","0.1605084188","0.1104921729","0.2667217688","0.1383379057","","","","","","","","76","L","3","","","156","main_expt"
"","bandit","236","850513","0.0-197.0-0.0","99329280","wem/bandit_double","A256FHXGSY0E5D","both","4","5","141","","","","","","","0","0","1","0.1684101418","0.4365201507","","","","","0.4365201507","0.1810715383","0.1998830888","0.2857025143","0.1684101418","0.09530810267","0.2867075714","0.1428990181","","","","","","","","72","H","0","img/none_selected.jpg","","157","main_expt"
"","bandit","237","852253","0.0-198.0-0.0","99329280","wem/bandit_double","A256FHXGSY0E5D","both","4","5","234","","","","","","","0","0","1","0.1807688322","0.4076244479","","","","","0.4076244479","0.2118906364","0.2150354531","0.2887719476","0.1807688322","0.1211627972","0.2788639118","0.07455979893","","","","","","","","72","H","0","img/none_selected.jpg","","158","main_expt"
"","bandit","238","853821","0.0-199.0-0.0","99329280","wem/bandit_double","A256FHXGSY0E5D","both","4","5","61","","","","","","","0","1","0","0.1012897464","0.2293976715","","","","","0.403953851","0.2293976715","0.2221069796","0.2859462397","0.1516426412","0.1012897464","0.3020710819","0.1009372764","","","","","","","","74","J","1","","","159","main_expt"
"","bandit","239","855431","0.0-200.0-0.0","99329280","wem/bandit_double","A256FHXGSY0E5D","both","4","5","104","","","","","","","0","0","1","0.1188035868","0.2186051381","","","","","0.4282135537","0.2186051381","0.2627335039","0.207432816","0.1638698877","0.1188035868","0.3404227007","0.05118862797","","","","","","","","74","J","1","","","160","main_expt"
"","bandit","240","856991","0.0-201.0-0.0","99329280","wem/bandit_double","A256FHXGSY0E5D","both","4","5","54","","","","","","","0","1","0","0.1606836622","0.2175927206","","","","","0.4479073124","0.2175927206","0.2922457848","0.1611694724","0.1645359983","0.1606836622","0.2876249865","0.05265847637","","","","","","","","74","J","1","","","161","main_expt"
"","bandit","241","858735","0.0-202.0-0.0","99329280","wem/bandit_double","A256FHXGSY0E5D","both","4","5","236","","","","","","","1","0","0","0.2401308511","0.3040212123","","","","","0.4456201243","0.2370404117","0.3040212123","0.14378348","0.2509918509","0.1859884171","0.2401308511","0.07938684611","","","","","","","","75","K","2","","","162","main_expt"
"","bandit","242","860258","0.0-203.0-0.0","99329280","wem/bandit_double","A256FHXGSY0E5D","both","4","5","16","","","","","","","0","0","1","0.2486605046","0.2933359027","","","","","0.4384930657","0.2778780432","0.2933359027","0.1707099899","0.1883685458","0.2528258464","0.2486605046","0.0970900163","","","","","","","","75","K","2","","","163","main_expt"
"","bandit","243","861960","0.0-204.0-0.0","99329280","wem/bandit_double","A256FHXGSY0E5D","both","4","5","196","","","","","","","0","0","1","0.22675384","0.2388203062","","","","","0.4231568034","0.2643388611","0.2388203062","0.1933693166","0.2179532334","0.2515292425","0.22675384","0.07401968201","","","","","","","","75","K","2","","","164","main_expt"
"","bandit","244","863621","0.0-205.0-0.0","99329280","wem/bandit_double","A256FHXGSY0E5D","both","4","5","156","","","","","","","0","0","1","0.2068970429","0.1967204453","","","","","0.4412535734","0.1967204453","0.2646204916","0.2406324952","0.2143704678","0.2068970429","0.2841151948","0.06633104104","","","","","","","","74","J","1","","","165","main_expt"
"","bandit","245","865144","0.0-206.0-0.0","99329280","wem/bandit_double","A256FHXGSY0E5D","both","4","5","17","","","","","","","0","0","1","0.2175899085","0.438364003","","","","","0.438364003","0.1567937345","0.2591758032","0.2650462377","0.2175899085","0.1413778631","0.2842980464","0.05309652092","","","","","","","","72","H","0","img/none_selected.jpg","","166","main_expt"
"","bandit","246","866707","0.0-207.0-0.0","99329280","wem/bandit_double","A256FHXGSY0E5D","both","4","5","56","","","","","","","0","0","1","0.07357446968","0.245875583","","","","","0.4290991351","0.1201482918","0.1955934818","0.245875583","0.2137120923","0.1999497975","0.3007590714","0.07357446968","","","","","","","","76","L","3","","","167","main_expt"
"","bandit","247","868296","0.0-208.0-0.0","99329280","wem/bandit_double","A256FHXGSY0E5D","both","4","5","83","","","","","","","0","0","1","0.2884936601","0.2090603634","","","","","0.4510860662","0.0936051119","0.2090603634","0.257303599","0.2331560811","0.1696145944","0.2884936601","0.1054325378","","","","","","","","75","K","2","","","168","main_expt"
"","bandit","248","869969","0.0-209.0-0.0","99329280","wem/bandit_double","A256FHXGSY0E5D","both","4","5","165","","","","","","","0","0","1","0.1338518967","0.08775096918","","","","","0.4491424364","0.08775096918","0.2678479696","0.2993732043","0.2367963754","0.1338518967","0.2803439438","0.08536867429","","","","","","","","74","J","1","","","169","main_expt"
"","bandit","249","871702","0.0-210.0-0.0","99329280","wem/bandit_double","A256FHXGSY0E5D","both","4","5","228","","","","","","","0","0","1","0.2378050175","0.4332244901","","","","","0.4332244901","0.06743429675","0.2532125956","0.3388977639","0.2378050175","0.1307598277","0.3010437192","0.1083432756","","","","","","","","72","H","0","img/none_selected.jpg","","170","main_expt"
"","bandit","250","873230","0.0-211.0-0.0","99329280","wem/bandit_double","A256FHXGSY0E5D","both","4","5","22","","","","","","","0","1","0","0.2253696972","0.4405036994","","","","","0.4405036994","0.05979118822","0.2568627054","0.2947926635","0.2253696972","0.1200375331","0.3243802095","0.09185370626","","","","","","","","72","H","0","img/none_selected.jpg","","171","main_expt"
"","bandit","251","874863","0.0-212.0-0.0","99329280","wem/bandit_double","A256FHXGSY0E5D","both","4","5","127","","","","","","","1","0","0","0.2903394368","0.4358521759","","","","","0.4358521759","0.03200499914","0.2451563353","0.2892529657","0.2903394368","0.07514546963","0.3140094691","0.09458096772","","","","","","","","72","H","0","img/none_selected.jpg","","172","main_expt"
"","bandit","252","876585","0.0-213.0-0.0","99329280","wem/bandit_double","A256FHXGSY0E5D","both","4","5","215","","","","","","","0","1","0","0.2384828248","0.4471617722","","","","","0.4471617722","0.04613358223","0.3003395367","0.2571917514","0.2384828248","0.07704486673","0.2433770114","0.1016296913","","","","","","","","72","H","0","img/none_selected.jpg","","173","main_expt"
"","bandit","253","878307","0.0-214.0-0.0","99329280","wem/bandit_double","A256FHXGSY0E5D","both","4","5","216","","","","","","","0","1","0","0.2823111034","0.4560251174","","","","","0.4560251174","0.05969677181","0.2545998681","0.244173221","0.2823111034","0.04061738922","0.2080779891","0.117107939","","","","","","","","72","H","0","img/none_selected.jpg","","174","main_expt"
"","bandit","254","879976","0.0-215.0-0.0","99329280","wem/bandit_double","A256FHXGSY0E5D","both","4","5","161","","","","","","","1","0","0","0.292147578","0.4379349024","","","","","0.4379349024","0.05930066603","0.3383135611","0.2038098688","0.292147578","0.02968316822","0.2211365803","0.1254773658","","","","","","","","72","H","0","img/none_selected.jpg","","175","main_expt"
"","bandit","255","881649","0.0-216.0-0.0","99329280","wem/bandit_double","A256FHXGSY0E5D","both","4","5","166","","","","","","","0","0","1","0.2928295457","0.4328841116","","","","","0.4328841116","0.08110879181","0.3880627729","0.2053823003","0.2928295457","0.04419366322","0.231280906","0.1518856622","","","","","","","","72","H","0","img/none_selected.jpg","","176","main_expt"
"","bandit","256","883209","0.0-217.0-0.0","99329280","wem/bandit_double","A256FHXGSY0E5D","both","4","5","51","","","","","","","0","1","0","0.297241693","0.3965365967","","","","","0.3965365967","0.07611568943","0.3920994557","0.2193083282","0.297241693","0.04140429262","0.1689881391","0.1502483312","","","","","","","","72","H","0","img/none_selected.jpg","","177","main_expt"
"","bandit","257","884824","0.0-218.0-0.0","99329280","wem/bandit_double","A256FHXGSY0E5D","both","4","5","108","","","","","","","1","0","0","0.276241128","0.3899234309","","","","","0.3899234309","0.1220467165","0.3882277994","0.1904263594","0.276241128","0.06103489621","0.1699404395","0.2073149786","","","","","","","","72","H","0","img/none_selected.jpg","","178","main_expt"
"","bandit","258","886389","0.0-219.0-0.0","99329280","wem/bandit_double","A256FHXGSY0E5D","both","4","5","59","","","","","","","0","1","0","0.2405339857","0.4238443777","","","","","0.4238443777","0.1698853315","0.3939691408","0.2212788648","0.2405339857","0.053608248","0.1571972967","0.1928578162","","","","","","","","72","H","0","img/none_selected.jpg","","179","main_expt"
"","bandit","259","887939","0.0-220.0-0.0","99329280","wem/bandit_double","A256FHXGSY0E5D","both","4","5","43","","","","","","","1","0","0","0.233428307","0.4487400994","","","","","0.4487400994","0.1374762061","0.4074656662","0.2640717145","0.233428307","0.06289379635","0.1567782565","0.1412953234","","","","","","","","72","H","0","img/none_selected.jpg","","180","main_expt"
"","bandit","260","889674","0.0-221.0-0.0","99329280","wem/bandit_double","A256FHXGSY0E5D","both","4","5","228","","","","","","","0","1","0","0.1459310114","0.4314573438","","","","","0.4314573438","0.09961924189","0.3724421945","0.2426483564","0.1459310114","0.07748386732","0.1492691696","0.1258774719","","","","","","","","72","H","0","img/none_selected.jpg","","181","main_expt"
"","bandit","261","891293","0.0-222.0-0.0","99329280","wem/bandit_double","A256FHXGSY0E5D","both","4","5","112","","","","","","","0","0","1","0.1796360657","0.4458059303","","","","","0.4458059303","0.1391043194","0.2998177931","0.2001563476","0.1796360657","0.096714051","0.1609613705","0.1121960069","","","","","","","","72","H","0","img/none_selected.jpg","","182","main_expt"
"","bandit","262","892886","0.0-223.0-0.0","99329280","wem/bandit_double","A256FHXGSY0E5D","both","4","5","85","","","","","","","1","1","0","0.1907874973","0.4485460149","","","","","0.4485460149","0.1336424596","0.3629728763","0.2167094124","0.1907874973","0.05351369794","0.1982891881","0.08335286121","","","","","","","","72","H","0","img/none_selected.jpg","","183","main_expt"
"","bandit","263","894424","0.0-224.0-0.0","99329280","wem/bandit_double","A256FHXGSY0E5D","both","4","5","32","","","","","","","0","0","1","0.1451627339","0.4078350507","","","","","0.4078350507","0.115911235","0.3763603645","0.2402813617","0.1451627339","0.08854511538","0.1703318442","0.1085923678","","","","","","","","72","H","0","img/none_selected.jpg","","184","main_expt"
"","bandit","264","896094","0.0-225.0-0.0","99329280","wem/bandit_double","A256FHXGSY0E5D","both","4","5","164","","","","","","","0","0","1","0.1692531577","0.3805788675","","","","","0.3805788675","0.1394203739","0.3472982705","0.2745112141","0.1692531577","0.136385666","0.09566746086","0.1113654269","","","","","","","","72","H","0","img/none_selected.jpg","","185","main_expt"
"","bandit","265","897661","0.0-226.0-0.0","99329280","wem/bandit_double","A256FHXGSY0E5D","both","4","5","60","","","","","","","0","0","1","0.1848043888","0.1557479742","","","","","0.4236809331","0.1557479742","0.3095995051","0.2774566956","0.1885113298","0.1848043888","0.1254261761","0.1383531569","","","","","","","","74","J","1","","","186","main_expt"
"","bandit","266","899171","0.0-227.0-0.0","99329280","wem/bandit_double","A256FHXGSY0E5D","both","4","5","2","","","","","","","1","1","0","0.1640989128","0.1823611596","","","","","0.4058627081","0.1823611596","0.2567332284","0.2876011691","0.2088125345","0.1640989128","0.1081798115","0.1739713275","","","","","","","","74","J","1","","","187","main_expt"
"","bandit","267","900763","0.0-228.0-0.0","99329280","wem/bandit_double","A256FHXGSY0E5D","both","4","5","85","","","","","","","0","0","1","0.1301402021","0.1854179297","","","","","0.3913346521","0.1854179297","0.2555256861","0.2947112378","0.2228369986","0.1301402021","0.08529062399","0.1926366302","","","","","","","","74","J","1","","","188","main_expt"
"","bandit","268","902289","0.0-229.0-0.0","99329280","wem/bandit_double","A256FHXGSY0E5D","both","4","5","19","","","","","","","0","0","1","0.1980942663","0.1875645599","","","","","0.3760164219","0.1875645599","0.2009875262","0.2581494","0.2567428292","0.1980942663","0.07250281893","0.2499935398","","","","","","","","74","J","1","","","189","main_expt"
"","bandit","269","903853","0.0-230.0-0.0","99329280","wem/bandit_double","A256FHXGSY0E5D","both","4","5","58","","","","","","","0","0","1","0.07895395147","0.2055488595","","","","","0.3327352817","0.2018323604","0.2055488595","0.1756323468","0.3177850294","0.1842725295","0.07895395147","0.2367317824","","","","","","","","75","K","2","","","190","main_expt"
"","bandit","270","905797","0.0-231.0-0.0","99329280","wem/bandit_double","A256FHXGSY0E5D","both","4","5","438","","","","","","","0","0","1","0.06204701637","0.1506387864","","","","","0.3015177445","0.221094727","0.1506387864","0.2521570866","0.2876912335","0.2087081259","0.06204701637","0.2515026666","","","","","","","","75","K","2","","","191","main_expt"
"","bandit","271","907483","0.0-232.0-0.0","99329280","wem/bandit_double","A256FHXGSY0E5D","both","4","5","179","","","","","","","0","0","1","0.2451916405","0.2964739449","","","","","0.2773298268","0.2320570195","0.2027442266","0.2964739449","0.2383873749","0.1800110976","0.064067899","0.2451916405","","","","","","","","76","L","3","","","192","main_expt"
"","bandit","272","909133","0.0-233.0-0.0","99329280","wem/bandit_double","A256FHXGSY0E5D","both","4","5","144","","","","","","","0","0","1","0.2353451433","0.2612966838","","","","","0.2836613797","0.2948950962","0.1969137872","0.2612966838","0.24690957","0.1519186298","0.1286650472","0.2353451433","","","","","","","","76","L","3","","","193","main_expt"
"","bandit","273","910789","0.0-234.0-0.0","99329280","wem/bandit_double","A256FHXGSY0E5D","both","4","5","147","","","","","","","0","0","1","0.2728455101","0.2799350415","","","","","0.2799350415","0.2602906927","0.2114994946","0.3292914436","0.2728455101","0.1431656489","0.1746490116","0.307075739","","","","","","","","72","H","0","img/none_selected.jpg","","194","main_expt"
"","bandit","274","912440","0.0-235.0-0.0","99329280","wem/bandit_double","A256FHXGSY0E5D","both","4","5","145","","","","","","","0","0","1","0.1868251083","0.1771499101","","","","","0.2068597772","0.1771499101","0.2467939011","0.4070308407","0.2421292151","0.1868251083","0.129035247","0.3011001907","","","","","","","","74","J","1","","","195","main_expt"
"","bandit","275","914023","0.0-236.0-0.0","99329280","wem/bandit_double","A256FHXGSY0E5D","both","4","5","76","","","","","","","0","1","0","0.176624335","0.1746274925","","","","","0.2679469531","0.1746274925","0.2731811988","0.3494820729","0.2598052724","0.176624335","0.09052040682","0.2861216794","","","","","","","","74","J","1","","","196","main_expt"
"","bandit","276","915608","0.0-237.0-0.0","99329280","wem/bandit_double","A256FHXGSY0E5D","both","4","5","78","","","","","","","1","1","0","0.2383323772","0.193224684","","","","","0.2448078588","0.193224684","0.2512114903","0.3571939809","0.2540930088","0.2383323772","0.08675464884","0.2121549007","","","","","","","","74","J","1","","","197","main_expt"
"","bandit","277","917342","0.0-238.0-0.0","99329280","wem/bandit_double","A256FHXGSY0E5D","both","4","5","223","","","","","","","0","0","1","0.260618614","0.1771509929","","","","","0.2433987968","0.1771509929","0.190651112","0.382430028","0.2460150375","0.260618614","0.09429549835","0.260340052","","","","","","","","74","J","1","","","198","main_expt"
"","bandit","278","918931","0.0-239.0-0.0","99329280","wem/bandit_double","A256FHXGSY0E5D","both","4","5","81","","","","","","","0","0","1","0.2935067364","0.2466668772","","","","","0.2653624242","0.2466668772","0.1701189695","0.3353474301","0.2217343644","0.2935067364","0.09303778716","0.3009562829","","","","","","","","74","J","1","","","199","main_expt"
"","bandit","279","920481","0.0-240.0-0.0","99329280","wem/bandit_double","A256FHXGSY0E5D","both","4","5","43","","","","","","","1","0","0","0.362920627","0.2477816141","","","","","0.2551376492","0.2477816141","0.1656975488","0.3321976498","0.2830302048","0.362920627","0.07354084322","0.3430896668","","","","","","","","74","J","1","","","200","main_expt"
"","bandit","280","922056","0.0-241.0-0.0","99329280","wem/bandit_double","A256FHXGSY0E5D","both","4","5","68","","","","","","","0","0","1","0.3119044903","0.2744817861","","","","","0.2660639347","0.2744817861","0.1647298582","0.3218117355","0.3175621279","0.3119044903","0.08115367452","0.2973668079","","","","","","","","74","J","1","","","201","main_expt"
"","bandit","281","923712","0.0-242.0-0.0","99329280","wem/bandit_double","A256FHXGSY0E5D","both","4","5","118","","","","","","","0","0","1","0.3095695708","0.3043062986","","","","","0.2220900594","0.3043062986","0.1242041815","0.2949214693","0.3049471546","0.3095695708","0.0774842685","0.3219337599","","","","","","","","74","J","1","","","202","main_expt"
"","bandit","282","925374","0.0-243.0-0.0","99329280","wem/bandit_double","A256FHXGSY0E5D","both","4","5","155","","","","","","","1","0","0","0.2975042969","0.1543353204","","","","","0.1543353204","0.272185569","0.1684487429","0.300077299","0.2975042969","0.3005459379","0.09704724367","0.3229991028","","","","","","","","72","H","0","img/none_selected.jpg","","203","main_expt"
"","bandit","283","926933","0.0-244.0-0.0","99329280","wem/bandit_double","A256FHXGSY0E5D","both","4","5","51","","","","","","","1","0","0","0.2268457719","0.1605482003","","","","","0.1605482003","0.2610767704","0.1666409686","0.2866085977","0.2268457719","0.3116824409","0.1224111047","0.3077995671","","","","","","","","72","H","0","img/none_selected.jpg","","204","main_expt"
"","bandit","284","928743","0.0-245.0-0.0","99329280","wem/bandit_double","A256FHXGSY0E5D","both","4","5","279","","","","","","","1","0","0","0.2582085449","0.1406914754","","","","","0.1406914754","0.2832615928","0.2197286508","0.2695546272","0.2582085449","0.3291635812","0.1627664319","0.3070199156","","","","","","","","72","H","0","img/none_selected.jpg","","205","main_expt"
"","bandit","285","930538","0.0-246.0-0.0","99329280","wem/bandit_double","A256FHXGSY0E5D","both","4","5","287","","","","","","","0","0","1","0.2841247045","0.1138947463","","","","","0.1138947463","0.300913322","0.2754509052","0.2622178416","0.2841247045","0.4008790519","0.1604236747","0.3109683939","","","","","","","","72","H","0","img/none_selected.jpg","","206","main_expt"
"","bandit","286","932105","0.0-247.0-0.0","99329280","wem/bandit_double","A256FHXGSY0E5D","both","4","5","60","","","","","","","0","0","1","0.3333225396","0.1096702189","","","","","0.1096702189","0.3260258847","0.2664869377","0.2498186578","0.3333225396","0.4202180382","0.126388554","0.2845075958","","","","","","","","72","H","0","img/none_selected.jpg","","207","main_expt"
"","bandit","287","933882","0.0-248.0-0.0","99329280","wem/bandit_double","A256FHXGSY0E5D","both","4","5","270","","","","","","","0","0","1","0.290219871","0.09922356593","","","","","0.09922356593","0.3173829003","0.2686565688","0.2335358635","0.290219871","0.4168586074","0.1602309633","0.2419557814","","","","","","","","72","H","0","img/none_selected.jpg","","208","main_expt"
"","bandit","288","935543","0.0-249.0-0.0","99329280","wem/bandit_double","A256FHXGSY0E5D","both","4","5","154","","","","","","","0","1","0","0.3949328033","0.3153846937","","","","","0.101567507","0.3153846937","0.2380255957","0.2638942681","0.3426384504","0.3949328033","0.2009997365","0.2449545816","","","","","","","","74","J","1","","","209","main_expt"
"","bandit","289","937096","0.0-250.0-0.0","99329280","wem/bandit_double","A256FHXGSY0E5D","both","4","5","47","","","","","","","0","0","1","0.41782505","0.3010876552","","","","","0.08675379402","0.3010876552","0.2507768727","0.2526926237","0.2932754766","0.41782505","0.1997114924","0.2176860071","","","","","","","","74","J","1","","","210","main_expt"
"","bandit","290","938814","0.0-251.0-0.0","99329280","wem/bandit_double","A256FHXGSY0E5D","both","4","5","212","","","","","","","0","1","0","0.4377941382","0.2864900033","","","","","0.07512021269","0.2864900033","0.2685142319","0.2740367769","0.2522206247","0.4377941382","0.2631807131","0.2460847292","","","","","","","","74","J","1","","","211","main_expt"
"","bandit","291","940385","0.0-252.0-0.0","99329280","wem/bandit_double","A256FHXGSY0E5D","both","4","5","63","","","","","","","0","0","1","0.4619006446","0.3163372434","","","","","0.08144254236","0.3163372434","0.260511483","0.2440836191","0.2323705111","0.4619006446","0.2008991105","0.2017704833","","","","","","","","74","J","1","","","212","main_expt"
"","bandit","292","941947","0.0-253.0-0.0","99329280","wem/bandit_double","A256FHXGSY0E5D","both","4","5","56","","","","","","","0","0","1","0.4508737721","0.2701305136","","","","","0.06585574052","0.2701305136","0.2579605047","0.2341903104","0.2815580385","0.4508737721","0.1656487101","0.1891715169","","","","","","","","74","J","1","","","213","main_expt"
"","bandit","293","943468","0.0-254.0-0.0","99329280","wem/bandit_double","A256FHXGSY0E5D","both","4","5","13","","","","","","","0","1","0","0.213788386","0.2470456849","","","","","0.08686614453","0.302599165","0.2470456849","0.2097526345","0.2955812139","0.4639731149","0.213788386","0.1819308411","","","","","","","","75","K","2","","","214","main_expt"
"","bandit","294","945026","0.0-255.0-0.0","99329280","wem/bandit_double","A256FHXGSY0E5D","both","4","5","50","","","","","","","0","1","0","0.2206736926","0.3285383036","","","","","0.1068548489","0.2968005471","0.3285383036","0.1796882487","0.2988647484","0.4690757113","0.2206736926","0.1406935411","","","","","","","","75","K","2","","","215","main_expt"
