"consent","trial_type","trial_index","time_elapsed","internal_node_id","subjID","study","MID","cond","drift","rt","responses","key_press","expt_phase","like","value","connected","gems","bombs","no_reward","GemPrChosen","BombPrChosen","GainOverPainPr_0","GainOverPainPr_1","GainOverPainPr_2","GainOverPainPr_3","LosePr_0","LosePr_1","LosePr_2","LosePr_3","WinPr_0","WinPr_1","WinPr_2","WinPr_3","Q0","Q1","Q2","gender","age","ethnicity","target","respCharCode","respKey","respChoiceNum","respChoice","practice","trial_counter","trial_label","button_pressed"
"INL_behavioral_consent_30min_online.html","consent","0","12743","0.0-0.0","00768400","wem/bandit_either_3","A19UBZFVUWL1ES","either","2","","","","","","","","","","","","","","","","","","","","","","","","","","","","","","","","","","","","","","",""
"","survey-text","1","20944","0.0-1.0","00768400","wem/bandit_either_3","A19UBZFVUWL1ES","either","2","7189","{""Q0"":""A19UBZFVUWL1ES""}","","","","","","","","","","","","","","","","","","","","","","","","","","","","","","","","","","","","",""
"","text","2","33057","0.0-2.0","00768400","wem/bandit_either_3","A19UBZFVUWL1ES","either","2","11109","","32","","","","","","","","","","","","","","","","","","","","","","","","","","","","","","","","","","","",""
"","text","3","40063","0.0-3.0","00768400","wem/bandit_either_3","A19UBZFVUWL1ES","either","2","7004","","32","","","","","","","","","","","","","","","","","","","","","","","","","","","","","","","","","","","",""
"","text","4","58424","0.0-4.0","00768400","wem/bandit_either_3","A19UBZFVUWL1ES","either","2","18359","","32","","","","","","","","","","","","","","","","","","","","","","","","","","","","","","","","","","","",""
"","text","5","69799","0.0-5.0","00768400","wem/bandit_either_3","A19UBZFVUWL1ES","either","2","11373","","32","","","","","","","","","","","","","","","","","","","","","","","","","","","","","","","","","","","",""
"","text","6","81447","0.0-6.0","00768400","wem/bandit_either_3","A19UBZFVUWL1ES","either","2","11646","","32","","","","","","","","","","","","","","","","","","","","","","","","","","","","","","","","","","","",""
"","text","7","90510","0.0-7.0","00768400","wem/bandit_either_3","A19UBZFVUWL1ES","either","2","9060","","32","","","","","","","","","","","","","","","","","","","","","","","","","","","","","","","","","","","",""
"","text","8","94270","0.0-8.0","00768400","wem/bandit_either_3","A19UBZFVUWL1ES","either","2","3758","","32","","","","","","","","","","","","","","","","","","","","","","","","","","","","","","","","","","","",""
"","identification","9","102476","0.0-9.0-0.0","00768400","wem/bandit_either_3","A19UBZFVUWL1ES","either","2","8188","","","","3","3","3","","","","","","","","","","","","","","","","","","","","","","","","the village of Zur","","","","","","","",""
"","identification","10","118615","0.0-9.0-1.0","00768400","wem/bandit_either_3","A19UBZFVUWL1ES","either","2","15122","","","","3","3","3","","","","","","","","","","","","","","","","","","","","","","","","the village of Nyx","","","","","","","",""
"","text","11","141044","0.0-10.0","00768400","wem/bandit_either_3","A19UBZFVUWL1ES","either","2","21426","","32","","","","","","","","","","","","","","","","","","","","","","","","","","","","","","","","","","","",""
"","text","12","143028","0.0-11.0","00768400","wem/bandit_either_3","A19UBZFVUWL1ES","either","2","1982","","32","","","","","","","","","","","","","","","","","","","","","","","","","","","","","","","","","","","",""
"","text","13","145331","0.0-12.0","00768400","wem/bandit_either_3","A19UBZFVUWL1ES","either","2","2301","","32","","","","","","","","","","","","","","","","","","","","","","","","","","","","","","","","","","","",""
"","text","14","157149","0.0-13.0","00768400","wem/bandit_either_3","A19UBZFVUWL1ES","either","2","11815","","32","","","","","","","","","","","","","","","","","","","","","","","","","","","","","","","","","","","",""
"","bandit","15","159642","0.0-14.0-0.0","00768400","wem/bandit_either_3","A19UBZFVUWL1ES","either","2","976","","","","","","","0","0","1","0","0","","","","","0","","","","0","","","","","","","","","","","74","J","0","img/none_selected_demo.jpg","true","0","",""
"","bandit","16","161744","0.0-15.0-0.0","00768400","wem/bandit_either_3","A19UBZFVUWL1ES","either","2","589","","","","","","","0","0","1","0","0","","","","","0","","","","0","","","","","","","","","","","75","K","0","img/none_selected_demo.jpg","true","0","",""
"","text","17","192003","0.0-16.0","00768400","wem/bandit_either_3","A19UBZFVUWL1ES","either","2","30257","","32","","","","","","","","","","","","","","","","","","","","","","","","","","","","","","","","","","","",""
"","text","18","200370","0.0-17.0","00768400","wem/bandit_either_3","A19UBZFVUWL1ES","either","2","8365","","32","","","","","","","","","","","","","","","","","","","","","","","","","","","","","","","","","","","",""
"","text","19","206763","0.0-18.0","00768400","wem/bandit_either_3","A19UBZFVUWL1ES","either","2","6391","","32","","","","","","","","","","","","","","","","","","","","","","","","","","","","","","","","","","","",""
"","text","20","209993","0.0-19.0","00768400","wem/bandit_either_3","A19UBZFVUWL1ES","either","2","3228","","32","","","","","","","","","","","","","","","","","","","","","","","","","","","","","","","","","","","",""
"","bandit","21","212540","0.0-20.0-0.0","00768400","wem/bandit_either_3","A19UBZFVUWL1ES","either","2","1036","","","","","","","1","0","0","0.2","","0.5","0.5","","","","","","","0.8","0.2","","","","","","","","","","75","K","1","","true","0","80_20_practice",""
"","bandit","22","214439","0.0-20.0-1.0","00768400","wem/bandit_either_3","A19UBZFVUWL1ES","either","2","385","","","","","","","0","0","1","","0.2","0.5","0.5","","","0.8","0.2","","","","","","","","","","","","","","75","K","1","","true","0","80_20_practice",""
"","bandit","23","216267","0.0-20.0-2.0","00768400","wem/bandit_either_3","A19UBZFVUWL1ES","either","2","319","","","","","","","0","0","1","0.2","","0.5","0.5","","","","","","","0.8","0.2","","","","","","","","","","75","K","1","","true","0","80_20_practice",""
"","bandit","24","218135","0.0-20.0-3.0","00768400","wem/bandit_either_3","A19UBZFVUWL1ES","either","2","354","","","","","","","0","0","1","0.2","","0.5","0.5","","","","","","","0.8","0.2","","","","","","","","","","75","K","1","","true","0","80_20_practice",""
"","bandit","25","219988","0.0-20.0-4.0","00768400","wem/bandit_either_3","A19UBZFVUWL1ES","either","2","342","","","","","","","1","0","0","0.8","","0.5","0.5","","","","","","","0.8","0.2","","","","","","","","","","74","J","0","img/none_selected_demo.jpg","true","0","80_20_practice",""
"","bandit","26","221950","0.0-20.0-5.0","00768400","wem/bandit_either_3","A19UBZFVUWL1ES","either","2","449","","","","","","","0","1","0","","0.8","0.5","0.5","","","0.8","0.2","","","","","","","","","","","","","","74","J","0","img/none_selected_demo.jpg","true","0","80_20_practice",""
"","bandit","27","223843","0.0-20.0-6.0","00768400","wem/bandit_either_3","A19UBZFVUWL1ES","either","2","383","","","","","","","0","1","0","","0.8","0.5","0.5","","","0.8","0.2","","","","","","","","","","","","","","74","J","0","img/none_selected_demo.jpg","true","0","80_20_practice",""
"","bandit","28","225787","0.0-20.0-7.0","00768400","wem/bandit_either_3","A19UBZFVUWL1ES","either","2","387","","","","","","","0","0","1","","0.8","0.5","0.5","","","0.8","0.2","","","","","","","","","","","","","","74","J","0","img/none_selected_demo.jpg","true","0","80_20_practice",""
"","bandit","29","227731","0.0-20.0-8.0","00768400","wem/bandit_either_3","A19UBZFVUWL1ES","either","2","434","","","","","","","1","0","0","0.8","","0.5","0.5","","","","","","","0.8","0.2","","","","","","","","","","74","J","0","img/none_selected_demo.jpg","true","0","80_20_practice",""
"","bandit","30","229647","0.0-20.0-9.0","00768400","wem/bandit_either_3","A19UBZFVUWL1ES","either","2","404","","","","","","","0","1","0","","0.8","0.5","0.5","","","0.8","0.2","","","","","","","","","","","","","","74","J","0","img/none_selected_demo.jpg","true","0","80_20_practice",""
"","bandit","31","231493","0.0-20.0-10.0","00768400","wem/bandit_either_3","A19UBZFVUWL1ES","either","2","335","","","","","","","1","0","0","0.8","","0.5","0.5","","","","","","","0.8","0.2","","","","","","","","","","74","J","0","img/none_selected_demo.jpg","true","0","80_20_practice",""
"","bandit","32","233345","0.0-20.0-11.0","00768400","wem/bandit_either_3","A19UBZFVUWL1ES","either","2","344","","","","","","","1","0","0","0.8","","0.5","0.5","","","","","","","0.8","0.2","","","","","","","","","","74","J","0","img/none_selected_demo.jpg","true","0","80_20_practice",""
"","bandit","33","235191","0.0-20.0-12.0","00768400","wem/bandit_either_3","A19UBZFVUWL1ES","either","2","332","","","","","","","1","0","0","0.8","","0.5","0.5","","","","","","","0.8","0.2","","","","","","","","","","74","J","0","img/none_selected_demo.jpg","true","0","80_20_practice",""
"","bandit","34","236979","0.0-20.0-13.0","00768400","wem/bandit_either_3","A19UBZFVUWL1ES","either","2","277","","","","","","","0","0","1","0.8","","0.5","0.5","","","","","","","0.8","0.2","","","","","","","","","","74","J","0","img/none_selected_demo.jpg","true","0","80_20_practice",""
"","bandit","35","239776","0.0-20.0-14.0","00768400","wem/bandit_either_3","A19UBZFVUWL1ES","either","2","1282","","","","","","","1","0","0","0.8","","0.5","0.5","","","","","","","0.8","0.2","","","","","","","","","","74","J","0","img/none_selected_demo.jpg","true","0","80_20_practice",""
"","bandit","36","241738","0.0-20.0-15.0","00768400","wem/bandit_either_3","A19UBZFVUWL1ES","either","2","451","","","","","","","1","0","0","0.8","","0.5","0.5","","","","","","","0.8","0.2","","","","","","","","","","74","J","0","img/none_selected_demo.jpg","true","0","80_20_practice",""
"","bandit","37","243573","0.0-20.0-16.0","00768400","wem/bandit_either_3","A19UBZFVUWL1ES","either","2","324","","","","","","","0","1","0","","0.8","0.5","0.5","","","0.8","0.2","","","","","","","","","","","","","","74","J","0","img/none_selected_demo.jpg","true","0","80_20_practice",""
"","bandit","38","245535","0.0-20.0-17.0","00768400","wem/bandit_either_3","A19UBZFVUWL1ES","either","2","447","","","","","","","0","1","0","","0.8","0.5","0.5","","","0.8","0.2","","","","","","","","","","","","","","74","J","0","img/none_selected_demo.jpg","true","0","80_20_practice",""
"","bandit","39","247696","0.0-20.0-18.0","00768400","wem/bandit_either_3","A19UBZFVUWL1ES","either","2","645","","","","","","","0","0","1","0.8","","0.5","0.5","","","","","","","0.8","0.2","","","","","","","","","","74","J","0","img/none_selected_demo.jpg","true","0","80_20_practice",""
"","bandit","40","249873","0.0-20.0-19.0","00768400","wem/bandit_either_3","A19UBZFVUWL1ES","either","2","662","","","","","","","1","0","0","0.8","","0.5","0.5","","","","","","","0.8","0.2","","","","","","","","","","74","J","0","img/none_selected_demo.jpg","true","0","80_20_practice",""
"","text","41","254025","0.0-21.0","00768400","wem/bandit_either_3","A19UBZFVUWL1ES","either","2","4150","","32","","","","","","","","","","","","","","","","","","","","","","","","","","","","","","","","","","","",""
"","bandit","42","256704","0.0-22.0-0.0","00768400","wem/bandit_either_3","A19UBZFVUWL1ES","either","2","1162","","","","","","","1","0","0","1","0","","","","","0","1","","","1","0","","","","","","","","","","74","J","0","img/none_selected_demo.jpg","true","0","",""
"","text","43","289624","0.0-23.0","00768400","wem/bandit_either_3","A19UBZFVUWL1ES","either","2","32917","","32","","","","","","","","","","","","","","","","","","","","","","","","","","","","","","","","","","","",""
"","text","44","291695","0.0-24.0","00768400","wem/bandit_either_3","A19UBZFVUWL1ES","either","2","2068","","32","","","","","","","","","","","","","","","","","","","","","","","","","","","","","","","","","","","",""
"","text","45","294767","0.0-25.0","00768400","wem/bandit_either_3","A19UBZFVUWL1ES","either","2","3070","","32","","","","","","","","","","","","","","","","","","","","","","","","","","","","","","","","","","","",""
"","text","46","297687","0.0-26.0","00768400","wem/bandit_either_3","A19UBZFVUWL1ES","either","2","2918","","32","","","","","","","","","","","","","","","","","","","","","","","","","","","","","","","","","","","",""
"","text","47","320255","0.0-27.0","00768400","wem/bandit_either_3","A19UBZFVUWL1ES","either","2","22566","","32","","","","","","","","","","","","","","","","","","","","","","","","","","","","","","","","","","","",""
"","text","48","322902","0.0-28.0","00768400","wem/bandit_either_3","A19UBZFVUWL1ES","either","2","2645","","32","","","","","","","","","","","","","","","","","","","","","","","","","","","","","","","","","","","",""
"","text","49","338086","0.0-29.0","00768400","wem/bandit_either_3","A19UBZFVUWL1ES","either","2","15181","","32","","","","","","","","","","","","","","","","","","","","","","","","","","","","","","","","","","","",""
"","text","50","340621","0.0-30.0","00768400","wem/bandit_either_3","A19UBZFVUWL1ES","either","2","2533","","32","","","","","","","","","","","","","","","","","","","","","","","","","","","","","","","","","","","",""
"","text","51","344589","0.0-31.0","00768400","wem/bandit_either_3","A19UBZFVUWL1ES","either","2","3965","","32","","","","","","","","","","","","","","","","","","","","","","","","","","","","","","","","","","","",""
"","text","52","346309","0.0-32.0","00768400","wem/bandit_either_3","A19UBZFVUWL1ES","either","2","1717","","32","","","","","","","","","","","","","","","","","","","","","","","","","","","","","","","","","","","",""
"","text","53","349772","0.0-33.0","00768400","wem/bandit_either_3","A19UBZFVUWL1ES","either","2","3460","","32","","","","","","","","","","","","","","","","","","","","","","","","","","","","","","","","","","","",""
"","bandit","54","352280","0.0-34.0-0.0","00768400","wem/bandit_either_3","A19UBZFVUWL1ES","either","2","997","","","","","","","1","0","0","0.8","","0.5","0.5","0.5","0.5","","","","","0.8","0.2","0.6","0.2","","","","","","","","72","H","0","img/none_selected.jpg","true","0","full_practice",""
"","bandit","55","354265","0.0-34.0-1.0","00768400","wem/bandit_either_3","A19UBZFVUWL1ES","either","2","473","","","","","","","1","0","0","0.8","","0.5","0.5","0.5","0.5","","","","","0.8","0.2","0.6","0.2","","","","","","","","72","H","0","img/none_selected.jpg","true","0","full_practice",""
"","bandit","56","356321","0.0-34.0-2.0","00768400","wem/bandit_either_3","A19UBZFVUWL1ES","either","2","544","","","","","","","1","0","0","0.8","","0.5","0.5","0.5","0.5","","","","","0.8","0.2","0.6","0.2","","","","","","","","72","H","0","img/none_selected.jpg","true","0","full_practice",""
"","bandit","57","358435","0.0-34.0-3.0","00768400","wem/bandit_either_3","A19UBZFVUWL1ES","either","2","599","","","","","","","0","1","0","","0.8","0.5","0.5","0.5","0.5","0.8","0.2","0.6","0.2","","","","","","","","","","","","72","H","0","img/none_selected.jpg","true","0","full_practice",""
"","bandit","58","360313","0.0-34.0-4.0","00768400","wem/bandit_either_3","A19UBZFVUWL1ES","either","2","366","","","","","","","0","1","0","","0.8","0.5","0.5","0.5","0.5","0.8","0.2","0.6","0.2","","","","","","","","","","","","72","H","0","img/none_selected.jpg","true","0","full_practice",""
"","bandit","59","362434","0.0-34.0-5.0","00768400","wem/bandit_either_3","A19UBZFVUWL1ES","either","2","607","","","","","","","0","1","0","","0.8","0.5","0.5","0.5","0.5","0.8","0.2","0.6","0.2","","","","","","","","","","","","72","H","0","img/none_selected.jpg","true","0","full_practice",""
"","bandit","60","364575","0.0-34.0-6.0","00768400","wem/bandit_either_3","A19UBZFVUWL1ES","either","2","630","","","","","","","0","1","0","","0.8","0.5","0.5","0.5","0.5","0.8","0.2","0.6","0.2","","","","","","","","","","","","72","H","0","img/none_selected.jpg","true","0","full_practice",""
"","bandit","61","366438","0.0-34.0-7.0","00768400","wem/bandit_either_3","A19UBZFVUWL1ES","either","2","351","","","","","","","0","1","0","","0.8","0.5","0.5","0.5","0.5","0.8","0.2","0.6","0.2","","","","","","","","","","","","72","H","0","img/none_selected.jpg","true","0","full_practice",""
"","bandit","62","368394","0.0-34.0-8.0","00768400","wem/bandit_either_3","A19UBZFVUWL1ES","either","2","442","","","","","","","0","1","0","","0.8","0.5","0.5","0.5","0.5","0.8","0.2","0.6","0.2","","","","","","","","","","","","72","H","0","img/none_selected.jpg","true","0","full_practice",""
"","bandit","63","370280","0.0-34.0-9.0","00768400","wem/bandit_either_3","A19UBZFVUWL1ES","either","2","375","","","","","","","0","1","0","","0.8","0.5","0.5","0.5","0.5","0.8","0.2","0.6","0.2","","","","","","","","","","","","72","H","0","img/none_selected.jpg","true","0","full_practice",""
"","bandit","64","372121","0.0-34.0-10.0","00768400","wem/bandit_either_3","A19UBZFVUWL1ES","either","2","327","","","","","","","0","1","0","","0.8","0.5","0.5","0.5","0.5","0.8","0.2","0.6","0.2","","","","","","","","","","","","72","H","0","img/none_selected.jpg","true","0","full_practice",""
"","bandit","65","373982","0.0-34.0-11.0","00768400","wem/bandit_either_3","A19UBZFVUWL1ES","either","2","351","","","","","","","0","0","1","","0.2","0.5","0.5","0.5","0.5","0.8","0.2","0.6","0.2","","","","","","","","","","","","74","J","1","","true","0","full_practice",""
"","bandit","66","375783","0.0-34.0-12.0","00768400","wem/bandit_either_3","A19UBZFVUWL1ES","either","2","289","","","","","","","0","0","1","","0.2","0.5","0.5","0.5","0.5","0.8","0.2","0.6","0.2","","","","","","","","","","","","74","J","1","","true","0","full_practice",""
"","bandit","67","377641","0.0-34.0-13.0","00768400","wem/bandit_either_3","A19UBZFVUWL1ES","either","2","344","","","","","","","0","1","0","","0.6","0.5","0.5","0.5","0.5","0.8","0.2","0.6","0.2","","","","","","","","","","","","75","K","2","","true","0","full_practice",""
"","bandit","68","379516","0.0-34.0-14.0","00768400","wem/bandit_either_3","A19UBZFVUWL1ES","either","2","359","","","","","","","0","0","1","","0.6","0.5","0.5","0.5","0.5","0.8","0.2","0.6","0.2","","","","","","","","","","","","75","K","2","","true","0","full_practice",""
"","bandit","69","381367","0.0-34.0-15.0","00768400","wem/bandit_either_3","A19UBZFVUWL1ES","either","2","338","","","","","","","0","1","0","","0.6","0.5","0.5","0.5","0.5","0.8","0.2","0.6","0.2","","","","","","","","","","","","75","K","2","","true","0","full_practice",""
"","bandit","70","383335","0.0-34.0-16.0","00768400","wem/bandit_either_3","A19UBZFVUWL1ES","either","2","453","","","","","","","1","0","0","0.6","","0.5","0.5","0.5","0.5","","","","","0.8","0.2","0.6","0.2","","","","","","","","75","K","2","","true","0","full_practice",""
"","bandit","71","385197","0.0-34.0-17.0","00768400","wem/bandit_either_3","A19UBZFVUWL1ES","either","2","351","","","","","","","0","1","0","","0.6","0.5","0.5","0.5","0.5","0.8","0.2","0.6","0.2","","","","","","","","","","","","75","K","2","","true","0","full_practice",""
"","bandit","72","387256","0.0-34.0-18.0","00768400","wem/bandit_either_3","A19UBZFVUWL1ES","either","2","545","","","","","","","0","0","1","0.6","","0.5","0.5","0.5","0.5","","","","","0.8","0.2","0.6","0.2","","","","","","","","75","K","2","","true","0","full_practice",""
"","bandit","73","389169","0.0-34.0-19.0","00768400","wem/bandit_either_3","A19UBZFVUWL1ES","either","2","399","","","","","","","1","0","0","0.6","","0.5","0.5","0.5","0.5","","","","","0.8","0.2","0.6","0.2","","","","","","","","75","K","2","","true","0","full_practice",""
"","text","74","390348","0.0-35.0","00768400","wem/bandit_either_3","A19UBZFVUWL1ES","either","2","1171","","32","","","","","","","","","","","","","","","","","","","","","","","","","","","","","","","","","","","",""
"","text","75","400509","0.0-36.0","00768400","wem/bandit_either_3","A19UBZFVUWL1ES","either","2","9152","","32","","","","","","","","","","","","","","","","","","","","","","","","","","","","","","","","","","","",""
"","text","76","405123","0.0-37.0","00768400","wem/bandit_either_3","A19UBZFVUWL1ES","either","2","4612","","32","","","","","","","","","","","","","","","","","","","","","","","","","","","","","","","","","","","",""
"","text","77","409291","0.0-38.0","00768400","wem/bandit_either_3","A19UBZFVUWL1ES","either","2","4165","","32","","","","","","","","","","","","","","","","","","","","","","","","","","","","","","","","","","","",""
"","text","78","413724","0.0-39.0","00768400","wem/bandit_either_3","A19UBZFVUWL1ES","either","2","4430","","32","","","","","","","","","","","","","","","","","","","","","","","","","","","","","","","","","","","",""
"","text","79","416243","0.0-40.0","00768400","wem/bandit_either_3","A19UBZFVUWL1ES","either","2","2516","","32","","","","","","","","","","","","","","","","","","","","","","","","","","","","","","","","","","","",""
"","bandit","80","419548","0.0-41.0-0.0","00768400","wem/bandit_either_3","A19UBZFVUWL1ES","either","2","1787","","","","","","","0","1","0","","0.9925337928","0.6","0.4","0.8","0.2","0.7092854079","0.4841938304","0.7961415707","0.9925337928","","","","","","","","","","","","76","L","3","","","1","main_expt",""
"","bandit","81","421916","0.0-42.0-0.0","00768400","wem/bandit_either_3","A19UBZFVUWL1ES","either","2","850","","","","","","","1","0","0","0.9909612399","","0.6","0.4","0.8","0.2","","","","","0.7343230146","0.5300888233","0.7739630809","0.9909612399","","","","","","","","76","L","3","","","2","main_expt",""
"","bandit","82","425298","0.0-43.0-0.0","00768400","wem/bandit_either_3","A19UBZFVUWL1ES","either","2","1867","","","","","","","0","1","0","","0.9875934203","0.6","0.4","0.8","0.2","0.7616266478","0.4747636274","0.807852523","0.9875934203","","","","","","","","","","","","76","L","3","","","3","main_expt",""
"","bandit","83","427377","0.0-44.0-0.0","00768400","wem/bandit_either_3","A19UBZFVUWL1ES","either","2","564","","","","","","","0","1","0","","0.9782241123","0.6","0.4","0.8","0.2","0.7555889459","0.4841015375","0.7922386472","0.9782241123","","","","","","","","","","","","76","L","3","","","4","main_expt",""
"","bandit","84","429622","0.0-45.0-0.0","00768400","wem/bandit_either_3","A19UBZFVUWL1ES","either","2","732","","","","","","","0","1","0","","0.9756627961","0.6","0.4","0.8","0.2","0.733520678","0.5545204825","0.865094385","0.9756627961","","","","","","","","","","","","76","L","3","","","5","main_expt",""
"","bandit","85","432421","0.0-46.0-0.0","00768400","wem/bandit_either_3","A19UBZFVUWL1ES","either","2","1287","","","","","","","0","1","0","","0.967089612","0.6","0.4","0.8","0.2","0.6705264102","0.6032406034","0.800956518","0.967089612","","","","","","","","","","","","76","L","3","","","6","main_expt",""
"","bandit","86","434454","0.0-47.0-0.0","00768400","wem/bandit_either_3","A19UBZFVUWL1ES","either","2","520","","","","","","","1","0","0","0.9581374084","","0.6","0.4","0.8","0.2","","","","","0.6395389268","0.6629125932","0.826484282","0.9581374084","","","","","","","","76","L","3","","","7","main_expt",""
"","bandit","87","436625","0.0-48.0-0.0","00768400","wem/bandit_either_3","A19UBZFVUWL1ES","either","2","656","","","","","","","0","1","0","","0.9470057872","0.6","0.4","0.8","0.2","0.6463283336","0.6179372523","0.8721258401","0.9470057872","","","","","","","","","","","","76","L","3","","","8","main_expt",""
"","bandit","88","438719","0.0-49.0-0.0","00768400","wem/bandit_either_3","A19UBZFVUWL1ES","either","2","581","","","","","","","0","1","0","","0.9776699295","0.6","0.4","0.8","0.2","0.5257156782","0.7126464358","0.9123847657","0.9776699295","","","","","","","","","","","","76","L","3","","","9","main_expt",""
"","bandit","89","440849","0.0-50.0-0.0","00768400","wem/bandit_either_3","A19UBZFVUWL1ES","either","2","614","","","","","","","0","1","0","","0.9728878591","0.6","0.4","0.8","0.2","0.4763364632","0.7356985298","0.8996742502","0.9728878591","","","","","","","","","","","","76","L","3","","","10","main_expt",""
"","bandit","90","442958","0.0-51.0-0.0","00768400","wem/bandit_either_3","A19UBZFVUWL1ES","either","2","595","","","","","","","0","1","0","","0.9593139104","0.6","0.4","0.8","0.2","0.4284616273","0.768711937","0.9131723876","0.9593139104","","","","","","","","","","","","76","L","3","","","11","main_expt",""
"","bandit","91","445042","0.0-52.0-0.0","00768400","wem/bandit_either_3","A19UBZFVUWL1ES","either","2","567","","","","","","","0","1","0","","0.9498917819","0.6","0.4","0.8","0.2","0.3846657661","0.775032537","0.8766857583","0.9498917819","","","","","","","","","","","","76","L","3","","","12","main_expt",""
"","bandit","92","448204","0.0-53.0-0.0","00768400","wem/bandit_either_3","A19UBZFVUWL1ES","either","2","1651","","","","","","","0","1","0","","0.9541602679","0.6","0.4","0.8","0.2","0.4534267517","0.8005481332","0.8395211377","0.9541602679","","","","","","","","","","","","76","L","3","","","13","main_expt",""
"","bandit","93","451369","0.0-54.0-0.0","00768400","wem/bandit_either_3","A19UBZFVUWL1ES","either","2","1649","","","","","","","0","1","0","","0.9457654821","0.6","0.4","0.8","0.2","0.5781166702","0.8437703121","0.8716273459","0.9457654821","","","","","","","","","","","","76","L","3","","","14","main_expt",""
"","bandit","94","453359","0.0-55.0-0.0","00768400","wem/bandit_either_3","A19UBZFVUWL1ES","either","2","476","","","","","","","0","1","0","","0.961431504","0.6","0.4","0.8","0.2","0.6683268695","0.7878475566","0.8884181174","0.961431504","","","","","","","","","","","","76","L","3","","","15","main_expt",""
"","bandit","95","455269","0.0-56.0-0.0","00768400","wem/bandit_either_3","A19UBZFVUWL1ES","either","2","397","","","","","","","1","0","0","0.9614480804","","0.6","0.4","0.8","0.2","","","","","0.6948649322","0.7873795395","0.9144873871","0.9614480804","","","","","","","","76","L","3","","","16","main_expt",""
"","bandit","96","456894","0.0-57.0-0.0","00768400","wem/bandit_either_3","A19UBZFVUWL1ES","either","2","112","","","","","","","0","1","0","","0.981184269","0.6","0.4","0.8","0.2","0.7674725463","0.8084550093","0.915766025","0.981184269","","","","","","","","","","","","76","L","3","","","17","main_expt",""
"","bandit","97","459008","0.0-58.0-0.0","00768400","wem/bandit_either_3","A19UBZFVUWL1ES","either","2","600","","","","","","","0","1","0","","0.9861919244","0.6","0.4","0.8","0.2","0.7706733977","0.8436933745","0.9357816117","0.9861919244","","","","","","","","","","","","76","L","3","","","18","main_expt",""
"","bandit","98","461141","0.0-59.0-0.0","00768400","wem/bandit_either_3","A19UBZFVUWL1ES","either","2","619","","","","","","","0","1","0","","0.986789567","0.6","0.4","0.8","0.2","0.7396491891","0.8059530903","0.9482019282","0.986789567","","","","","","","","","","","","76","L","3","","","19","main_expt",""
"","bandit","99","464249","0.0-60.0-0.0","00768400","wem/bandit_either_3","A19UBZFVUWL1ES","either","2","1588","","","","","","","1","0","0","0.986183881","","0.6","0.4","0.8","0.2","","","","","0.6712916173","0.7839513496","0.9433726768","0.986183881","","","","","","","","76","L","3","","","20","main_expt",""
"","bandit","100","466334","0.0-61.0-0.0","00768400","wem/bandit_either_3","A19UBZFVUWL1ES","either","2","571","","","","","","","1","0","0","0.9887099493","","0.6","0.4","0.8","0.2","","","","","0.6728887443","0.7841815244","0.9488284628","0.9887099493","","","","","","","","76","L","3","","","21","main_expt",""
"","bandit","101","468927","0.0-62.0-0.0","00768400","wem/bandit_either_3","A19UBZFVUWL1ES","either","2","1079","","","","","","","1","0","0","0.992558567","","0.6","0.4","0.8","0.2","","","","","0.7838502077","0.8256278583","0.9500515088","0.992558567","","","","","","","","76","L","3","","","22","main_expt",""
"","bandit","102","472718","0.0-63.0-0.0","00768400","wem/bandit_either_3","A19UBZFVUWL1ES","either","2","2277","","","","","","","0","1","0","","0.9906074595","0.6","0.4","0.8","0.2","0.8711917965","0.7043778873","0.9645760881","0.9906074595","","","","","","","","","","","","76","L","3","","","23","main_expt",""
"","bandit","103","477294","0.0-64.0-0.0","00768400","wem/bandit_either_3","A19UBZFVUWL1ES","either","2","3061","","","","","","","0","1","0","","0.9828703082","0.6","0.4","0.8","0.2","0.861124964","0.7662705475","0.946785539","0.9828703082","","","","","","","","","","","","76","L","3","","","24","main_expt",""
"","bandit","104","480945","0.0-65.0-0.0","00768400","wem/bandit_either_3","A19UBZFVUWL1ES","either","2","2134","","","","","","","0","1","0","","0.984618899","0.6","0.4","0.8","0.2","0.8551403996","0.6915147264","0.9229473608","0.984618899","","","","","","","","","","","","76","L","3","","","25","main_expt",""
"","bandit","105","485158","0.0-66.0-0.0","00768400","wem/bandit_either_3","A19UBZFVUWL1ES","either","2","2699","","","","","","","0","1","0","","0.9780938917","0.6","0.4","0.8","0.2","0.8959771014","0.6844606422","0.8729820127","0.9780938917","","","","","","","","","","","","76","L","3","","","26","main_expt",""
"","bandit","106","487915","0.0-67.0-0.0","00768400","wem/bandit_either_3","A19UBZFVUWL1ES","either","2","1246","","","","","","","1","0","0","0.9634866904","","0.6","0.4","0.8","0.2","","","","","0.8786292531","0.7953701942","0.859067388","0.9634866904","","","","","","","","76","L","3","","","27","main_expt",""
"","bandit","107","490333","0.0-68.0-0.0","00768400","wem/bandit_either_3","A19UBZFVUWL1ES","either","2","905","","","","","","","1","0","0","0.946494378","","0.6","0.4","0.8","0.2","","","","","0.8920593834","0.622657036","0.836267867","0.946494378","","","","","","","","76","L","3","","","28","main_expt",""
"","bandit","108","492465","0.0-69.0-0.0","00768400","wem/bandit_either_3","A19UBZFVUWL1ES","either","2","565","","","","","","","0","1","0","","0.9338647731","0.6","0.4","0.8","0.2","0.8234517222","0.5757463716","0.7158546556","0.9338647731","","","","","","","","","","","","76","L","3","","","29","main_expt",""
"","bandit","109","495037","0.0-70.0-0.0","00768400","wem/bandit_either_3","A19UBZFVUWL1ES","either","2","1060","","","","","","","0","1","0","","0.9354801528","0.6","0.4","0.8","0.2","0.7963444676","0.6048158844","0.7262950886","0.9354801528","","","","","","","","","","","","76","L","3","","","30","main_expt",""
"","bandit","110","496668","0.0-71.0-0.0","00768400","wem/bandit_either_3","A19UBZFVUWL1ES","either","2","119","","","","","","","0","1","0","","0.9323861487","0.6","0.4","0.8","0.2","0.6847131082","0.4831208743","0.7049485024","0.9323861487","","","","","","","","","","","","76","L","3","","","31","main_expt",""
"","bandit","111","500430","0.0-72.0-0.0","00768400","wem/bandit_either_3","A19UBZFVUWL1ES","either","2","2247","","","","","","","1","0","0","0.9159531952","","0.6","0.4","0.8","0.2","","","","","0.7745616343","0.4413454117","0.6294605358","0.9159531952","","","","","","","","76","L","3","","","32","main_expt",""
"","bandit","112","503071","0.0-73.0-0.0","00768400","wem/bandit_either_3","A19UBZFVUWL1ES","either","2","1124","","","","","","","1","0","0","0.9501333659","","0.6","0.4","0.8","0.2","","","","","0.8111568365","0.589686364","0.7097184707","0.9501333659","","","","","","","","76","L","3","","","33","main_expt",""
"","bandit","113","505463","0.0-74.0-0.0","00768400","wem/bandit_either_3","A19UBZFVUWL1ES","either","2","875","","","","","","","0","1","0","","0.9485118263","0.6","0.4","0.8","0.2","0.7291364049","0.5789977489","0.6324728327","0.9485118263","","","","","","","","","","","","76","L","3","","","34","main_expt",""
"","bandit","114","509404","0.0-75.0-0.0","00768400","wem/bandit_either_3","A19UBZFVUWL1ES","either","2","2429","","","","","","","1","0","0","0.6809104991","","0.6","0.4","0.8","0.2","","","","","0.7920219322","0.5605822786","0.6809104991","0.959491173","","","","","","","","75","K","2","","","35","main_expt",""
"","bandit","115","512045","0.0-76.0-0.0","00768400","wem/bandit_either_3","A19UBZFVUWL1ES","either","2","1125","","","","","","","0","0","1","0.5745256001","","0.6","0.4","0.8","0.2","","","","","0.7889809596","0.3330948712","0.5745256001","0.9523687656","","","","","","","","75","K","2","","","36","main_expt",""
"","bandit","116","514056","0.0-77.0-0.0","00768400","wem/bandit_either_3","A19UBZFVUWL1ES","either","2","494","","","","","","","0","1","0","","0.9504344127","0.6","0.4","0.8","0.2","0.8060385269","0.2430176499","0.6249275122","0.9504344127","","","","","","","","","","","","76","L","3","","","37","main_expt",""
"","bandit","117","516221","0.0-78.0-0.0","00768400","wem/bandit_either_3","A19UBZFVUWL1ES","either","2","651","","","","","","","0","1","0","","0.9321408283","0.6","0.4","0.8","0.2","0.7188782676","0.3106083343","0.5582777804","0.9321408283","","","","","","","","","","","","76","L","3","","","38","main_expt",""
"","bandit","118","518624","0.0-79.0-0.0","00768400","wem/bandit_either_3","A19UBZFVUWL1ES","either","2","883","","","","","","","0","1","0","","0.9135525369","0.6","0.4","0.8","0.2","0.7387945131","0.3239447463","0.6619895395","0.9135525369","","","","","","","","","","","","76","L","3","","","39","main_expt",""
"","bandit","119","521264","0.0-80.0-0.0","00768400","wem/bandit_either_3","A19UBZFVUWL1ES","either","2","1125","","","","","","","0","1","0","","0.8840916364","0.6","0.4","0.8","0.2","0.7478035428","0.2946631509","0.6522152691","0.8840916364","","","","","","","","","","","","76","L","3","","","40","main_expt",""
"","bandit","120","524363","0.0-81.0-0.0","00768400","wem/bandit_either_3","A19UBZFVUWL1ES","either","2","1587","","","","","","","0","1","0","","0.8747037504","0.6","0.4","0.8","0.2","0.7802386085","0.193597671","0.6714070371","0.8747037504","","","","","","","","","","","","76","L","3","","","41","main_expt",""
"","bandit","121","526379","0.0-82.0-0.0","00768400","wem/bandit_either_3","A19UBZFVUWL1ES","either","2","503","","","","","","","0","1","0","","0.826315498","0.6","0.4","0.8","0.2","0.7994277013","0.1834529884","0.6390104416","0.826315498","","","","","","","","","","","","76","L","3","","","42","main_expt",""
"","bandit","122","528363","0.0-83.0-0.0","00768400","wem/bandit_either_3","A19UBZFVUWL1ES","either","2","471","","","","","","","0","1","0","","0.7681371561","0.6","0.4","0.8","0.2","0.8718069658","0.1558663495","0.6318841448","0.7681371561","","","","","","","","","","","","76","L","3","","","43","main_expt",""
"","bandit","123","530354","0.0-84.0-0.0","00768400","wem/bandit_either_3","A19UBZFVUWL1ES","either","2","480","","","","","","","0","1","0","","0.7584360225","0.6","0.4","0.8","0.2","0.7725207311","0.1573065196","0.5708139437","0.7584360225","","","","","","","","","","","","76","L","3","","","44","main_expt",""
"","bandit","124","532695","0.0-85.0-0.0","00768400","wem/bandit_either_3","A19UBZFVUWL1ES","either","2","825","","","","","","","0","0","1","","0.816959585","0.6","0.4","0.8","0.2","0.8399140445","0.1743203636","0.5703812278","0.816959585","","","","","","","","","","","","76","L","3","","","45","main_expt",""
"","bandit","125","534773","0.0-86.0-0.0","00768400","wem/bandit_either_3","A19UBZFVUWL1ES","either","2","562","","","","","","","0","0","1","","0.1234040722","0.6","0.4","0.8","0.2","0.7830678696","0.1234040722","0.4520700595","0.7571269921","","","","","","","","","","","","74","J","1","","","46","main_expt",""
"","bandit","126","536811","0.0-87.0-0.0","00768400","wem/bandit_either_3","A19UBZFVUWL1ES","either","2","524","","","","","","","0","1","0","","0.8255209912","0.6","0.4","0.8","0.2","0.8255209912","0.1592846429","0.4953600952","0.7086567283","","","","","","","","","","","","72","H","0","img/none_selected.jpg","","47","main_expt",""
"","bandit","127","538964","0.0-88.0-0.0","00768400","wem/bandit_either_3","A19UBZFVUWL1ES","either","2","638","","","","","","","1","0","0","0.7728754614","","0.6","0.4","0.8","0.2","","","","","0.7728754614","0.1880090658","0.4912921637","0.6428227569","","","","","","","","72","H","0","img/none_selected.jpg","","48","main_expt",""
"","bandit","128","540965","0.0-89.0-0.0","00768400","wem/bandit_either_3","A19UBZFVUWL1ES","either","2","486","","","","","","","0","1","0","","0.8607162984","0.6","0.4","0.8","0.2","0.8607162984","0.3190576765","0.4694413912","0.7004196772","","","","","","","","","","","","72","H","0","img/none_selected.jpg","","49","main_expt",""
"","bandit","129","542614","0.0-90.0-0.0","00768400","wem/bandit_either_3","A19UBZFVUWL1ES","either","2","130","","","","","","","0","1","0","","0.8526113732","0.6","0.4","0.8","0.2","0.8526113732","0.277770718","0.5835687148","0.6418514465","","","","","","","","","","","","72","H","0","img/none_selected.jpg","","50","main_expt",""
"","bandit","130","545562","0.0-91.0-0.0","00768400","wem/bandit_either_3","A19UBZFVUWL1ES","either","2","1436","","","","","","","0","1","0","","0.8630835666","0.6","0.4","0.8","0.2","0.8630835666","0.3304163056","0.581499138","0.6322169777","","","","","","","","","","","","72","H","0","img/none_selected.jpg","","51","main_expt",""
"","bandit","131","547902","0.0-92.0-0.0","00768400","wem/bandit_either_3","A19UBZFVUWL1ES","either","2","823","","","","","","","0","1","0","","0.8689990829","0.6","0.4","0.8","0.2","0.8689990829","0.3074301744","0.6521379128","0.6160259873","","","","","","","","","","","","72","H","0","img/none_selected.jpg","","52","main_expt",""
"","bandit","132","550301","0.0-93.0-0.0","00768400","wem/bandit_either_3","A19UBZFVUWL1ES","either","2","883","","","","","","","1","0","0","0.8829627288","","0.6","0.4","0.8","0.2","","","","","0.8829627288","0.3292402402","0.5743957808","0.6635838846","","","","","","","","72","H","0","img/none_selected.jpg","","53","main_expt",""
"","bandit","133","552327","0.0-94.0-0.0","00768400","wem/bandit_either_3","A19UBZFVUWL1ES","either","2","508","","","","","","","0","1","0","","0.8577096669","0.6","0.4","0.8","0.2","0.8577096669","0.3701383524","0.4765250731","0.7334380463","","","","","","","","","","","","72","H","0","img/none_selected.jpg","","54","main_expt",""
"","bandit","134","554574","0.0-95.0-0.0","00768400","wem/bandit_either_3","A19UBZFVUWL1ES","either","2","729","","","","","","","0","1","0","","0.7951355038","0.6","0.4","0.8","0.2","0.7951355038","0.4023440482","0.472038817","0.6625049704","","","","","","","","","","","","72","H","0","img/none_selected.jpg","","55","main_expt",""
"","bandit","135","558612","0.0-96.0-0.0","00768400","wem/bandit_either_3","A19UBZFVUWL1ES","either","2","2524","","","","","","","0","0","1","0.7832403428","","0.6","0.4","0.8","0.2","","","","","0.7832403428","0.3320470731","0.6060805283","0.6244126183","","","","","","","","72","H","0","img/none_selected.jpg","","56","main_expt",""
"","bandit","136","560521","0.0-97.0-0.0","00768400","wem/bandit_either_3","A19UBZFVUWL1ES","either","2","396","","","","","","","0","1","0","","0.693445159","0.6","0.4","0.8","0.2","0.7165346004","0.3398704556","0.5733746242","0.693445159","","","","","","","","","","","","76","L","3","","","57","main_expt",""
"","bandit","137","562804","0.0-98.0-0.0","00768400","wem/bandit_either_3","A19UBZFVUWL1ES","either","2","767","","","","","","","0","1","0","","0.6603141298","0.6","0.4","0.8","0.2","0.7840704931","0.3171476707","0.5268086549","0.6603141298","","","","","","","","","","","","76","L","3","","","58","main_expt",""
"","bandit","138","564753","0.0-99.0-0.0","00768400","wem/bandit_either_3","A19UBZFVUWL1ES","either","2","436","","","","","","","0","0","1","","0.6435133917","0.6","0.4","0.8","0.2","0.7166558068","0.1868584885","0.5298916697","0.6435133917","","","","","","","","","","","","76","L","3","","","59","main_expt",""
"","bandit","139","566802","0.0-100.0-0.0","00768400","wem/bandit_either_3","A19UBZFVUWL1ES","either","2","533","","","","","","","0","0","1","","0.6720075741","0.6","0.4","0.8","0.2","0.6505055492","0.2163153633","0.5547432704","0.6720075741","","","","","","","","","","","","76","L","3","","","60","main_expt",""
"","bandit","140","569050","0.0-101.0-0.0","00768400","wem/bandit_either_3","A19UBZFVUWL1ES","either","2","735","","","","","","","1","0","0","0.6465946667","","0.6","0.4","0.8","0.2","","","","","0.6465946667","0.2086512551","0.5407031957","0.6703611074","","","","","","","","72","H","0","img/none_selected.jpg","","61","main_expt",""
"","bandit","141","571164","0.0-102.0-0.0","00768400","wem/bandit_either_3","A19UBZFVUWL1ES","either","2","598","","","","","","","0","0","1","0.709990362","","0.6","0.4","0.8","0.2","","","","","0.709990362","0.2250062338","0.6993449034","0.64477312","","","","","","","","72","H","0","img/none_selected.jpg","","62","main_expt",""
"","bandit","142","573106","0.0-103.0-0.0","00768400","wem/bandit_either_3","A19UBZFVUWL1ES","either","2","426","","","","","","","0","0","1","","0.509049177","0.6","0.4","0.8","0.2","0.7542168012","0.2739380208","0.6342967703","0.509049177","","","","","","","","","","","","76","L","3","","","63","main_expt",""
"","bandit","143","575333","0.0-104.0-0.0","00768400","wem/bandit_either_3","A19UBZFVUWL1ES","either","2","709","","","","","","","1","0","0","0.5535424332","","0.6","0.4","0.8","0.2","","","","","0.7660604158","0.3449536465","0.5961490325","0.5535424332","","","","","","","","76","L","3","","","64","main_expt",""
"","bandit","144","577537","0.0-105.0-0.0","00768400","wem/bandit_either_3","A19UBZFVUWL1ES","either","2","691","","","","","","","0","1","0","","0.6608621899","0.6","0.4","0.8","0.2","0.7572602099","0.34640195","0.5771190674","0.6608621899","","","","","","","","","","","","76","L","3","","","65","main_expt",""
"","bandit","145","579720","0.0-106.0-0.0","00768400","wem/bandit_either_3","A19UBZFVUWL1ES","either","2","663","","","","","","","0","0","1","","0.6535341977","0.6","0.4","0.8","0.2","0.686926195","0.5266288285","0.4765921407","0.6535341977","","","","","","","","","","","","76","L","3","","","66","main_expt",""
"","bandit","146","582528","0.0-107.0-0.0","00768400","wem/bandit_either_3","A19UBZFVUWL1ES","either","2","1295","","","","","","","0","1","0","","0.6592628399","0.6","0.4","0.8","0.2","0.7334195653","0.5588671697","0.5714361875","0.6592628399","","","","","","","","","","","","76","L","3","","","67","main_expt",""
"","bandit","147","585111","0.0-108.0-0.0","00768400","wem/bandit_either_3","A19UBZFVUWL1ES","either","2","1071","","","","","","","0","0","1","","0.6735013879","0.6","0.4","0.8","0.2","0.6114245881","0.6097536784","0.6231829193","0.6735013879","","","","","","","","","","","","76","L","3","","","68","main_expt",""
"","bandit","148","586835","0.0-109.0-0.0","00768400","wem/bandit_either_3","A19UBZFVUWL1ES","either","2","208","","","","","","","0","1","0","","0.7209687993","0.6","0.4","0.8","0.2","0.6460921668","0.533457584","0.5130256365","0.7209687993","","","","","","","","","","","","76","L","3","","","69","main_expt",""
"","bandit","149","589042","0.0-110.0-0.0","00768400","wem/bandit_either_3","A19UBZFVUWL1ES","either","2","692","","","","","","","0","0","1","","0.690528825","0.6","0.4","0.8","0.2","0.6700702736","0.4124750721","0.5167166","0.690528825","","","","","","","","","","","","76","L","3","","","70","main_expt",""
"","bandit","150","590765","0.0-111.0-0.0","00768400","wem/bandit_either_3","A19UBZFVUWL1ES","either","2","206","","","","","","","0","0","1","0.6448170737","","0.6","0.4","0.8","0.2","","","","","0.6388012411","0.4486526525","0.6448170737","0.6453310316","","","","","","","","75","K","2","","","71","main_expt",""
"","bandit","151","592926","0.0-112.0-0.0","00768400","wem/bandit_either_3","A19UBZFVUWL1ES","either","2","643","","","","","","","0","0","1","","0.4313602212","0.6","0.4","0.8","0.2","0.6046900378","0.4313602212","0.5640434706","0.8140348339","","","","","","","","","","","","74","J","1","","","72","main_expt",""
"","bandit","152","594921","0.0-113.0-0.0","00768400","wem/bandit_either_3","A19UBZFVUWL1ES","either","2","482","","","","","","","0","0","1","","0.6062428704","0.6","0.4","0.8","0.2","0.6062428704","0.3639072561","0.6296110197","0.820931829","","","","","","","","","","","","72","H","0","img/none_selected.jpg","","73","main_expt",""
"","bandit","153","596910","0.0-114.0-0.0","00768400","wem/bandit_either_3","A19UBZFVUWL1ES","either","2","479","","","","","","","1","0","0","0.8096233945","","0.6","0.4","0.8","0.2","","","","","0.6237194739","0.2882181569","0.6730210969","0.8096233945","","","","","","","","76","L","3","","","74","main_expt",""
"","bandit","154","599027","0.0-115.0-0.0","00768400","wem/bandit_either_3","A19UBZFVUWL1ES","either","2","600","","","","","","","0","1","0","","0.7615001707","0.6","0.4","0.8","0.2","0.5971007372","0.3561187133","0.5720403827","0.7615001707","","","","","","","","","","","","76","L","3","","","75","main_expt",""
"","bandit","155","601665","0.0-116.0-0.0","00768400","wem/bandit_either_3","A19UBZFVUWL1ES","either","2","1126","","","","","","","0","1","0","","0.8147365981","0.6","0.4","0.8","0.2","0.5810032438","0.4480894403","0.6303512149","0.8147365981","","","","","","","","","","","","76","L","3","","","76","main_expt",""
"","bandit","156","604199","0.0-117.0-0.0","00768400","wem/bandit_either_3","A19UBZFVUWL1ES","either","2","1014","","","","","","","0","1","0","","0.8926338818","0.6","0.4","0.8","0.2","0.5792233978","0.3220850356","0.5531797874","0.8926338818","","","","","","","","","","","","76","L","3","","","77","main_expt",""
"","bandit","157","606177","0.0-118.0-0.0","00768400","wem/bandit_either_3","A19UBZFVUWL1ES","either","2","463","","","","","","","1","0","0","0.8669072201","","0.6","0.4","0.8","0.2","","","","","0.692511921","0.3281133775","0.5449672882","0.8669072201","","","","","","","","76","L","3","","","78","main_expt",""
"","bandit","158","608372","0.0-119.0-0.0","00768400","wem/bandit_either_3","A19UBZFVUWL1ES","either","2","677","","","","","","","0","1","0","","0.9114006046","0.6","0.4","0.8","0.2","0.7019625083","0.3814329202","0.4484013318","0.9114006046","","","","","","","","","","","","76","L","3","","","79","main_expt",""
"","bandit","159","610159","0.0-120.0-0.0","00768400","wem/bandit_either_3","A19UBZFVUWL1ES","either","2","273","","","","","","","1","0","0","0.9268398106","","0.6","0.4","0.8","0.2","","","","","0.6785675641","0.3512572076","0.5041425745","0.9268398106","","","","","","","","76","L","3","","","80","main_expt",""
"","bandit","160","613084","0.0-121.0-0.0","00768400","wem/bandit_either_3","A19UBZFVUWL1ES","either","2","1409","","","","","","","0","1","0","","0.9582858862","0.6","0.4","0.8","0.2","0.7101061672","0.3624285329","0.3462078978","0.9582858862","","","","","","","","","","","","76","L","3","","","81","main_expt",""
"","bandit","161","615466","0.0-122.0-0.0","00768400","wem/bandit_either_3","A19UBZFVUWL1ES","either","2","867","","","","","","","0","1","0","","0.9590071975","0.6","0.4","0.8","0.2","0.7217376576","0.3111883408","0.3226795418","0.9590071975","","","","","","","","","","","","76","L","3","","","82","main_expt",""
"","bandit","162","618895","0.0-123.0-0.0","00768400","wem/bandit_either_3","A19UBZFVUWL1ES","either","2","1914","","","","","","","0","1","0","","0.9379973093","0.6","0.4","0.8","0.2","0.6437777395","0.243162563","0.3023868023","0.9379973093","","","","","","","","","","","","76","L","3","","","83","main_expt",""
"","bandit","163","621329","0.0-124.0-0.0","00768400","wem/bandit_either_3","A19UBZFVUWL1ES","either","2","919","","","","","","","1","0","0","0.9411979228","","0.6","0.4","0.8","0.2","","","","","0.6533183273","0.347146949","0.4040419094","0.9411979228","","","","","","","","76","L","3","","","84","main_expt",""
"","bandit","164","624136","0.0-125.0-0.0","00768400","wem/bandit_either_3","A19UBZFVUWL1ES","either","2","1295","","","","","","","0","1","0","","0.9441700551","0.6","0.4","0.8","0.2","0.7469548387","0.4416309426","0.4716136817","0.9441700551","","","","","","","","","","","","76","L","3","","","85","main_expt",""
"","bandit","165","627010","0.0-126.0-0.0","00768400","wem/bandit_either_3","A19UBZFVUWL1ES","either","2","1358","","","","","","","0","1","0","","0.9323605113","0.6","0.4","0.8","0.2","0.7366570046","0.4523797492","0.4455883603","0.9323605113","","","","","","","","","","","","76","L","3","","","86","main_expt",""
"","bandit","166","629338","0.0-127.0-0.0","00768400","wem/bandit_either_3","A19UBZFVUWL1ES","either","2","812","","","","","","","0","1","0","","0.8871332711","0.6","0.4","0.8","0.2","0.7142428019","0.4621103264","0.5952575165","0.8871332711","","","","","","","","","","","","76","L","3","","","87","main_expt",""
"","bandit","167","632078","0.0-128.0-0.0","00768400","wem/bandit_either_3","A19UBZFVUWL1ES","either","2","1227","","","","","","","1","0","0","0.8520973281","","0.6","0.4","0.8","0.2","","","","","0.7057172343","0.3800084876","0.5333825583","0.8520973281","","","","","","","","76","L","3","","","88","main_expt",""
"","bandit","168","634753","0.0-129.0-0.0","00768400","wem/bandit_either_3","A19UBZFVUWL1ES","either","2","1161","","","","","","","1","0","0","0.7882210871","","0.6","0.4","0.8","0.2","","","","","0.7289934888","0.2354372355","0.4583166828","0.7882210871","","","","","","","","76","L","3","","","89","main_expt",""
"","bandit","169","636984","0.0-130.0-0.0","00768400","wem/bandit_either_3","A19UBZFVUWL1ES","either","2","714","","","","","","","0","1","0","","0.720110267","0.6","0.4","0.8","0.2","0.7475354559","0.2978482647","0.4782349553","0.720110267","","","","","","","","","","","","76","L","3","","","90","main_expt",""
"","bandit","170","638846","0.0-131.0-0.0","00768400","wem/bandit_either_3","A19UBZFVUWL1ES","either","2","348","","","","","","","0","1","0","","0.7390342074","0.6","0.4","0.8","0.2","0.6316706059","0.3723871884","0.464138054","0.7390342074","","","","","","","","","","","","76","L","3","","","91","main_expt",""
"","bandit","171","641124","0.0-132.0-0.0","00768400","wem/bandit_either_3","A19UBZFVUWL1ES","either","2","767","","","","","","","0","0","1","","0.8135224625","0.6","0.4","0.8","0.2","0.6957908828","0.5400298203","0.5084128334","0.8135224625","","","","","","","","","","","","76","L","3","","","92","main_expt",""
"","bandit","172","643259","0.0-133.0-0.0","00768400","wem/bandit_either_3","A19UBZFVUWL1ES","either","2","617","","","","","","","0","0","1","0.6812665662","","0.6","0.4","0.8","0.2","","","","","0.6812665662","0.5134744583","0.5211356389","0.7814404678","","","","","","","","72","H","0","img/none_selected.jpg","","93","main_expt",""
"","bandit","173","645080","0.0-134.0-0.0","00768400","wem/bandit_either_3","A19UBZFVUWL1ES","either","2","306","","","","","","","0","0","1","0.4101580275","","0.6","0.4","0.8","0.2","","","","","0.6412933588","0.4101580275","0.4554037602","0.7672416568","","","","","","","","74","J","1","","","94","main_expt",""
"","bandit","174","647091","0.0-135.0-0.0","00768400","wem/bandit_either_3","A19UBZFVUWL1ES","either","2","492","","","","","","","0","0","1","","0.4195046205","0.6","0.4","0.8","0.2","0.5696630174","0.2995167601","0.4195046205","0.7573973965","","","","","","","","","","","","75","K","2","","","95","main_expt",""
"","bandit","175","648987","0.0-136.0-0.0","00768400","wem/bandit_either_3","A19UBZFVUWL1ES","either","2","379","","","","","","","1","0","0","0.8177369732","","0.6","0.4","0.8","0.2","","","","","0.6076398096","0.2934894425","0.3638478563","0.8177369732","","","","","","","","76","L","3","","","96","main_expt",""
"","bandit","176","651264","0.0-137.0-0.0","00768400","wem/bandit_either_3","A19UBZFVUWL1ES","either","2","762","","","","","","","0","1","0","","0.8124666872","0.6","0.4","0.8","0.2","0.5551612935","0.2802715202","0.2839735208","0.8124666872","","","","","","","","","","","","76","L","3","","","97","main_expt",""
"","bandit","177","653500","0.0-138.0-0.0","00768400","wem/bandit_either_3","A19UBZFVUWL1ES","either","2","716","","","","","","","0","1","0","","0.881496875","0.6","0.4","0.8","0.2","0.6354974245","0.2703087955","0.2109275999","0.881496875","","","","","","","","","","","","76","L","3","","","98","main_expt",""
"","bandit","178","656295","0.0-139.0-0.0","00768400","wem/bandit_either_3","A19UBZFVUWL1ES","either","2","1283","","","","","","","1","0","0","0.8785981907","","0.6","0.4","0.8","0.2","","","","","0.5945745664","0.3027543159","0.1531506719","0.8785981907","","","","","","","","76","L","3","","","99","main_expt",""
"","bandit","179","658329","0.0-140.0-0.0","00768400","wem/bandit_either_3","A19UBZFVUWL1ES","either","2","518","","","","","","","0","1","0","","0.8494581726","0.6","0.4","0.8","0.2","0.5679097985","0.3645318829","0.1262108991","0.8494581726","","","","","","","","","","","","76","L","3","","","100","main_expt",""
"","bandit","180","660546","0.0-141.0-0.0","00768400","wem/bandit_either_3","A19UBZFVUWL1ES","either","2","699","","","","","","","0","0","1","","0.7754784616","0.6","0.4","0.8","0.2","0.6430580454","0.4315832637","0.1340220502","0.7754784616","","","","","","","","","","","","76","L","3","","","101","main_expt",""
"","bandit","181","662454","0.0-142.0-0.0","00768400","wem/bandit_either_3","A19UBZFVUWL1ES","either","2","395","","","","","","","1","0","0","0.6340200926","","0.6","0.4","0.8","0.2","","","","","0.6340200926","0.3608531129","0.2167126086","0.7626736499","","","","","","","","72","H","0","img/none_selected.jpg","","102","main_expt",""
"","bandit","182","665142","0.0-143.0-0.0","00768400","wem/bandit_either_3","A19UBZFVUWL1ES","either","2","1173","","","","","","","0","0","1","0.6377668076","","0.6","0.4","0.8","0.2","","","","","0.6377668076","0.3688981903","0.2796352144","0.7329996306","","","","","","","","72","H","0","img/none_selected.jpg","","103","main_expt",""
"","bandit","183","666871","0.0-144.0-0.0","00768400","wem/bandit_either_3","A19UBZFVUWL1ES","either","2","215","","","","","","","0","0","1","0.3758155051","","0.6","0.4","0.8","0.2","","","","","0.6578341575","0.3758155051","0.3556406549","0.7467689404","","","","","","","","74","J","1","","","104","main_expt",""
"","bandit","184","669027","0.0-145.0-0.0","00768400","wem/bandit_either_3","A19UBZFVUWL1ES","either","2","636","","","","","","","0","0","1","0.4508947075","","0.6","0.4","0.8","0.2","","","","","0.6727034752","0.4508947075","0.3233911601","0.737018723","","","","","","","","74","J","1","","","105","main_expt",""
"","bandit","185","671314","0.0-146.0-0.0","00768400","wem/bandit_either_3","A19UBZFVUWL1ES","either","2","768","","","","","","","0","0","1","0.2024631506","","0.6","0.4","0.8","0.2","","","","","0.6386482702","0.4132181144","0.2024631506","0.655194185","","","","","","","","75","K","2","","","106","main_expt",""
"","bandit","186","673181","0.0-147.0-0.0","00768400","wem/bandit_either_3","A19UBZFVUWL1ES","either","2","354","","","","","","","1","0","0","0.7122819559","","0.6","0.4","0.8","0.2","","","","","0.6788938686","0.4393512677","0.2290393164","0.7122819559","","","","","","","","76","L","3","","","107","main_expt",""
"","bandit","187","679810","0.0-148.0-0.0","00768400","wem/bandit_either_3","A19UBZFVUWL1ES","either","2","5111","","","","","","","1","0","0","0.7326995505","","0.6","0.4","0.8","0.2","","","","","0.7076498576","0.4964319729","0.2217712157","0.7326995505","","","","","","","","76","L","3","","","108","main_expt",""
"","bandit","188","683624","0.0-149.0-0.0","00768400","wem/bandit_either_3","A19UBZFVUWL1ES","either","2","2298","","","","","","","0","1","0","","0.7165499475","0.6","0.4","0.8","0.2","0.6932550908","0.4790921069","0.1566860935","0.7165499475","","","","","","","","","","","","76","L","3","","","109","main_expt",""
"","bandit","189","685919","0.0-150.0-0.0","00768400","wem/bandit_either_3","A19UBZFVUWL1ES","either","2","780","","","","","","","0","1","0","","0.6058017554","0.6","0.4","0.8","0.2","0.7436061547","0.5856434505","0.1083987113","0.6058017554","","","","","","","","","","","","76","L","3","","","110","main_expt",""
"","bandit","190","689069","0.0-151.0-0.0","00768400","wem/bandit_either_3","A19UBZFVUWL1ES","either","2","1636","","","","","","","0","0","1","","0.5476823758","0.6","0.4","0.8","0.2","0.657194241","0.6444230696","0.217828795","0.5476823758","","","","","","","","","","","","76","L","3","","","111","main_expt",""
"","bandit","191","691230","0.0-152.0-0.0","00768400","wem/bandit_either_3","A19UBZFVUWL1ES","either","2","646","","","","","","","0","1","0","","0.5688313193","0.6","0.4","0.8","0.2","0.6317228327","0.603417252","0.2212119155","0.5688313193","","","","","","","","","","","","76","L","3","","","112","main_expt",""
"","bandit","192","693674","0.0-153.0-0.0","00768400","wem/bandit_either_3","A19UBZFVUWL1ES","either","2","925","","","","","","","0","1","0","","0.50852785","0.6","0.4","0.8","0.2","0.4985892417","0.420613871","0.2374112476","0.50852785","","","","","","","","","","","","76","L","3","","","113","main_expt",""
"","bandit","193","695646","0.0-154.0-0.0","00768400","wem/bandit_either_3","A19UBZFVUWL1ES","either","2","457","","","","","","","0","0","1","","0.5711084253","0.6","0.4","0.8","0.2","0.579071345","0.2851569533","0.2703699348","0.5711084253","","","","","","","","","","","","76","L","3","","","114","main_expt",""
"","bandit","194","697612","0.0-155.0-0.0","00768400","wem/bandit_either_3","A19UBZFVUWL1ES","either","2","453","","","","","","","0","0","1","0.4595939904","","0.6","0.4","0.8","0.2","","","","","0.4595939904","0.3166589884","0.1928485376","0.4177754351","","","","","","","","72","H","0","img/none_selected.jpg","","115","main_expt",""
"","bandit","195","699670","0.0-156.0-0.0","00768400","wem/bandit_either_3","A19UBZFVUWL1ES","either","2","545","","","","","","","0","0","1","0.3744567546","","0.6","0.4","0.8","0.2","","","","","0.3744567546","0.3928451607","0.136356343","0.387840809","","","","","","","","72","H","0","img/none_selected.jpg","","116","main_expt",""
"","bandit","196","701558","0.0-157.0-0.0","00768400","wem/bandit_either_3","A19UBZFVUWL1ES","either","2","372","","","","","","","0","0","1","","0.560845346","0.6","0.4","0.8","0.2","0.302145019","0.560845346","0.2193113504","0.4456731606","","","","","","","","","","","","74","J","1","","","117","main_expt",""
"","bandit","197","703390","0.0-158.0-0.0","00768400","wem/bandit_either_3","A19UBZFVUWL1ES","either","2","318","","","","","","","0","0","1","0.2686792008","","0.6","0.4","0.8","0.2","","","","","0.3522466686","0.5536818424","0.2686792008","0.3045880574","","","","","","","","75","K","2","","","118","main_expt",""
"","bandit","198","705164","0.0-159.0-0.0","00768400","wem/bandit_either_3","A19UBZFVUWL1ES","either","2","260","","","","","","","0","0","1","0.3994134075","","0.6","0.4","0.8","0.2","","","","","0.4425542362","0.3617659687","0.2668270476","0.3994134075","","","","","","","","76","L","3","","","119","main_expt",""
"","bandit","199","707234","0.0-160.0-0.0","00768400","wem/bandit_either_3","A19UBZFVUWL1ES","either","2","551","","","","","","","1","0","0","0.3454740543","","0.6","0.4","0.8","0.2","","","","","0.3377532805","0.3454740543","0.3723992114","0.351449483","","","","","","","","74","J","1","","","120","main_expt",""
"","bandit","200","709200","0.0-161.0-0.0","00768400","wem/bandit_either_3","A19UBZFVUWL1ES","either","2","447","","","","","","","0","0","1","","0.2798257893","0.6","0.4","0.8","0.2","0.2929504356","0.2798257893","0.4001238515","0.3641911367","","","","","","","","","","","","74","J","1","","","121","main_expt",""
"","bandit","201","711343","0.0-162.0-0.0","00768400","wem/bandit_either_3","A19UBZFVUWL1ES","either","2","627","","","","","","","0","0","1","0.2261540995","","0.6","0.4","0.8","0.2","","","","","0.2504028886","0.2261540995","0.4090120715","0.2673706252","","","","","","","","74","J","1","","","122","main_expt",""
"","bandit","202","713670","0.0-163.0-0.0","00768400","wem/bandit_either_3","A19UBZFVUWL1ES","either","2","812","","","","","","","0","0","1","","0.2766663047","0.6","0.4","0.8","0.2","0.2414849785","0.2766663047","0.4746108064","0.3455372181","","","","","","","","","","","","74","J","1","","","123","main_expt",""
"","bandit","203","715690","0.0-164.0-0.0","00768400","wem/bandit_either_3","A19UBZFVUWL1ES","either","2","499","","","","","","","0","0","1","0.3126864395","","0.6","0.4","0.8","0.2","","","","","0.1791255979","0.3126864395","0.453231646","0.3524137631","","","","","","","","74","J","1","","","124","main_expt",""
"","bandit","204","718295","0.0-165.0-0.0","00768400","wem/bandit_either_3","A19UBZFVUWL1ES","either","2","1089","","","","","","","0","0","1","0.4888945922","","0.6","0.4","0.8","0.2","","","","","0.1952456852","0.2772507379","0.4888945922","0.3680881866","","","","","","","","75","K","2","","","125","main_expt",""
"","bandit","205","720876","0.0-166.0-0.0","00768400","wem/bandit_either_3","A19UBZFVUWL1ES","either","2","1067","","","","","","","0","0","1","","0.396932523","0.6","0.4","0.8","0.2","0.2614303707","0.2441417391","0.396932523","0.2884444508","","","","","","","","","","","","75","K","2","","","126","main_expt",""
"","bandit","206","725047","0.0-167.0-0.0","00768400","wem/bandit_either_3","A19UBZFVUWL1ES","either","2","2654","","","","","","","0","1","0","","0.2931854252","0.6","0.4","0.8","0.2","0.267511235","0.2304038214","0.4026562496","0.2931854252","","","","","","","","","","","","76","L","3","","","127","main_expt",""
"","bandit","207","727342","0.0-168.0-0.0","00768400","wem/bandit_either_3","A19UBZFVUWL1ES","either","2","780","","","","","","","0","0","1","","0.3115494401","0.6","0.4","0.8","0.2","0.2582460394","0.2463692943","0.3072143153","0.3115494401","","","","","","","","","","","","76","L","3","","","128","main_expt",""
"","bandit","208","729256","0.0-169.0-0.0","00768400","wem/bandit_either_3","A19UBZFVUWL1ES","either","2","396","","","","","","","0","0","1","0.249100023","","0.6","0.4","0.8","0.2","","","","","0.249100023","0.262841392","0.3024431642","0.287093163","","","","","","","","72","H","0","img/none_selected.jpg","","129","main_expt",""
"","bandit","209","730974","0.0-170.0-0.0","00768400","wem/bandit_either_3","A19UBZFVUWL1ES","either","2","202","","","","","","","0","0","1","","0.2014680341","0.6","0.4","0.8","0.2","0.2014680341","0.3044503748","0.383823705","0.242368994","","","","","","","","","","","","72","H","0","img/none_selected.jpg","","130","main_expt",""
"","bandit","210","732576","0.0-171.0-0.0","00768400","wem/bandit_either_3","A19UBZFVUWL1ES","either","2","85","","","","","","","0","0","1","0.3141093292","","0.6","0.4","0.8","0.2","","","","","0.2514612397","0.2231782293","0.5448185218","0.3141093292","","","","","","","","76","L","3","","","131","main_expt",""
"","bandit","211","734463","0.0-172.0-0.0","00768400","wem/bandit_either_3","A19UBZFVUWL1ES","either","2","370","","","","","","","0","0","1","","0.3186943837","0.6","0.4","0.8","0.2","0.1719215191","0.265126842","0.5741986762","0.3186943837","","","","","","","","","","","","76","L","3","","","132","main_expt",""
"","bandit","212","736361","0.0-173.0-0.0","00768400","wem/bandit_either_3","A19UBZFVUWL1ES","either","2","378","","","","","","","0","0","1","","0.3218599317","0.6","0.4","0.8","0.2","0.151851594","0.1996467811","0.54298015","0.3218599317","","","","","","","","","","","","76","L","3","","","133","main_expt",""
"","bandit","213","738242","0.0-174.0-0.0","00768400","wem/bandit_either_3","A19UBZFVUWL1ES","either","2","368","","","","","","","0","1","0","","0.3372263261","0.6","0.4","0.8","0.2","0.1693242304","0.1900899503","0.5504084981","0.3372263261","","","","","","","","","","","","76","L","3","","","134","main_expt",""
"","bandit","214","740006","0.0-175.0-0.0","00768400","wem/bandit_either_3","A19UBZFVUWL1ES","either","2","247","","","","","","","0","0","1","","0.3515125386","0.6","0.4","0.8","0.2","0.1541174352","0.172295534","0.4874659601","0.3515125386","","","","","","","","","","","","76","L","3","","","135","main_expt",""
"","bandit","215","741898","0.0-176.0-0.0","00768400","wem/bandit_either_3","A19UBZFVUWL1ES","either","2","378","","","","","","","1","0","0","0.3677382912","","0.6","0.4","0.8","0.2","","","","","0.1374012581","0.1171098277","0.3677382912","0.2312583875","","","","","","","","75","K","2","","","136","main_expt",""
"","bandit","216","743750","0.0-177.0-0.0","00768400","wem/bandit_either_3","A19UBZFVUWL1ES","either","2","311","","","","","","","0","0","1","","0.2944012193","0.6","0.4","0.8","0.2","0.2889288236","0.1390909791","0.2944012193","0.3496768842","","","","","","","","","","","","75","K","2","","","137","main_expt",""
"","bandit","217","745759","0.0-178.0-0.0","00768400","wem/bandit_either_3","A19UBZFVUWL1ES","either","2","488","","","","","","","0","0","1","","0.1209370274","0.6","0.4","0.8","0.2","0.2177367931","0.1209370274","0.3020033879","0.4217982028","","","","","","","","","","","","74","J","1","","","138","main_expt",""
"","bandit","218","747576","0.0-179.0-0.0","00768400","wem/bandit_either_3","A19UBZFVUWL1ES","either","2","299","","","","","","","0","0","1","0.2908104057","","0.6","0.4","0.8","0.2","","","","","0.1704259453","0.1441291996","0.2908104057","0.5123523738","","","","","","","","75","K","2","","","139","main_expt",""
"","bandit","219","749462","0.0-180.0-0.0","00768400","wem/bandit_either_3","A19UBZFVUWL1ES","either","2","370","","","","","","","0","0","1","0.2738290205","","0.6","0.4","0.8","0.2","","","","","0.1827322183","0.1380406349","0.2738290205","0.3892042576","","","","","","","","75","K","2","","","140","main_expt",""
"","bandit","220","751430","0.0-181.0-0.0","00768400","wem/bandit_either_3","A19UBZFVUWL1ES","either","2","450","","","","","","","1","0","0","0.3865798498","","0.6","0.4","0.8","0.2","","","","","0.2030288612","0.1312769784","0.3865798498","0.4680147771","","","","","","","","75","K","2","","","141","main_expt",""
"","bandit","221","753294","0.0-182.0-0.0","00768400","wem/bandit_either_3","A19UBZFVUWL1ES","either","2","347","","","","","","","0","1","0","","0.3507917403","0.6","0.4","0.8","0.2","0.1760536641","0.1880730553","0.3507917403","0.3970866904","","","","","","","","","","","","75","K","2","","","142","main_expt",""
"","bandit","222","755203","0.0-183.0-0.0","00768400","wem/bandit_either_3","A19UBZFVUWL1ES","either","2","395","","","","","","","0","0","1","0.2787839286","","0.6","0.4","0.8","0.2","","","","","0.1428921374","0.1798266991","0.2787839286","0.3609481858","","","","","","","","75","K","2","","","143","main_expt",""
"","bandit","223","756997","0.0-184.0-0.0","00768400","wem/bandit_either_3","A19UBZFVUWL1ES","either","2","277","","","","","","","0","0","1","0.2106619402","","0.6","0.4","0.8","0.2","","","","","0.1260474704","0.1881666754","0.2106619402","0.3701270871","","","","","","","","75","K","2","","","144","main_expt",""
"","bandit","224","758814","0.0-185.0-0.0","00768400","wem/bandit_either_3","A19UBZFVUWL1ES","either","2","301","","","","","","","0","0","1","0.3211677341","","0.6","0.4","0.8","0.2","","","","","0.151337539","0.1683386122","0.3211677341","0.3110645609","","","","","","","","75","K","2","","","145","main_expt",""
"","bandit","225","760741","0.0-186.0-0.0","00768400","wem/bandit_either_3","A19UBZFVUWL1ES","either","2","411","","","","","","","1","0","0","0.4417580917","","0.6","0.4","0.8","0.2","","","","","0.1600114734","0.2609121533","0.4417580917","0.356964637","","","","","","","","75","K","2","","","146","main_expt",""
"","bandit","226","762645","0.0-187.0-0.0","00768400","wem/bandit_either_3","A19UBZFVUWL1ES","either","2","390","","","","","","","0","0","1","0.278611551","","0.6","0.4","0.8","0.2","","","","","0.1262446547","0.280259565","0.278611551","0.5143633813","","","","","","","","75","K","2","","","147","main_expt",""
"","bandit","227","764317","0.0-188.0-0.0","00768400","wem/bandit_either_3","A19UBZFVUWL1ES","either","2","154","","","","","","","0","0","1","","0.2811332351","0.6","0.4","0.8","0.2","0.1030311585","0.2972918914","0.2811332351","0.5086187798","","","","","","","","","","","","75","K","2","","","148","main_expt",""
"","bandit","228","767324","0.0-189.0-0.0","00768400","wem/bandit_either_3","A19UBZFVUWL1ES","either","2","1492","","","","","","","0","0","1","","0.2606345315","0.6","0.4","0.8","0.2","0.123834606","0.3284309668","0.2606345315","0.4676315778","","","","","","","","","","","","75","K","2","","","149","main_expt",""
"","bandit","229","769774","0.0-190.0-0.0","00768400","wem/bandit_either_3","A19UBZFVUWL1ES","either","2","935","","","","","","","1","0","0","0.260677327","","0.6","0.4","0.8","0.2","","","","","0.06566206942","0.3186890608","0.260677327","0.4737351686","","","","","","","","75","K","2","","","150","main_expt",""
"","bandit","230","771701","0.0-191.0-0.0","00768400","wem/bandit_either_3","A19UBZFVUWL1ES","either","2","410","","","","","","","1","0","0","0.2579624968","","0.6","0.4","0.8","0.2","","","","","0.06342121736","0.3331747037","0.2579624968","0.5387476985","","","","","","","","75","K","2","","","151","main_expt",""
"","bandit","231","773981","0.0-192.0-0.0","00768400","wem/bandit_either_3","A19UBZFVUWL1ES","either","2","763","","","","","","","0","0","1","","0.2536911072","0.6","0.4","0.8","0.2","0.1162046696","0.364096089","0.2536911072","0.5065138565","","","","","","","","","","","","75","K","2","","","152","main_expt",""
"","bandit","232","776302","0.0-193.0-0.0","00768400","wem/bandit_either_3","A19UBZFVUWL1ES","either","2","802","","","","","","","0","0","1","0.1427943183","","0.6","0.4","0.8","0.2","","","","","0.1388943584","0.3189440566","0.1427943183","0.5190676077","","","","","","","","75","K","2","","","153","main_expt",""
"","bandit","233","778325","0.0-194.0-0.0","00768400","wem/bandit_either_3","A19UBZFVUWL1ES","either","2","505","","","","","","","0","0","1","0.08934943386","","0.6","0.4","0.8","0.2","","","","","0.1188489222","0.486858514","0.08934943386","0.4944482457","","","","","","","","75","K","2","","","154","main_expt",""
"","bandit","234","780199","0.0-195.0-0.0","00768400","wem/bandit_either_3","A19UBZFVUWL1ES","either","2","355","","","","","","","1","0","0","0.398958755","","0.6","0.4","0.8","0.2","","","","","0.1255079792","0.398958755","0.1048919666","0.4987902374","","","","","","","","74","J","1","","","155","main_expt",""
"","bandit","235","782167","0.0-196.0-0.0","00768400","wem/bandit_either_3","A19UBZFVUWL1ES","either","2","449","","","","","","","0","1","0","","0.3508932217","0.6","0.4","0.8","0.2","0.1705129017","0.3508932217","0.1348874752","0.4151199053","","","","","","","","","","","","74","J","1","","","156","main_expt",""
"","bandit","236","784071","0.0-197.0-0.0","00768400","wem/bandit_either_3","A19UBZFVUWL1ES","either","2","385","","","","","","","0","0","1","","0.3736640956","0.6","0.4","0.8","0.2","0.1892203872","0.3736640956","0.1197456909","0.4215128153","","","","","","","","","","","","74","J","1","","","157","main_expt",""
"","bandit","237","786162","0.0-198.0-0.0","00768400","wem/bandit_either_3","A19UBZFVUWL1ES","either","2","575","","","","","","","1","0","0","0.3215678611","","0.6","0.4","0.8","0.2","","","","","0.1589595026","0.3215678611","0.1343935597","0.3666899102","","","","","","","","74","J","1","","","158","main_expt",""
"","bandit","238","787954","0.0-199.0-0.0","00768400","wem/bandit_either_3","A19UBZFVUWL1ES","either","2","277","","","","","","","0","0","1","","0.2732838962","0.6","0.4","0.8","0.2","0.1426383857","0.2732838962","0.04604274909","0.3906786657","","","","","","","","","","","","74","J","1","","","159","main_expt",""
"","bandit","239","790040","0.0-200.0-0.0","00768400","wem/bandit_either_3","A19UBZFVUWL1ES","either","2","565","","","","","","","0","0","1","0.2323229575","","0.6","0.4","0.8","0.2","","","","","0.2747613825","0.2323229575","0.08927965808","0.4769972016","","","","","","","","74","J","1","","","160","main_expt",""
"","bandit","240","792045","0.0-201.0-0.0","00768400","wem/bandit_either_3","A19UBZFVUWL1ES","either","2","489","","","","","","","0","0","1","0.4405879513","","0.6","0.4","0.8","0.2","","","","","0.2046882866","0.399022808","0.1038156196","0.4405879513","","","","","","","","76","L","3","","","161","main_expt",""
"","bandit","241","794182","0.0-202.0-0.0","00768400","wem/bandit_either_3","A19UBZFVUWL1ES","either","2","619","","","","","","","0","0","1","","0.1715152701","0.6","0.4","0.8","0.2","0.1715152701","0.4967313539","0.1470739062","0.44055992","","","","","","","","","","","","72","H","0","img/none_selected.jpg","","162","main_expt",""
"","bandit","242","796052","0.0-203.0-0.0","00768400","wem/bandit_either_3","A19UBZFVUWL1ES","either","2","353","","","","","","","1","0","0","0.5245029489","","0.6","0.4","0.8","0.2","","","","","0.2396687428","0.5245029489","0.1214264794","0.3434222481","","","","","","","","74","J","1","","","163","main_expt",""
"","bandit","243","798699","0.0-204.0-0.0","00768400","wem/bandit_either_3","A19UBZFVUWL1ES","either","2","1130","","","","","","","0","0","1","0.5808119749","","0.6","0.4","0.8","0.2","","","","","0.3359744524","0.5808119749","0.1563758897","0.3862652833","","","","","","","","74","J","1","","","164","main_expt",""
"","bandit","244","801005","0.0-205.0-0.0","00768400","wem/bandit_either_3","A19UBZFVUWL1ES","either","2","788","","","","","","","0","1","0","","0.6473032069","0.6","0.4","0.8","0.2","0.4940159592","0.6473032069","0.1311500467","0.4270444342","","","","","","","","","","","","74","J","1","","","165","main_expt",""
"","bandit","245","802901","0.0-206.0-0.0","00768400","wem/bandit_either_3","A19UBZFVUWL1ES","either","2","380","","","","","","","0","0","1","","0.6790689848","0.6","0.4","0.8","0.2","0.5922229292","0.6790689848","0.1419689761","0.5073102058","","","","","","","","","","","","74","J","1","","","166","main_expt",""
"","bandit","246","806442","0.0-207.0-0.0","00768400","wem/bandit_either_3","A19UBZFVUWL1ES","either","2","2025","","","","","","","0","0","1","","0.5417092253","0.6","0.4","0.8","0.2","0.5562626425","0.5959653185","0.150246256","0.5417092253","","","","","","","","","","","","76","L","3","","","167","main_expt",""
"","bandit","247","808364","0.0-208.0-0.0","00768400","wem/bandit_either_3","A19UBZFVUWL1ES","either","2","403","","","","","","","0","0","1","","0.361841396","0.6","0.4","0.8","0.2","0.6489587791","0.361841396","0.2070971521","0.6505471885","","","","","","","","","","","","74","J","1","","","168","main_expt",""
"","bandit","248","810352","0.0-209.0-0.0","00768400","wem/bandit_either_3","A19UBZFVUWL1ES","either","2","473","","","","","","","1","0","0","0.2564452127","","0.6","0.4","0.8","0.2","","","","","0.5652428614","0.2594844845","0.2564452127","0.6226729341","","","","","","","","75","K","2","","","169","main_expt",""
"","bandit","249","813147","0.0-210.0-0.0","00768400","wem/bandit_either_3","A19UBZFVUWL1ES","either","2","1280","","","","","","","0","0","1","","0.2845729388","0.6","0.4","0.8","0.2","0.5344749526","0.1987556041","0.2845729388","0.7574543886","","","","","","","","","","","","75","K","2","","","170","main_expt",""
"","bandit","250","819538","0.0-211.0-0.0","00768400","wem/bandit_either_3","A19UBZFVUWL1ES","either","2","4874","","","","","","","0","0","1","0.2360657399","","0.6","0.4","0.8","0.2","","","","","0.6364900983","0.1583585206","0.2360657399","0.774201251","","","","","","","","75","K","2","","","171","main_expt",""
"","bandit","251","823369","0.0-212.0-0.0","00768400","wem/bandit_either_3","A19UBZFVUWL1ES","either","2","2317","","","","","","","0","0","1","0.3453554921","","0.6","0.4","0.8","0.2","","","","","0.5516193693","0.1494938987","0.3453554921","0.7739789177","","","","","","","","75","K","2","","","172","main_expt",""
"","bandit","252","825326","0.0-213.0-0.0","00768400","wem/bandit_either_3","A19UBZFVUWL1ES","either","2","436","","","","","","","0","0","1","","0.2909261263","0.6","0.4","0.8","0.2","0.5081608063","0.1996494969","0.2909261263","0.7146420849","","","","","","","","","","","","75","K","2","","","173","main_expt",""
"","bandit","253","827783","0.0-214.0-0.0","00768400","wem/bandit_either_3","A19UBZFVUWL1ES","either","2","936","","","","","","","0","1","0","","0.683245412","0.6","0.4","0.8","0.2","0.5247340446","0.2200767262","0.3807546558","0.683245412","","","","","","","","","","","","76","L","3","","","174","main_expt",""
"","bandit","254","829740","0.0-215.0-0.0","00768400","wem/bandit_either_3","A19UBZFVUWL1ES","either","2","415","","","","","","","0","0","1","","0.7163731774","0.6","0.4","0.8","0.2","0.5823110366","0.1929710708","0.3889518003","0.7163731774","","","","","","","","","","","","76","L","3","","","175","main_expt",""
"","bandit","255","832721","0.0-216.0-0.0","00768400","wem/bandit_either_3","A19UBZFVUWL1ES","either","2","1467","","","","","","","0","0","1","","0.1756556012","0.6","0.4","0.8","0.2","0.7693722391","0.1756556012","0.3662842853","0.6676116703","","","","","","","","","","","","74","J","1","","","176","main_expt",""
"","bandit","256","835903","0.0-217.0-0.0","00768400","wem/bandit_either_3","A19UBZFVUWL1ES","either","2","1661","","","","","","","0","0","1","","0.2404611203","0.6","0.4","0.8","0.2","0.8048595062","0.2404611203","0.3102656016","0.711116056","","","","","","","","","","","","74","J","1","","","177","main_expt",""
"","bandit","257","837835","0.0-218.0-0.0","00768400","wem/bandit_either_3","A19UBZFVUWL1ES","either","2","413","","","","","","","1","0","0","0.6541247318","","0.6","0.4","0.8","0.2","","","","","0.8147320782","0.1651874793","0.3272385177","0.6541247318","","","","","","","","76","L","3","","","178","main_expt",""
"","bandit","258","841416","0.0-219.0-0.0","00768400","wem/bandit_either_3","A19UBZFVUWL1ES","either","2","2065","","","","","","","0","0","1","","0.600925469","0.6","0.4","0.8","0.2","0.7755432213","0.1297692321","0.3185807274","0.600925469","","","","","","","","","","","","76","L","3","","","179","main_expt",""
"","bandit","259","844539","0.0-220.0-0.0","00768400","wem/bandit_either_3","A19UBZFVUWL1ES","either","2","1604","","","","","","","1","0","0","0.7309951384","","0.6","0.4","0.8","0.2","","","","","0.7309951384","0.1311169289","0.3896265469","0.6321701674","","","","","","","","72","H","0","img/none_selected.jpg","","180","main_expt",""
"","bandit","260","846927","0.0-221.0-0.0","00768400","wem/bandit_either_3","A19UBZFVUWL1ES","either","2","866","","","","","","","0","1","0","","0.8068071681","0.6","0.4","0.8","0.2","0.8068071681","0.2184653543","0.4381139349","0.7040606398","","","","","","","","","","","","72","H","0","img/none_selected.jpg","","181","main_expt",""
"","bandit","261","848724","0.0-222.0-0.0","00768400","wem/bandit_either_3","A19UBZFVUWL1ES","either","2","276","","","","","","","0","0","1","","0.8096694819","0.6","0.4","0.8","0.2","0.8096694819","0.156745214","0.4339703771","0.6551517927","","","","","","","","","","","","72","H","0","img/none_selected.jpg","","182","main_expt",""
"","bandit","262","852498","0.0-223.0-0.0","00768400","wem/bandit_either_3","A19UBZFVUWL1ES","either","2","2258","","","","","","","0","0","1","0.8522040983","","0.6","0.4","0.8","0.2","","","","","0.8522040983","0.07710569088","0.5270594011","0.7709035389","","","","","","","","72","H","0","img/none_selected.jpg","","183","main_expt",""
"","bandit","263","854804","0.0-224.0-0.0","00768400","wem/bandit_either_3","A19UBZFVUWL1ES","either","2","787","","","","","","","0","1","0","","0.7869666122","0.6","0.4","0.8","0.2","0.8636776132","0.07901501252","0.4791569234","0.7869666122","","","","","","","","","","","","76","L","3","","","184","main_expt",""
"","bandit","264","859143","0.0-225.0-0.0","00768400","wem/bandit_either_3","A19UBZFVUWL1ES","either","2","2825","","","","","","","0","1","0","","0.804571828","0.6","0.4","0.8","0.2","0.8605951951","0.05695362571","0.464074867","0.804571828","","","","","","","","","","","","76","L","3","","","185","main_expt",""
"","bandit","265","862117","0.0-226.0-0.0","00768400","wem/bandit_either_3","A19UBZFVUWL1ES","either","2","1462","","","","","","","0","1","0","","0.7866627628","0.6","0.4","0.8","0.2","0.8578427848","0.03796608352","0.4654947356","0.7866627628","","","","","","","","","","","","76","L","3","","","186","main_expt",""
"","bandit","266","864254","0.0-227.0-0.0","00768400","wem/bandit_either_3","A19UBZFVUWL1ES","either","2","615","","","","","","","1","0","0","0.8006736442","","0.6","0.4","0.8","0.2","","","","","0.8253306036","0.05986429342","0.4338668179","0.8006736442","","","","","","","","76","L","3","","","187","main_expt",""
"","bandit","267","866909","0.0-228.0-0.0","00768400","wem/bandit_either_3","A19UBZFVUWL1ES","either","2","1133","","","","","","","0","0","1","0.7687627789","","0.6","0.4","0.8","0.2","","","","","0.8118593573","0.05827831728","0.4679469354","0.7687627789","","","","","","","","76","L","3","","","188","main_expt",""
"","bandit","268","868473","0.0-229.0-0.0","00768400","wem/bandit_either_3","A19UBZFVUWL1ES","either","2","46","","","","","","","0","0","1","0.4645116859","","0.6","0.4","0.8","0.2","","","","","0.8319104568","0.06499387038","0.4645116859","0.7009429779","","","","","","","","75","K","2","","","189","main_expt",""
"","bandit","269","871451","0.0-230.0-0.0","00768400","wem/bandit_either_3","A19UBZFVUWL1ES","either","2","1459","","","","","","","0","1","0","","0.8949986836","0.6","0.4","0.8","0.2","0.8949986836","0.0878029059","0.4260553166","0.7531121838","","","","","","","","","","","","72","H","0","img/none_selected.jpg","","190","main_expt",""
"","bandit","270","874945","0.0-231.0-0.0","00768400","wem/bandit_either_3","A19UBZFVUWL1ES","either","2","1973","","","","","","","1","0","0","0.9258368343","","0.6","0.4","0.8","0.2","","","","","0.9258368343","0.1101088583","0.5323747461","0.6174616994","","","","","","","","72","H","0","img/none_selected.jpg","","191","main_expt",""
"","bandit","271","877181","0.0-232.0-0.0","00768400","wem/bandit_either_3","A19UBZFVUWL1ES","either","2","714","","","","","","","0","1","0","","0.9221438833","0.6","0.4","0.8","0.2","0.9221438833","0.1559643099","0.6013900654","0.6331996982","","","","","","","","","","","","72","H","0","img/none_selected.jpg","","192","main_expt",""
"","bandit","272","879136","0.0-233.0-0.0","00768400","wem/bandit_either_3","A19UBZFVUWL1ES","either","2","437","","","","","","","1","0","0","0.878376231","","0.6","0.4","0.8","0.2","","","","","0.878376231","0.1348882638","0.5332063066","0.5596167322","","","","","","","","72","H","0","img/none_selected.jpg","","193","main_expt",""
"","bandit","273","881269","0.0-234.0-0.0","00768400","wem/bandit_either_3","A19UBZFVUWL1ES","either","2","612","","","","","","","0","0","1","0.7914694382","","0.6","0.4","0.8","0.2","","","","","0.7914694382","0.243093686","0.5499496643","0.5887018809","","","","","","","","72","H","0","img/none_selected.jpg","","194","main_expt",""
"","bandit","274","883043","0.0-235.0-0.0","00768400","wem/bandit_either_3","A19UBZFVUWL1ES","either","2","253","","","","","","","0","0","1","","0.561552955","0.6","0.4","0.8","0.2","0.7843027812","0.2792315856","0.4170732774","0.561552955","","","","","","","","","","","","76","L","3","","","195","main_expt",""
"","bandit","275","884906","0.0-236.0-0.0","00768400","wem/bandit_either_3","A19UBZFVUWL1ES","either","2","343","","","","","","","0","1","0","","0.6199522587","0.6","0.4","0.8","0.2","0.7888241066","0.2075419965","0.4050854298","0.6199522587","","","","","","","","","","","","76","L","3","","","196","main_expt",""
"","bandit","276","887323","0.0-237.0-0.0","00768400","wem/bandit_either_3","A19UBZFVUWL1ES","either","2","896","","","","","","","1","0","0","0.8145025162","","0.6","0.4","0.8","0.2","","","","","0.8145025162","0.1899284635","0.4522405917","0.6886125155","","","","","","","","72","H","0","img/none_selected.jpg","","197","main_expt",""
"","bandit","277","889401","0.0-238.0-0.0","00768400","wem/bandit_either_3","A19UBZFVUWL1ES","either","2","560","","","","","","","0","1","0","","0.6468609917","0.6","0.4","0.8","0.2","0.8795467387","0.1632143895","0.4547961131","0.6468609917","","","","","","","","","","","","76","L","3","","","198","main_expt",""
"","bandit","278","891361","0.0-239.0-0.0","00768400","wem/bandit_either_3","A19UBZFVUWL1ES","either","2","443","","","","","","","0","1","0","","0.7134983028","0.6","0.4","0.8","0.2","0.8716255916","0.1580048483","0.456709553","0.7134983028","","","","","","","","","","","","76","L","3","","","199","main_expt",""
"","bandit","279","895958","0.0-240.0-0.0","00768400","wem/bandit_either_3","A19UBZFVUWL1ES","either","2","3082","","","","","","","0","1","0","","0.6545285445","0.6","0.4","0.8","0.2","0.8596876402","0.1815025648","0.4197111003","0.6545285445","","","","","","","","","","","","76","L","3","","","200","main_expt",""
"","bandit","280","897503","0.0-241.0-0.0","00768400","wem/bandit_either_3","A19UBZFVUWL1ES","either","2","28","","","","","","","1","0","0","0.8714244785","","0.6","0.4","0.8","0.2","","","","","0.8714244785","0.1453003075","0.4468864226","0.6827561938","","","","","","","","72","H","0","img/none_selected.jpg","","201","main_expt",""
"","bandit","281","899547","0.0-242.0-0.0","00768400","wem/bandit_either_3","A19UBZFVUWL1ES","either","2","525","","","","","","","0","1","0","","0.8679491409","0.6","0.4","0.8","0.2","0.8679491409","0.1061510446","0.3852152277","0.6590680519","","","","","","","","","","","","72","H","0","img/none_selected.jpg","","202","main_expt",""
"","bandit","282","901817","0.0-243.0-0.0","00768400","wem/bandit_either_3","A19UBZFVUWL1ES","either","2","751","","","","","","","1","0","0","0.8421855008","","0.6","0.4","0.8","0.2","","","","","0.8421855008","0.09667757311","0.3481501846","0.67998256","","","","","","","","72","H","0","img/none_selected.jpg","","203","main_expt",""
"","bandit","283","904898","0.0-244.0-0.0","00768400","wem/bandit_either_3","A19UBZFVUWL1ES","either","2","1561","","","","","","","1","0","0","0.7157802034","","0.6","0.4","0.8","0.2","","","","","0.8741547355","0.109576977","0.3688904748","0.7157802034","","","","","","","","76","L","3","","","204","main_expt",""
"","bandit","284","907089","0.0-245.0-0.0","00768400","wem/bandit_either_3","A19UBZFVUWL1ES","either","2","672","","","","","","","0","0","1","0.6750594522","","0.6","0.4","0.8","0.2","","","","","0.8589537271","0.1370524017","0.4196025605","0.6750594522","","","","","","","","76","L","3","","","205","main_expt",""
"","bandit","285","909536","0.0-246.0-0.0","00768400","wem/bandit_either_3","A19UBZFVUWL1ES","either","2","928","","","","","","","0","0","1","0.7170784861","","0.6","0.4","0.8","0.2","","","","","0.8009191088","0.1005848846","0.3558717694","0.7170784861","","","","","","","","76","L","3","","","206","main_expt",""
"","bandit","286","912189","0.0-247.0-0.0","00768400","wem/bandit_either_3","A19UBZFVUWL1ES","either","2","1137","","","","","","","0","0","1","0.8146279372","","0.6","0.4","0.8","0.2","","","","","0.8146279372","0.1100528349","0.3978287694","0.6886550294","","","","","","","","72","H","0","img/none_selected.jpg","","207","main_expt",""
"","bandit","287","914673","0.0-248.0-0.0","00768400","wem/bandit_either_3","A19UBZFVUWL1ES","either","2","965","","","","","","","0","0","1","0.1165568201","","0.6","0.4","0.8","0.2","","","","","0.7498886323","0.1165568201","0.3647175361","0.7340041914","","","","","","","","74","J","1","","","208","main_expt",""
"","bandit","288","918156","0.0-249.0-0.0","00768400","wem/bandit_either_3","A19UBZFVUWL1ES","either","2","1967","","","","","","","0","0","1","0.2942091963","","0.6","0.4","0.8","0.2","","","","","0.781298432","0.1607141963","0.2942091963","0.7108339061","","","","","","","","75","K","2","","","209","main_expt",""
"","bandit","289","921784","0.0-250.0-0.0","00768400","wem/bandit_either_3","A19UBZFVUWL1ES","either","2","2110","","","","","","","0","1","0","","0.7322658343","0.6","0.4","0.8","0.2","0.8374694261","0.2005879304","0.3228874634","0.7322658343","","","","","","","","","","","","76","L","3","","","210","main_expt",""
"","bandit","290","923986","0.0-251.0-0.0","00768400","wem/bandit_either_3","A19UBZFVUWL1ES","either","2","682","","","","","","","0","1","0","","0.6220956771","0.6","0.4","0.8","0.2","0.7461264045","0.1999716741","0.3300931135","0.6220956771","","","","","","","","","","","","76","L","3","","","211","main_expt",""
"","bandit","291","925726","0.0-252.0-0.0","00768400","wem/bandit_either_3","A19UBZFVUWL1ES","either","2","224","","","","","","","0","1","0","","0.5400145011","0.6","0.4","0.8","0.2","0.7267359419","0.2135957141","0.4044608811","0.5400145011","","","","","","","","","","","","76","L","3","","","212","main_expt",""
"","bandit","292","927461","0.0-253.0-0.0","00768400","wem/bandit_either_3","A19UBZFVUWL1ES","either","2","220","","","","","","","0","1","0","","0.5419994818","0.6","0.4","0.8","0.2","0.6529835343","0.2041793084","0.4916994921","0.5419994818","","","","","","","","","","","","76","L","3","","","213","main_expt",""
"","bandit","293","929590","0.0-254.0-0.0","00768400","wem/bandit_either_3","A19UBZFVUWL1ES","either","2","613","","","","","","","0","1","0","","0.6195319152","0.6","0.4","0.8","0.2","0.5734554779","0.2563089198","0.5387088508","0.6195319152","","","","","","","","","","","","76","L","3","","","214","main_expt",""
"","bandit","294","931832","0.0-255.0-0.0","00768400","wem/bandit_either_3","A19UBZFVUWL1ES","either","2","723","","","","","","","0","0","1","","0.7405966814","0.6","0.4","0.8","0.2","0.7056003711","0.2870699064","0.567041903","0.7405966814","","","","","","","","","","","","76","L","3","","","215","main_expt",""
"","bandit","295","934583","0.0-256.0-0.0","00768400","wem/bandit_either_3","A19UBZFVUWL1ES","either","2","1234","","","","","","","0","1","0","","0.8005734678","0.6","0.4","0.8","0.2","0.7717913507","0.2715554895","0.539749723","0.8005734678","","","","","","","","","","","","76","L","3","","","216","main_expt",""
"","bandit","296","937150","0.0-257.0-0.0","00768400","wem/bandit_either_3","A19UBZFVUWL1ES","either","2","1050","","","","","","","0","0","1","","0.8392159132","0.6","0.4","0.8","0.2","0.834894728","0.2027777883","0.3803352486","0.8392159132","","","","","","","","","","","","76","L","3","","","217","main_expt",""
"","bandit","297","939698","0.0-258.0-0.0","00768400","wem/bandit_either_3","A19UBZFVUWL1ES","either","2","1028","","","","","","","1","0","0","0.868580258","","0.6","0.4","0.8","0.2","","","","","0.868580258","0.2169787163","0.3236333655","0.7445585264","","","","","","","","72","H","0","img/none_selected.jpg","","218","main_expt",""
"","bandit","298","944443","0.0-259.0-0.0","00768400","wem/bandit_either_3","A19UBZFVUWL1ES","either","2","3176","","","","","","","1","0","0","0.8236231074","","0.6","0.4","0.8","0.2","","","","","0.8236231074","0.2292932202","0.2612589469","0.7174829008","","","","","","","","72","H","0","img/none_selected.jpg","","219","main_expt",""
"","bandit","299","946823","0.0-260.0-0.0","00768400","wem/bandit_either_3","A19UBZFVUWL1ES","either","2","862","","","","","","","1","0","0","0.7719294443","","0.6","0.4","0.8","0.2","","","","","0.7719294443","0.2829053382","0.2228319794","0.6601767392","","","","","","","","72","H","0","img/none_selected.jpg","","220","main_expt",""
"","bandit","300","948486","0.0-261.0-0.0","00768400","wem/bandit_either_3","A19UBZFVUWL1ES","either","2","145","","","","","","","1","0","0","0.7609360252","","0.6","0.4","0.8","0.2","","","","","0.7609360252","0.2691731019","0.2204856404","0.703996204","","","","","","","","72","H","0","img/none_selected.jpg","","221","main_expt",""
"","bandit","301","951087","0.0-262.0-0.0","00768400","wem/bandit_either_3","A19UBZFVUWL1ES","either","2","1082","","","","","","","1","0","0","0.7319851961","","0.6","0.4","0.8","0.2","","","","","0.7319851961","0.1974112065","0.2269951902","0.6188024556","","","","","","","","72","H","0","img/none_selected.jpg","","222","main_expt",""
"","bandit","302","953260","0.0-263.0-0.0","00768400","wem/bandit_either_3","A19UBZFVUWL1ES","either","2","652","","","","","","","1","0","0","0.6994646324","","0.6","0.4","0.8","0.2","","","","","0.6994646324","0.08486155027","0.3417830843","0.5695888615","","","","","","","","72","H","0","img/none_selected.jpg","","223","main_expt",""
"","bandit","303","955864","0.0-264.0-0.0","00768400","wem/bandit_either_3","A19UBZFVUWL1ES","either","2","1085","","","","","","","1","0","0","0.6817307813","","0.6","0.4","0.8","0.2","","","","","0.6817307813","0.1930609847","0.4057490183","0.6590173842","","","","","","","","72","H","0","img/none_selected.jpg","","224","main_expt",""
"","bandit","304","959005","0.0-265.0-0.0","00768400","wem/bandit_either_3","A19UBZFVUWL1ES","either","2","1624","","","","","","","0","1","0","","0.67394888","0.6","0.4","0.8","0.2","0.67394888","0.2026087193","0.4266979185","0.6779124893","","","","","","","","","","","","72","H","0","img/none_selected.jpg","","225","main_expt",""
"","bandit","305","961482","0.0-266.0-0.0","00768400","wem/bandit_either_3","A19UBZFVUWL1ES","either","2","956","","","","","","","1","0","0","0.6520670614","","0.6","0.4","0.8","0.2","","","","","0.6520670614","0.1295559036","0.4723095555","0.6433757785","","","","","","","","72","H","0","img/none_selected.jpg","","226","main_expt",""
"","bandit","306","964601","0.0-267.0-0.0","00768400","wem/bandit_either_3","A19UBZFVUWL1ES","either","2","1599","","","","","","","0","0","1","","0.6598054912","0.6","0.4","0.8","0.2","0.6598054912","0.1014701128","0.4396274322","0.6050090536","","","","","","","","","","","","72","H","0","img/none_selected.jpg","","227","main_expt",""
"","bandit","307","966663","0.0-268.0-0.0","00768400","wem/bandit_either_3","A19UBZFVUWL1ES","either","2","544","","","","","","","1","0","0","0.7313296172","","0.6","0.4","0.8","0.2","","","","","0.7313296172","0.1374428951","0.4581465293","0.5614220587","","","","","","","","72","H","0","img/none_selected.jpg","","228","main_expt",""
"","bandit","308","969744","0.0-269.0-0.0","00768400","wem/bandit_either_3","A19UBZFVUWL1ES","either","2","1561","","","","","","","0","0","1","0.5771612872","","0.6","0.4","0.8","0.2","","","","","0.5771612872","0.2147377822","0.3635076811","0.536938762","","","","","","","","72","H","0","img/none_selected.jpg","","229","main_expt",""
"","bandit","309","972311","0.0-270.0-0.0","00768400","wem/bandit_either_3","A19UBZFVUWL1ES","either","2","1048","","","","","","","0","0","1","","0.6474737632","0.6","0.4","0.8","0.2","0.6474737632","0.2128984172","0.4109812081","0.4691369301","","","","","","","","","","","","72","H","0","img/none_selected.jpg","","230","main_expt",""
"","bandit","310","974494","0.0-271.0-0.0","00768400","wem/bandit_either_3","A19UBZFVUWL1ES","either","2","665","","","","","","","0","0","1","0.2566260117","","0.6","0.4","0.8","0.2","","","","","0.77083729","0.2566260117","0.3769467169","0.3801843724","","","","","","","","74","J","1","","","231","main_expt",""
"","bandit","311","977621","0.0-272.0-0.0","00768400","wem/bandit_either_3","A19UBZFVUWL1ES","either","2","1610","","","","","","","0","0","1","0.307190163","","0.6","0.4","0.8","0.2","","","","","0.7372448464","0.307190163","0.4489681289","0.4401380948","","","","","","","","74","J","1","","","232","main_expt",""
"","bandit","312","980192","0.0-273.0-0.0","00768400","wem/bandit_either_3","A19UBZFVUWL1ES","either","2","1051","","","","","","","0","0","1","","0.4589823784","0.6","0.4","0.8","0.2","0.8061851957","0.3235632008","0.5191563331","0.4589823784","","","","","","","","","","","","76","L","3","","","233","main_expt",""
"","bandit","313","982596","0.0-274.0-0.0","00768400","wem/bandit_either_3","A19UBZFVUWL1ES","either","2","887","","","","","","","1","0","0","0.5635532962","","0.6","0.4","0.8","0.2","","","","","0.7628128465","0.2229472669","0.5635532962","0.412850409","","","","","","","","75","K","2","","","234","main_expt",""
"","bandit","314","985114","0.0-275.0-0.0","00768400","wem/bandit_either_3","A19UBZFVUWL1ES","either","2","1004","","","","","","","0","0","1","0.6059211115","","0.6","0.4","0.8","0.2","","","","","0.7139354314","0.3245092944","0.6059211115","0.3071086281","","","","","","","","75","K","2","","","235","main_expt",""
"","bandit","315","987311","0.0-276.0-0.0","00768400","wem/bandit_either_3","A19UBZFVUWL1ES","either","2","678","","","","","","","1","0","0","0.5767319418","","0.6","0.4","0.8","0.2","","","","","0.8459685894","0.3817813951","0.5767319418","0.3088172556","","","","","","","","75","K","2","","","236","main_expt",""
"","bandit","316","990984","0.0-277.0-0.0","00768400","wem/bandit_either_3","A19UBZFVUWL1ES","either","2","2152","","","","","","","1","0","0","0.6195352853","","0.6","0.4","0.8","0.2","","","","","0.8258062243","0.5108794425","0.6195352853","0.2725525041","","","","","","","","75","K","2","","","237","main_expt",""
"","bandit","317","996214","0.0-278.0-0.0","00768400","wem/bandit_either_3","A19UBZFVUWL1ES","either","2","3712","","","","","","","1","0","0","0.7504070514","","0.6","0.4","0.8","0.2","","","","","0.7390020401","0.545868674","0.7504070514","0.2929581335","","","","","","","","75","K","2","","","238","main_expt",""
"","bandit","318","1000910","0.0-279.0-0.0","00768400","wem/bandit_either_3","A19UBZFVUWL1ES","either","2","3178","","","","","","","0","1","0","","0.7863609923","0.6","0.4","0.8","0.2","0.7159327665","0.5696008367","0.7863609923","0.3009301418","","","","","","","","","","","","75","K","2","","","239","main_expt",""
"","bandit","319","1003025","0.0-280.0-0.0","00768400","wem/bandit_either_3","A19UBZFVUWL1ES","either","2","594","","","","","","","1","0","0","0.7472107855","","0.6","0.4","0.8","0.2","","","","","0.7704913736","0.7175907516","0.7472107855","0.1757133805","","","","","","","","75","K","2","","","240","main_expt",""
"","bandit","320","1005265","0.0-281.0-0.0","00768400","wem/bandit_either_3","A19UBZFVUWL1ES","either","2","718","","","","","","","1","0","0","0.7633099306","","0.6","0.4","0.8","0.2","","","","","0.7832900934","0.8333566257","0.7633099306","0.1490953818","","","","","","","","75","K","2","","","241","main_expt",""
"","bandit","321","1009077","0.0-282.0-0.0","00768400","wem/bandit_either_3","A19UBZFVUWL1ES","either","2","2295","","","","","","","0","0","1","0.8192624891","","0.6","0.4","0.8","0.2","","","","","0.746364214","0.8661582331","0.8192624891","0.1187436938","","","","","","","","75","K","2","","","242","main_expt",""
"","bandit","322","1010912","0.0-283.0-0.0","00768400","wem/bandit_either_3","A19UBZFVUWL1ES","either","2","313","","","","","","","1","0","0","0.7500708258","","0.6","0.4","0.8","0.2","","","","","0.7014576998","0.8970489214","0.7500708258","0.07814629235","","","","","","","","75","K","2","","","243","main_expt",""
"","bandit","323","1013852","0.0-284.0-0.0","00768400","wem/bandit_either_3","A19UBZFVUWL1ES","either","2","1425","","","","","","","0","1","0","","0.7656319196","0.6","0.4","0.8","0.2","0.6810302351","0.8760308497","0.7656319196","0.06497313331","","","","","","","","","","","","75","K","2","","","244","main_expt",""
"","bandit","324","1015894","0.0-285.0-0.0","00768400","wem/bandit_either_3","A19UBZFVUWL1ES","either","2","520","","","","","","","0","1","0","","0.7726297554","0.6","0.4","0.8","0.2","0.5349569219","0.9080051643","0.7726297554","0.1053527342","","","","","","","","","","","","75","K","2","","","245","main_expt",""
