"consent","trial_type","trial_index","time_elapsed","internal_node_id","subjID","study","MID","cond","drift","rt","responses","key_press","expt_phase","like","value","connected","gems","bombs","no_reward","GemPrChosen","BombPrChosen","GainOverPainPr_0","GainOverPainPr_1","GainOverPainPr_2","GainOverPainPr_3","LosePr_0","LosePr_1","LosePr_2","LosePr_3","WinPr_0","WinPr_1","WinPr_2","WinPr_3","Q0","Q1","Q2","gender","age","ethnicity","target","respCharCode","respKey","respChoiceNum","respChoice","practice","trial_counter","trial_label","button_pressed"
"INL_behavioral_consent_30min_online.html","consent","0","17390","0.0-0.0","00767363","wem/bandit_either_3","A3UEJQ4EJB9DBD","either","8","","","","","","","","","","","","","","","","","","","","","","","","","","","","","","","","","","","","","","",""
"","survey-text","1","23975","0.0-1.0","00767363","wem/bandit_either_3","A3UEJQ4EJB9DBD","either","8","5554","{""Q0"":""A3UEJQ4EJB9DBD""}","","","","","","","","","","","","","","","","","","","","","","","","","","","","","","","","","","","","",""
"","text","2","41561","0.0-2.0","00767363","wem/bandit_either_3","A3UEJQ4EJB9DBD","either","8","16571","","32","","","","","","","","","","","","","","","","","","","","","","","","","","","","","","","","","","","",""
"","text","3","60566","0.0-3.0","00767363","wem/bandit_either_3","A3UEJQ4EJB9DBD","either","8","18995","","32","","","","","","","","","","","","","","","","","","","","","","","","","","","","","","","","","","","",""
"","text","4","95894","0.0-4.0","00767363","wem/bandit_either_3","A3UEJQ4EJB9DBD","either","8","35321","","32","","","","","","","","","","","","","","","","","","","","","","","","","","","","","","","","","","","",""
"","text","5","143426","0.0-5.0","00767363","wem/bandit_either_3","A3UEJQ4EJB9DBD","either","8","47527","","32","","","","","","","","","","","","","","","","","","","","","","","","","","","","","","","","","","","",""
"","text","6","166786","0.0-6.0","00767363","wem/bandit_either_3","A3UEJQ4EJB9DBD","either","8","23354","","32","","","","","","","","","","","","","","","","","","","","","","","","","","","","","","","","","","","",""
"","text","7","175875","0.0-7.0","00767363","wem/bandit_either_3","A3UEJQ4EJB9DBD","either","8","9085","","32","","","","","","","","","","","","","","","","","","","","","","","","","","","","","","","","","","","",""
"","text","8","182914","0.0-8.0","00767363","wem/bandit_either_3","A3UEJQ4EJB9DBD","either","8","7035","","32","","","","","","","","","","","","","","","","","","","","","","","","","","","","","","","","","","","",""
"","identification","9","192160","0.0-9.0-0.0","00767363","wem/bandit_either_3","A3UEJQ4EJB9DBD","either","8","9177","","","","6","6","6","","","","","","","","","","","","","","","","","","","","","","","","the village of Zur","","","","","","","",""
"","identification","10","200790","0.0-9.0-1.0","00767363","wem/bandit_either_3","A3UEJQ4EJB9DBD","either","8","7563","","","","1","1","1","","","","","","","","","","","","","","","","","","","","","","","","the village of Nyx","","","","","","","",""
"","text","11","216267","0.0-10.0","00767363","wem/bandit_either_3","A3UEJQ4EJB9DBD","either","8","14468","","32","","","","","","","","","","","","","","","","","","","","","","","","","","","","","","","","","","","",""
"","text","12","221443","0.0-11.0","00767363","wem/bandit_either_3","A3UEJQ4EJB9DBD","either","8","5171","","32","","","","","","","","","","","","","","","","","","","","","","","","","","","","","","","","","","","",""
"","text","13","224977","0.0-12.0","00767363","wem/bandit_either_3","A3UEJQ4EJB9DBD","either","8","3530","","32","","","","","","","","","","","","","","","","","","","","","","","","","","","","","","","","","","","",""
"","text","14","230162","0.0-13.0","00767363","wem/bandit_either_3","A3UEJQ4EJB9DBD","either","8","5177","","32","","","","","","","","","","","","","","","","","","","","","","","","","","","","","","","","","","","",""
"","bandit","15","236087","0.0-14.0-0.0","00767363","wem/bandit_either_3","A3UEJQ4EJB9DBD","either","8","4335","","","","","","","0","0","1","0","0","","","","","0","","","","0","","","","","","","","","","","74","J","0","img/none_selected_demo.jpg","true","0","",""
"","bandit","16","239810","0.0-15.0-0.0","00767363","wem/bandit_either_3","A3UEJQ4EJB9DBD","either","8","2176","","","","","","","0","0","1","0","0","","","","","0","","","","0","","","","","","","","","","","75","K","0","img/none_selected_demo.jpg","true","0","",""
"","text","17","249579","0.0-16.0","00767363","wem/bandit_either_3","A3UEJQ4EJB9DBD","either","8","9754","","32","","","","","","","","","","","","","","","","","","","","","","","","","","","","","","","","","","","",""
"","text","18","263255","0.0-17.0","00767363","wem/bandit_either_3","A3UEJQ4EJB9DBD","either","8","13663","","32","","","","","","","","","","","","","","","","","","","","","","","","","","","","","","","","","","","",""
"","text","19","274532","0.0-18.0","00767363","wem/bandit_either_3","A3UEJQ4EJB9DBD","either","8","11268","","32","","","","","","","","","","","","","","","","","","","","","","","","","","","","","","","","","","","",""
"","text","20","283826","0.0-19.0","00767363","wem/bandit_either_3","A3UEJQ4EJB9DBD","either","8","9283","","32","","","","","","","","","","","","","","","","","","","","","","","","","","","","","","","","","","","",""
"","bandit","21","287178","0.0-20.0-0.0","00767363","wem/bandit_either_3","A3UEJQ4EJB9DBD","either","8","1804","","","","","","","0","0","1","0.8","","0.5","0.5","","","","","","","0.8","0.2","","","","","","","","","","74","J","0","img/none_selected_demo.jpg","true","0","80_20_practice",""
"","bandit","22","290215","0.0-20.0-1.0","00767363","wem/bandit_either_3","A3UEJQ4EJB9DBD","either","8","1498","","","","","","","0","0","1","0.2","","0.5","0.5","","","","","","","0.8","0.2","","","","","","","","","","75","K","1","","true","0","80_20_practice",""
"","bandit","23","293115","0.0-20.0-2.0","00767363","wem/bandit_either_3","A3UEJQ4EJB9DBD","either","8","1359","","","","","","","0","0","1","","0.2","0.5","0.5","","","0.8","0.2","","","","","","","","","","","","","","75","K","1","","true","0","80_20_practice",""
"","bandit","24","295567","0.0-20.0-3.0","00767363","wem/bandit_either_3","A3UEJQ4EJB9DBD","either","8","909","","","","","","","0","1","0","","0.8","0.5","0.5","","","0.8","0.2","","","","","","","","","","","","","","74","J","0","img/none_selected_demo.jpg","true","0","80_20_practice",""
"","bandit","25","298655","0.0-20.0-4.0","00767363","wem/bandit_either_3","A3UEJQ4EJB9DBD","either","8","1545","","","","","","","0","0","1","0.8","","0.5","0.5","","","","","","","0.8","0.2","","","","","","","","","","74","J","0","img/none_selected_demo.jpg","true","0","80_20_practice",""
"","bandit","26","301017","0.0-20.0-5.0","00767363","wem/bandit_either_3","A3UEJQ4EJB9DBD","either","8","825","","","","","","","1","0","0","0.2","","0.5","0.5","","","","","","","0.8","0.2","","","","","","","","","","75","K","1","","true","0","80_20_practice",""
"","bandit","27","303682","0.0-20.0-6.0","00767363","wem/bandit_either_3","A3UEJQ4EJB9DBD","either","8","1118","","","","","","","0","0","1","","0.2","0.5","0.5","","","0.8","0.2","","","","","","","","","","","","","","75","K","1","","true","0","80_20_practice",""
"","bandit","28","305888","0.0-20.0-7.0","00767363","wem/bandit_either_3","A3UEJQ4EJB9DBD","either","8","664","","","","","","","0","1","0","","0.8","0.5","0.5","","","0.8","0.2","","","","","","","","","","","","","","74","J","0","img/none_selected_demo.jpg","true","0","80_20_practice",""
"","bandit","29","308030","0.0-20.0-8.0","00767363","wem/bandit_either_3","A3UEJQ4EJB9DBD","either","8","595","","","","","","","1","0","0","0.8","","0.5","0.5","","","","","","","0.8","0.2","","","","","","","","","","74","J","0","img/none_selected_demo.jpg","true","0","80_20_practice",""
"","bandit","30","310193","0.0-20.0-9.0","00767363","wem/bandit_either_3","A3UEJQ4EJB9DBD","either","8","631","","","","","","","1","0","0","0.8","","0.5","0.5","","","","","","","0.8","0.2","","","","","","","","","","74","J","0","img/none_selected_demo.jpg","true","0","80_20_practice",""
"","bandit","31","312281","0.0-20.0-10.0","00767363","wem/bandit_either_3","A3UEJQ4EJB9DBD","either","8","518","","","","","","","0","0","1","0.8","","0.5","0.5","","","","","","","0.8","0.2","","","","","","","","","","74","J","0","img/none_selected_demo.jpg","true","0","80_20_practice",""
"","bandit","32","314236","0.0-20.0-11.0","00767363","wem/bandit_either_3","A3UEJQ4EJB9DBD","either","8","385","","","","","","","0","0","1","0.2","","0.5","0.5","","","","","","","0.8","0.2","","","","","","","","","","75","K","1","","true","0","80_20_practice",""
"","bandit","33","316508","0.0-20.0-12.0","00767363","wem/bandit_either_3","A3UEJQ4EJB9DBD","either","8","413","","","","","","","1","0","0","0.8","","0.5","0.5","","","","","","","0.8","0.2","","","","","","","","","","74","J","0","img/none_selected_demo.jpg","true","0","80_20_practice",""
"","bandit","34","318728","0.0-20.0-13.0","00767363","wem/bandit_either_3","A3UEJQ4EJB9DBD","either","8","680","","","","","","","0","1","0","","0.8","0.5","0.5","","","0.8","0.2","","","","","","","","","","","","","","74","J","0","img/none_selected_demo.jpg","true","0","80_20_practice",""
"","bandit","35","320977","0.0-20.0-14.0","00767363","wem/bandit_either_3","A3UEJQ4EJB9DBD","either","8","703","","","","","","","0","0","1","","0.8","0.5","0.5","","","0.8","0.2","","","","","","","","","","","","","","74","J","0","img/none_selected_demo.jpg","true","0","80_20_practice",""
"","bandit","36","322889","0.0-20.0-15.0","00767363","wem/bandit_either_3","A3UEJQ4EJB9DBD","either","8","375","","","","","","","0","0","1","0.2","","0.5","0.5","","","","","","","0.8","0.2","","","","","","","","","","75","K","1","","true","0","80_20_practice",""
"","bandit","37","324802","0.0-20.0-16.0","00767363","wem/bandit_either_3","A3UEJQ4EJB9DBD","either","8","367","","","","","","","0","0","1","0.8","","0.5","0.5","","","","","","","0.8","0.2","","","","","","","","","","74","J","0","img/none_selected_demo.jpg","true","0","80_20_practice",""
"","bandit","38","327024","0.0-20.0-17.0","00767363","wem/bandit_either_3","A3UEJQ4EJB9DBD","either","8","677","","","","","","","1","0","0","0.8","","0.5","0.5","","","","","","","0.8","0.2","","","","","","","","","","74","J","0","img/none_selected_demo.jpg","true","0","80_20_practice",""
"","bandit","39","329212","0.0-20.0-18.0","00767363","wem/bandit_either_3","A3UEJQ4EJB9DBD","either","8","654","","","","","","","1","0","0","0.8","","0.5","0.5","","","","","","","0.8","0.2","","","","","","","","","","74","J","0","img/none_selected_demo.jpg","true","0","80_20_practice",""
"","bandit","40","331280","0.0-20.0-19.0","00767363","wem/bandit_either_3","A3UEJQ4EJB9DBD","either","8","485","","","","","","","1","0","0","0.8","","0.5","0.5","","","","","","","0.8","0.2","","","","","","","","","","74","J","0","img/none_selected_demo.jpg","true","0","80_20_practice",""
"","text","41","343189","0.0-21.0","00767363","wem/bandit_either_3","A3UEJQ4EJB9DBD","either","8","11899","","32","","","","","","","","","","","","","","","","","","","","","","","","","","","","","","","","","","","",""
"","bandit","42","346466","0.0-22.0-0.0","00767363","wem/bandit_either_3","A3UEJQ4EJB9DBD","either","8","1710","","","","","","","1","0","0","1","0","","","","","0","1","","","1","0","","","","","","","","","","74","J","0","img/none_selected_demo.jpg","true","0","",""
"","text","43","354261","0.0-23.0","00767363","wem/bandit_either_3","A3UEJQ4EJB9DBD","either","8","7783","","32","","","","","","","","","","","","","","","","","","","","","","","","","","","","","","","","","","","",""
"","text","44","364198","0.0-24.0","00767363","wem/bandit_either_3","A3UEJQ4EJB9DBD","either","8","9918","","32","","","","","","","","","","","","","","","","","","","","","","","","","","","","","","","","","","","",""
"","text","45","372022","0.0-25.0","00767363","wem/bandit_either_3","A3UEJQ4EJB9DBD","either","8","7805","","32","","","","","","","","","","","","","","","","","","","","","","","","","","","","","","","","","","","",""
"","text","46","385748","0.0-26.0","00767363","wem/bandit_either_3","A3UEJQ4EJB9DBD","either","8","13712","","32","","","","","","","","","","","","","","","","","","","","","","","","","","","","","","","","","","","",""
"","text","47","399490","0.0-27.0","00767363","wem/bandit_either_3","A3UEJQ4EJB9DBD","either","8","13726","","32","","","","","","","","","","","","","","","","","","","","","","","","","","","","","","","","","","","",""
"","text","48","405510","0.0-28.0","00767363","wem/bandit_either_3","A3UEJQ4EJB9DBD","either","8","6000","","32","","","","","","","","","","","","","","","","","","","","","","","","","","","","","","","","","","","",""
"","text","49","413604","0.0-29.0","00767363","wem/bandit_either_3","A3UEJQ4EJB9DBD","either","8","8080","","32","","","","","","","","","","","","","","","","","","","","","","","","","","","","","","","","","","","",""
"","text","50","420658","0.0-30.0","00767363","wem/bandit_either_3","A3UEJQ4EJB9DBD","either","8","7040","","32","","","","","","","","","","","","","","","","","","","","","","","","","","","","","","","","","","","",""
"","text","51","430291","0.0-31.0","00767363","wem/bandit_either_3","A3UEJQ4EJB9DBD","either","8","9621","","32","","","","","","","","","","","","","","","","","","","","","","","","","","","","","","","","","","","",""
"","text","52","439811","0.0-32.0","00767363","wem/bandit_either_3","A3UEJQ4EJB9DBD","either","8","9514","","32","","","","","","","","","","","","","","","","","","","","","","","","","","","","","","","","","","","",""
"","text","53","448913","0.0-33.0","00767363","wem/bandit_either_3","A3UEJQ4EJB9DBD","either","8","9094","","32","","","","","","","","","","","","","","","","","","","","","","","","","","","","","","","","","","","",""
"","bandit","54","452288","0.0-34.0-0.0","00767363","wem/bandit_either_3","A3UEJQ4EJB9DBD","either","8","1776","","","","","","","0","0","1","0.2","","0.5","0.5","0.5","0.5","","","","","0.8","0.2","0.6","0.2","","","","","","","","76","L","3","","true","0","full_practice",""
"","bandit","55","454764","0.0-34.0-1.0","00767363","wem/bandit_either_3","A3UEJQ4EJB9DBD","either","8","933","","","","","","","0","1","0","","0.6","0.5","0.5","0.5","0.5","0.8","0.2","0.6","0.2","","","","","","","","","","","","75","K","2","","true","0","full_practice",""
"","bandit","56","457647","0.0-34.0-2.0","00767363","wem/bandit_either_3","A3UEJQ4EJB9DBD","either","8","1336","","","","","","","1","0","0","0.6","","0.5","0.5","0.5","0.5","","","","","0.8","0.2","0.6","0.2","","","","","","","","75","K","2","","true","0","full_practice",""
"","bandit","57","459610","0.0-34.0-3.0","00767363","wem/bandit_either_3","A3UEJQ4EJB9DBD","either","8","420","","","","","","","0","0","1","0.2","","0.5","0.5","0.5","0.5","","","","","0.8","0.2","0.6","0.2","","","","","","","","74","J","1","","true","0","full_practice",""
"","bandit","58","461588","0.0-34.0-4.0","00767363","wem/bandit_either_3","A3UEJQ4EJB9DBD","either","8","427","","","","","","","0","0","1","0.6","","0.5","0.5","0.5","0.5","","","","","0.8","0.2","0.6","0.2","","","","","","","","75","K","2","","true","0","full_practice",""
"","bandit","59","463692","0.0-34.0-5.0","00767363","wem/bandit_either_3","A3UEJQ4EJB9DBD","either","8","428","","","","","","","0","1","0","","0.8","0.5","0.5","0.5","0.5","0.8","0.2","0.6","0.2","","","","","","","","","","","","72","H","0","img/none_selected.jpg","true","0","full_practice",""
"","bandit","60","466481","0.0-34.0-6.0","00767363","wem/bandit_either_3","A3UEJQ4EJB9DBD","either","8","766","","","","","","","1","0","0","0.2","","0.5","0.5","0.5","0.5","","","","","0.8","0.2","0.6","0.2","","","","","","","","76","L","3","","true","0","full_practice",""
"","bandit","61","468428","0.0-34.0-7.0","00767363","wem/bandit_either_3","A3UEJQ4EJB9DBD","either","8","398","","","","","","","0","1","0","","0.8","0.5","0.5","0.5","0.5","0.8","0.2","0.6","0.2","","","","","","","","","","","","72","H","0","img/none_selected.jpg","true","0","full_practice",""
"","bandit","62","470384","0.0-34.0-8.0","00767363","wem/bandit_either_3","A3UEJQ4EJB9DBD","either","8","388","","","","","","","0","0","1","0.2","","0.5","0.5","0.5","0.5","","","","","0.8","0.2","0.6","0.2","","","","","","","","76","L","3","","true","0","full_practice",""
"","bandit","63","472295","0.0-34.0-9.0","00767363","wem/bandit_either_3","A3UEJQ4EJB9DBD","either","8","367","","","","","","","1","0","0","0.6","","0.5","0.5","0.5","0.5","","","","","0.8","0.2","0.6","0.2","","","","","","","","75","K","2","","true","0","full_practice",""
"","bandit","64","474226","0.0-34.0-10.0","00767363","wem/bandit_either_3","A3UEJQ4EJB9DBD","either","8","386","","","","","","","1","0","0","0.8","","0.5","0.5","0.5","0.5","","","","","0.8","0.2","0.6","0.2","","","","","","","","72","H","0","img/none_selected.jpg","true","0","full_practice",""
"","bandit","65","476231","0.0-34.0-11.0","00767363","wem/bandit_either_3","A3UEJQ4EJB9DBD","either","8","466","","","","","","","0","0","1","","0.6","0.5","0.5","0.5","0.5","0.8","0.2","0.6","0.2","","","","","","","","","","","","75","K","2","","true","0","full_practice",""
"","bandit","66","478178","0.0-34.0-12.0","00767363","wem/bandit_either_3","A3UEJQ4EJB9DBD","either","8","396","","","","","","","0","0","1","0.2","","0.5","0.5","0.5","0.5","","","","","0.8","0.2","0.6","0.2","","","","","","","","74","J","1","","true","0","full_practice",""
"","bandit","67","480061","0.0-34.0-13.0","00767363","wem/bandit_either_3","A3UEJQ4EJB9DBD","either","8","316","","","","","","","0","0","1","0.2","","0.5","0.5","0.5","0.5","","","","","0.8","0.2","0.6","0.2","","","","","","","","76","L","3","","true","0","full_practice",""
"","bandit","68","481931","0.0-34.0-14.0","00767363","wem/bandit_either_3","A3UEJQ4EJB9DBD","either","8","322","","","","","","","0","1","0","","0.8","0.5","0.5","0.5","0.5","0.8","0.2","0.6","0.2","","","","","","","","","","","","72","H","0","img/none_selected.jpg","true","0","full_practice",""
"","bandit","69","483795","0.0-34.0-15.0","00767363","wem/bandit_either_3","A3UEJQ4EJB9DBD","either","8","313","","","","","","","0","1","0","","0.6","0.5","0.5","0.5","0.5","0.8","0.2","0.6","0.2","","","","","","","","","","","","75","K","2","","true","0","full_practice",""
"","bandit","70","485743","0.0-34.0-16.0","00767363","wem/bandit_either_3","A3UEJQ4EJB9DBD","either","8","401","","","","","","","0","0","1","","0.8","0.5","0.5","0.5","0.5","0.8","0.2","0.6","0.2","","","","","","","","","","","","72","H","0","img/none_selected.jpg","true","0","full_practice",""
"","bandit","71","487692","0.0-34.0-17.0","00767363","wem/bandit_either_3","A3UEJQ4EJB9DBD","either","8","405","","","","","","","0","1","0","","0.2","0.5","0.5","0.5","0.5","0.8","0.2","0.6","0.2","","","","","","","","","","","","74","J","1","","true","0","full_practice",""
"","bandit","72","489572","0.0-34.0-18.0","00767363","wem/bandit_either_3","A3UEJQ4EJB9DBD","either","8","307","","","","","","","0","1","0","","0.6","0.5","0.5","0.5","0.5","0.8","0.2","0.6","0.2","","","","","","","","","","","","75","K","2","","true","0","full_practice",""
"","bandit","73","491472","0.0-34.0-19.0","00767363","wem/bandit_either_3","A3UEJQ4EJB9DBD","either","8","345","","","","","","","0","0","1","0.2","","0.5","0.5","0.5","0.5","","","","","0.8","0.2","0.6","0.2","","","","","","","","76","L","3","","true","0","full_practice",""
"","text","74","497013","0.0-35.0","00767363","wem/bandit_either_3","A3UEJQ4EJB9DBD","either","8","5523","","32","","","","","","","","","","","","","","","","","","","","","","","","","","","","","","","","","","","",""
"","text","75","520949","0.0-36.0","00767363","wem/bandit_either_3","A3UEJQ4EJB9DBD","either","8","22903","","32","","","","","","","","","","","","","","","","","","","","","","","","","","","","","","","","","","","",""
"","text","76","533734","0.0-37.0","00767363","wem/bandit_either_3","A3UEJQ4EJB9DBD","either","8","12763","","32","","","","","","","","","","","","","","","","","","","","","","","","","","","","","","","","","","","",""
"","text","77","542821","0.0-38.0","00767363","wem/bandit_either_3","A3UEJQ4EJB9DBD","either","8","9066","","32","","","","","","","","","","","","","","","","","","","","","","","","","","","","","","","","","","","",""
"","text","78","554036","0.0-39.0","00767363","wem/bandit_either_3","A3UEJQ4EJB9DBD","either","8","11201","","32","","","","","","","","","","","","","","","","","","","","","","","","","","","","","","","","","","","",""
"","text","79","567331","0.0-40.0","00767363","wem/bandit_either_3","A3UEJQ4EJB9DBD","either","8","13278","","32","","","","","","","","","","","","","","","","","","","","","","","","","","","","","","","","","","","",""
"","bandit","80","570520","0.0-41.0-0.0","00767363","wem/bandit_either_3","A3UEJQ4EJB9DBD","either","8","1640","","","","","","","1","0","0","0.4468950172","","0.8","0.6","0.4","0.2","","","","","0.4468950172","0.3040937467","0.6337563202","0.2428949588","","","","","","","","72","H","0","img/none_selected.jpg","","1","main_expt",""
"","bandit","81","572725","0.0-42.0-0.0","00767363","wem/bandit_either_3","A3UEJQ4EJB9DBD","either","8","658","","","","","","","0","0","1","0.3846124694","","0.8","0.6","0.4","0.2","","","","","0.3846124694","0.2687625136","0.7380673114","0.248961424","","","","","","","","72","H","0","img/none_selected.jpg","","2","main_expt",""
"","bandit","82","574849","0.0-43.0-0.0","00767363","wem/bandit_either_3","A3UEJQ4EJB9DBD","either","8","587","","","","","","","0","1","0","","0.7715549737","0.8","0.6","0.4","0.2","0.3885967974","0.3017919557","0.7715549737","0.1878604038","","","","","","","","","","","","75","K","2","","","3","main_expt",""
"","bandit","83","577094","0.0-44.0-0.0","00767363","wem/bandit_either_3","A3UEJQ4EJB9DBD","either","8","700","","","","","","","0","0","1","0.2891644394","","0.8","0.6","0.4","0.2","","","","","0.2891644394","0.3388517529","0.8257013646","0.1194049449","","","","","","","","72","H","0","img/none_selected.jpg","","4","main_expt",""
"","bandit","84","579082","0.0-45.0-0.0","00767363","wem/bandit_either_3","A3UEJQ4EJB9DBD","either","8","446","","","","","","","0","1","0","","0.389096829","0.8","0.6","0.4","0.2","0.2654579937","0.389096829","0.8617886559","0.197046458","","","","","","","","","","","","74","J","1","","","5","main_expt",""
"","bandit","85","581025","0.0-46.0-0.0","00767363","wem/bandit_either_3","A3UEJQ4EJB9DBD","either","8","404","","","","","","","1","0","0","0.8452125903","","0.8","0.6","0.4","0.2","","","","","0.355160999","0.4799636182","0.8452125903","0.2312720201","","","","","","","","75","K","2","","","6","main_expt",""
"","bandit","86","583548","0.0-47.0-0.0","00767363","wem/bandit_either_3","A3UEJQ4EJB9DBD","either","8","952","","","","","","","0","1","0","","0.5316557606","0.8","0.6","0.4","0.2","0.4733904832","0.5316557606","0.8765288384","0.3255591742","","","","","","","","","","","","74","J","1","","","7","main_expt",""
"","bandit","87","585590","0.0-48.0-0.0","00767363","wem/bandit_either_3","A3UEJQ4EJB9DBD","either","8","501","","","","","","","0","1","0","","0.8625068071","0.8","0.6","0.4","0.2","0.4900136729","0.4935712437","0.8625068071","0.163151729","","","","","","","","","","","","75","K","2","","","8","main_expt",""
"","bandit","88","587688","0.0-49.0-0.0","00767363","wem/bandit_either_3","A3UEJQ4EJB9DBD","either","8","557","","","","","","","0","0","1","0.5400450001","","0.8","0.6","0.4","0.2","","","","","0.4543552171","0.5400450001","0.8385781597","0.1671639775","","","","","","","","74","J","1","","","9","main_expt",""
"","bandit","89","589682","0.0-50.0-0.0","00767363","wem/bandit_either_3","A3UEJQ4EJB9DBD","either","8","444","","","","","","","0","0","1","","0.1315225434","0.8","0.6","0.4","0.2","0.4523920981","0.6510952772","0.833356221","0.1315225434","","","","","","","","","","","","76","L","3","","","10","main_expt",""
"","bandit","90","591670","0.0-51.0-0.0","00767363","wem/bandit_either_3","A3UEJQ4EJB9DBD","either","8","449","","","","","","","0","0","1","0.9030756702","","0.8","0.6","0.4","0.2","","","","","0.4053083118","0.6117649901","0.9030756702","0.1287002637","","","","","","","","75","K","2","","","11","main_expt",""
"","bandit","91","593998","0.0-52.0-0.0","00767363","wem/bandit_either_3","A3UEJQ4EJB9DBD","either","8","736","","","","","","","1","0","0","0.6360746298","","0.8","0.6","0.4","0.2","","","","","0.4059907931","0.6360746298","0.9129290363","0.1026596936","","","","","","","","74","J","1","","","12","main_expt",""
"","bandit","92","596009","0.0-53.0-0.0","00767363","wem/bandit_either_3","A3UEJQ4EJB9DBD","either","8","469","","","","","","","0","0","1","0.1287514256","","0.8","0.6","0.4","0.2","","","","","0.2934167972","0.5673960652","0.8638417716","0.1287514256","","","","","","","","76","L","3","","","13","main_expt",""
"","bandit","93","598401","0.0-54.0-0.0","00767363","wem/bandit_either_3","A3UEJQ4EJB9DBD","either","8","620","","","","","","","0","1","0","","0.787806988","0.8","0.6","0.4","0.2","0.3260927596","0.6747725803","0.787806988","0.1786171179","","","","","","","","","","","","75","K","2","","","14","main_expt",""
"","bandit","94","600578","0.0-55.0-0.0","00767363","wem/bandit_either_3","A3UEJQ4EJB9DBD","either","8","423","","","","","","","1","0","0","0.6277188345","","0.8","0.6","0.4","0.2","","","","","0.3355382734","0.6277188345","0.7254212376","0.1459410532","","","","","","","","74","J","1","","","15","main_expt",""
"","bandit","95","603008","0.0-56.0-0.0","00767363","wem/bandit_either_3","A3UEJQ4EJB9DBD","either","8","869","","","","","","","0","0","1","","0.7238415528","0.8","0.6","0.4","0.2","0.3040928121","0.5435568235","0.7238415528","0.2255600906","","","","","","","","","","","","75","K","2","","","16","main_expt",""
"","bandit","96","605114","0.0-57.0-0.0","00767363","wem/bandit_either_3","A3UEJQ4EJB9DBD","either","8","552","","","","","","","0","0","1","0.2730366263","","0.8","0.6","0.4","0.2","","","","","0.2730366263","0.4180161478","0.7796243455","0.2052013943","","","","","","","","72","H","0","img/none_selected.jpg","","17","main_expt",""
"","bandit","97","607118","0.0-58.0-0.0","00767363","wem/bandit_either_3","A3UEJQ4EJB9DBD","either","8","427","","","","","","","0","0","1","0.4961111773","","0.8","0.6","0.4","0.2","","","","","0.4105298721","0.4961111773","0.6928902724","0.1780354615","","","","","","","","74","J","1","","","18","main_expt",""
"","bandit","98","609240","0.0-59.0-0.0","00767363","wem/bandit_either_3","A3UEJQ4EJB9DBD","either","8","540","","","","","","","0","0","1","0.3586923344","","0.8","0.6","0.4","0.2","","","","","0.3586923344","0.445530788","0.7658630901","0.1576496117","","","","","","","","72","H","0","img/none_selected.jpg","","19","main_expt",""
"","bandit","99","611352","0.0-60.0-0.0","00767363","wem/bandit_either_3","A3UEJQ4EJB9DBD","either","8","545","","","","","","","0","1","0","","0.7584200513","0.8","0.6","0.4","0.2","0.3220075653","0.3443163705","0.7584200513","0.1618752313","","","","","","","","","","","","75","K","2","","","20","main_expt",""
"","bandit","100","613420","0.0-61.0-0.0","00767363","wem/bandit_either_3","A3UEJQ4EJB9DBD","either","8","486","","","","","","","0","0","1","","0.2152187387","0.8","0.6","0.4","0.2","0.2729660799","0.3012808647","0.7727038765","0.2152187387","","","","","","","","","","","","76","L","3","","","21","main_expt",""
"","bandit","101","615358","0.0-62.0-0.0","00767363","wem/bandit_either_3","A3UEJQ4EJB9DBD","either","8","390","","","","","","","1","0","0","0.8152565923","","0.8","0.6","0.4","0.2","","","","","0.2712352107","0.2882062485","0.8152565923","0.3547982299","","","","","","","","75","K","2","","","22","main_expt",""
"","bandit","102","617317","0.0-63.0-0.0","00767363","wem/bandit_either_3","A3UEJQ4EJB9DBD","either","8","382","","","","","","","1","0","0","0.7537075358","","0.8","0.6","0.4","0.2","","","","","0.3390855774","0.2113421372","0.7537075358","0.323805638","","","","","","","","75","K","2","","","23","main_expt",""
"","bandit","103","619423","0.0-64.0-0.0","00767363","wem/bandit_either_3","A3UEJQ4EJB9DBD","either","8","533","","","","","","","1","0","0","0.7108822858","","0.8","0.6","0.4","0.2","","","","","0.3483259141","0.2201805416","0.7108822858","0.3588909826","","","","","","","","75","K","2","","","24","main_expt",""
"","bandit","104","621587","0.0-65.0-0.0","00767363","wem/bandit_either_3","A3UEJQ4EJB9DBD","either","8","557","","","","","","","1","0","0","0.6930515954","","0.8","0.6","0.4","0.2","","","","","0.3416976173","0.2580956466","0.6930515954","0.3885553436","","","","","","","","75","K","2","","","25","main_expt",""
"","bandit","105","623685","0.0-66.0-0.0","00767363","wem/bandit_either_3","A3UEJQ4EJB9DBD","either","8","540","","","","","","","1","0","0","0.6905393417","","0.8","0.6","0.4","0.2","","","","","0.4243476322","0.2153432854","0.6905393417","0.4871556374","","","","","","","","75","K","2","","","26","main_expt",""
"","bandit","106","625921","0.0-67.0-0.0","00767363","wem/bandit_either_3","A3UEJQ4EJB9DBD","either","8","659","","","","","","","0","1","0","","0.7531652131","0.8","0.6","0.4","0.2","0.5257754898","0.1727955236","0.7531652131","0.4934119911","","","","","","","","","","","","75","K","2","","","27","main_expt",""
"","bandit","107","627883","0.0-68.0-0.0","00767363","wem/bandit_either_3","A3UEJQ4EJB9DBD","either","8","412","","","","","","","0","0","1","0.1894296703","","0.8","0.6","0.4","0.2","","","","","0.5246232361","0.1894296703","0.8001777041","0.4322092846","","","","","","","","74","J","1","","","28","main_expt",""
"","bandit","108","629813","0.0-69.0-0.0","00767363","wem/bandit_either_3","A3UEJQ4EJB9DBD","either","8","358","","","","","","","0","1","0","","0.8118404327","0.8","0.6","0.4","0.2","0.375994784","0.2128919211","0.8118404327","0.3459113699","","","","","","","","","","","","75","K","2","","","29","main_expt",""
"","bandit","109","631853","0.0-70.0-0.0","00767363","wem/bandit_either_3","A3UEJQ4EJB9DBD","either","8","485","","","","","","","0","1","0","","0.7839534503","0.8","0.6","0.4","0.2","0.2936890161","0.206056468","0.7839534503","0.280789843","","","","","","","","","","","","75","K","2","","","30","main_expt",""
"","bandit","110","633903","0.0-71.0-0.0","00767363","wem/bandit_either_3","A3UEJQ4EJB9DBD","either","8","445","","","","","","","0","1","0","","0.8066372971","0.8","0.6","0.4","0.2","0.2878812258","0.1725623241","0.8066372971","0.2613810438","","","","","","","","","","","","75","K","2","","","31","main_expt",""
"","bandit","111","635878","0.0-72.0-0.0","00767363","wem/bandit_either_3","A3UEJQ4EJB9DBD","either","8","413","","","","","","","1","0","0","0.8049259064","","0.8","0.6","0.4","0.2","","","","","0.2451492808","0.1629883914","0.8049259064","0.3821585683","","","","","","","","75","K","2","","","32","main_expt",""
"","bandit","112","637811","0.0-73.0-0.0","00767363","wem/bandit_either_3","A3UEJQ4EJB9DBD","either","8","383","","","","","","","1","0","0","0.7891664673","","0.8","0.6","0.4","0.2","","","","","0.2802113289","0.2107911223","0.7891664673","0.2714925976","","","","","","","","75","K","2","","","33","main_expt",""
"","bandit","113","639955","0.0-74.0-0.0","00767363","wem/bandit_either_3","A3UEJQ4EJB9DBD","either","8","596","","","","","","","0","1","0","","0.7854278051","0.8","0.6","0.4","0.2","0.2892342718","0.1025901997","0.7854278051","0.2755575364","","","","","","","","","","","","75","K","2","","","34","main_expt",""
"","bandit","114","642059","0.0-75.0-0.0","00767363","wem/bandit_either_3","A3UEJQ4EJB9DBD","either","8","479","","","","","","","0","1","0","","0.7260182018","0.8","0.6","0.4","0.2","0.2486893666","0.1289879153","0.7260182018","0.2697856654","","","","","","","","","","","","75","K","2","","","35","main_expt",""
"","bandit","115","644295","0.0-76.0-0.0","00767363","wem/bandit_either_3","A3UEJQ4EJB9DBD","either","8","672","","","","","","","1","0","0","0.7910957192","","0.8","0.6","0.4","0.2","","","","","0.3536408983","0.1645491317","0.7910957192","0.2483646443","","","","","","","","75","K","2","","","36","main_expt",""
"","bandit","116","646627","0.0-77.0-0.0","00767363","wem/bandit_either_3","A3UEJQ4EJB9DBD","either","8","790","","","","","","","0","1","0","","0.7996551039","0.8","0.6","0.4","0.2","0.2493566902","0.1698046746","0.7996551039","0.2103950957","","","","","","","","","","","","75","K","2","","","37","main_expt",""
"","bandit","117","648819","0.0-78.0-0.0","00767363","wem/bandit_either_3","A3UEJQ4EJB9DBD","either","8","634","","","","","","","1","0","0","0.6717479894","","0.8","0.6","0.4","0.2","","","","","0.2948354516","0.2281502886","0.6717479894","0.2128944509","","","","","","","","75","K","2","","","38","main_expt",""
"","bandit","118","650918","0.0-79.0-0.0","00767363","wem/bandit_either_3","A3UEJQ4EJB9DBD","either","8","519","","","","","","","0","1","0","","0.7121128808","0.8","0.6","0.4","0.2","0.3373274679","0.1561271762","0.7121128808","0.2965153327","","","","","","","","","","","","75","K","2","","","39","main_expt",""
"","bandit","119","653019","0.0-80.0-0.0","00767363","wem/bandit_either_3","A3UEJQ4EJB9DBD","either","8","536","","","","","","","0","1","0","","0.7157410044","0.8","0.6","0.4","0.2","0.4138768052","0.1543620621","0.7157410044","0.4447532253","","","","","","","","","","","","75","K","2","","","40","main_expt",""
"","bandit","120","655147","0.0-81.0-0.0","00767363","wem/bandit_either_3","A3UEJQ4EJB9DBD","either","8","575","","","","","","","0","1","0","","0.438096834","0.8","0.6","0.4","0.2","0.438096834","0.2271499981","0.681196038","0.5330008696","","","","","","","","","","","","72","H","0","img/none_selected.jpg","","41","main_expt",""
"","bandit","121","657244","0.0-82.0-0.0","00767363","wem/bandit_either_3","A3UEJQ4EJB9DBD","either","8","500","","","","","","","0","0","1","0.6504320647","","0.8","0.6","0.4","0.2","","","","","0.4185173612","0.2882452936","0.6504320647","0.573861049","","","","","","","","75","K","2","","","42","main_expt",""
"","bandit","122","659268","0.0-83.0-0.0","00767363","wem/bandit_either_3","A3UEJQ4EJB9DBD","either","8","444","","","","","","","0","0","1","0.3796335567","","0.8","0.6","0.4","0.2","","","","","0.3796335567","0.298522686","0.7369830744","0.6654349765","","","","","","","","72","H","0","img/none_selected.jpg","","43","main_expt",""
"","bandit","123","661341","0.0-84.0-0.0","00767363","wem/bandit_either_3","A3UEJQ4EJB9DBD","either","8","512","","","","","","","0","1","0","","0.691198465","0.8","0.6","0.4","0.2","0.31766129","0.3188886026","0.6797935378","0.691198465","","","","","","","","","","","","76","L","3","","","44","main_expt",""
"","bandit","124","663380","0.0-85.0-0.0","00767363","wem/bandit_either_3","A3UEJQ4EJB9DBD","either","8","498","","","","","","","0","0","1","0.7652674903","","0.8","0.6","0.4","0.2","","","","","0.4047397141","0.2705760174","0.6507473666","0.7652674903","","","","","","","","76","L","3","","","45","main_expt",""
"","bandit","125","665477","0.0-86.0-0.0","00767363","wem/bandit_either_3","A3UEJQ4EJB9DBD","either","8","550","","","","","","","1","0","0","0.4961613307","","0.8","0.6","0.4","0.2","","","","","0.4961613307","0.2506880939","0.6334510787","0.8065230058","","","","","","","","72","H","0","img/none_selected.jpg","","46","main_expt",""
"","bandit","126","667619","0.0-87.0-0.0","00767363","wem/bandit_either_3","A3UEJQ4EJB9DBD","either","8","564","","","","","","","1","0","0","0.2491585872","","0.8","0.6","0.4","0.2","","","","","0.4624468315","0.2491585872","0.6143175143","0.7774474893","","","","","","","","74","J","1","","","47","main_expt",""
"","bandit","127","669646","0.0-88.0-0.0","00767363","wem/bandit_either_3","A3UEJQ4EJB9DBD","either","8","466","","","","","","","0","0","1","0.4886537242","","0.8","0.6","0.4","0.2","","","","","0.4886537242","0.1997021219","0.6404512611","0.7693176975","","","","","","","","72","H","0","img/none_selected.jpg","","48","main_expt",""
"","bandit","128","671646","0.0-89.0-0.0","00767363","wem/bandit_either_3","A3UEJQ4EJB9DBD","either","8","449","","","","","","","1","0","0","0.2119577724","","0.8","0.6","0.4","0.2","","","","","0.4270302022","0.2119577724","0.6758621215","0.807419373","","","","","","","","74","J","1","","","49","main_expt",""
"","bandit","129","673819","0.0-90.0-0.0","00767363","wem/bandit_either_3","A3UEJQ4EJB9DBD","either","8","544","","","","","","","0","0","1","0.2615271711","","0.8","0.6","0.4","0.2","","","","","0.5151345658","0.2615271711","0.6873234502","0.8562769227","","","","","","","","74","J","1","","","50","main_expt",""
"","bandit","130","675861","0.0-91.0-0.0","00767363","wem/bandit_either_3","A3UEJQ4EJB9DBD","either","8","490","","","","","","","0","1","0","","0.8705114925","0.8","0.6","0.4","0.2","0.5134524181","0.2764427577","0.7776044395","0.8705114925","","","","","","","","","","","","76","L","3","","","51","main_expt",""
"","bandit","131","678092","0.0-92.0-0.0","00767363","wem/bandit_either_3","A3UEJQ4EJB9DBD","either","8","695","","","","","","","0","1","0","","0.9310361031","0.8","0.6","0.4","0.2","0.4842684999","0.3833776697","0.8403410939","0.9310361031","","","","","","","","","","","","76","L","3","","","52","main_expt",""
"","bandit","132","680215","0.0-93.0-0.0","00767363","wem/bandit_either_3","A3UEJQ4EJB9DBD","either","8","556","","","","","","","0","1","0","","0.905794742","0.8","0.6","0.4","0.2","0.4412850773","0.4356502318","0.8151983534","0.905794742","","","","","","","","","","","","76","L","3","","","53","main_expt",""
"","bandit","133","682174","0.0-94.0-0.0","00767363","wem/bandit_either_3","A3UEJQ4EJB9DBD","either","8","397","","","","","","","1","0","0","0.4397693946","","0.8","0.6","0.4","0.2","","","","","0.4397693946","0.4120588364","0.8081222638","0.9391541593","","","","","","","","72","H","0","img/none_selected.jpg","","54","main_expt",""
"","bandit","134","684265","0.0-95.0-0.0","00767363","wem/bandit_either_3","A3UEJQ4EJB9DBD","either","8","543","","","","","","","1","0","0","0.9596285882","","0.8","0.6","0.4","0.2","","","","","0.3928202278","0.2714296105","0.742009976","0.9596285882","","","","","","","","76","L","3","","","55","main_expt",""
"","bandit","135","686336","0.0-96.0-0.0","00767363","wem/bandit_either_3","A3UEJQ4EJB9DBD","either","8","518","","","","","","","0","0","1","0.4593665993","","0.8","0.6","0.4","0.2","","","","","0.4593665993","0.2122311877","0.7065076074","0.9565658233","","","","","","","","72","H","0","img/none_selected.jpg","","56","main_expt",""
"","bandit","136","688384","0.0-97.0-0.0","00767363","wem/bandit_either_3","A3UEJQ4EJB9DBD","either","8","472","","","","","","","0","1","0","","0.2282278588","0.8","0.6","0.4","0.2","0.4006145211","0.2282278588","0.6860695476","0.9681540372","","","","","","","","","","","","74","J","1","","","57","main_expt",""
"","bandit","137","690560","0.0-98.0-0.0","00767363","wem/bandit_either_3","A3UEJQ4EJB9DBD","either","8","614","","","","","","","0","1","0","","0.9207083952","0.8","0.6","0.4","0.2","0.4597890412","0.1392076118","0.742301155","0.9207083952","","","","","","","","","","","","76","L","3","","","58","main_expt",""
"","bandit","138","692575","0.0-99.0-0.0","00767363","wem/bandit_either_3","A3UEJQ4EJB9DBD","either","8","445","","","","","","","0","0","1","0.1706239206","","0.8","0.6","0.4","0.2","","","","","0.4232266093","0.1706239206","0.5291004622","0.9178227258","","","","","","","","74","J","1","","","59","main_expt",""
"","bandit","139","694515","0.0-100.0-0.0","00767363","wem/bandit_either_3","A3UEJQ4EJB9DBD","either","8","381","","","","","","","0","1","0","","0.8951285427","0.8","0.6","0.4","0.2","0.3565880291","0.1674269281","0.6348838793","0.8951285427","","","","","","","","","","","","76","L","3","","","60","main_expt",""
"","bandit","140","696579","0.0-101.0-0.0","00767363","wem/bandit_either_3","A3UEJQ4EJB9DBD","either","8","486","","","","","","","1","0","0","0.8506814954","","0.8","0.6","0.4","0.2","","","","","0.3663276413","0.2182313474","0.6796423313","0.8506814954","","","","","","","","76","L","3","","","61","main_expt",""
"","bandit","141","698660","0.0-102.0-0.0","00767363","wem/bandit_either_3","A3UEJQ4EJB9DBD","either","8","509","","","","","","","0","1","0","","0.8513854559","0.8","0.6","0.4","0.2","0.3193005293","0.2949218256","0.6928172916","0.8513854559","","","","","","","","","","","","76","L","3","","","62","main_expt",""
"","bandit","142","700780","0.0-103.0-0.0","00767363","wem/bandit_either_3","A3UEJQ4EJB9DBD","either","8","570","","","","","","","1","0","0","0.8927579502","","0.8","0.6","0.4","0.2","","","","","0.1562068481","0.3170222383","0.6996506825","0.8927579502","","","","","","","","76","L","3","","","63","main_expt",""
"","bandit","143","702773","0.0-104.0-0.0","00767363","wem/bandit_either_3","A3UEJQ4EJB9DBD","either","8","434","","","","","","","0","1","0","","0.2300477965","0.8","0.6","0.4","0.2","0.2300477965","0.3033511374","0.7294442249","0.9217936765","","","","","","","","","","","","72","H","0","img/none_selected.jpg","","64","main_expt",""
"","bandit","144","704853","0.0-105.0-0.0","00767363","wem/bandit_either_3","A3UEJQ4EJB9DBD","either","8","499","","","","","","","0","1","0","","0.9357047413","0.8","0.6","0.4","0.2","0.2869838185","0.3973690147","0.6605354899","0.9357047413","","","","","","","","","","","","76","L","3","","","65","main_expt",""
"","bandit","145","706908","0.0-106.0-0.0","00767363","wem/bandit_either_3","A3UEJQ4EJB9DBD","either","8","495","","","","","","","0","0","1","","0.4320294497","0.8","0.6","0.4","0.2","0.3287476356","0.4320294497","0.6959621059","0.910343843","","","","","","","","","","","","74","J","1","","","66","main_expt",""
"","bandit","146","708821","0.0-107.0-0.0","00767363","wem/bandit_either_3","A3UEJQ4EJB9DBD","either","8","369","","","","","","","0","0","1","0.9022080512","","0.8","0.6","0.4","0.2","","","","","0.3018365728","0.3208465419","0.653899752","0.9022080512","","","","","","","","76","L","3","","","67","main_expt",""
"","bandit","147","710730","0.0-108.0-0.0","00767363","wem/bandit_either_3","A3UEJQ4EJB9DBD","either","8","358","","","","","","","0","0","1","","0.3208616414","0.8","0.6","0.4","0.2","0.3208616414","0.3570730799","0.6517851336","0.8492414063","","","","","","","","","","","","72","H","0","img/none_selected.jpg","","68","main_expt",""
"","bandit","148","712626","0.0-109.0-0.0","00767363","wem/bandit_either_3","A3UEJQ4EJB9DBD","either","8","317","","","","","","","0","1","0","","0.7011615004","0.8","0.6","0.4","0.2","0.386863802","0.3451514791","0.7011615004","0.768219052","","","","","","","","","","","","75","K","2","","","69","main_expt",""
"","bandit","149","714659","0.0-110.0-0.0","00767363","wem/bandit_either_3","A3UEJQ4EJB9DBD","either","8","467","","","","","","","0","0","1","","0.6278947594","0.8","0.6","0.4","0.2","0.3628244161","0.3127714871","0.6278947594","0.7996218848","","","","","","","","","","","","75","K","2","","","70","main_expt",""
"","bandit","150","716678","0.0-111.0-0.0","00767363","wem/bandit_either_3","A3UEJQ4EJB9DBD","either","8","473","","","","","","","0","0","1","0.3855297895","","0.8","0.6","0.4","0.2","","","","","0.2969295023","0.3855297895","0.688517509","0.9130189757","","","","","","","","74","J","1","","","71","main_expt",""
"","bandit","151","718934","0.0-112.0-0.0","00767363","wem/bandit_either_3","A3UEJQ4EJB9DBD","either","8","709","","","","","","","0","0","1","0.3512325323","","0.8","0.6","0.4","0.2","","","","","0.3512325323","0.3555010044","0.6125440106","0.9016843832","","","","","","","","72","H","0","img/none_selected.jpg","","72","main_expt",""
"","bandit","152","720930","0.0-113.0-0.0","00767363","wem/bandit_either_3","A3UEJQ4EJB9DBD","either","8","439","","","","","","","0","1","0","","0.9166584401","0.8","0.6","0.4","0.2","0.3845321254","0.3278360739","0.4884410468","0.9166584401","","","","","","","","","","","","76","L","3","","","73","main_expt",""
"","bandit","153","723094","0.0-114.0-0.0","00767363","wem/bandit_either_3","A3UEJQ4EJB9DBD","either","8","532","","","","","","","0","1","0","","0.8699410266","0.8","0.6","0.4","0.2","0.3760614253","0.3275161349","0.5800760741","0.8699410266","","","","","","","","","","","","76","L","3","","","74","main_expt",""
"","bandit","154","725127","0.0-115.0-0.0","00767363","wem/bandit_either_3","A3UEJQ4EJB9DBD","either","8","474","","","","","","","0","1","0","","0.8192171788","0.8","0.6","0.4","0.2","0.370831352","0.3454333807","0.6614390465","0.8192171788","","","","","","","","","","","","76","L","3","","","75","main_expt",""
"","bandit","155","727178","0.0-116.0-0.0","00767363","wem/bandit_either_3","A3UEJQ4EJB9DBD","either","8","501","","","","","","","0","0","1","0.8990587115","","0.8","0.6","0.4","0.2","","","","","0.4008199491","0.4213924804","0.6861570843","0.8990587115","","","","","","","","76","L","3","","","76","main_expt",""
"","bandit","156","729166","0.0-117.0-0.0","00767363","wem/bandit_either_3","A3UEJQ4EJB9DBD","either","8","421","","","","","","","0","0","1","0.3928984844","","0.8","0.6","0.4","0.2","","","","","0.3928984844","0.439510692","0.5980737028","0.9062137116","","","","","","","","72","H","0","img/none_selected.jpg","","77","main_expt",""
"","bandit","157","731193","0.0-118.0-0.0","00767363","wem/bandit_either_3","A3UEJQ4EJB9DBD","either","8","453","","","","","","","0","0","1","0.4419424199","","0.8","0.6","0.4","0.2","","","","","0.4709058574","0.4419424199","0.6754083514","0.9215914722","","","","","","","","74","J","1","","","78","main_expt",""
"","bandit","158","733496","0.0-119.0-0.0","00767363","wem/bandit_either_3","A3UEJQ4EJB9DBD","either","8","698","","","","","","","1","0","0","0.895443078","","0.8","0.6","0.4","0.2","","","","","0.4971614577","0.5056762283","0.7012934339","0.895443078","","","","","","","","76","L","3","","","79","main_expt",""
"","bandit","159","735385","0.0-120.0-0.0","00767363","wem/bandit_either_3","A3UEJQ4EJB9DBD","either","8","330","","","","","","","0","1","0","","0.7789772955","0.8","0.6","0.4","0.2","0.4828267768","0.4558190996","0.7067798052","0.7789772955","","","","","","","","","","","","76","L","3","","","80","main_expt",""
"","bandit","160","737584","0.0-121.0-0.0","00767363","wem/bandit_either_3","A3UEJQ4EJB9DBD","either","8","612","","","","","","","0","1","0","","0.755426824","0.8","0.6","0.4","0.2","0.4280570329","0.4774921548","0.7259433061","0.755426824","","","","","","","","","","","","76","L","3","","","81","main_expt",""
"","bandit","161","739628","0.0-122.0-0.0","00767363","wem/bandit_either_3","A3UEJQ4EJB9DBD","either","8","473","","","","","","","0","0","1","","0.8356426425","0.8","0.6","0.4","0.2","0.486136241","0.3611036613","0.7022130872","0.8356426425","","","","","","","","","","","","76","L","3","","","82","main_expt",""
"","bandit","162","741643","0.0-123.0-0.0","00767363","wem/bandit_either_3","A3UEJQ4EJB9DBD","either","8","440","","","","","","","0","1","0","","0.8783145762","0.8","0.6","0.4","0.2","0.3539143083","0.3341354767","0.75927227","0.8783145762","","","","","","","","","","","","76","L","3","","","83","main_expt",""
"","bandit","163","743774","0.0-124.0-0.0","00767363","wem/bandit_either_3","A3UEJQ4EJB9DBD","either","8","576","","","","","","","0","1","0","","0.9087743635","0.8","0.6","0.4","0.2","0.374811954","0.288479151","0.8556046088","0.9087743635","","","","","","","","","","","","76","L","3","","","84","main_expt",""
"","bandit","164","745946","0.0-125.0-0.0","00767363","wem/bandit_either_3","A3UEJQ4EJB9DBD","either","8","601","","","","","","","0","0","1","","0.8632011641","0.8","0.6","0.4","0.2","0.4518264681","0.3061923995","0.7835234447","0.8632011641","","","","","","","","","","","","76","L","3","","","85","main_expt",""
"","bandit","165","748158","0.0-126.0-0.0","00767363","wem/bandit_either_3","A3UEJQ4EJB9DBD","either","8","648","","","","","","","0","0","1","0.461936863","","0.8","0.6","0.4","0.2","","","","","0.461936863","0.3370204437","0.7037548709","0.8341253046","","","","","","","","72","H","0","img/none_selected.jpg","","86","main_expt",""
"","bandit","166","750214","0.0-127.0-0.0","00767363","wem/bandit_either_3","A3UEJQ4EJB9DBD","either","8","510","","","","","","","0","0","1","","0.3681660755","0.8","0.6","0.4","0.2","0.3681660755","0.3900809043","0.6903674631","0.8728746981","","","","","","","","","","","","72","H","0","img/none_selected.jpg","","87","main_expt",""
"","bandit","167","752255","0.0-128.0-0.0","00767363","wem/bandit_either_3","A3UEJQ4EJB9DBD","either","8","487","","","","","","","0","0","1","0.4296615172","","0.8","0.6","0.4","0.2","","","","","0.3788462328","0.4296615172","0.5883284312","0.8408980459","","","","","","","","74","J","1","","","88","main_expt",""
"","bandit","168","754291","0.0-129.0-0.0","00767363","wem/bandit_either_3","A3UEJQ4EJB9DBD","either","8","456","","","","","","","0","0","1","0.4636560077","","0.8","0.6","0.4","0.2","","","","","0.3316952272","0.4636560077","0.5258490985","0.8585781628","","","","","","","","74","J","1","","","89","main_expt",""
"","bandit","169","756315","0.0-130.0-0.0","00767363","wem/bandit_either_3","A3UEJQ4EJB9DBD","either","8","479","","","","","","","1","0","0","0.6395041767","","0.8","0.6","0.4","0.2","","","","","0.438068917","0.4463585346","0.6395041767","0.925840658","","","","","","","","75","K","2","","","90","main_expt",""
"","bandit","170","758292","0.0-131.0-0.0","00767363","wem/bandit_either_3","A3UEJQ4EJB9DBD","either","8","431","","","","","","","0","0","1","0.6931091445","","0.8","0.6","0.4","0.2","","","","","0.5158843935","0.4734463503","0.6931091445","0.9201841885","","","","","","","","75","K","2","","","91","main_expt",""
"","bandit","171","760288","0.0-132.0-0.0","00767363","wem/bandit_either_3","A3UEJQ4EJB9DBD","either","8","424","","","","","","","1","0","0","0.8508076908","","0.8","0.6","0.4","0.2","","","","","0.5182757575","0.5248255385","0.6725373887","0.8508076908","","","","","","","","76","L","3","","","92","main_expt",""
"","bandit","172","762229","0.0-133.0-0.0","00767363","wem/bandit_either_3","A3UEJQ4EJB9DBD","either","8","368","","","","","","","0","0","1","","0.8106711147","0.8","0.6","0.4","0.2","0.5498130742","0.3386726181","0.7388835399","0.8106711147","","","","","","","","","","","","76","L","3","","","93","main_expt",""
"","bandit","173","764124","0.0-134.0-0.0","00767363","wem/bandit_either_3","A3UEJQ4EJB9DBD","either","8","333","","","","","","","0","1","0","","0.697373586","0.8","0.6","0.4","0.2","0.6049407638","0.3718894848","0.697373586","0.8543263914","","","","","","","","","","","","75","K","2","","","94","main_expt",""
"","bandit","174","766151","0.0-135.0-0.0","00767363","wem/bandit_either_3","A3UEJQ4EJB9DBD","either","8","439","","","","","","","0","1","0","","0.7550322224","0.8","0.6","0.4","0.2","0.6604115927","0.4005278521","0.7550322224","0.8387782901","","","","","","","","","","","","75","K","2","","","95","main_expt",""
"","bandit","175","768090","0.0-136.0-0.0","00767363","wem/bandit_either_3","A3UEJQ4EJB9DBD","either","8","388","","","","","","","0","0","1","0.6576962358","","0.8","0.6","0.4","0.2","","","","","0.7003847986","0.3694595514","0.6576962358","0.8208071174","","","","","","","","75","K","2","","","96","main_expt",""
"","bandit","176","770024","0.0-137.0-0.0","00767363","wem/bandit_either_3","A3UEJQ4EJB9DBD","either","8","374","","","","","","","0","1","0","","0.765358829","0.8","0.6","0.4","0.2","0.6793148949","0.3186037095","0.6802484638","0.765358829","","","","","","","","","","","","76","L","3","","","97","main_expt",""
"","bandit","177","772066","0.0-138.0-0.0","00767363","wem/bandit_either_3","A3UEJQ4EJB9DBD","either","8","415","","","","","","","0","1","0","","0.7823463211","0.8","0.6","0.4","0.2","0.6204607354","0.2786717818","0.7042077447","0.7823463211","","","","","","","","","","","","76","L","3","","","98","main_expt",""
"","bandit","178","773953","0.0-139.0-0.0","00767363","wem/bandit_either_3","A3UEJQ4EJB9DBD","either","8","335","","","","","","","0","1","0","","0.7523003034","0.8","0.6","0.4","0.2","0.6166262367","0.32929866","0.7355617892","0.7523003034","","","","","","","","","","","","76","L","3","","","99","main_expt",""
"","bandit","179","776164","0.0-140.0-0.0","00767363","wem/bandit_either_3","A3UEJQ4EJB9DBD","either","8","647","","","","","","","1","0","0","0.7174790615","","0.8","0.6","0.4","0.2","","","","","0.5347115766","0.3115323478","0.7117411671","0.7174790615","","","","","","","","76","L","3","","","100","main_expt",""
"","bandit","180","778229","0.0-141.0-0.0","00767363","wem/bandit_either_3","A3UEJQ4EJB9DBD","either","8","466","","","","","","","0","1","0","","0.7660578318","0.8","0.6","0.4","0.2","0.3418016043","0.4221749579","0.7263903312","0.7660578318","","","","","","","","","","","","76","L","3","","","101","main_expt",""
"","bandit","181","780185","0.0-142.0-0.0","00767363","wem/bandit_either_3","A3UEJQ4EJB9DBD","either","8","396","","","","","","","0","1","0","","0.7201180075","0.8","0.6","0.4","0.2","0.2550922237","0.2718078598","0.7357346189","0.7201180075","","","","","","","","","","","","76","L","3","","","102","main_expt",""
"","bandit","182","782343","0.0-143.0-0.0","00767363","wem/bandit_either_3","A3UEJQ4EJB9DBD","either","8","610","","","","","","","1","0","0","0.8452780714","","0.8","0.6","0.4","0.2","","","","","0.3181696353","0.3011307106","0.7026134783","0.8452780714","","","","","","","","76","L","3","","","103","main_expt",""
"","bandit","183","784398","0.0-144.0-0.0","00767363","wem/bandit_either_3","A3UEJQ4EJB9DBD","either","8","501","","","","","","","0","0","1","","0.7236924273","0.8","0.6","0.4","0.2","0.3383579412","0.3659291838","0.8073666152","0.7236924273","","","","","","","","","","","","76","L","3","","","104","main_expt",""
"","bandit","184","786437","0.0-145.0-0.0","00767363","wem/bandit_either_3","A3UEJQ4EJB9DBD","either","8","457","","","","","","","0","0","1","0.3499435223","","0.8","0.6","0.4","0.2","","","","","0.2354673658","0.3499435223","0.824483439","0.743719778","","","","","","","","74","J","1","","","105","main_expt",""
"","bandit","185","788396","0.0-146.0-0.0","00767363","wem/bandit_either_3","A3UEJQ4EJB9DBD","either","8","399","","","","","","","0","1","0","","0.7985687284","0.8","0.6","0.4","0.2","0.159398249","0.3602262465","0.9208810438","0.7985687284","","","","","","","","","","","","76","L","3","","","106","main_expt",""
"","bandit","186","790433","0.0-147.0-0.0","00767363","wem/bandit_either_3","A3UEJQ4EJB9DBD","either","8","477","","","","","","","0","1","0","","0.799345197","0.8","0.6","0.4","0.2","0.1295169146","0.3252215163","0.8911910097","0.799345197","","","","","","","","","","","","76","L","3","","","107","main_expt",""
"","bandit","187","792473","0.0-148.0-0.0","00767363","wem/bandit_either_3","A3UEJQ4EJB9DBD","either","8","477","","","","","","","0","0","1","","0.8681690713","0.8","0.6","0.4","0.2","0.07754053308","0.2812406992","0.8450149587","0.8681690713","","","","","","","","","","","","76","L","3","","","108","main_expt",""
"","bandit","188","794541","0.0-149.0-0.0","00767363","wem/bandit_either_3","A3UEJQ4EJB9DBD","either","8","489","","","","","","","0","0","1","0.06591215473","","0.8","0.6","0.4","0.2","","","","","0.06591215473","0.2559497519","0.868327257","0.8556732204","","","","","","","","72","H","0","img/none_selected.jpg","","109","main_expt",""
"","bandit","189","796793","0.0-150.0-0.0","00767363","wem/bandit_either_3","A3UEJQ4EJB9DBD","either","8","691","","","","","","","0","0","1","","0.1189546392","0.8","0.6","0.4","0.2","0.1189546392","0.2817400418","0.8868335222","0.8669893864","","","","","","","","","","","","72","H","0","img/none_selected.jpg","","110","main_expt",""
"","bandit","190","798938","0.0-151.0-0.0","00767363","wem/bandit_either_3","A3UEJQ4EJB9DBD","either","8","564","","","","","","","1","0","0","0.8770728171","","0.8","0.6","0.4","0.2","","","","","0.09523351692","0.2773620367","0.8770728171","0.799383849","","","","","","","","75","K","2","","","111","main_expt",""
"","bandit","191","800987","0.0-152.0-0.0","00767363","wem/bandit_either_3","A3UEJQ4EJB9DBD","either","8","480","","","","","","","0","1","0","","0.859799476","0.8","0.6","0.4","0.2","0.107489667","0.2833316415","0.8481710002","0.859799476","","","","","","","","","","","","76","L","3","","","112","main_expt",""
"","bandit","192","803056","0.0-153.0-0.0","00767363","wem/bandit_either_3","A3UEJQ4EJB9DBD","either","8","508","","","","","","","1","0","0","0.8573528835","","0.8","0.6","0.4","0.2","","","","","0.1026187258","0.3433702059","0.8573528835","0.7932436089","","","","","","","","75","K","2","","","113","main_expt",""
"","bandit","193","805109","0.0-154.0-0.0","00767363","wem/bandit_either_3","A3UEJQ4EJB9DBD","either","8","482","","","","","","","0","1","0","","0.849407262","0.8","0.6","0.4","0.2","0.1044839951","0.4828882278","0.8291807482","0.849407262","","","","","","","","","","","","76","L","3","","","114","main_expt",""
"","bandit","194","807082","0.0-155.0-0.0","00767363","wem/bandit_either_3","A3UEJQ4EJB9DBD","either","8","423","","","","","","","0","1","0","","0.761972944","0.8","0.6","0.4","0.2","0.1213931844","0.54932579","0.761972944","0.8882716547","","","","","","","","","","","","75","K","2","","","115","main_expt",""
"","bandit","195","809054","0.0-156.0-0.0","00767363","wem/bandit_either_3","A3UEJQ4EJB9DBD","either","8","419","","","","","","","0","0","1","0.1184144227","","0.8","0.6","0.4","0.2","","","","","0.1184144227","0.6971345968","0.786197192","0.8741354715","","","","","","","","72","H","0","img/none_selected.jpg","","116","main_expt",""
"","bandit","196","811121","0.0-157.0-0.0","00767363","wem/bandit_either_3","A3UEJQ4EJB9DBD","either","8","496","","","","","","","1","0","0","0.5396272374","","0.8","0.6","0.4","0.2","","","","","0.1983931569","0.5396272374","0.7834453561","0.8083823922","","","","","","","","74","J","1","","","117","main_expt",""
"","bandit","197","813161","0.0-158.0-0.0","00767363","wem/bandit_either_3","A3UEJQ4EJB9DBD","either","8","491","","","","","","","0","0","1","0.6742380839","","0.8","0.6","0.4","0.2","","","","","0.2840039584","0.5544567993","0.6742380839","0.868525306","","","","","","","","75","K","2","","","118","main_expt",""
"","bandit","198","815152","0.0-159.0-0.0","00767363","wem/bandit_either_3","A3UEJQ4EJB9DBD","either","8","437","","","","","","","1","0","0","0.5504896642","","0.8","0.6","0.4","0.2","","","","","0.3563325119","0.5504896642","0.7350700153","0.8386471998","","","","","","","","74","J","1","","","119","main_expt",""
"","bandit","199","817099","0.0-160.0-0.0","00767363","wem/bandit_either_3","A3UEJQ4EJB9DBD","either","8","398","","","","","","","0","1","0","","0.8103559508","0.8","0.6","0.4","0.2","0.5682387565","0.5812137135","0.70601835","0.8103559508","","","","","","","","","","","","76","L","3","","","120","main_expt",""
"","bandit","200","819097","0.0-161.0-0.0","00767363","wem/bandit_either_3","A3UEJQ4EJB9DBD","either","8","419","","","","","","","1","0","0","0.6033058466","","0.8","0.6","0.4","0.2","","","","","0.5189107771","0.6033058466","0.7347719752","0.8193015173","","","","","","","","74","J","1","","","121","main_expt",""
"","bandit","201","821032","0.0-162.0-0.0","00767363","wem/bandit_either_3","A3UEJQ4EJB9DBD","either","8","385","","","","","","","0","1","0","","0.8025146027","0.8","0.6","0.4","0.2","0.4428493372","0.6102220397","0.8270923978","0.8025146027","","","","","","","","","","","","76","L","3","","","122","main_expt",""
"","bandit","202","823022","0.0-163.0-0.0","00767363","wem/bandit_either_3","A3UEJQ4EJB9DBD","either","8","437","","","","","","","0","0","1","0.6108151959","","0.8","0.6","0.4","0.2","","","","","0.472724465","0.6108151959","0.7980631313","0.8121847492","","","","","","","","74","J","1","","","123","main_expt",""
"","bandit","203","825030","0.0-164.0-0.0","00767363","wem/bandit_either_3","A3UEJQ4EJB9DBD","either","8","452","","","","","","","0","1","0","","0.7117385939","0.8","0.6","0.4","0.2","0.4799585558","0.7117385939","0.7369852887","0.8299418439","","","","","","","","","","","","74","J","1","","","124","main_expt",""
"","bandit","204","827147","0.0-165.0-0.0","00767363","wem/bandit_either_3","A3UEJQ4EJB9DBD","either","8","552","","","","","","","0","0","1","0.825688343","","0.8","0.6","0.4","0.2","","","","","0.5080184993","0.7554186078","0.7465944313","0.825688343","","","","","","","","76","L","3","","","125","main_expt",""
"","bandit","205","829085","0.0-166.0-0.0","00767363","wem/bandit_either_3","A3UEJQ4EJB9DBD","either","8","387","","","","","","","0","0","1","","0.8372054396","0.8","0.6","0.4","0.2","0.4555098289","0.8855751833","0.7596834852","0.8372054396","","","","","","","","","","","","76","L","3","","","126","main_expt",""
"","bandit","206","831203","0.0-167.0-0.0","00767363","wem/bandit_either_3","A3UEJQ4EJB9DBD","either","8","545","","","","","","","0","0","1","","0.8003015049","0.8","0.6","0.4","0.2","0.5475411796","0.8003015049","0.7398299979","0.7906689898","","","","","","","","","","","","74","J","1","","","127","main_expt",""
"","bandit","207","833144","0.0-168.0-0.0","00767363","wem/bandit_either_3","A3UEJQ4EJB9DBD","either","8","394","","","","","","","1","0","0","0.8403113951","","0.8","0.6","0.4","0.2","","","","","0.612647382","0.8403113951","0.7764866849","0.8008571507","","","","","","","","74","J","1","","","128","main_expt",""
"","bandit","208","835241","0.0-169.0-0.0","00767363","wem/bandit_either_3","A3UEJQ4EJB9DBD","either","8","549","","","","","","","1","0","0","0.8826872071","","0.8","0.6","0.4","0.2","","","","","0.7128970287","0.8826872071","0.6435675963","0.7829297973","","","","","","","","74","J","1","","","129","main_expt",""
"","bandit","209","837279","0.0-170.0-0.0","00767363","wem/bandit_either_3","A3UEJQ4EJB9DBD","either","8","482","","","","","","","1","0","0","0.8641000085","","0.8","0.6","0.4","0.2","","","","","0.7309911721","0.8641000085","0.7030252038","0.6898445721","","","","","","","","74","J","1","","","130","main_expt",""
"","bandit","210","839386","0.0-171.0-0.0","00767363","wem/bandit_either_3","A3UEJQ4EJB9DBD","either","8","553","","","","","","","0","1","0","","0.8752037592","0.8","0.6","0.4","0.2","0.73180147","0.8752037592","0.6829232191","0.5864867529","","","","","","","","","","","","74","J","1","","","131","main_expt",""
"","bandit","211","841320","0.0-172.0-0.0","00767363","wem/bandit_either_3","A3UEJQ4EJB9DBD","either","8","384","","","","","","","1","0","0","0.8279556795","","0.8","0.6","0.4","0.2","","","","","0.8467134838","0.8279556795","0.7406452387","0.560122833","","","","","","","","74","J","1","","","132","main_expt",""
"","bandit","212","843606","0.0-173.0-0.0","00767363","wem/bandit_either_3","A3UEJQ4EJB9DBD","either","8","738","","","","","","","0","1","0","","0.8194722428","0.8","0.6","0.4","0.2","0.8481264083","0.8194722428","0.6666234363","0.48439517","","","","","","","","","","","","74","J","1","","","133","main_expt",""
"","bandit","213","845834","0.0-174.0-0.0","00767363","wem/bandit_either_3","A3UEJQ4EJB9DBD","either","8","678","","","","","","","1","0","0","0.8037084922","","0.8","0.6","0.4","0.2","","","","","0.8771050955","0.8037084922","0.680542061","0.3919863126","","","","","","","","74","J","1","","","134","main_expt",""
"","bandit","214","847978","0.0-175.0-0.0","00767363","wem/bandit_either_3","A3UEJQ4EJB9DBD","either","8","588","","","","","","","0","1","0","","0.8155916457","0.8","0.6","0.4","0.2","0.9103241533","0.8155916457","0.7006187635","0.5174750093","","","","","","","","","","","","74","J","1","","","135","main_expt",""
"","bandit","215","850137","0.0-176.0-0.0","00767363","wem/bandit_either_3","A3UEJQ4EJB9DBD","either","8","611","","","","","","","1","0","0","0.8281957705","","0.8","0.6","0.4","0.2","","","","","0.9126032517","0.8281957705","0.6936815578","0.4264762493","","","","","","","","74","J","1","","","136","main_expt",""
"","bandit","216","852129","0.0-177.0-0.0","00767363","wem/bandit_either_3","A3UEJQ4EJB9DBD","either","8","434","","","","","","","0","0","1","","0.6531428085","0.8","0.6","0.4","0.2","0.8983360858","0.7055403129","0.6531428085","0.5351999402","","","","","","","","","","","","75","K","2","","","137","main_expt",""
"","bandit","217","854138","0.0-178.0-0.0","00767363","wem/bandit_either_3","A3UEJQ4EJB9DBD","either","8","461","","","","","","","0","0","1","0.6884351598","","0.8","0.6","0.4","0.2","","","","","0.8851370462","0.6884351598","0.6769758131","0.4758748922","","","","","","","","74","J","1","","","138","main_expt",""
"","bandit","218","856147","0.0-179.0-0.0","00767363","wem/bandit_either_3","A3UEJQ4EJB9DBD","either","8","466","","","","","","","1","0","0","0.8662270416","","0.8","0.6","0.4","0.2","","","","","0.8662270416","0.6090423031","0.7649589049","0.4039793023","","","","","","","","72","H","0","img/none_selected.jpg","","139","main_expt",""
"","bandit","219","858216","0.0-180.0-0.0","00767363","wem/bandit_either_3","A3UEJQ4EJB9DBD","either","8","518","","","","","","","0","0","1","","0.7000077187","0.8","0.6","0.4","0.2","0.8345767194","0.7000077187","0.7674202191","0.384774136","","","","","","","","","","","","74","J","1","","","140","main_expt",""
"","bandit","220","860174","0.0-181.0-0.0","00767363","wem/bandit_either_3","A3UEJQ4EJB9DBD","either","8","404","","","","","","","1","0","0","0.6643185619","","0.8","0.6","0.4","0.2","","","","","0.8783670964","0.6643185619","0.8575114448","0.327254859","","","","","","","","74","J","1","","","141","main_expt",""
"","bandit","221","862245","0.0-182.0-0.0","00767363","wem/bandit_either_3","A3UEJQ4EJB9DBD","either","8","526","","","","","","","0","1","0","","0.8895828315","0.8","0.6","0.4","0.2","0.8895828315","0.7079845674","0.8134430427","0.4536641492","","","","","","","","","","","","72","H","0","img/none_selected.jpg","","142","main_expt",""
"","bandit","222","864425","0.0-183.0-0.0","00767363","wem/bandit_either_3","A3UEJQ4EJB9DBD","either","8","568","","","","","","","1","0","0","0.6624187643","","0.8","0.6","0.4","0.2","","","","","0.9053928798","0.6624187643","0.8345505038","0.4348486293","","","","","","","","74","J","1","","","143","main_expt",""
"","bandit","223","866482","0.0-184.0-0.0","00767363","wem/bandit_either_3","A3UEJQ4EJB9DBD","either","8","515","","","","","","","1","0","0","0.9033088386","","0.8","0.6","0.4","0.2","","","","","0.9033088386","0.6779247185","0.7482817554","0.4086594597","","","","","","","","72","H","0","img/none_selected.jpg","","144","main_expt",""
"","bandit","224","868785","0.0-185.0-0.0","00767363","wem/bandit_either_3","A3UEJQ4EJB9DBD","either","8","692","","","","","","","0","1","0","","0.7216102374","0.8","0.6","0.4","0.2","0.8572864227","0.7216102374","0.7400387939","0.4420772456","","","","","","","","","","","","74","J","1","","","145","main_expt",""
"","bandit","225","870870","0.0-186.0-0.0","00767363","wem/bandit_either_3","A3UEJQ4EJB9DBD","either","8","518","","","","","","","0","1","0","","0.8687508917","0.8","0.6","0.4","0.2","0.8687508917","0.7837267619","0.795971973","0.508741462","","","","","","","","","","","","72","H","0","img/none_selected.jpg","","146","main_expt",""
"","bandit","226","872970","0.0-187.0-0.0","00767363","wem/bandit_either_3","A3UEJQ4EJB9DBD","either","8","537","","","","","","","1","0","0","0.7652264833","","0.8","0.6","0.4","0.2","","","","","0.8657621525","0.7652264833","0.7503502301","0.4624398998","","","","","","","","74","J","1","","","147","main_expt",""
"","bandit","227","875503","0.0-188.0-0.0","00767363","wem/bandit_either_3","A3UEJQ4EJB9DBD","either","8","630","","","","","","","0","0","1","0.8362891365","","0.8","0.6","0.4","0.2","","","","","0.8362891365","0.7358716413","0.8200474043","0.4062589849","","","","","","","","72","H","0","img/none_selected.jpg","","148","main_expt",""
"","bandit","228","877564","0.0-189.0-0.0","00767363","wem/bandit_either_3","A3UEJQ4EJB9DBD","either","8","430","","","","","","","1","0","0","0.8144386017","","0.8","0.6","0.4","0.2","","","","","0.8144386017","0.7129200786","0.8509010271","0.4895331913","","","","","","","","72","H","0","img/none_selected.jpg","","149","main_expt",""
"","bandit","229","879575","0.0-190.0-0.0","00767363","wem/bandit_either_3","A3UEJQ4EJB9DBD","either","8","447","","","","","","","1","0","0","0.705531668","","0.8","0.6","0.4","0.2","","","","","0.6948055455","0.705531668","0.8298908313","0.4704746919","","","","","","","","74","J","1","","","150","main_expt",""
"","bandit","230","881776","0.0-191.0-0.0","00767363","wem/bandit_either_3","A3UEJQ4EJB9DBD","either","8","620","","","","","","","0","0","1","0.6231991314","","0.8","0.6","0.4","0.2","","","","","0.6231991314","0.5744604188","0.7362749002","0.4725745774","","","","","","","","72","H","0","img/none_selected.jpg","","151","main_expt",""
"","bandit","231","883873","0.0-192.0-0.0","00767363","wem/bandit_either_3","A3UEJQ4EJB9DBD","either","8","522","","","","","","","1","0","0","0.7045057733","","0.8","0.6","0.4","0.2","","","","","0.7045057733","0.5372669321","0.7601791643","0.4943906398","","","","","","","","72","H","0","img/none_selected.jpg","","152","main_expt",""
"","bandit","232","886024","0.0-193.0-0.0","00767363","wem/bandit_either_3","A3UEJQ4EJB9DBD","either","8","573","","","","","","","0","1","0","","0.5331338622","0.8","0.6","0.4","0.2","0.5331338622","0.5447545218","0.7590648118","0.4639524782","","","","","","","","","","","","72","H","0","img/none_selected.jpg","","153","main_expt",""
"","bandit","233","888137","0.0-194.0-0.0","00767363","wem/bandit_either_3","A3UEJQ4EJB9DBD","either","8","561","","","","","","","0","0","1","","0.5096720896","0.8","0.6","0.4","0.2","0.5096720896","0.4191749193","0.7805387907","0.3935792086","","","","","","","","","","","","72","H","0","img/none_selected.jpg","","154","main_expt",""
"","bandit","234","890148","0.0-195.0-0.0","00767363","wem/bandit_either_3","A3UEJQ4EJB9DBD","either","8","446","","","","","","","0","0","1","","0.4269770229","0.8","0.6","0.4","0.2","0.4719011365","0.4269770229","0.8450805748","0.4127348605","","","","","","","","","","","","74","J","1","","","155","main_expt",""
"","bandit","235","892075","0.0-196.0-0.0","00767363","wem/bandit_either_3","A3UEJQ4EJB9DBD","either","8","351","","","","","","","0","0","1","","0.4589862704","0.8","0.6","0.4","0.2","0.5818713095","0.4589862704","0.8513110265","0.3697675558","","","","","","","","","","","","74","J","1","","","156","main_expt",""
"","bandit","236","894162","0.0-197.0-0.0","00767363","wem/bandit_either_3","A3UEJQ4EJB9DBD","either","8","514","","","","","","","1","0","0","0.8226236001","","0.8","0.6","0.4","0.2","","","","","0.5804022203","0.5370818316","0.8226236001","0.3604398023","","","","","","","","75","K","2","","","157","main_expt",""
"","bandit","237","896248","0.0-198.0-0.0","00767363","wem/bandit_either_3","A3UEJQ4EJB9DBD","either","8","531","","","","","","","0","0","1","0.4773166223","","0.8","0.6","0.4","0.2","","","","","0.4773166223","0.4757376888","0.8843141367","0.4061750625","","","","","","","","72","H","0","img/none_selected.jpg","","158","main_expt",""
"","bandit","238","898344","0.0-199.0-0.0","00767363","wem/bandit_either_3","A3UEJQ4EJB9DBD","either","8","513","","","","","","","1","0","0","0.419048585","","0.8","0.6","0.4","0.2","","","","","0.419048585","0.4887287223","0.8078798749","0.4696417586","","","","","","","","72","H","0","img/none_selected.jpg","","159","main_expt",""
"","bandit","239","900303","0.0-200.0-0.0","00767363","wem/bandit_either_3","A3UEJQ4EJB9DBD","either","8","387","","","","","","","0","1","0","","0.7689164465","0.8","0.6","0.4","0.2","0.4672574386","0.4588489809","0.7689164465","0.4659569923","","","","","","","","","","","","75","K","2","","","160","main_expt",""
"","bandit","240","902284","0.0-201.0-0.0","00767363","wem/bandit_either_3","A3UEJQ4EJB9DBD","either","8","427","","","","","","","0","0","1","0.5612985374","","0.8","0.6","0.4","0.2","","","","","0.5612985374","0.4920004413","0.7863156869","0.3947207546","","","","","","","","72","H","0","img/none_selected.jpg","","161","main_expt",""
"","bandit","241","904394","0.0-202.0-0.0","00767363","wem/bandit_either_3","A3UEJQ4EJB9DBD","either","8","557","","","","","","","0","1","0","","0.8098475403","0.8","0.6","0.4","0.2","0.5288680036","0.5389881207","0.8098475403","0.2460097942","","","","","","","","","","","","75","K","2","","","162","main_expt",""
"","bandit","242","906497","0.0-203.0-0.0","00767363","wem/bandit_either_3","A3UEJQ4EJB9DBD","either","8","547","","","","","","","0","0","1","","0.3603606056","0.8","0.6","0.4","0.2","0.6096883849","0.6040136001","0.8222712862","0.3603606056","","","","","","","","","","","","76","L","3","","","163","main_expt",""
"","bandit","243","908492","0.0-204.0-0.0","00767363","wem/bandit_either_3","A3UEJQ4EJB9DBD","either","8","354","","","","","","","0","0","1","","0.2507209727","0.8","0.6","0.4","0.2","0.4868922288","0.623756827","0.7876031225","0.2507209727","","","","","","","","","","","","76","L","3","","","164","main_expt",""
"","bandit","244","910555","0.0-205.0-0.0","00767363","wem/bandit_either_3","A3UEJQ4EJB9DBD","either","8","495","","","","","","","0","0","1","","0.4055552053","0.8","0.6","0.4","0.2","0.4055552053","0.6164515281","0.7435052823","0.2162043423","","","","","","","","","","","","72","H","0","img/none_selected.jpg","","165","main_expt",""
"","bandit","245","912430","0.0-206.0-0.0","00767363","wem/bandit_either_3","A3UEJQ4EJB9DBD","either","8","330","","","","","","","0","1","0","","0.6545739251","0.8","0.6","0.4","0.2","0.4748236382","0.4660222187","0.6545739251","0.2573409732","","","","","","","","","","","","75","K","2","","","166","main_expt",""
"","bandit","246","914389","0.0-207.0-0.0","00767363","wem/bandit_either_3","A3UEJQ4EJB9DBD","either","8","378","","","","","","","0","0","1","","0.6645907447","0.8","0.6","0.4","0.2","0.4725242185","0.3336058786","0.6645907447","0.4016088623","","","","","","","","","","","","75","K","2","","","167","main_expt",""
"","bandit","247","916367","0.0-208.0-0.0","00767363","wem/bandit_either_3","A3UEJQ4EJB9DBD","either","8","420","","","","","","","1","0","0","0.7243751722","","0.8","0.6","0.4","0.2","","","","","0.4775208721","0.2887723434","0.7243751722","0.5522858252","","","","","","","","75","K","2","","","168","main_expt",""
"","bandit","248","918358","0.0-209.0-0.0","00767363","wem/bandit_either_3","A3UEJQ4EJB9DBD","either","8","441","","","","","","","0","0","1","","0.6453105543","0.8","0.6","0.4","0.2","0.4682732781","0.3357056981","0.6453105543","0.5461138513","","","","","","","","","","","","75","K","2","","","169","main_expt",""
"","bandit","249","920643","0.0-210.0-0.0","00767363","wem/bandit_either_3","A3UEJQ4EJB9DBD","either","8","723","","","","","","","0","0","1","","0.5334010147","0.8","0.6","0.4","0.2","0.4246621539","0.4179693295","0.5334010147","0.4402798015","","","","","","","","","","","","75","K","2","","","170","main_expt",""
"","bandit","250","922711","0.0-211.0-0.0","00767363","wem/bandit_either_3","A3UEJQ4EJB9DBD","either","8","479","","","","","","","1","0","0","0.3050406521","","0.8","0.6","0.4","0.2","","","","","0.2843380906","0.3050406521","0.498122785","0.450294849","","","","","","","","74","J","1","","","171","main_expt",""
"","bandit","251","924858","0.0-212.0-0.0","00767363","wem/bandit_either_3","A3UEJQ4EJB9DBD","either","8","573","","","","","","","0","0","1","0.3364500029","","0.8","0.6","0.4","0.2","","","","","0.2668952485","0.3364500029","0.4356988635","0.6475755847","","","","","","","","74","J","1","","","172","main_expt",""
"","bandit","252","926942","0.0-213.0-0.0","00767363","wem/bandit_either_3","A3UEJQ4EJB9DBD","either","8","524","","","","","","","0","0","1","0.421339117","","0.8","0.6","0.4","0.2","","","","","0.3802819164","0.421339117","0.3964199688","0.6095255177","","","","","","","","74","J","1","","","173","main_expt",""
"","bandit","253","928905","0.0-214.0-0.0","00767363","wem/bandit_either_3","A3UEJQ4EJB9DBD","either","8","408","","","","","","","1","0","0","0.4042455133","","0.8","0.6","0.4","0.2","","","","","0.4042455133","0.4913704717","0.3194345802","0.5003628493","","","","","","","","72","H","0","img/none_selected.jpg","","174","main_expt",""
"","bandit","254","931009","0.0-215.0-0.0","00767363","wem/bandit_either_3","A3UEJQ4EJB9DBD","either","8","504","","","","","","","1","0","0","0.4393989914","","0.8","0.6","0.4","0.2","","","","","0.4393989914","0.5882611891","0.2865230234","0.5576212716","","","","","","","","72","H","0","img/none_selected.jpg","","175","main_expt",""
"","bandit","255","933073","0.0-216.0-0.0","00767363","wem/bandit_either_3","A3UEJQ4EJB9DBD","either","8","490","","","","","","","0","0","1","0.4705173801","","0.8","0.6","0.4","0.2","","","","","0.4705173801","0.6313830356","0.3352692614","0.6230679906","","","","","","","","72","H","0","img/none_selected.jpg","","176","main_expt",""
"","bandit","256","935071","0.0-217.0-0.0","00767363","wem/bandit_either_3","A3UEJQ4EJB9DBD","either","8","450","","","","","","","0","0","1","0.4698597734","","0.8","0.6","0.4","0.2","","","","","0.4698597734","0.5531265137","0.3389264817","0.6501784685","","","","","","","","72","H","0","img/none_selected.jpg","","177","main_expt",""
"","bandit","257","937122","0.0-218.0-0.0","00767363","wem/bandit_either_3","A3UEJQ4EJB9DBD","either","8","466","","","","","","","0","0","1","","0.3709673039","0.8","0.6","0.4","0.2","0.3570804947","0.4621004187","0.3709673039","0.6334155083","","","","","","","","","","","","75","K","2","","","178","main_expt",""
"","bandit","258","939222","0.0-219.0-0.0","00767363","wem/bandit_either_3","A3UEJQ4EJB9DBD","either","8","518","","","","","","","0","1","0","","0.7548338289","0.8","0.6","0.4","0.2","0.3441184995","0.512884041","0.2940579202","0.7548338289","","","","","","","","","","","","76","L","3","","","179","main_expt",""
"","bandit","259","941265","0.0-220.0-0.0","00767363","wem/bandit_either_3","A3UEJQ4EJB9DBD","either","8","427","","","","","","","1","0","0","0.8074073351","","0.8","0.6","0.4","0.2","","","","","0.3646136501","0.506744284","0.3218724025","0.8074073351","","","","","","","","76","L","3","","","180","main_expt",""
"","bandit","260","943346","0.0-221.0-0.0","00767363","wem/bandit_either_3","A3UEJQ4EJB9DBD","either","8","503","","","","","","","0","1","0","","0.780721516","0.8","0.6","0.4","0.2","0.3777688814","0.4556494723","0.3633286182","0.780721516","","","","","","","","","","","","76","L","3","","","181","main_expt",""
"","bandit","261","945491","0.0-222.0-0.0","00767363","wem/bandit_either_3","A3UEJQ4EJB9DBD","either","8","573","","","","","","","1","0","0","0.7647415088","","0.8","0.6","0.4","0.2","","","","","0.4578236703","0.4494525508","0.3324048704","0.7647415088","","","","","","","","76","L","3","","","182","main_expt",""
"","bandit","262","947559","0.0-223.0-0.0","00767363","wem/bandit_either_3","A3UEJQ4EJB9DBD","either","8","476","","","","","","","0","0","1","0.7349307529","","0.8","0.6","0.4","0.2","","","","","0.4244895098","0.5189143621","0.3092830871","0.7349307529","","","","","","","","76","L","3","","","183","main_expt",""
"","bandit","263","949720","0.0-224.0-0.0","00767363","wem/bandit_either_3","A3UEJQ4EJB9DBD","either","8","592","","","","","","","1","0","0","0.5167606333","","0.8","0.6","0.4","0.2","","","","","0.3566779322","0.5167606333","0.3905692936","0.8298088288","","","","","","","","74","J","1","","","184","main_expt",""
"","bandit","264","951923","0.0-225.0-0.0","00767363","wem/bandit_either_3","A3UEJQ4EJB9DBD","either","8","653","","","","","","","1","0","0","0.5270237034","","0.8","0.6","0.4","0.2","","","","","0.3737416658","0.5270237034","0.4626192444","0.7894193193","","","","","","","","74","J","1","","","185","main_expt",""
"","bandit","265","954058","0.0-226.0-0.0","00767363","wem/bandit_either_3","A3UEJQ4EJB9DBD","either","8","582","","","","","","","0","0","1","0.5556036571","","0.8","0.6","0.4","0.2","","","","","0.3120176694","0.5556036571","0.6061762586","0.7665022487","","","","","","","","74","J","1","","","186","main_expt",""
"","bandit","266","956095","0.0-227.0-0.0","00767363","wem/bandit_either_3","A3UEJQ4EJB9DBD","either","8","456","","","","","","","0","1","0","","0.7394266891","0.8","0.6","0.4","0.2","0.4134691065","0.5865134094","0.530958695","0.7394266891","","","","","","","","","","","","76","L","3","","","187","main_expt",""
"","bandit","267","958098","0.0-228.0-0.0","00767363","wem/bandit_either_3","A3UEJQ4EJB9DBD","either","8","445","","","","","","","0","1","0","","0.5034866795","0.8","0.6","0.4","0.2","0.4637770407","0.5034866795","0.380024655","0.6567361442","","","","","","","","","","","","74","J","1","","","188","main_expt",""
"","bandit","268","960156","0.0-229.0-0.0","00767363","wem/bandit_either_3","A3UEJQ4EJB9DBD","either","8","451","","","","","","","0","0","1","0.6572443956","","0.8","0.6","0.4","0.2","","","","","0.5739034088","0.5761715841","0.4563575644","0.6572443956","","","","","","","","76","L","3","","","189","main_expt",""
"","bandit","269","962083","0.0-230.0-0.0","00767363","wem/bandit_either_3","A3UEJQ4EJB9DBD","either","8","341","","","","","","","0","0","1","","0.6735764162","0.8","0.6","0.4","0.2","0.5859504021","0.5325489933","0.4540853102","0.6735764162","","","","","","","","","","","","76","L","3","","","190","main_expt",""
"","bandit","270","964060","0.0-231.0-0.0","00767363","wem/bandit_either_3","A3UEJQ4EJB9DBD","either","8","391","","","","","","","0","0","1","","0.4328006462","0.8","0.6","0.4","0.2","0.5325822721","0.5614919892","0.4328006462","0.5997518312","","","","","","","","","","","","75","K","2","","","191","main_expt",""
"","bandit","271","966222","0.0-232.0-0.0","00767363","wem/bandit_either_3","A3UEJQ4EJB9DBD","either","8","600","","","","","","","1","0","0","0.4622441745","","0.8","0.6","0.4","0.2","","","","","0.4622441745","0.5972832049","0.4979354652","0.6582178794","","","","","","","","72","H","0","img/none_selected.jpg","","192","main_expt",""
"","bandit","272","968398","0.0-233.0-0.0","00767363","wem/bandit_either_3","A3UEJQ4EJB9DBD","either","8","602","","","","","","","0","1","0","","0.6997951875","0.8","0.6","0.4","0.2","0.4765036663","0.6997951875","0.4887187701","0.7246172867","","","","","","","","","","","","74","J","1","","","193","main_expt",""
"","bandit","273","970389","0.0-234.0-0.0","00767363","wem/bandit_either_3","A3UEJQ4EJB9DBD","either","8","402","","","","","","","0","1","0","","0.4504155567","0.8","0.6","0.4","0.2","0.4504155567","0.7511051992","0.4993882896","0.7721250451","","","","","","","","","","","","72","H","0","img/none_selected.jpg","","194","main_expt",""
"","bandit","274","972579","0.0-235.0-0.0","00767363","wem/bandit_either_3","A3UEJQ4EJB9DBD","either","8","625","","","","","","","1","0","0","0.8281457055","","0.8","0.6","0.4","0.2","","","","","0.4354252764","0.8281457055","0.5011331455","0.8366496483","","","","","","","","74","J","1","","","195","main_expt",""
"","bandit","275","974754","0.0-236.0-0.0","00767363","wem/bandit_either_3","A3UEJQ4EJB9DBD","either","8","624","","","","","","","0","1","0","","0.8248544968","0.8","0.6","0.4","0.2","0.4170899215","0.8248544968","0.4487960683","0.8484646997","","","","","","","","","","","","74","J","1","","","196","main_expt",""
"","bandit","276","976842","0.0-237.0-0.0","00767363","wem/bandit_either_3","A3UEJQ4EJB9DBD","either","8","530","","","","","","","1","0","0","0.8532714289","","0.8","0.6","0.4","0.2","","","","","0.4149059055","0.8532714289","0.3975590019","0.8734060335","","","","","","","","74","J","1","","","197","main_expt",""
"","bandit","277","978932","0.0-238.0-0.0","00767363","wem/bandit_either_3","A3UEJQ4EJB9DBD","either","8","473","","","","","","","1","0","0","0.7587337752","","0.8","0.6","0.4","0.2","","","","","0.4737306044","0.7587337752","0.4161601929","0.8515360685","","","","","","","","74","J","1","","","198","main_expt",""
"","bandit","278","981066","0.0-239.0-0.0","00767363","wem/bandit_either_3","A3UEJQ4EJB9DBD","either","8","566","","","","","","","1","0","0","0.8124408481","","0.8","0.6","0.4","0.2","","","","","0.4541760911","0.8124408481","0.4483979408","0.8805923715","","","","","","","","74","J","1","","","199","main_expt",""
"","bandit","279","983184","0.0-240.0-0.0","00767363","wem/bandit_either_3","A3UEJQ4EJB9DBD","either","8","552","","","","","","","0","1","0","","0.7935778268","0.8","0.6","0.4","0.2","0.3964714959","0.7935778268","0.5303380975","0.9645818821","","","","","","","","","","","","74","J","1","","","200","main_expt",""
"","bandit","280","985391","0.0-241.0-0.0","00767363","wem/bandit_either_3","A3UEJQ4EJB9DBD","either","8","623","","","","","","","1","0","0","0.736942723","","0.8","0.6","0.4","0.2","","","","","0.3815447649","0.736942723","0.4014045657","0.9689478708","","","","","","","","74","J","1","","","201","main_expt",""
"","bandit","281","987594","0.0-242.0-0.0","00767363","wem/bandit_either_3","A3UEJQ4EJB9DBD","either","8","614","","","","","","","0","0","1","0.7001951276","","0.8","0.6","0.4","0.2","","","","","0.3726367513","0.7001951276","0.5115169607","0.9678291885","","","","","","","","74","J","1","","","202","main_expt",""
"","bandit","282","989569","0.0-243.0-0.0","00767363","wem/bandit_either_3","A3UEJQ4EJB9DBD","either","8","409","","","","","","","0","0","1","0.3062653216","","0.8","0.6","0.4","0.2","","","","","0.3062653216","0.7209300446","0.5026191452","0.9633244117","","","","","","","","72","H","0","img/none_selected.jpg","","203","main_expt",""
"","bandit","283","991596","0.0-244.0-0.0","00767363","wem/bandit_either_3","A3UEJQ4EJB9DBD","either","8","460","","","","","","","0","0","1","","0.4736298566","0.8","0.6","0.4","0.2","0.2848501254","0.8574132932","0.4736298566","0.9730812582","","","","","","","","","","","","75","K","2","","","204","main_expt",""
"","bandit","284","993630","0.0-245.0-0.0","00767363","wem/bandit_either_3","A3UEJQ4EJB9DBD","either","8","437","","","","","","","0","1","0","","0.9521206422","0.8","0.6","0.4","0.2","0.3457586416","0.9038760074","0.6121858428","0.9521206422","","","","","","","","","","","","76","L","3","","","205","main_expt",""
"","bandit","285","995574","0.0-246.0-0.0","00767363","wem/bandit_either_3","A3UEJQ4EJB9DBD","either","8","381","","","","","","","0","1","0","","0.9273356803","0.8","0.6","0.4","0.2","0.4609097875","0.9273356803","0.6377028942","0.9614764056","","","","","","","","","","","","74","J","1","","","206","main_expt",""
"","bandit","286","997614","0.0-247.0-0.0","00767363","wem/bandit_either_3","A3UEJQ4EJB9DBD","either","8","479","","","","","","","0","1","0","","0.9625830716","0.8","0.6","0.4","0.2","0.4980316736","0.9502037039","0.5700483165","0.9625830716","","","","","","","","","","","","76","L","3","","","207","main_expt",""
"","bandit","287","999835","0.0-248.0-0.0","00767363","wem/bandit_either_3","A3UEJQ4EJB9DBD","either","8","639","","","","","","","1","0","0","0.944094639","","0.8","0.6","0.4","0.2","","","","","0.4537691537","0.944094639","0.624428721","0.9359306517","","","","","","","","74","J","1","","","208","main_expt",""
"","bandit","288","1001875","0.0-249.0-0.0","00767363","wem/bandit_either_3","A3UEJQ4EJB9DBD","either","8","444","","","","","","","0","1","0","","0.9632917203","0.8","0.6","0.4","0.2","0.4475842875","0.9070839441","0.4861871301","0.9632917203","","","","","","","","","","","","76","L","3","","","209","main_expt",""
"","bandit","289","1003953","0.0-250.0-0.0","00767363","wem/bandit_either_3","A3UEJQ4EJB9DBD","either","8","512","","","","","","","0","0","1","0.8960653589","","0.8","0.6","0.4","0.2","","","","","0.4803454055","0.8960653589","0.3956361612","0.9633226214","","","","","","","","74","J","1","","","210","main_expt",""
"","bandit","290","1005996","0.0-251.0-0.0","00767363","wem/bandit_either_3","A3UEJQ4EJB9DBD","either","8","500","","","","","","","1","0","0","0.9155455821","","0.8","0.6","0.4","0.2","","","","","0.4126443349","0.9155455821","0.3599204452","0.9719781217","","","","","","","","74","J","1","","","211","main_expt",""
"","bandit","291","1008274","0.0-252.0-0.0","00767363","wem/bandit_either_3","A3UEJQ4EJB9DBD","either","8","499","","","","","","","1","0","0","0.9700781686","","0.8","0.6","0.4","0.2","","","","","0.3384802849","0.9087954588","0.3349000901","0.9700781686","","","","","","","","76","L","3","","","212","main_expt",""
"","bandit","292","1010208","0.0-253.0-0.0","00767363","wem/bandit_either_3","A3UEJQ4EJB9DBD","either","8","375","","","","","","","0","1","0","","0.8528540962","0.8","0.6","0.4","0.2","0.3039242722","0.8528540962","0.3183344176","0.971165811","","","","","","","","","","","","74","J","1","","","213","main_expt",""
"","bandit","293","1012392","0.0-254.0-0.0","00767363","wem/bandit_either_3","A3UEJQ4EJB9DBD","either","8","614","","","","","","","0","1","0","","0.8506041988","0.8","0.6","0.4","0.2","0.4541530846","0.8506041988","0.2390758011","0.9627117","","","","","","","","","","","","74","J","1","","","214","main_expt",""
"","bandit","294","1014501","0.0-255.0-0.0","00767363","wem/bandit_either_3","A3UEJQ4EJB9DBD","either","8","543","","","","","","","1","0","0","0.9552130497","","0.8","0.6","0.4","0.2","","","","","0.5101749692","0.8001829978","0.1997060473","0.9552130497","","","","","","","","76","L","3","","","215","main_expt",""
"","bandit","295","1016599","0.0-256.0-0.0","00767363","wem/bandit_either_3","A3UEJQ4EJB9DBD","either","8","515","","","","","","","0","1","0","","0.9220350188","0.8","0.6","0.4","0.2","0.5580520347","0.733614842","0.2326539104","0.9220350188","","","","","","","","","","","","76","L","3","","","216","main_expt",""
"","bandit","296","1018699","0.0-257.0-0.0","00767363","wem/bandit_either_3","A3UEJQ4EJB9DBD","either","8","530","","","","","","","1","0","0","0.7479737912","","0.8","0.6","0.4","0.2","","","","","0.4368451062","0.7479737912","0.2319826337","0.8736667029","","","","","","","","74","J","1","","","217","main_expt",""
"","bandit","297","1020720","0.0-258.0-0.0","00767363","wem/bandit_either_3","A3UEJQ4EJB9DBD","either","8","464","","","","","","","0","1","0","","0.7713398237","0.8","0.6","0.4","0.2","0.3963441813","0.7713398237","0.3143382807","0.7602784417","","","","","","","","","","","","74","J","1","","","218","main_expt",""
"","bandit","298","1022636","0.0-259.0-0.0","00767363","wem/bandit_either_3","A3UEJQ4EJB9DBD","either","8","350","","","","","","","1","0","0","0.7643050859","","0.8","0.6","0.4","0.2","","","","","0.4809426617","0.8077055691","0.3304972923","0.7643050859","","","","","","","","76","L","3","","","219","main_expt",""
"","bandit","299","1024594","0.0-260.0-0.0","00767363","wem/bandit_either_3","A3UEJQ4EJB9DBD","either","8","373","","","","","","","0","1","0","","0.7778114837","0.8","0.6","0.4","0.2","0.397759556","0.7778114837","0.2866104843","0.7793587236","","","","","","","","","","","","74","J","1","","","220","main_expt",""
"","bandit","300","1026540","0.0-261.0-0.0","00767363","wem/bandit_either_3","A3UEJQ4EJB9DBD","either","8","392","","","","","","","0","1","0","","0.82086311","0.8","0.6","0.4","0.2","0.4087677593","0.7214198583","0.3602561646","0.82086311","","","","","","","","","","","","76","L","3","","","221","main_expt",""
"","bandit","301","1028723","0.0-262.0-0.0","00767363","wem/bandit_either_3","A3UEJQ4EJB9DBD","either","8","626","","","","","","","0","1","0","","0.8091526303","0.8","0.6","0.4","0.2","0.4561280915","0.8091526303","0.3228749062","0.8543662658","","","","","","","","","","","","74","J","1","","","222","main_expt",""
"","bandit","302","1030766","0.0-263.0-0.0","00767363","wem/bandit_either_3","A3UEJQ4EJB9DBD","either","8","483","","","","","","","1","0","0","0.2549485676","","0.8","0.6","0.4","0.2","","","","","0.4419858618","0.8240838469","0.2549485676","0.8599459829","","","","","","","","75","K","2","","","223","main_expt",""
"","bandit","303","1032772","0.0-264.0-0.0","00767363","wem/bandit_either_3","A3UEJQ4EJB9DBD","either","8","423","","","","","","","0","1","0","","0.7670685714","0.8","0.6","0.4","0.2","0.494409337","0.7670685714","0.2389333491","0.8747991669","","","","","","","","","","","","74","J","1","","","224","main_expt",""
"","bandit","304","1034963","0.0-265.0-0.0","00767363","wem/bandit_either_3","A3UEJQ4EJB9DBD","either","8","580","","","","","","","0","0","1","","0.1517307125","0.8","0.6","0.4","0.2","0.3713348049","0.8775689376","0.1517307125","0.7910409491","","","","","","","","","","","","75","K","2","","","225","main_expt",""
"","bandit","305","1036937","0.0-266.0-0.0","00767363","wem/bandit_either_3","A3UEJQ4EJB9DBD","either","8","414","","","","","","","0","1","0","","0.7212928749","0.8","0.6","0.4","0.2","0.4013452417","0.8846504348","0.1002450003","0.7212928749","","","","","","","","","","","","76","L","3","","","226","main_expt",""
"","bandit","306","1039030","0.0-267.0-0.0","00767363","wem/bandit_either_3","A3UEJQ4EJB9DBD","either","8","459","","","","","","","0","0","1","0.851087938","","0.8","0.6","0.4","0.2","","","","","0.393451628","0.851087938","0.1049945928","0.7090989562","","","","","","","","74","J","1","","","227","main_expt",""
"","bandit","307","1041144","0.0-268.0-0.0","00767363","wem/bandit_either_3","A3UEJQ4EJB9DBD","either","8","521","","","","","","","1","0","0","0.4175844788","","0.8","0.6","0.4","0.2","","","","","0.4175844788","0.9074720337","0.03915988122","0.6606736223","","","","","","","","72","H","0","img/none_selected.jpg","","228","main_expt",""
"","bandit","308","1043224","0.0-269.0-0.0","00767363","wem/bandit_either_3","A3UEJQ4EJB9DBD","either","8","513","","","","","","","0","0","1","","0.03767516843","0.8","0.6","0.4","0.2","0.408368909","0.872332114","0.03767516843","0.6893924153","","","","","","","","","","","","75","K","2","","","229","main_expt",""
"","bandit","309","1045389","0.0-270.0-0.0","00767363","wem/bandit_either_3","A3UEJQ4EJB9DBD","either","8","600","","","","","","","0","1","0","","0.4777699032","0.8","0.6","0.4","0.2","0.4777699032","0.7967167456","0.05804790214","0.6067604319","","","","","","","","","","","","72","H","0","img/none_selected.jpg","","230","main_expt",""
"","bandit","310","1047454","0.0-271.0-0.0","00767363","wem/bandit_either_3","A3UEJQ4EJB9DBD","either","8","449","","","","","","","0","1","0","","0.7760618079","0.8","0.6","0.4","0.2","0.4935442242","0.7760618079","0.04963095007","0.5037419277","","","","","","","","","","","","74","J","1","","","231","main_expt",""
"","bandit","311","1049422","0.0-272.0-0.0","00767363","wem/bandit_either_3","A3UEJQ4EJB9DBD","either","8","398","","","","","","","1","0","0","0.4889590317","","0.8","0.6","0.4","0.2","","","","","0.4889590317","0.7765467853","0.03759782928","0.4339479185","","","","","","","","72","H","0","img/none_selected.jpg","","232","main_expt",""
"","bandit","312","1051567","0.0-273.0-0.0","00767363","wem/bandit_either_3","A3UEJQ4EJB9DBD","either","8","583","","","","","","","0","1","0","","0.7895219362","0.8","0.6","0.4","0.2","0.5212294662","0.7895219362","0.03147013274","0.4525546635","","","","","","","","","","","","74","J","1","","","233","main_expt",""
"","bandit","313","1053589","0.0-274.0-0.0","00767363","wem/bandit_either_3","A3UEJQ4EJB9DBD","either","8","472","","","","","","","1","0","0","0.4420617392","","0.8","0.6","0.4","0.2","","","","","0.4420617392","0.7491899586","0.03547440544","0.3680080929","","","","","","","","72","H","0","img/none_selected.jpg","","234","main_expt",""
"","bandit","314","1055814","0.0-275.0-0.0","00767363","wem/bandit_either_3","A3UEJQ4EJB9DBD","either","8","631","","","","","","","0","1","0","","0.4816955248","0.8","0.6","0.4","0.2","0.4816955248","0.7397351474","0.04486782706","0.3416373547","","","","","","","","","","","","72","H","0","img/none_selected.jpg","","235","main_expt",""
"","bandit","315","1057835","0.0-276.0-0.0","00767363","wem/bandit_either_3","A3UEJQ4EJB9DBD","either","8","447","","","","","","","0","0","1","","0.3028121716","0.8","0.6","0.4","0.2","0.3028121716","0.6587673302","0.03122339122","0.3722877153","","","","","","","","","","","","72","H","0","img/none_selected.jpg","","236","main_expt",""
"","bandit","316","1059825","0.0-277.0-0.0","00767363","wem/bandit_either_3","A3UEJQ4EJB9DBD","either","8","436","","","","","","","0","1","0","","0.7534934878","0.8","0.6","0.4","0.2","0.3802502189","0.7534934878","0.04191117605","0.3081002542","","","","","","","","","","","","74","J","1","","","237","main_expt",""
"","bandit","317","1061833","0.0-278.0-0.0","00767363","wem/bandit_either_3","A3UEJQ4EJB9DBD","either","8","450","","","","","","","0","0","1","","0.2546656634","0.8","0.6","0.4","0.2","0.4160754302","0.8023031038","0.06367740527","0.2546656634","","","","","","","","","","","","76","L","3","","","238","main_expt",""
"","bandit","318","1063854","0.0-279.0-0.0","00767363","wem/bandit_either_3","A3UEJQ4EJB9DBD","either","8","445","","","","","","","1","0","0","0.8333986962","","0.8","0.6","0.4","0.2","","","","","0.3510440385","0.8333986962","0.06315957527","0.3038323055","","","","","","","","74","J","1","","","239","main_expt",""
"","bandit","319","1065998","0.0-280.0-0.0","00767363","wem/bandit_either_3","A3UEJQ4EJB9DBD","either","8","575","","","","","","","1","0","0","0.840768508","","0.8","0.6","0.4","0.2","","","","","0.4182550587","0.840768508","0.05324295338","0.291884511","","","","","","","","74","J","1","","","240","main_expt",""
"","bandit","320","1068138","0.0-281.0-0.0","00767363","wem/bandit_either_3","A3UEJQ4EJB9DBD","either","8","578","","","","","","","0","1","0","","0.823006268","0.8","0.6","0.4","0.2","0.5037088371","0.823006268","0.04641095239","0.3124975621","","","","","","","","","","","","74","J","1","","","241","main_expt",""
"","bandit","321","1070129","0.0-282.0-0.0","00767363","wem/bandit_either_3","A3UEJQ4EJB9DBD","either","8","405","","","","","","","1","0","0","0.8152254121","","0.8","0.6","0.4","0.2","","","","","0.4877747003","0.8152254121","0.04954190216","0.3637146884","","","","","","","","74","J","1","","","242","main_expt",""
"","bandit","322","1072262","0.0-283.0-0.0","00767363","wem/bandit_either_3","A3UEJQ4EJB9DBD","either","8","542","","","","","","","0","1","0","","0.8377493118","0.8","0.6","0.4","0.2","0.5007011316","0.8377493118","0.05592390002","0.3304840913","","","","","","","","","","","","74","J","1","","","243","main_expt",""
"","bandit","323","1074685","0.0-284.0-0.0","00767363","wem/bandit_either_3","A3UEJQ4EJB9DBD","either","8","851","","","","","","","0","1","0","","0.8258586067","0.8","0.6","0.4","0.2","0.5730304632","0.8258586067","0.03808637997","0.4067767971","","","","","","","","","","","","74","J","1","","","244","main_expt",""
"","bandit","324","1076755","0.0-285.0-0.0","00767363","wem/bandit_either_3","A3UEJQ4EJB9DBD","either","8","481","","","","","","","1","0","0","0.6096531262","","0.8","0.6","0.4","0.2","","","","","0.6096531262","0.7889424323","0.02077199453","0.4091901929","","","","","","","","72","H","0","img/none_selected.jpg","","245","main_expt",""
