"consent","trial_type","trial_index","time_elapsed","internal_node_id","subjID","study","MID","cond","drift","rt","responses","key_press","expt_phase","like","value","connected","gems","bombs","no_reward","GemPrChosen","BombPrChosen","GainOverPainPr_0","GainOverPainPr_1","GainOverPainPr_2","GainOverPainPr_3","LosePr_0","LosePr_1","LosePr_2","LosePr_3","WinPr_0","WinPr_1","WinPr_2","WinPr_3","Q0","Q1","Q2","gender","age","ethnicity","target","respCharCode","respKey","respChoiceNum","respChoice","practice","trial_counter","trial_label","button_pressed"
"INL_behavioral_consent_30min_online.html","consent","0","9931","0.0-0.0","01468037","wem/bandit_either_3","A1YBZWXXW358IF","either","5","","","","","","","","","","","","","","","","","","","","","","","","","","","","","","","","","","","","","","",""
"","survey-text","1","17418","0.0-1.0","01468037","wem/bandit_either_3","A1YBZWXXW358IF","either","5","6455","{""Q0"":""A1YBZWXXW358IF""}","","","","","","","","","","","","","","","","","","","","","","","","","","","","","","","","","","","","",""
"","text","2","20942","0.0-2.0","01468037","wem/bandit_either_3","A1YBZWXXW358IF","either","5","2512","","32","","","","","","","","","","","","","","","","","","","","","","","","","","","","","","","","","","","",""
"","text","3","22466","0.0-3.0","01468037","wem/bandit_either_3","A1YBZWXXW358IF","either","5","1517","","32","","","","","","","","","","","","","","","","","","","","","","","","","","","","","","","","","","","",""
"","text","4","24391","0.0-4.0","01468037","wem/bandit_either_3","A1YBZWXXW358IF","either","5","1920","","32","","","","","","","","","","","","","","","","","","","","","","","","","","","","","","","","","","","",""
"","text","5","29051","0.0-5.0","01468037","wem/bandit_either_3","A1YBZWXXW358IF","either","5","4655","","32","","","","","","","","","","","","","","","","","","","","","","","","","","","","","","","","","","","",""
"","text","6","31781","0.0-6.0","01468037","wem/bandit_either_3","A1YBZWXXW358IF","either","5","2726","","32","","","","","","","","","","","","","","","","","","","","","","","","","","","","","","","","","","","",""
"","text","7","35078","0.0-7.0","01468037","wem/bandit_either_3","A1YBZWXXW358IF","either","5","3294","","32","","","","","","","","","","","","","","","","","","","","","","","","","","","","","","","","","","","",""
"","text","8","38679","0.0-8.0","01468037","wem/bandit_either_3","A1YBZWXXW358IF","either","5","3596","","32","","","","","","","","","","","","","","","","","","","","","","","","","","","","","","","","","","","",""
"","identification","9","45095","0.0-9.0-0.0","01468037","wem/bandit_either_3","A1YBZWXXW358IF","either","5","6380","","","","3","3","3","","","","","","","","","","","","","","","","","","","","","","","","the village of Zur","","","","","","","",""
"","identification","10","49430","0.0-9.0-1.0","01468037","wem/bandit_either_3","A1YBZWXXW358IF","either","5","3297","","","","3","3","3","","","","","","","","","","","","","","","","","","","","","","","","the village of Nyx","","","","","","","",""
"","text","11","54202","0.0-10.0","01468037","wem/bandit_either_3","A1YBZWXXW358IF","either","5","3760","","32","","","","","","","","","","","","","","","","","","","","","","","","","","","","","","","","","","","",""
"","text","12","57329","0.0-11.0","01468037","wem/bandit_either_3","A1YBZWXXW358IF","either","5","3123","","32","","","","","","","","","","","","","","","","","","","","","","","","","","","","","","","","","","","",""
"","text","13","60190","0.0-12.0","01468037","wem/bandit_either_3","A1YBZWXXW358IF","either","5","2857","","32","","","","","","","","","","","","","","","","","","","","","","","","","","","","","","","","","","","",""
"","text","14","63836","0.0-13.0","01468037","wem/bandit_either_3","A1YBZWXXW358IF","either","5","3643","","32","","","","","","","","","","","","","","","","","","","","","","","","","","","","","","","","","","","",""
"","bandit","15","74113","0.0-14.0-0.0","01468037","wem/bandit_either_3","A1YBZWXXW358IF","either","5","8755","","","","","","","0","0","1","0","0","","","","","0","","","","0","","","","","","","","","","","74","J","0","img/none_selected_demo.jpg","true","0","",""
"","bandit","16","77559","0.0-15.0-0.0","01468037","wem/bandit_either_3","A1YBZWXXW358IF","either","5","1906","","","","","","","0","0","1","0","0","","","","","0","","","","0","","","","","","","","","","","75","K","0","img/none_selected_demo.jpg","true","0","",""
"","text","17","81145","0.0-16.0","01468037","wem/bandit_either_3","A1YBZWXXW358IF","either","5","3583","","32","","","","","","","","","","","","","","","","","","","","","","","","","","","","","","","","","","","",""
"","text","18","86008","0.0-17.0","01468037","wem/bandit_either_3","A1YBZWXXW358IF","either","5","4859","","32","","","","","","","","","","","","","","","","","","","","","","","","","","","","","","","","","","","",""
"","text","19","89104","0.0-18.0","01468037","wem/bandit_either_3","A1YBZWXXW358IF","either","5","3091","","32","","","","","","","","","","","","","","","","","","","","","","","","","","","","","","","","","","","",""
"","text","20","91477","0.0-19.0","01468037","wem/bandit_either_3","A1YBZWXXW358IF","either","5","2368","","32","","","","","","","","","","","","","","","","","","","","","","","","","","","","","","","","","","","",""
"","bandit","21","96154","0.0-20.0-0.0","01468037","wem/bandit_either_3","A1YBZWXXW358IF","either","5","3155","","","","","","","0","1","0","","0.8","0.5","0.5","","","0.8","0.2","","","","","","","","","","","","","","74","J","0","img/none_selected_demo.jpg","true","0","80_20_practice",""
"","bandit","22","99976","0.0-20.0-1.0","01468037","wem/bandit_either_3","A1YBZWXXW358IF","either","5","2295","","","","","","","0","1","0","","0.8","0.5","0.5","","","0.8","0.2","","","","","","","","","","","","","","74","J","0","img/none_selected_demo.jpg","true","0","80_20_practice",""
"","bandit","23","102062","0.0-20.0-2.0","01468037","wem/bandit_either_3","A1YBZWXXW358IF","either","5","559","","","","","","","0","0","1","","0.2","0.5","0.5","","","0.8","0.2","","","","","","","","","","","","","","75","K","1","","true","0","80_20_practice",""
"","bandit","24","104150","0.0-20.0-3.0","01468037","wem/bandit_either_3","A1YBZWXXW358IF","either","5","560","","","","","","","0","0","1","","0.2","0.5","0.5","","","0.8","0.2","","","","","","","","","","","","","","75","K","1","","true","0","80_20_practice",""
"","bandit","25","106089","0.0-20.0-4.0","01468037","wem/bandit_either_3","A1YBZWXXW358IF","either","5","413","","","","","","","0","0","1","","0.2","0.5","0.5","","","0.8","0.2","","","","","","","","","","","","","","75","K","1","","true","0","80_20_practice",""
"","bandit","26","108159","0.0-20.0-5.0","01468037","wem/bandit_either_3","A1YBZWXXW358IF","either","5","547","","","","","","","0","1","0","","0.8","0.5","0.5","","","0.8","0.2","","","","","","","","","","","","","","74","J","0","img/none_selected_demo.jpg","true","0","80_20_practice",""
"","bandit","27","110171","0.0-20.0-6.0","01468037","wem/bandit_either_3","A1YBZWXXW358IF","either","5","480","","","","","","","0","1","0","","0.8","0.5","0.5","","","0.8","0.2","","","","","","","","","","","","","","74","J","0","img/none_selected_demo.jpg","true","0","80_20_practice",""
"","bandit","28","115397","0.0-20.0-7.0","01468037","wem/bandit_either_3","A1YBZWXXW358IF","either","5","3685","","","","","","","0","0","1","","0.2","0.5","0.5","","","0.8","0.2","","","","","","","","","","","","","","75","K","1","","true","0","80_20_practice",""
"","bandit","29","117273","0.0-20.0-8.0","01468037","wem/bandit_either_3","A1YBZWXXW358IF","either","5","342","","","","","","","0","0","1","0.2","","0.5","0.5","","","","","","","0.8","0.2","","","","","","","","","","75","K","1","","true","0","80_20_practice",""
"","bandit","30","119200","0.0-20.0-9.0","01468037","wem/bandit_either_3","A1YBZWXXW358IF","either","5","405","","","","","","","0","0","1","0.2","","0.5","0.5","","","","","","","0.8","0.2","","","","","","","","","","75","K","1","","true","0","80_20_practice",""
"","bandit","31","122219","0.0-20.0-10.0","01468037","wem/bandit_either_3","A1YBZWXXW358IF","either","5","1483","","","","","","","0","1","0","","0.8","0.5","0.5","","","0.8","0.2","","","","","","","","","","","","","","74","J","0","img/none_selected_demo.jpg","true","0","80_20_practice",""
"","bandit","32","123980","0.0-20.0-11.0","01468037","wem/bandit_either_3","A1YBZWXXW358IF","either","5","225","","","","","","","1","0","0","0.8","","0.5","0.5","","","","","","","0.8","0.2","","","","","","","","","","74","J","0","img/none_selected_demo.jpg","true","0","80_20_practice",""
"","bandit","33","125880","0.0-20.0-12.0","01468037","wem/bandit_either_3","A1YBZWXXW358IF","either","5","386","","","","","","","0","0","1","","0.8","0.5","0.5","","","0.8","0.2","","","","","","","","","","","","","","74","J","0","img/none_selected_demo.jpg","true","0","80_20_practice",""
"","bandit","34","127704","0.0-20.0-13.0","01468037","wem/bandit_either_3","A1YBZWXXW358IF","either","5","299","","","","","","","0","1","0","","0.8","0.5","0.5","","","0.8","0.2","","","","","","","","","","","","","","74","J","0","img/none_selected_demo.jpg","true","0","80_20_practice",""
"","bandit","35","129562","0.0-20.0-14.0","01468037","wem/bandit_either_3","A1YBZWXXW358IF","either","5","323","","","","","","","0","0","1","0.2","","0.5","0.5","","","","","","","0.8","0.2","","","","","","","","","","75","K","1","","true","0","80_20_practice",""
"","bandit","36","131837","0.0-20.0-15.0","01468037","wem/bandit_either_3","A1YBZWXXW358IF","either","5","749","","","","","","","0","0","1","0.2","","0.5","0.5","","","","","","","0.8","0.2","","","","","","","","","","75","K","1","","true","0","80_20_practice",""
"","bandit","37","133617","0.0-20.0-16.0","01468037","wem/bandit_either_3","A1YBZWXXW358IF","either","5","249","","","","","","","0","0","1","","0.2","0.5","0.5","","","0.8","0.2","","","","","","","","","","","","","","75","K","1","","true","0","80_20_practice",""
"","bandit","38","135788","0.0-20.0-17.0","01468037","wem/bandit_either_3","A1YBZWXXW358IF","either","5","640","","","","","","","0","0","1","","0.2","0.5","0.5","","","0.8","0.2","","","","","","","","","","","","","","75","K","1","","true","0","80_20_practice",""
"","bandit","39","137343","0.0-20.0-18.0","01468037","wem/bandit_either_3","A1YBZWXXW358IF","either","5","28","","","","","","","1","0","0","0.8","","0.5","0.5","","","","","","","0.8","0.2","","","","","","","","","","74","J","0","img/none_selected_demo.jpg","true","0","80_20_practice",""
"","bandit","40","139177","0.0-20.0-19.0","01468037","wem/bandit_either_3","A1YBZWXXW358IF","either","5","303","","","","","","","0","1","0","","0.8","0.5","0.5","","","0.8","0.2","","","","","","","","","","","","","","74","J","0","img/none_selected_demo.jpg","true","0","80_20_practice",""
"","text","41","154296","0.0-21.0","01468037","wem/bandit_either_3","A1YBZWXXW358IF","either","5","15113","","32","","","","","","","","","","","","","","","","","","","","","","","","","","","","","","","","","","","",""
"","bandit","42","159909","0.0-22.0-0.0","01468037","wem/bandit_either_3","A1YBZWXXW358IF","either","5","4104","","","","","","","1","0","0","1","0","","","","","0","1","","","1","0","","","","","","","","","","74","J","0","img/none_selected_demo.jpg","true","0","",""
"","text","43","167119","0.0-23.0","01468037","wem/bandit_either_3","A1YBZWXXW358IF","either","5","7205","","74","","","","","","","","","","","","","","","","","","","","","","","","","","","","","","","","","","","",""
"","text","44","173253","0.0-24.0","01468037","wem/bandit_either_3","A1YBZWXXW358IF","either","5","6129","","32","","","","","","","","","","","","","","","","","","","","","","","","","","","","","","","","","","","",""
"","text","45","175850","0.0-25.0","01468037","wem/bandit_either_3","A1YBZWXXW358IF","either","5","2594","","32","","","","","","","","","","","","","","","","","","","","","","","","","","","","","","","","","","","",""
"","text","46","178719","0.0-26.0","01468037","wem/bandit_either_3","A1YBZWXXW358IF","either","5","2864","","32","","","","","","","","","","","","","","","","","","","","","","","","","","","","","","","","","","","",""
"","text","47","182718","0.0-27.0","01468037","wem/bandit_either_3","A1YBZWXXW358IF","either","5","3991","","32","","","","","","","","","","","","","","","","","","","","","","","","","","","","","","","","","","","",""
"","text","48","185861","0.0-28.0","01468037","wem/bandit_either_3","A1YBZWXXW358IF","either","5","3137","","32","","","","","","","","","","","","","","","","","","","","","","","","","","","","","","","","","","","",""
"","text","49","188540","0.0-29.0","01468037","wem/bandit_either_3","A1YBZWXXW358IF","either","5","2671","","32","","","","","","","","","","","","","","","","","","","","","","","","","","","","","","","","","","","",""
"","text","50","191386","0.0-30.0","01468037","wem/bandit_either_3","A1YBZWXXW358IF","either","5","2839","","32","","","","","","","","","","","","","","","","","","","","","","","","","","","","","","","","","","","",""
"","text","51","195340","0.0-31.0","01468037","wem/bandit_either_3","A1YBZWXXW358IF","either","5","3950","","32","","","","","","","","","","","","","","","","","","","","","","","","","","","","","","","","","","","",""
"","text","52","196753","0.0-32.0","01468037","wem/bandit_either_3","A1YBZWXXW358IF","either","5","1408","","32","","","","","","","","","","","","","","","","","","","","","","","","","","","","","","","","","","","",""
"","text","53","202495","0.0-33.0","01468037","wem/bandit_either_3","A1YBZWXXW358IF","either","5","5734","","32","","","","","","","","","","","","","","","","","","","","","","","","","","","","","","","","","","","",""
"","bandit","54","207312","0.0-34.0-0.0","01468037","wem/bandit_either_3","A1YBZWXXW358IF","either","5","3288","","","","","","","1","0","0","0.8","","0.5","0.5","0.5","0.5","","","","","0.8","0.2","0.6","0.2","","","","","","","","72","H","0","img/none_selected.jpg","true","0","full_practice",""
"","bandit","55","209504","0.0-34.0-1.0","01468037","wem/bandit_either_3","A1YBZWXXW358IF","either","5","656","","","","","","","0","0","1","","0.8","0.5","0.5","0.5","0.5","0.8","0.2","0.6","0.2","","","","","","","","","","","","72","H","0","img/none_selected.jpg","true","0","full_practice",""
"","bandit","56","212218","0.0-34.0-2.0","01468037","wem/bandit_either_3","A1YBZWXXW358IF","either","5","1196","","","","","","","0","0","1","","0.8","0.5","0.5","0.5","0.5","0.8","0.2","0.6","0.2","","","","","","","","","","","","72","H","0","img/none_selected.jpg","true","0","full_practice",""
"","bandit","57","214160","0.0-34.0-3.0","01468037","wem/bandit_either_3","A1YBZWXXW358IF","either","5","423","","","","","","","0","0","1","0.2","","0.5","0.5","0.5","0.5","","","","","0.8","0.2","0.6","0.2","","","","","","","","74","J","1","","true","0","full_practice",""
"","bandit","58","216079","0.0-34.0-4.0","01468037","wem/bandit_either_3","A1YBZWXXW358IF","either","5","396","","","","","","","0","0","1","0.2","","0.5","0.5","0.5","0.5","","","","","0.8","0.2","0.6","0.2","","","","","","","","74","J","1","","true","0","full_practice",""
"","bandit","59","217992","0.0-34.0-5.0","01468037","wem/bandit_either_3","A1YBZWXXW358IF","either","5","370","","","","","","","0","0","1","0.6","","0.5","0.5","0.5","0.5","","","","","0.8","0.2","0.6","0.2","","","","","","","","75","K","2","","true","0","full_practice",""
"","bandit","60","219957","0.0-34.0-6.0","01468037","wem/bandit_either_3","A1YBZWXXW358IF","either","5","425","","","","","","","0","0","1","","0.2","0.5","0.5","0.5","0.5","0.8","0.2","0.6","0.2","","","","","","","","","","","","76","L","3","","true","0","full_practice",""
"","bandit","61","222508","0.0-34.0-7.0","01468037","wem/bandit_either_3","A1YBZWXXW358IF","either","5","1034","","","","","","","0","1","0","","0.8","0.5","0.5","0.5","0.5","0.8","0.2","0.6","0.2","","","","","","","","","","","","72","H","0","img/none_selected.jpg","true","0","full_practice",""
"","bandit","62","224417","0.0-34.0-8.0","01468037","wem/bandit_either_3","A1YBZWXXW358IF","either","5","380","","","","","","","0","0","1","0.2","","0.5","0.5","0.5","0.5","","","","","0.8","0.2","0.6","0.2","","","","","","","","76","L","3","","true","0","full_practice",""
"","bandit","63","226401","0.0-34.0-9.0","01468037","wem/bandit_either_3","A1YBZWXXW358IF","either","5","451","","","","","","","0","0","1","","0.6","0.5","0.5","0.5","0.5","0.8","0.2","0.6","0.2","","","","","","","","","","","","75","K","2","","true","0","full_practice",""
"","bandit","64","228442","0.0-34.0-10.0","01468037","wem/bandit_either_3","A1YBZWXXW358IF","either","5","517","","","","","","","0","0","1","","0.2","0.5","0.5","0.5","0.5","0.8","0.2","0.6","0.2","","","","","","","","","","","","74","J","1","","true","0","full_practice",""
"","bandit","65","230278","0.0-34.0-11.0","01468037","wem/bandit_either_3","A1YBZWXXW358IF","either","5","306","","","","","","","1","0","0","0.8","","0.5","0.5","0.5","0.5","","","","","0.8","0.2","0.6","0.2","","","","","","","","72","H","0","img/none_selected.jpg","true","0","full_practice",""
"","bandit","66","232227","0.0-34.0-12.0","01468037","wem/bandit_either_3","A1YBZWXXW358IF","either","5","412","","","","","","","1","0","0","0.8","","0.5","0.5","0.5","0.5","","","","","0.8","0.2","0.6","0.2","","","","","","","","72","H","0","img/none_selected.jpg","true","0","full_practice",""
"","bandit","67","234162","0.0-34.0-13.0","01468037","wem/bandit_either_3","A1YBZWXXW358IF","either","5","404","","","","","","","1","0","0","0.8","","0.5","0.5","0.5","0.5","","","","","0.8","0.2","0.6","0.2","","","","","","","","72","H","0","img/none_selected.jpg","true","0","full_practice",""
"","bandit","68","236038","0.0-34.0-14.0","01468037","wem/bandit_either_3","A1YBZWXXW358IF","either","5","342","","","","","","","1","0","0","0.8","","0.5","0.5","0.5","0.5","","","","","0.8","0.2","0.6","0.2","","","","","","","","72","H","0","img/none_selected.jpg","true","0","full_practice",""
"","bandit","69","237947","0.0-34.0-15.0","01468037","wem/bandit_either_3","A1YBZWXXW358IF","either","5","377","","","","","","","1","0","0","0.8","","0.5","0.5","0.5","0.5","","","","","0.8","0.2","0.6","0.2","","","","","","","","72","H","0","img/none_selected.jpg","true","0","full_practice",""
"","bandit","70","239840","0.0-34.0-16.0","01468037","wem/bandit_either_3","A1YBZWXXW358IF","either","5","350","","","","","","","1","0","0","0.8","","0.5","0.5","0.5","0.5","","","","","0.8","0.2","0.6","0.2","","","","","","","","72","H","0","img/none_selected.jpg","true","0","full_practice",""
"","bandit","71","241602","0.0-34.0-17.0","01468037","wem/bandit_either_3","A1YBZWXXW358IF","either","5","230","","","","","","","0","1","0","","0.8","0.5","0.5","0.5","0.5","0.8","0.2","0.6","0.2","","","","","","","","","","","","72","H","0","img/none_selected.jpg","true","0","full_practice",""
"","bandit","72","243481","0.0-34.0-18.0","01468037","wem/bandit_either_3","A1YBZWXXW358IF","either","5","343","","","","","","","0","1","0","","0.2","0.5","0.5","0.5","0.5","0.8","0.2","0.6","0.2","","","","","","","","","","","","74","J","1","","true","0","full_practice",""
"","bandit","73","245257","0.0-34.0-19.0","01468037","wem/bandit_either_3","A1YBZWXXW358IF","either","5","233","","","","","","","0","1","0","","0.6","0.5","0.5","0.5","0.5","0.8","0.2","0.6","0.2","","","","","","","","","","","","75","K","2","","true","0","full_practice",""
"","text","74","249220","0.0-35.0","01468037","wem/bandit_either_3","A1YBZWXXW358IF","either","5","3941","","32","","","","","","","","","","","","","","","","","","","","","","","","","","","","","","","","","","","",""
"","text","75","261619","0.0-36.0","01468037","wem/bandit_either_3","A1YBZWXXW358IF","either","5","11378","","32","","","","","","","","","","","","","","","","","","","","","","","","","","","","","","","","","","","",""
"","text","76","274401","0.0-37.0","01468037","wem/bandit_either_3","A1YBZWXXW358IF","either","5","12774","","32","","","","","","","","","","","","","","","","","","","","","","","","","","","","","","","","","","","",""
"","text","77","277588","0.0-38.0","01468037","wem/bandit_either_3","A1YBZWXXW358IF","either","5","3182","","32","","","","","","","","","","","","","","","","","","","","","","","","","","","","","","","","","","","",""
"","text","78","280468","0.0-39.0","01468037","wem/bandit_either_3","A1YBZWXXW358IF","either","5","2874","","32","","","","","","","","","","","","","","","","","","","","","","","","","","","","","","","","","","","",""
"","text","79","283577","0.0-40.0","01468037","wem/bandit_either_3","A1YBZWXXW358IF","either","5","3100","","32","","","","","","","","","","","","","","","","","","","","","","","","","","","","","","","","","","","",""
"","bandit","80","288048","0.0-41.0-0.0","01468037","wem/bandit_either_3","A1YBZWXXW358IF","either","5","2929","","","","","","","0","1","0","","0.4909711759","0.6","0.4","0.2","0.8","0.32692793","0.6131215568","0.4909711759","0.4253928501","","","","","","","","","","","","75","K","2","","","1","main_expt",""
"","bandit","81","291416","0.0-42.0-0.0","01468037","wem/bandit_either_3","A1YBZWXXW358IF","either","5","1832","","","","","","","0","0","1","0.6783759564","","0.6","0.4","0.2","0.8","","","","","0.3068321923","0.6783759564","0.5514346198","0.5447097682","","","","","","","","74","J","1","","","2","main_expt",""
"","bandit","82","293948","0.0-43.0-0.0","01468037","wem/bandit_either_3","A1YBZWXXW358IF","either","5","999","","","","","","","0","0","1","0.2871808385","","0.6","0.4","0.2","0.8","","","","","0.2871808385","0.6535049038","0.5966913043","0.5631376832","","","","","","","","72","H","0","img/none_selected.jpg","","3","main_expt",""
"","bandit","83","295972","0.0-44.0-0.0","01468037","wem/bandit_either_3","A1YBZWXXW358IF","either","5","485","","","","","","","0","0","1","0.5889355808","","0.6","0.4","0.2","0.8","","","","","0.3062311279","0.5433476707","0.6236804691","0.5889355808","","","","","","","","76","L","3","","","4","main_expt",""
"","bandit","84","297906","0.0-45.0-0.0","01468037","wem/bandit_either_3","A1YBZWXXW358IF","either","5","402","","","","","","","1","0","0","0.6125363118","","0.6","0.4","0.2","0.8","","","","","0.2453374439","0.4256320799","0.5844938386","0.6125363118","","","","","","","","76","L","3","","","5","main_expt",""
"","bandit","85","300007","0.0-46.0-0.0","01468037","wem/bandit_either_3","A1YBZWXXW358IF","either","5","571","","","","","","","0","0","1","0.5204159956","","0.6","0.4","0.2","0.8","","","","","0.2258644136","0.4097031487","0.4929788692","0.5204159956","","","","","","","","76","L","3","","","6","main_expt",""
"","bandit","86","302020","0.0-47.0-0.0","01468037","wem/bandit_either_3","A1YBZWXXW358IF","either","5","490","","","","","","","1","0","0","0.5949894572","","0.6","0.4","0.2","0.8","","","","","0.2251512132","0.4614862243","0.3978044106","0.5949894572","","","","","","","","76","L","3","","","7","main_expt",""
"","bandit","87","304106","0.0-48.0-0.0","01468037","wem/bandit_either_3","A1YBZWXXW358IF","either","5","550","","","","","","","1","0","0","0.7043393759","","0.6","0.4","0.2","0.8","","","","","0.1597376121","0.4305419438","0.5080346622","0.7043393759","","","","","","","","76","L","3","","","8","main_expt",""
"","bandit","88","306352","0.0-49.0-0.0","01468037","wem/bandit_either_3","A1YBZWXXW358IF","either","5","697","","","","","","","1","0","0","0.6866437556","","0.6","0.4","0.2","0.8","","","","","0.1395884133","0.6000641755","0.440708512","0.6866437556","","","","","","","","76","L","3","","","9","main_expt",""
"","bandit","89","308801","0.0-50.0-0.0","01468037","wem/bandit_either_3","A1YBZWXXW358IF","either","5","917","","","","","","","1","0","0","0.6743415364","","0.6","0.4","0.2","0.8","","","","","0.1529628815","0.66675231","0.4862198985","0.6743415364","","","","","","","","76","L","3","","","10","main_expt",""
"","bandit","90","310912","0.0-51.0-0.0","01468037","wem/bandit_either_3","A1YBZWXXW358IF","either","5","569","","","","","","","1","0","0","0.6907290289","","0.6","0.4","0.2","0.8","","","","","0.1918890603","0.538431352","0.4942886423","0.6907290289","","","","","","","","76","L","3","","","11","main_expt",""
"","bandit","91","313230","0.0-52.0-0.0","01468037","wem/bandit_either_3","A1YBZWXXW358IF","either","5","777","","","","","","","1","0","0","0.7254617755","","0.6","0.4","0.2","0.8","","","","","0.1412308375","0.5683478731","0.4999864232","0.7254617755","","","","","","","","76","L","3","","","12","main_expt",""
"","bandit","92","315344","0.0-53.0-0.0","01468037","wem/bandit_either_3","A1YBZWXXW358IF","either","5","574","","","","","","","1","0","0","0.7533793381","","0.6","0.4","0.2","0.8","","","","","0.1854965676","0.5870071372","0.3945724157","0.7533793381","","","","","","","","76","L","3","","","13","main_expt",""
"","bandit","93","317677","0.0-54.0-0.0","01468037","wem/bandit_either_3","A1YBZWXXW358IF","either","5","804","","","","","","","0","0","1","0.6909187676","","0.6","0.4","0.2","0.8","","","","","0.2200151947","0.3389967741","0.458684297","0.6909187676","","","","","","","","76","L","3","","","14","main_expt",""
"","bandit","94","321430","0.0-55.0-0.0","01468037","wem/bandit_either_3","A1YBZWXXW358IF","either","5","2219","","","","","","","0","1","0","","0.1497743902","0.6","0.4","0.2","0.8","0.1497743902","0.2927381815","0.5338449271","0.7916820586","","","","","","","","","","","","72","H","0","img/none_selected.jpg","","15","main_expt",""
"","bandit","95","323702","0.0-56.0-0.0","01468037","wem/bandit_either_3","A1YBZWXXW358IF","either","5","728","","","","","","","0","0","1","","0.2268478953","0.6","0.4","0.2","0.8","0.1767244745","0.2268478953","0.6821016448","0.7991661796","","","","","","","","","","","","74","J","1","","","16","main_expt",""
"","bandit","96","325687","0.0-57.0-0.0","01468037","wem/bandit_either_3","A1YBZWXXW358IF","either","5","459","","","","","","","0","0","1","0.2364877179","","0.6","0.4","0.2","0.8","","","","","0.1953364786","0.2364877179","0.6963612506","0.7352739439","","","","","","","","74","J","1","","","17","main_expt",""
"","bandit","97","327984","0.0-58.0-0.0","01468037","wem/bandit_either_3","A1YBZWXXW358IF","either","5","782","","","","","","","0","1","0","","0.280777314","0.6","0.4","0.2","0.8","0.139355503","0.280777314","0.7035779666","0.6911569498","","","","","","","","","","","","74","J","1","","","18","main_expt",""
"","bandit","98","330822","0.0-59.0-0.0","01468037","wem/bandit_either_3","A1YBZWXXW358IF","either","5","1295","","","","","","","0","0","1","","0.129677489","0.6","0.4","0.2","0.8","0.129677489","0.3280428268","0.677086514","0.6372159304","","","","","","","","","","","","72","H","0","img/none_selected.jpg","","19","main_expt",""
"","bandit","99","332767","0.0-60.0-0.0","01468037","wem/bandit_either_3","A1YBZWXXW358IF","either","5","406","","","","","","","0","0","1","","0.5211019236","0.6","0.4","0.2","0.8","0.1584506979","0.213865824","0.5211019236","0.5917564331","","","","","","","","","","","","75","K","2","","","20","main_expt",""
"","bandit","100","334740","0.0-61.0-0.0","01468037","wem/bandit_either_3","A1YBZWXXW358IF","either","5","430","","","","","","","0","0","1","","0.6351733259","0.6","0.4","0.2","0.8","0.1934985877","0.2755747612","0.6040081297","0.6351733259","","","","","","","","","","","","76","L","3","","","21","main_expt",""
"","bandit","101","336821","0.0-62.0-0.0","01468037","wem/bandit_either_3","A1YBZWXXW358IF","either","5","540","","","","","","","1","0","0","0.57448168","","0.6","0.4","0.2","0.8","","","","","0.1184813826","0.3096891892","0.5276460007","0.57448168","","","","","","","","76","L","3","","","22","main_expt",""
"","bandit","102","338990","0.0-63.0-0.0","01468037","wem/bandit_either_3","A1YBZWXXW358IF","either","5","626","","","","","","","1","0","0","0.532235281","","0.6","0.4","0.2","0.8","","","","","0.1387482349","0.1855444332","0.4373756081","0.532235281","","","","","","","","76","L","3","","","23","main_expt",""
"","bandit","103","341315","0.0-64.0-0.0","01468037","wem/bandit_either_3","A1YBZWXXW358IF","either","5","790","","","","","","","0","0","1","0.4695599312","","0.6","0.4","0.2","0.8","","","","","0.1275075135","0.2026045625","0.4051577966","0.4695599312","","","","","","","","76","L","3","","","24","main_expt",""
"","bandit","104","343635","0.0-65.0-0.0","01468037","wem/bandit_either_3","A1YBZWXXW358IF","either","5","777","","","","","","","0","0","1","0.3710761786","","0.6","0.4","0.2","0.8","","","","","0.1324238285","0.2610081957","0.3583026632","0.3710761786","","","","","","","","76","L","3","","","25","main_expt",""
"","bandit","105","345839","0.0-66.0-0.0","01468037","wem/bandit_either_3","A1YBZWXXW358IF","either","5","669","","","","","","","1","0","0","0.3104834237","","0.6","0.4","0.2","0.8","","","","","0.2222282692","0.2068764453","0.4070676783","0.3104834237","","","","","","","","76","L","3","","","26","main_expt",""
"","bandit","106","348365","0.0-67.0-0.0","01468037","wem/bandit_either_3","A1YBZWXXW358IF","either","5","988","","","","","","","0","0","1","0.4250638914","","0.6","0.4","0.2","0.8","","","","","0.2367528544","0.1387354037","0.3962805628","0.4250638914","","","","","","","","76","L","3","","","27","main_expt",""
"","bandit","107","350468","0.0-68.0-0.0","01468037","wem/bandit_either_3","A1YBZWXXW358IF","either","5","561","","","","","","","0","0","1","0.3738912408","","0.6","0.4","0.2","0.8","","","","","0.1581712713","0.2065421522","0.3381264529","0.3738912408","","","","","","","","76","L","3","","","28","main_expt",""
"","bandit","108","352585","0.0-69.0-0.0","01468037","wem/bandit_either_3","A1YBZWXXW358IF","either","5","581","","","","","","","0","0","1","0.411092256","","0.6","0.4","0.2","0.8","","","","","0.2361440946","0.2452437498","0.3405446746","0.411092256","","","","","","","","76","L","3","","","29","main_expt",""
"","bandit","109","354688","0.0-70.0-0.0","01468037","wem/bandit_either_3","A1YBZWXXW358IF","either","5","559","","","","","","","1","0","0","0.306262239","","0.6","0.4","0.2","0.8","","","","","0.3051502752","0.3076129501","0.3536414415","0.306262239","","","","","","","","76","L","3","","","30","main_expt",""
"","bandit","110","356916","0.0-71.0-0.0","01468037","wem/bandit_either_3","A1YBZWXXW358IF","either","5","696","","","","","","","0","0","1","0.2846857217","","0.6","0.4","0.2","0.8","","","","","0.3588845582","0.275744379","0.3201297868","0.2846857217","","","","","","","","76","L","3","","","31","main_expt",""
"","bandit","111","359042","0.0-72.0-0.0","01468037","wem/bandit_either_3","A1YBZWXXW358IF","either","5","598","","","","","","","0","0","1","0.260797537","","0.6","0.4","0.2","0.8","","","","","0.3351264969","0.1582224348","0.414050106","0.260797537","","","","","","","","76","L","3","","","32","main_expt",""
"","bandit","112","361224","0.0-73.0-0.0","01468037","wem/bandit_either_3","A1YBZWXXW358IF","either","5","651","","","","","","","0","0","1","0.3108282978","","0.6","0.4","0.2","0.8","","","","","0.3369799553","0.07234251762","0.4846208784","0.3108282978","","","","","","","","76","L","3","","","33","main_expt",""
"","bandit","113","363365","0.0-74.0-0.0","01468037","wem/bandit_either_3","A1YBZWXXW358IF","either","5","589","","","","","","","0","0","1","0.3996464291","","0.6","0.4","0.2","0.8","","","","","0.3040676539","0.07244310326","0.4250330595","0.3996464291","","","","","","","","76","L","3","","","34","main_expt",""
"","bandit","114","365499","0.0-75.0-0.0","01468037","wem/bandit_either_3","A1YBZWXXW358IF","either","5","603","","","","","","","1","0","0","0.4368131495","","0.6","0.4","0.2","0.8","","","","","0.2974236485","0.07140094546","0.499329675","0.4368131495","","","","","","","","76","L","3","","","35","main_expt",""
"","bandit","115","368030","0.0-76.0-0.0","01468037","wem/bandit_either_3","A1YBZWXXW358IF","either","5","996","","","","","","","0","0","1","0.3396719642","","0.6","0.4","0.2","0.8","","","","","0.310238309","0.08624361683","0.3892953339","0.3396719642","","","","","","","","76","L","3","","","36","main_expt",""
"","bandit","116","370251","0.0-77.0-0.0","01468037","wem/bandit_either_3","A1YBZWXXW358IF","either","5","698","","","","","","","1","0","0","0.4409026667","","0.6","0.4","0.2","0.8","","","","","0.2818719109","0.07543251018","0.3680424748","0.4409026667","","","","","","","","76","L","3","","","37","main_expt",""
"","bandit","117","372806","0.0-78.0-0.0","01468037","wem/bandit_either_3","A1YBZWXXW358IF","either","5","1030","","","","","","","1","0","0","0.489392614","","0.6","0.4","0.2","0.8","","","","","0.2925765749","0.1324785543","0.4909804269","0.489392614","","","","","","","","76","L","3","","","38","main_expt",""
"","bandit","118","375012","0.0-79.0-0.0","01468037","wem/bandit_either_3","A1YBZWXXW358IF","either","5","676","","","","","","","0","0","1","0.4403114744","","0.6","0.4","0.2","0.8","","","","","0.3033582507","0.1824024676","0.5165168671","0.4403114744","","","","","","","","76","L","3","","","39","main_expt",""
"","bandit","119","377158","0.0-80.0-0.0","01468037","wem/bandit_either_3","A1YBZWXXW358IF","either","5","609","","","","","","","1","0","0","0.343221944","","0.6","0.4","0.2","0.8","","","","","0.2371445562","0.09861269436","0.6036007873","0.343221944","","","","","","","","76","L","3","","","40","main_expt",""
"","bandit","120","379706","0.0-81.0-0.0","01468037","wem/bandit_either_3","A1YBZWXXW358IF","either","5","1007","","","","","","","0","0","1","","0.450343793","0.6","0.4","0.2","0.8","0.2072661203","0.1028082326","0.6078828369","0.450343793","","","","","","","","","","","","76","L","3","","","41","main_expt",""
"","bandit","121","381859","0.0-82.0-0.0","01468037","wem/bandit_either_3","A1YBZWXXW358IF","either","5","615","","","","","","","0","1","0","","0.4422822993","0.6","0.4","0.2","0.8","0.1850700716","0.1326350751","0.5757077757","0.4422822993","","","","","","","","","","","","76","L","3","","","42","main_expt",""
"","bandit","122","385065","0.0-83.0-0.0","01468037","wem/bandit_either_3","A1YBZWXXW358IF","either","5","1664","","","","","","","0","1","0","","0.1591685393","0.6","0.4","0.2","0.8","0.1700345657","0.1591685393","0.504524575","0.4755437476","","","","","","","","","","","","74","J","1","","","43","main_expt",""
"","bandit","123","387242","0.0-84.0-0.0","01468037","wem/bandit_either_3","A1YBZWXXW358IF","either","5","648","","","","","","","0","0","1","","0.3354744533","0.6","0.4","0.2","0.8","0.150922449","0.1558361793","0.3354744533","0.6211160782","","","","","","","","","","","","75","K","2","","","44","main_expt",""
"","bandit","124","389349","0.0-85.0-0.0","01468037","wem/bandit_either_3","A1YBZWXXW358IF","either","5","582","","","","","","","0","1","0","","0.2259933845","0.6","0.4","0.2","0.8","0.08792573626","0.08224127908","0.2259933845","0.5950963145","","","","","","","","","","","","75","K","2","","","45","main_expt",""
"","bandit","125","393086","0.0-86.0-0.0","01468037","wem/bandit_either_3","A1YBZWXXW358IF","either","5","2198","","","","","","","0","0","1","","0.05210962111","0.6","0.4","0.2","0.8","0.05210962111","0.05681632526","0.1991815266","0.600883672","","","","","","","","","","","","72","H","0","img/none_selected.jpg","","46","main_expt",""
"","bandit","126","395033","0.0-87.0-0.0","01468037","wem/bandit_either_3","A1YBZWXXW358IF","either","5","416","","","","","","","0","0","1","","0.1658512007","0.6","0.4","0.2","0.8","0.1658512007","0.02046531905","0.1821259253","0.6018426621","","","","","","","","","","","","72","H","0","img/none_selected.jpg","","47","main_expt",""
"","bandit","127","397197","0.0-88.0-0.0","01468037","wem/bandit_either_3","A1YBZWXXW358IF","either","5","624","","","","","","","0","0","1","0.2171730843","","0.6","0.4","0.2","0.8","","","","","0.2171730843","0.02793369594","0.1850219792","0.6719149388","","","","","","","","72","H","0","img/none_selected.jpg","","48","main_expt",""
"","bandit","128","399426","0.0-89.0-0.0","01468037","wem/bandit_either_3","A1YBZWXXW358IF","either","5","692","","","","","","","0","0","1","","0.2545874694","0.6","0.4","0.2","0.8","0.2545874694","0.01520235592","0.2843491098","0.5824093935","","","","","","","","","","","","72","H","0","img/none_selected.jpg","","49","main_expt",""
"","bandit","129","401528","0.0-90.0-0.0","01468037","wem/bandit_either_3","A1YBZWXXW358IF","either","5","567","","","","","","","0","0","1","0.1971443839","","0.6","0.4","0.2","0.8","","","","","0.1971443839","0.008868670712","0.2385085868","0.5697547833","","","","","","","","72","H","0","img/none_selected.jpg","","50","main_expt",""
"","bandit","130","403808","0.0-91.0-0.0","01468037","wem/bandit_either_3","A1YBZWXXW358IF","either","5","751","","","","","","","0","0","1","","0.1743954459","0.6","0.4","0.2","0.8","0.1743954459","0.004668439046","0.2762119933","0.5875551098","","","","","","","","","","","","72","H","0","img/none_selected.jpg","","51","main_expt",""
"","bandit","131","405845","0.0-92.0-0.0","01468037","wem/bandit_either_3","A1YBZWXXW358IF","either","5","497","","","","","","","0","0","1","0.691822337","","0.6","0.4","0.2","0.8","","","","","0.1007451992","0.003090075005","0.2350807626","0.691822337","","","","","","","","76","L","3","","","52","main_expt",""
"","bandit","132","407834","0.0-93.0-0.0","01468037","wem/bandit_either_3","A1YBZWXXW358IF","either","5","445","","","","","","","0","0","1","0.7363191169","","0.6","0.4","0.2","0.8","","","","","0.1648918076","0.003474758773","0.2301492847","0.7363191169","","","","","","","","76","L","3","","","53","main_expt",""
"","bandit","133","409906","0.0-94.0-0.0","01468037","wem/bandit_either_3","A1YBZWXXW358IF","either","5","533","","","","","","","1","0","0","0.7639548597","","0.6","0.4","0.2","0.8","","","","","0.1761014763","0.003279238457","0.2779325162","0.7639548597","","","","","","","","76","L","3","","","54","main_expt",""
"","bandit","134","412357","0.0-95.0-0.0","01468037","wem/bandit_either_3","A1YBZWXXW358IF","either","5","908","","","","","","","1","0","0","0.7264154962","","0.6","0.4","0.2","0.8","","","","","0.1460392243","0.001847339967","0.2882189161","0.7264154962","","","","","","","","76","L","3","","","55","main_expt",""
"","bandit","135","414717","0.0-96.0-0.0","01468037","wem/bandit_either_3","A1YBZWXXW358IF","either","5","820","","","","","","","1","0","0","0.7511403137","","0.6","0.4","0.2","0.8","","","","","0.1882527018","0.001186331615","0.2646822794","0.7511403137","","","","","","","","76","L","3","","","56","main_expt",""
"","bandit","136","417075","0.0-97.0-0.0","01468037","wem/bandit_either_3","A1YBZWXXW358IF","either","5","825","","","","","","","0","0","1","0.6292194553","","0.6","0.4","0.2","0.8","","","","","0.1836596221","0.001917609755","0.3080117871","0.6292194553","","","","","","","","76","L","3","","","57","main_expt",""
"","bandit","137","419195","0.0-98.0-0.0","01468037","wem/bandit_either_3","A1YBZWXXW358IF","either","5","584","","","","","","","1","0","0","0.5622591622","","0.6","0.4","0.2","0.8","","","","","0.2259562874","0.004115025419","0.2609020091","0.5622591622","","","","","","","","76","L","3","","","58","main_expt",""
"","bandit","138","421545","0.0-99.0-0.0","01468037","wem/bandit_either_3","A1YBZWXXW358IF","either","5","814","","","","","","","1","0","0","0.6394190939","","0.6","0.4","0.2","0.8","","","","","0.1673227733","0.007083433589","0.3014652953","0.6394190939","","","","","","","","76","L","3","","","59","main_expt",""
"","bandit","139","423813","0.0-100.0-0.0","01468037","wem/bandit_either_3","A1YBZWXXW358IF","either","5","733","","","","","","","0","1","0","","0.502148976","0.6","0.4","0.2","0.8","0.1404143731","0.0100473459","0.2872544729","0.502148976","","","","","","","","","","","","76","L","3","","","60","main_expt",""
"","bandit","140","426130","0.0-101.0-0.0","01468037","wem/bandit_either_3","A1YBZWXXW358IF","either","5","774","","","","","","","0","0","1","0.5541662771","","0.6","0.4","0.2","0.8","","","","","0.1087230511","0.02288810402","0.2347068593","0.5541662771","","","","","","","","76","L","3","","","61","main_expt",""
"","bandit","141","428408","0.0-102.0-0.0","01468037","wem/bandit_either_3","A1YBZWXXW358IF","either","5","750","","","","","","","1","0","0","0.6016144889","","0.6","0.4","0.2","0.8","","","","","0.1173770395","0.04890713094","0.1786743828","0.6016144889","","","","","","","","76","L","3","","","62","main_expt",""
"","bandit","142","430873","0.0-103.0-0.0","01468037","wem/bandit_either_3","A1YBZWXXW358IF","either","5","932","","","","","","","1","0","0","0.6306423252","","0.6","0.4","0.2","0.8","","","","","0.1173961002","0.06015841579","0.1627017484","0.6306423252","","","","","","","","76","L","3","","","63","main_expt",""
"","bandit","143","433242","0.0-104.0-0.0","01468037","wem/bandit_either_3","A1YBZWXXW358IF","either","5","840","","","","","","","1","0","0","0.5963496952","","0.6","0.4","0.2","0.8","","","","","0.1093057248","0.0697324588","0.2220220934","0.5963496952","","","","","","","","76","L","3","","","64","main_expt",""
"","bandit","144","435747","0.0-105.0-0.0","01468037","wem/bandit_either_3","A1YBZWXXW358IF","either","5","959","","","","","","","1","0","0","0.5835424673","","0.6","0.4","0.2","0.8","","","","","0.1437581537","0.03955641554","0.1387290973","0.5835424673","","","","","","","","76","L","3","","","65","main_expt",""
"","bandit","145","438162","0.0-106.0-0.0","01468037","wem/bandit_either_3","A1YBZWXXW358IF","either","5","870","","","","","","","0","0","1","0.5789137396","","0.6","0.4","0.2","0.8","","","","","0.1321246006","0.04104317144","0.1481952943","0.5789137396","","","","","","","","76","L","3","","","66","main_expt",""
"","bandit","146","440339","0.0-107.0-0.0","01468037","wem/bandit_either_3","A1YBZWXXW358IF","either","5","639","","","","","","","0","0","1","0.6503196648","","0.6","0.4","0.2","0.8","","","","","0.1441415222","0.07749417123","0.1354395346","0.6503196648","","","","","","","","76","L","3","","","67","main_expt",""
"","bandit","147","442541","0.0-108.0-0.0","01468037","wem/bandit_either_3","A1YBZWXXW358IF","either","5","672","","","","","","","1","0","0","0.7295955131","","0.6","0.4","0.2","0.8","","","","","0.1794787892","0.1606162296","0.09431815687","0.7295955131","","","","","","","","76","L","3","","","68","main_expt",""
"","bandit","148","444815","0.0-109.0-0.0","01468037","wem/bandit_either_3","A1YBZWXXW358IF","either","5","741","","","","","","","1","0","0","0.7924649224","","0.6","0.4","0.2","0.8","","","","","0.2467892919","0.1458723802","0.09491494314","0.7924649224","","","","","","","","76","L","3","","","69","main_expt",""
"","bandit","149","447081","0.0-110.0-0.0","01468037","wem/bandit_either_3","A1YBZWXXW358IF","either","5","723","","","","","","","0","0","1","0.7104550926","","0.6","0.4","0.2","0.8","","","","","0.2683381141","0.09936082334","0.144379617","0.7104550926","","","","","","","","76","L","3","","","70","main_expt",""
"","bandit","150","450723","0.0-111.0-0.0","01468037","wem/bandit_either_3","A1YBZWXXW358IF","either","5","2128","","","","","","","0","0","1","0.6350436987","","0.6","0.4","0.2","0.8","","","","","0.3513633517","0.08487306657","0.1522740794","0.6350436987","","","","","","","","76","L","3","","","71","main_expt",""
"","bandit","151","453043","0.0-112.0-0.0","01468037","wem/bandit_either_3","A1YBZWXXW358IF","either","5","779","","","","","","","1","0","0","0.5987872161","","0.6","0.4","0.2","0.8","","","","","0.2914052368","0.08819471669","0.1668466162","0.5987872161","","","","","","","","76","L","3","","","72","main_expt",""
"","bandit","152","455569","0.0-113.0-0.0","01468037","wem/bandit_either_3","A1YBZWXXW358IF","either","5","1000","","","","","","","0","1","0","","0.5985066563","0.6","0.4","0.2","0.8","0.2877488323","0.1283432424","0.1896474075","0.5985066563","","","","","","","","","","","","76","L","3","","","73","main_expt",""
"","bandit","153","458095","0.0-114.0-0.0","01468037","wem/bandit_either_3","A1YBZWXXW358IF","either","5","986","","","","","","","0","0","1","","0.6384302553","0.6","0.4","0.2","0.8","0.2562899571","0.09379917772","0.2374421278","0.6384302553","","","","","","","","","","","","76","L","3","","","74","main_expt",""
"","bandit","154","460490","0.0-115.0-0.0","01468037","wem/bandit_either_3","A1YBZWXXW358IF","either","5","849","","","","","","","0","0","1","0.5658832615","","0.6","0.4","0.2","0.8","","","","","0.2733605005","0.09049970266","0.2083661751","0.5658832615","","","","","","","","76","L","3","","","75","main_expt",""
"","bandit","155","462917","0.0-116.0-0.0","01468037","wem/bandit_either_3","A1YBZWXXW358IF","either","5","902","","","","","","","1","0","0","0.6242699585","","0.6","0.4","0.2","0.8","","","","","0.3937912108","0.08721668036","0.2438220339","0.6242699585","","","","","","","","76","L","3","","","76","main_expt",""
"","bandit","156","465521","0.0-117.0-0.0","01468037","wem/bandit_either_3","A1YBZWXXW358IF","either","5","1082","","","","","","","1","0","0","0.5744400186","","0.6","0.4","0.2","0.8","","","","","0.2317864895","0.06435523183","0.2688374605","0.5744400186","","","","","","","","76","L","3","","","77","main_expt",""
"","bandit","157","467887","0.0-118.0-0.0","01468037","wem/bandit_either_3","A1YBZWXXW358IF","either","5","850","","","","","","","0","0","1","","0.5888420407","0.6","0.4","0.2","0.8","0.1809738678","0.0482567949","0.354885782","0.5888420407","","","","","","","","","","","","76","L","3","","","78","main_expt",""
"","bandit","158","470100","0.0-119.0-0.0","01468037","wem/bandit_either_3","A1YBZWXXW358IF","either","5","673","","","","","","","1","0","0","0.6367332082","","0.6","0.4","0.2","0.8","","","","","0.1139783564","0.0437210955","0.3618930149","0.6367332082","","","","","","","","76","L","3","","","79","main_expt",""
"","bandit","159","472641","0.0-120.0-0.0","01468037","wem/bandit_either_3","A1YBZWXXW358IF","either","5","1017","","","","","","","0","0","1","","0.6870764151","0.6","0.4","0.2","0.8","0.08785846653","0.02877808334","0.2656346555","0.6870764151","","","","","","","","","","","","76","L","3","","","80","main_expt",""
"","bandit","160","475609","0.0-121.0-0.0","01468037","wem/bandit_either_3","A1YBZWXXW358IF","either","5","1440","","","","","","","0","1","0","","0.594282643","0.6","0.4","0.2","0.8","0.09113866108","0.01921293631","0.4245431589","0.594282643","","","","","","","","","","","","76","L","3","","","81","main_expt",""
"","bandit","161","478098","0.0-122.0-0.0","01468037","wem/bandit_either_3","A1YBZWXXW358IF","either","5","943","","","","","","","1","0","0","0.6134463007","","0.6","0.4","0.2","0.8","","","","","0.1055231707","0.04933803159","0.4469352605","0.6134463007","","","","","","","","76","L","3","","","82","main_expt",""
"","bandit","162","480597","0.0-123.0-0.0","01468037","wem/bandit_either_3","A1YBZWXXW358IF","either","5","964","","","","","","","0","0","1","","0.573719985","0.6","0.4","0.2","0.8","0.09865920741","0.03134335394","0.4492602846","0.573719985","","","","","","","","","","","","76","L","3","","","83","main_expt",""
"","bandit","163","482629","0.0-124.0-0.0","01468037","wem/bandit_either_3","A1YBZWXXW358IF","either","5","484","","","","","","","0","1","0","","0.5666188995","0.6","0.4","0.2","0.8","0.06745845416","0.08181594064","0.4800113203","0.5666188995","","","","","","","","","","","","76","L","3","","","84","main_expt",""
"","bandit","164","485083","0.0-125.0-0.0","01468037","wem/bandit_either_3","A1YBZWXXW358IF","either","5","924","","","","","","","0","1","0","","0.5161506384","0.6","0.4","0.2","0.8","0.05723787215","0.09326949564","0.53417275","0.5161506384","","","","","","","","","","","","76","L","3","","","85","main_expt",""
"","bandit","165","488186","0.0-126.0-0.0","01468037","wem/bandit_either_3","A1YBZWXXW358IF","either","5","1579","","","","","","","0","0","1","0.04283717318","","0.6","0.4","0.2","0.8","","","","","0.04283717318","0.1365856799","0.4431594274","0.4408304524","","","","","","","","72","H","0","img/none_selected.jpg","","86","main_expt",""
"","bandit","166","490292","0.0-127.0-0.0","01468037","wem/bandit_either_3","A1YBZWXXW358IF","either","5","579","","","","","","","0","0","1","0.04801612347","","0.6","0.4","0.2","0.8","","","","","0.04801612347","0.1845868617","0.4135642243","0.4926691315","","","","","","","","72","H","0","img/none_selected.jpg","","87","main_expt",""
"","bandit","167","492652","0.0-128.0-0.0","01468037","wem/bandit_either_3","A1YBZWXXW358IF","either","5","821","","","","","","","0","0","1","","0.1154775412","0.6","0.4","0.2","0.8","0.1154775412","0.2304222619","0.4785462387","0.6047228172","","","","","","","","","","","","72","H","0","img/none_selected.jpg","","88","main_expt",""
"","bandit","168","494720","0.0-129.0-0.0","01468037","wem/bandit_either_3","A1YBZWXXW358IF","either","5","521","","","","","","","0","0","1","0.1408060154","","0.6","0.4","0.2","0.8","","","","","0.1308375778","0.1408060154","0.6395163219","0.5311406509","","","","","","","","74","J","1","","","89","main_expt",""
"","bandit","169","496744","0.0-130.0-0.0","01468037","wem/bandit_either_3","A1YBZWXXW358IF","either","5","471","","","","","","","0","0","1","","0.1870966622","0.6","0.4","0.2","0.8","0.07282967421","0.1870966622","0.6143207643","0.6262376813","","","","","","","","","","","","74","J","1","","","90","main_expt",""
"","bandit","170","498776","0.0-131.0-0.0","01468037","wem/bandit_either_3","A1YBZWXXW358IF","either","5","495","","","","","","","0","0","1","0.446485487","","0.6","0.4","0.2","0.8","","","","","0.07599207753","0.192698437","0.446485487","0.690423555","","","","","","","","75","K","2","","","91","main_expt",""
"","bandit","171","501042","0.0-132.0-0.0","01468037","wem/bandit_either_3","A1YBZWXXW358IF","either","5","734","","","","","","","0","0","1","0.6517149298","","0.6","0.4","0.2","0.8","","","","","0.04323911508","0.1683480261","0.5169677416","0.6517149298","","","","","","","","76","L","3","","","92","main_expt",""
"","bandit","172","503012","0.0-133.0-0.0","01468037","wem/bandit_either_3","A1YBZWXXW358IF","either","5","443","","","","","","","1","0","0","0.5656193004","","0.6","0.4","0.2","0.8","","","","","0.04253576945","0.1330499919","0.4242737166","0.5656193004","","","","","","","","76","L","3","","","93","main_expt",""
"","bandit","173","505145","0.0-134.0-0.0","01468037","wem/bandit_either_3","A1YBZWXXW358IF","either","5","587","","","","","","","1","0","0","0.4344563295","","0.6","0.4","0.2","0.8","","","","","0.04534385772","0.1880917327","0.3479993201","0.4344563295","","","","","","","","76","L","3","","","94","main_expt",""
"","bandit","174","507207","0.0-135.0-0.0","01468037","wem/bandit_either_3","A1YBZWXXW358IF","either","5","531","","","","","","","0","0","1","","0.5651083109","0.6","0.4","0.2","0.8","0.03318992591","0.1867575465","0.3701135783","0.5651083109","","","","","","","","","","","","76","L","3","","","95","main_expt",""
"","bandit","175","509378","0.0-136.0-0.0","01468037","wem/bandit_either_3","A1YBZWXXW358IF","either","5","618","","","","","","","0","0","1","","0.5348041914","0.6","0.4","0.2","0.8","0.03408771876","0.2231999883","0.3430407586","0.5348041914","","","","","","","","","","","","76","L","3","","","96","main_expt",""
"","bandit","176","511416","0.0-137.0-0.0","01468037","wem/bandit_either_3","A1YBZWXXW358IF","either","5","497","","","","","","","0","0","1","0.5627844697","","0.6","0.4","0.2","0.8","","","","","0.05013144164","0.2149045243","0.2876443713","0.5627844697","","","","","","","","76","L","3","","","97","main_expt",""
"","bandit","177","513701","0.0-138.0-0.0","01468037","wem/bandit_either_3","A1YBZWXXW358IF","either","5","750","","","","","","","0","0","1","0.6177525637","","0.6","0.4","0.2","0.8","","","","","0.03739082544","0.1963416079","0.3310412313","0.6177525637","","","","","","","","76","L","3","","","98","main_expt",""
"","bandit","178","515910","0.0-139.0-0.0","01468037","wem/bandit_either_3","A1YBZWXXW358IF","either","5","673","","","","","","","0","1","0","","0.7429557604","0.6","0.4","0.2","0.8","0.1018336486","0.1659387142","0.3893078888","0.7429557604","","","","","","","","","","","","76","L","3","","","99","main_expt",""
"","bandit","179","517995","0.0-140.0-0.0","01468037","wem/bandit_either_3","A1YBZWXXW358IF","either","5","551","","","","","","","0","0","1","0.6717563967","","0.6","0.4","0.2","0.8","","","","","0.1398961818","0.145948344","0.4049224607","0.6717563967","","","","","","","","76","L","3","","","100","main_expt",""
"","bandit","180","520164","0.0-141.0-0.0","01468037","wem/bandit_either_3","A1YBZWXXW358IF","either","5","620","","","","","","","1","0","0","0.6929666651","","0.6","0.4","0.2","0.8","","","","","0.1830356504","0.1366695263","0.3259939159","0.6929666651","","","","","","","","76","L","3","","","101","main_expt",""
"","bandit","181","522271","0.0-142.0-0.0","01468037","wem/bandit_either_3","A1YBZWXXW358IF","either","5","587","","","","","","","1","0","0","0.6827494989","","0.6","0.4","0.2","0.8","","","","","0.1396005595","0.1543059156","0.3598161211","0.6827494989","","","","","","","","76","L","3","","","102","main_expt",""
"","bandit","182","524457","0.0-143.0-0.0","01468037","wem/bandit_either_3","A1YBZWXXW358IF","either","5","650","","","","","","","1","0","0","0.7315485361","","0.6","0.4","0.2","0.8","","","","","0.0853830874","0.1484193465","0.3385951472","0.7315485361","","","","","","","","76","L","3","","","103","main_expt",""
"","bandit","183","526861","0.0-144.0-0.0","01468037","wem/bandit_either_3","A1YBZWXXW358IF","either","5","856","","","","","","","0","1","0","","0.6852971926","0.6","0.4","0.2","0.8","0.09317924201","0.1516288854","0.4881545817","0.6852971926","","","","","","","","","","","","76","L","3","","","104","main_expt",""
"","bandit","184","529088","0.0-145.0-0.0","01468037","wem/bandit_either_3","A1YBZWXXW358IF","either","5","680","","","","","","","1","0","0","0.693594393","","0.6","0.4","0.2","0.8","","","","","0.08203708102","0.1283123627","0.4790883063","0.693594393","","","","","","","","76","L","3","","","105","main_expt",""
"","bandit","185","531683","0.0-146.0-0.0","01468037","wem/bandit_either_3","A1YBZWXXW358IF","either","5","1062","","","","","","","0","0","1","0.6101065231","","0.6","0.4","0.2","0.8","","","","","0.07160056992","0.2016068708","0.4354998123","0.6101065231","","","","","","","","76","L","3","","","106","main_expt",""
"","bandit","186","533773","0.0-147.0-0.0","01468037","wem/bandit_either_3","A1YBZWXXW358IF","either","5","558","","","","","","","1","0","0","0.5549317608","","0.6","0.4","0.2","0.8","","","","","0.09799112372","0.2344181992","0.4789065637","0.5549317608","","","","","","","","76","L","3","","","107","main_expt",""
"","bandit","187","536095","0.0-148.0-0.0","01468037","wem/bandit_either_3","A1YBZWXXW358IF","either","5","788","","","","","","","1","0","0","0.5753690117","","0.6","0.4","0.2","0.8","","","","","0.1101799882","0.2234564856","0.2921896665","0.5753690117","","","","","","","","76","L","3","","","108","main_expt",""
"","bandit","188","538303","0.0-149.0-0.0","01468037","wem/bandit_either_3","A1YBZWXXW358IF","either","5","689","","","","","","","0","0","1","0.5748544728","","0.6","0.4","0.2","0.8","","","","","0.07189968831","0.2494485671","0.3545905428","0.5748544728","","","","","","","","76","L","3","","","109","main_expt",""
"","bandit","189","540380","0.0-150.0-0.0","01468037","wem/bandit_either_3","A1YBZWXXW358IF","either","5","542","","","","","","","0","1","0","","0.6473038793","0.6","0.4","0.2","0.8","0.06101418375","0.2804015825","0.3110769573","0.6473038793","","","","","","","","","","","","76","L","3","","","110","main_expt",""
"","bandit","190","542700","0.0-151.0-0.0","01468037","wem/bandit_either_3","A1YBZWXXW358IF","either","5","793","","","","","","","1","0","0","0.6296147118","","0.6","0.4","0.2","0.8","","","","","0.1032726654","0.254644275","0.3673577619","0.6296147118","","","","","","","","76","L","3","","","111","main_expt",""
"","bandit","191","545192","0.0-152.0-0.0","01468037","wem/bandit_either_3","A1YBZWXXW358IF","either","5","945","","","","","","","0","0","1","0.6174722021","","0.6","0.4","0.2","0.8","","","","","0.1061240248","0.2686709136","0.3439961468","0.6174722021","","","","","","","","76","L","3","","","112","main_expt",""
"","bandit","192","547750","0.0-153.0-0.0","01468037","wem/bandit_either_3","A1YBZWXXW358IF","either","5","1024","","","","","","","0","0","1","","0.7467975424","0.6","0.4","0.2","0.8","0.1150632514","0.3211503982","0.3389202036","0.7467975424","","","","","","","","","","","","76","L","3","","","113","main_expt",""
"","bandit","193","550011","0.0-154.0-0.0","01468037","wem/bandit_either_3","A1YBZWXXW358IF","either","5","716","","","","","","","0","1","0","","0.7797220863","0.6","0.4","0.2","0.8","0.1491479201","0.3067152309","0.3122185675","0.7797220863","","","","","","","","","","","","76","L","3","","","114","main_expt",""
"","bandit","194","552171","0.0-155.0-0.0","01468037","wem/bandit_either_3","A1YBZWXXW358IF","either","5","618","","","","","","","0","1","0","","0.8152411921","0.6","0.4","0.2","0.8","0.08304421353","0.3274584286","0.2431064996","0.8152411921","","","","","","","","","","","","76","L","3","","","115","main_expt",""
"","bandit","195","554534","0.0-156.0-0.0","01468037","wem/bandit_either_3","A1YBZWXXW358IF","either","5","824","","","","","","","0","0","1","0.7362727539","","0.6","0.4","0.2","0.8","","","","","0.1391191417","0.2491959293","0.2225404561","0.7362727539","","","","","","","","76","L","3","","","116","main_expt",""
"","bandit","196","556729","0.0-157.0-0.0","01468037","wem/bandit_either_3","A1YBZWXXW358IF","either","5","661","","","","","","","1","0","0","0.7051771602","","0.6","0.4","0.2","0.8","","","","","0.1689833708","0.1425156065","0.2891792411","0.7051771602","","","","","","","","76","L","3","","","117","main_expt",""
"","bandit","197","559312","0.0-158.0-0.0","01468037","wem/bandit_either_3","A1YBZWXXW358IF","either","5","1051","","","","","","","1","0","0","0.7099604309","","0.6","0.4","0.2","0.8","","","","","0.1341186766","0.1550025764","0.3147139712","0.7099604309","","","","","","","","76","L","3","","","118","main_expt",""
"","bandit","198","561644","0.0-159.0-0.0","01468037","wem/bandit_either_3","A1YBZWXXW358IF","either","5","789","","","","","","","1","0","0","0.6633752461","","0.6","0.4","0.2","0.8","","","","","0.1211065448","0.1733664784","0.4890071061","0.6633752461","","","","","","","","76","L","3","","","119","main_expt",""
"","bandit","199","563782","0.0-160.0-0.0","01468037","wem/bandit_either_3","A1YBZWXXW358IF","either","5","601","","","","","","","1","0","0","0.6748815414","","0.6","0.4","0.2","0.8","","","","","0.1317257861","0.2091577514","0.5238994176","0.6748815414","","","","","","","","76","L","3","","","120","main_expt",""
"","bandit","200","566294","0.0-161.0-0.0","01468037","wem/bandit_either_3","A1YBZWXXW358IF","either","5","976","","","","","","","0","1","0","","0.694041989","0.6","0.4","0.2","0.8","0.08851148741","0.2038206067","0.4821854017","0.694041989","","","","","","","","","","","","76","L","3","","","121","main_expt",""
"","bandit","201","568437","0.0-162.0-0.0","01468037","wem/bandit_either_3","A1YBZWXXW358IF","either","5","593","","","","","","","1","0","0","0.7808088803","","0.6","0.4","0.2","0.8","","","","","0.1313095228","0.1646827865","0.5695824443","0.7808088803","","","","","","","","76","L","3","","","122","main_expt",""
"","bandit","202","570765","0.0-163.0-0.0","01468037","wem/bandit_either_3","A1YBZWXXW358IF","either","5","801","","","","","","","1","0","0","0.7513243775","","0.6","0.4","0.2","0.8","","","","","0.1990721176","0.08951947698","0.5884468641","0.7513243775","","","","","","","","76","L","3","","","123","main_expt",""
"","bandit","203","573127","0.0-164.0-0.0","01468037","wem/bandit_either_3","A1YBZWXXW358IF","either","5","817","","","","","","","1","0","0","0.7095593687","","0.6","0.4","0.2","0.8","","","","","0.3510587203","0.09676311751","0.6578864121","0.7095593687","","","","","","","","76","L","3","","","124","main_expt",""
"","bandit","204","575306","0.0-165.0-0.0","01468037","wem/bandit_either_3","A1YBZWXXW358IF","either","5","650","","","","","","","1","0","0","0.6464373278","","0.6","0.4","0.2","0.8","","","","","0.2829787335","0.08914634913","0.6610648035","0.6464373278","","","","","","","","76","L","3","","","125","main_expt",""
"","bandit","205","577447","0.0-166.0-0.0","01468037","wem/bandit_either_3","A1YBZWXXW358IF","either","5","613","","","","","","","0","0","1","0.69855693","","0.6","0.4","0.2","0.8","","","","","0.3253732313","0.1104844084","0.6745370829","0.69855693","","","","","","","","76","L","3","","","126","main_expt",""
"","bandit","206","579521","0.0-167.0-0.0","01468037","wem/bandit_either_3","A1YBZWXXW358IF","either","5","515","","","","","","","1","0","0","0.6394960802","","0.6","0.4","0.2","0.8","","","","","0.2969307539","0.1302598269","0.6357656308","0.6394960802","","","","","","","","76","L","3","","","127","main_expt",""
"","bandit","207","581728","0.0-168.0-0.0","01468037","wem/bandit_either_3","A1YBZWXXW358IF","either","5","668","","","","","","","0","1","0","","0.5912569563","0.6","0.4","0.2","0.8","0.3862322559","0.1739983423","0.6746479632","0.5912569563","","","","","","","","","","","","76","L","3","","","128","main_expt",""
"","bandit","208","584064","0.0-169.0-0.0","01468037","wem/bandit_either_3","A1YBZWXXW358IF","either","5","795","","","","","","","1","0","0","0.6408154383","","0.6","0.4","0.2","0.8","","","","","0.3399993615","0.2144078185","0.609360971","0.6408154383","","","","","","","","76","L","3","","","129","main_expt",""
"","bandit","209","586440","0.0-170.0-0.0","01468037","wem/bandit_either_3","A1YBZWXXW358IF","either","5","830","","","","","","","1","0","0","0.6160079471","","0.6","0.4","0.2","0.8","","","","","0.4343217783","0.2133227205","0.5791775941","0.6160079471","","","","","","","","76","L","3","","","130","main_expt",""
"","bandit","210","588878","0.0-171.0-0.0","01468037","wem/bandit_either_3","A1YBZWXXW358IF","either","5","896","","","","","","","1","0","0","0.6639311205","","0.6","0.4","0.2","0.8","","","","","0.4116870082","0.3009586135","0.6039133906","0.6639311205","","","","","","","","76","L","3","","","131","main_expt",""
"","bandit","211","591323","0.0-172.0-0.0","01468037","wem/bandit_either_3","A1YBZWXXW358IF","either","5","906","","","","","","","1","0","0","0.7314418876","","0.6","0.4","0.2","0.8","","","","","0.3235444519","0.3257006372","0.5564977279","0.7314418876","","","","","","","","76","L","3","","","132","main_expt",""
"","bandit","212","593670","0.0-173.0-0.0","01468037","wem/bandit_either_3","A1YBZWXXW358IF","either","5","813","","","","","","","0","1","0","","0.7343064015","0.6","0.4","0.2","0.8","0.4204005917","0.3286432436","0.5453182718","0.7343064015","","","","","","","","","","","","76","L","3","","","133","main_expt",""
"","bandit","213","596085","0.0-174.0-0.0","01468037","wem/bandit_either_3","A1YBZWXXW358IF","either","5","880","","","","","","","0","0","1","","0.6345074403","0.6","0.4","0.2","0.8","0.5326734174","0.3343575241","0.5557967555","0.6345074403","","","","","","","","","","","","76","L","3","","","134","main_expt",""
"","bandit","214","598318","0.0-175.0-0.0","01468037","wem/bandit_either_3","A1YBZWXXW358IF","either","5","685","","","","","","","0","0","1","0.752921597","","0.6","0.4","0.2","0.8","","","","","0.6096825818","0.2917270645","0.5719827955","0.752921597","","","","","","","","76","L","3","","","135","main_expt",""
"","bandit","215","600505","0.0-176.0-0.0","01468037","wem/bandit_either_3","A1YBZWXXW358IF","either","5","644","","","","","","","1","0","0","0.7642539739","","0.6","0.4","0.2","0.8","","","","","0.6827328332","0.3972485531","0.4756276611","0.7642539739","","","","","","","","76","L","3","","","136","main_expt",""
"","bandit","216","602905","0.0-177.0-0.0","01468037","wem/bandit_either_3","A1YBZWXXW358IF","either","5","859","","","","","","","1","0","0","0.7166238274","","0.6","0.4","0.2","0.8","","","","","0.6604068036","0.4294090248","0.5078949877","0.7166238274","","","","","","","","76","L","3","","","137","main_expt",""
"","bandit","217","605405","0.0-178.0-0.0","01468037","wem/bandit_either_3","A1YBZWXXW358IF","either","5","955","","","","","","","0","1","0","","0.713549589","0.6","0.4","0.2","0.8","0.653661868","0.5009988565","0.4938131475","0.713549589","","","","","","","","","","","","76","L","3","","","138","main_expt",""
"","bandit","218","607922","0.0-179.0-0.0","01468037","wem/bandit_either_3","A1YBZWXXW358IF","either","5","977","","","","","","","0","0","1","0.6905374229","","0.6","0.4","0.2","0.8","","","","","0.6169918179","0.4993746949","0.654612375","0.6905374229","","","","","","","","76","L","3","","","139","main_expt",""
"","bandit","219","609954","0.0-180.0-0.0","01468037","wem/bandit_either_3","A1YBZWXXW358IF","either","5","482","","","","","","","1","0","0","0.6614813372","","0.6","0.4","0.2","0.8","","","","","0.6657435074","0.5448973659","0.52663091","0.6614813372","","","","","","","","76","L","3","","","140","main_expt",""
"","bandit","220","612098","0.0-181.0-0.0","01468037","wem/bandit_either_3","A1YBZWXXW358IF","either","5","614","","","","","","","1","0","0","0.7024355817","","0.6","0.4","0.2","0.8","","","","","0.6349341703","0.4829720837","0.5976356642","0.7024355817","","","","","","","","76","L","3","","","141","main_expt",""
"","bandit","221","614559","0.0-182.0-0.0","01468037","wem/bandit_either_3","A1YBZWXXW358IF","either","5","938","","","","","","","1","0","0","0.7185929435","","0.6","0.4","0.2","0.8","","","","","0.6379356982","0.5402580016","0.5956183516","0.7185929435","","","","","","","","76","L","3","","","142","main_expt",""
"","bandit","222","617094","0.0-183.0-0.0","01468037","wem/bandit_either_3","A1YBZWXXW358IF","either","5","998","","","","","","","1","0","0","0.6240660549","","0.6","0.4","0.2","0.8","","","","","0.6022688156","0.5478015274","0.6432894639","0.6240660549","","","","","","","","76","L","3","","","143","main_expt",""
"","bandit","223","619560","0.0-184.0-0.0","01468037","wem/bandit_either_3","A1YBZWXXW358IF","either","5","918","","","","","","","0","0","1","0.5797935966","","0.6","0.4","0.2","0.8","","","","","0.5806731621","0.5189832842","0.6691106198","0.5797935966","","","","","","","","76","L","3","","","144","main_expt",""
"","bandit","224","621618","0.0-185.0-0.0","01468037","wem/bandit_either_3","A1YBZWXXW358IF","either","5","516","","","","","","","1","0","0","0.520403766","","0.6","0.4","0.2","0.8","","","","","0.5512406412","0.4556604905","0.677031803","0.520403766","","","","","","","","76","L","3","","","145","main_expt",""
"","bandit","225","623976","0.0-186.0-0.0","01468037","wem/bandit_either_3","A1YBZWXXW358IF","either","5","809","","","","","","","0","0","1","0.5330345992","","0.6","0.4","0.2","0.8","","","","","0.6055708535","0.48011385","0.6697886415","0.5330345992","","","","","","","","76","L","3","","","146","main_expt",""
"","bandit","226","626111","0.0-187.0-0.0","01468037","wem/bandit_either_3","A1YBZWXXW358IF","either","5","595","","","","","","","0","0","1","0.5692896821","","0.6","0.4","0.2","0.8","","","","","0.5711328773","0.5363471167","0.7101623398","0.5692896821","","","","","","","","76","L","3","","","147","main_expt",""
"","bandit","227","628214","0.0-188.0-0.0","01468037","wem/bandit_either_3","A1YBZWXXW358IF","either","5","561","","","","","","","1","0","0","0.4877368026","","0.6","0.4","0.2","0.8","","","","","0.4258462921","0.4929714004","0.733230793","0.4877368026","","","","","","","","76","L","3","","","148","main_expt",""
"","bandit","228","630527","0.0-189.0-0.0","01468037","wem/bandit_either_3","A1YBZWXXW358IF","either","5","751","","","","","","","1","0","0","0.5936336812","","0.6","0.4","0.2","0.8","","","","","0.327967402","0.4356177925","0.7010449773","0.5936336812","","","","","","","","76","L","3","","","149","main_expt",""
"","bandit","229","632653","0.0-190.0-0.0","01468037","wem/bandit_either_3","A1YBZWXXW358IF","either","5","581","","","","","","","1","0","0","0.7027445866","","0.6","0.4","0.2","0.8","","","","","0.4343474627","0.4054894896","0.6668672445","0.7027445866","","","","","","","","76","L","3","","","150","main_expt",""
"","bandit","230","634981","0.0-191.0-0.0","01468037","wem/bandit_either_3","A1YBZWXXW358IF","either","5","798","","","","","","","0","1","0","","0.7690633033","0.6","0.4","0.2","0.8","0.5382828223","0.5283130311","0.5612636021","0.7690633033","","","","","","","","","","","","76","L","3","","","151","main_expt",""
"","bandit","231","637346","0.0-192.0-0.0","01468037","wem/bandit_either_3","A1YBZWXXW358IF","either","5","841","","","","","","","0","0","1","","0.5989969619","0.6","0.4","0.2","0.8","0.6572277468","0.6323123958","0.7032448324","0.5989969619","","","","","","","","","","","","76","L","3","","","152","main_expt",""
"","bandit","232","639559","0.0-193.0-0.0","01468037","wem/bandit_either_3","A1YBZWXXW358IF","either","5","656","","","","","","","1","0","0","0.6126787421","","0.6","0.4","0.2","0.8","","","","","0.668560183","0.5847243132","0.6918543646","0.6126787421","","","","","","","","76","L","3","","","153","main_expt",""
"","bandit","233","642156","0.0-194.0-0.0","01468037","wem/bandit_either_3","A1YBZWXXW358IF","either","5","1048","","","","","","","0","0","1","0.5461115941","","0.6","0.4","0.2","0.8","","","","","0.6954524596","0.4285456013","0.647195156","0.5461115941","","","","","","","","76","L","3","","","154","main_expt",""
"","bandit","234","644317","0.0-195.0-0.0","01468037","wem/bandit_either_3","A1YBZWXXW358IF","either","5","621","","","","","","","0","0","1","0.5456348337","","0.6","0.4","0.2","0.8","","","","","0.5684527538","0.4772645207","0.6135998722","0.5456348337","","","","","","","","76","L","3","","","155","main_expt",""
"","bandit","235","646948","0.0-196.0-0.0","01468037","wem/bandit_either_3","A1YBZWXXW358IF","either","5","1098","","","","","","","0","0","1","0.4782917504","","0.6","0.4","0.2","0.8","","","","","0.6034375159","0.4982711843","0.5591033916","0.4782917504","","","","","","","","76","L","3","","","156","main_expt",""
"","bandit","236","649020","0.0-197.0-0.0","01468037","wem/bandit_either_3","A1YBZWXXW358IF","either","5","521","","","","","","","1","0","0","0.4868537485","","0.6","0.4","0.2","0.8","","","","","0.5835723018","0.5275183668","0.5090787948","0.4868537485","","","","","","","","76","L","3","","","157","main_expt",""
"","bandit","237","651317","0.0-198.0-0.0","01468037","wem/bandit_either_3","A1YBZWXXW358IF","either","5","747","","","","","","","1","0","0","0.5361642224","","0.6","0.4","0.2","0.8","","","","","0.5234712835","0.4489423754","0.6087372924","0.5361642224","","","","","","","","76","L","3","","","158","main_expt",""
"","bandit","238","653556","0.0-199.0-0.0","01468037","wem/bandit_either_3","A1YBZWXXW358IF","either","5","698","","","","","","","1","0","0","0.4947944436","","0.6","0.4","0.2","0.8","","","","","0.5636881177","0.4933275403","0.6064578463","0.4947944436","","","","","","","","76","L","3","","","159","main_expt",""
"","bandit","239","655946","0.0-200.0-0.0","01468037","wem/bandit_either_3","A1YBZWXXW358IF","either","5","855","","","","","","","1","0","0","0.5106889885","","0.6","0.4","0.2","0.8","","","","","0.4785340868","0.4521998099","0.6951258233","0.5106889885","","","","","","","","76","L","3","","","160","main_expt",""
"","bandit","240","658357","0.0-201.0-0.0","01468037","wem/bandit_either_3","A1YBZWXXW358IF","either","5","849","","","","","","","1","0","0","0.4566704777","","0.6","0.4","0.2","0.8","","","","","0.5038962889","0.5114636712","0.7129510734","0.4566704777","","","","","","","","76","L","3","","","161","main_expt",""
"","bandit","241","660712","0.0-202.0-0.0","01468037","wem/bandit_either_3","A1YBZWXXW358IF","either","5","806","","","","","","","0","0","1","0.3259271754","","0.6","0.4","0.2","0.8","","","","","0.4448395692","0.5242674757","0.7028034005","0.3259271754","","","","","","","","76","L","3","","","162","main_expt",""
"","bandit","242","663104","0.0-203.0-0.0","01468037","wem/bandit_either_3","A1YBZWXXW358IF","either","5","843","","","","","","","0","0","1","","0.2806734392","0.6","0.4","0.2","0.8","0.471982621","0.5687322637","0.6293758899","0.2806734392","","","","","","","","","","","","76","L","3","","","163","main_expt",""
"","bandit","243","665317","0.0-204.0-0.0","01468037","wem/bandit_either_3","A1YBZWXXW358IF","either","5","654","","","","","","","0","0","1","","0.2973163189","0.6","0.4","0.2","0.8","0.6517066897","0.5635146256","0.6813427096","0.2973163189","","","","","","","","","","","","76","L","3","","","164","main_expt",""
"","bandit","244","667475","0.0-205.0-0.0","01468037","wem/bandit_either_3","A1YBZWXXW358IF","either","5","630","","","","","","","1","0","0","0.2872552927","","0.6","0.4","0.2","0.8","","","","","0.6339143586","0.6588968294","0.7231406025","0.2872552927","","","","","","","","76","L","3","","","165","main_expt",""
"","bandit","245","669865","0.0-206.0-0.0","01468037","wem/bandit_either_3","A1YBZWXXW358IF","either","5","858","","","","","","","0","1","0","","0.325395791","0.6","0.4","0.2","0.8","0.6507743373","0.74872254","0.6274448994","0.325395791","","","","","","","","","","","","76","L","3","","","166","main_expt",""
"","bandit","246","672385","0.0-207.0-0.0","01468037","wem/bandit_either_3","A1YBZWXXW358IF","either","5","969","","","","","","","0","1","0","","0.3307719744","0.6","0.4","0.2","0.8","0.6753437353","0.7741304825","0.6778384319","0.3307719744","","","","","","","","","","","","76","L","3","","","167","main_expt",""
"","bandit","247","674848","0.0-208.0-0.0","01468037","wem/bandit_either_3","A1YBZWXXW358IF","either","5","921","","","","","","","0","0","1","0.4033689778","","0.6","0.4","0.2","0.8","","","","","0.6308788189","0.8873722237","0.6928942004","0.4033689778","","","","","","","","76","L","3","","","168","main_expt",""
"","bandit","248","677135","0.0-209.0-0.0","01468037","wem/bandit_either_3","A1YBZWXXW358IF","either","5","749","","","","","","","0","0","1","0.4089274666","","0.6","0.4","0.2","0.8","","","","","0.6289357746","0.8649989169","0.6181376835","0.4089274666","","","","","","","","76","L","3","","","169","main_expt",""
"","bandit","249","679550","0.0-210.0-0.0","01468037","wem/bandit_either_3","A1YBZWXXW358IF","either","5","869","","","","","","","1","0","0","0.4033631647","","0.6","0.4","0.2","0.8","","","","","0.6308829817","0.8634323334","0.6539136718","0.4033631647","","","","","","","","76","L","3","","","170","main_expt",""
"","bandit","250","682087","0.0-211.0-0.0","01468037","wem/bandit_either_3","A1YBZWXXW358IF","either","5","998","","","","","","","0","0","1","0.3743415885","","0.6","0.4","0.2","0.8","","","","","0.6008061885","0.8050812792","0.7935188527","0.3743415885","","","","","","","","76","L","3","","","171","main_expt",""
"","bandit","251","684298","0.0-212.0-0.0","01468037","wem/bandit_either_3","A1YBZWXXW358IF","either","5","670","","","","","","","0","1","0","","0.4145867416","0.6","0.4","0.2","0.8","0.6498855282","0.7635000848","0.7959482017","0.4145867416","","","","","","","","","","","","76","L","3","","","172","main_expt",""
"","bandit","252","686609","0.0-213.0-0.0","01468037","wem/bandit_either_3","A1YBZWXXW358IF","either","5","757","","","","","","","1","0","0","0.4421490518","","0.6","0.4","0.2","0.8","","","","","0.6361658802","0.7793560846","0.7720377381","0.4421490518","","","","","","","","76","L","3","","","173","main_expt",""
"","bandit","253","689065","0.0-214.0-0.0","01468037","wem/bandit_either_3","A1YBZWXXW358IF","either","5","895","","","","","","","0","0","1","","0.373112653","0.6","0.4","0.2","0.8","0.5494915933","0.7290013271","0.7751150559","0.373112653","","","","","","","","","","","","76","L","3","","","174","main_expt",""
"","bandit","254","691438","0.0-215.0-0.0","01468037","wem/bandit_either_3","A1YBZWXXW358IF","either","5","818","","","","","","","1","0","0","0.372221374","","0.6","0.4","0.2","0.8","","","","","0.6292002022","0.8353873757","0.7699246652","0.372221374","","","","","","","","76","L","3","","","175","main_expt",""
"","bandit","255","693779","0.0-216.0-0.0","01468037","wem/bandit_either_3","A1YBZWXXW358IF","either","5","808","","","","","","","0","0","1","","0.3594456443","0.6","0.4","0.2","0.8","0.4999600136","0.8589437223","0.8092821718","0.3594456443","","","","","","","","","","","","76","L","3","","","176","main_expt",""
"","bandit","256","696135","0.0-217.0-0.0","01468037","wem/bandit_either_3","A1YBZWXXW358IF","either","5","805","","","","","","","0","0","1","0.3705823864","","0.6","0.4","0.2","0.8","","","","","0.4500304274","0.8824379228","0.7728258073","0.3705823864","","","","","","","","76","L","3","","","177","main_expt",""
"","bandit","257","698506","0.0-218.0-0.0","01468037","wem/bandit_either_3","A1YBZWXXW358IF","either","5","836","","","","","","","0","0","1","","0.3042584581","0.6","0.4","0.2","0.8","0.4626099748","0.8862787626","0.8128952128","0.3042584581","","","","","","","","","","","","76","L","3","","","178","main_expt",""
"","bandit","258","700766","0.0-219.0-0.0","01468037","wem/bandit_either_3","A1YBZWXXW358IF","either","5","711","","","","","","","1","0","0","0.3056645996","","0.6","0.4","0.2","0.8","","","","","0.3074659707","0.8851661012","0.7878088044","0.3056645996","","","","","","","","76","L","3","","","179","main_expt",""
"","bandit","259","703329","0.0-220.0-0.0","01468037","wem/bandit_either_3","A1YBZWXXW358IF","either","5","1025","","","","","","","1","0","0","0.3124458775","","0.6","0.4","0.2","0.8","","","","","0.2445312817","0.8623840347","0.7626215198","0.3124458775","","","","","","","","76","L","3","","","180","main_expt",""
"","bandit","260","705804","0.0-221.0-0.0","01468037","wem/bandit_either_3","A1YBZWXXW358IF","either","5","908","","","","","","","0","0","1","0.2597333415","","0.6","0.4","0.2","0.8","","","","","0.2284870313","0.8815853427","0.7059637017","0.2597333415","","","","","","","","76","L","3","","","181","main_expt",""
"","bandit","261","708135","0.0-222.0-0.0","01468037","wem/bandit_either_3","A1YBZWXXW358IF","either","5","785","","","","","","","0","0","1","0.2117009826","","0.6","0.4","0.2","0.8","","","","","0.2195648065","0.8955826305","0.6691747745","0.2117009826","","","","","","","","76","L","3","","","182","main_expt",""
"","bandit","262","710448","0.0-223.0-0.0","01468037","wem/bandit_either_3","A1YBZWXXW358IF","either","5","758","","","","","","","1","0","0","0.2327762041","","0.6","0.4","0.2","0.8","","","","","0.2327716204","0.9362873759","0.5523838876","0.2327762041","","","","","","","","76","L","3","","","183","main_expt",""
"","bandit","263","712765","0.0-224.0-0.0","01468037","wem/bandit_either_3","A1YBZWXXW358IF","either","5","778","","","","","","","0","0","1","0.2750618684","","0.6","0.4","0.2","0.8","","","","","0.3207903029","0.9484326647","0.5451875246","0.2750618684","","","","","","","","76","L","3","","","184","main_expt",""
"","bandit","264","715035","0.0-225.0-0.0","01468037","wem/bandit_either_3","A1YBZWXXW358IF","either","5","725","","","","","","","0","0","1","0.2305846964","","0.6","0.4","0.2","0.8","","","","","0.3609723674","0.9660783121","0.6090771744","0.2305846964","","","","","","","","76","L","3","","","185","main_expt",""
"","bandit","265","717412","0.0-226.0-0.0","01468037","wem/bandit_either_3","A1YBZWXXW358IF","either","5","844","","","","","","","0","0","1","0.2597669424","","0.6","0.4","0.2","0.8","","","","","0.4442397518","0.9665376101","0.5810996076","0.2597669424","","","","","","","","76","L","3","","","186","main_expt",""
"","bandit","266","719713","0.0-227.0-0.0","01468037","wem/bandit_either_3","A1YBZWXXW358IF","either","5","733","","","","","","","0","0","1","","0.2143742246","0.6","0.4","0.2","0.8","0.4478442549","0.9644184371","0.4445572548","0.2143742246","","","","","","","","","","","","76","L","3","","","187","main_expt",""
"","bandit","267","722129","0.0-228.0-0.0","01468037","wem/bandit_either_3","A1YBZWXXW358IF","either","5","869","","","","","","","0","0","1","0.2294707647","","0.6","0.4","0.2","0.8","","","","","0.4026396634","0.9731237162","0.4113554433","0.2294707647","","","","","","","","76","L","3","","","188","main_expt",""
"","bandit","268","724200","0.0-229.0-0.0","01468037","wem/bandit_either_3","A1YBZWXXW358IF","either","5","537","","","","","","","0","0","1","","0.4053553249","0.6","0.4","0.2","0.8","0.5072589837","0.9787475226","0.4053553249","0.2469430613","","","","","","","","","","","","75","K","2","","","189","main_expt",""
"","bandit","269","726545","0.0-230.0-0.0","01468037","wem/bandit_either_3","A1YBZWXXW358IF","either","5","802","","","","","","","0","1","0","","0.9847816181","0.6","0.4","0.2","0.8","0.5234843415","0.9847816181","0.4927633492","0.2437728268","","","","","","","","","","","","74","J","1","","","190","main_expt",""
"","bandit","270","728725","0.0-231.0-0.0","01468037","wem/bandit_either_3","A1YBZWXXW358IF","either","5","630","","","","","","","0","0","1","","0.5054414672","0.6","0.4","0.2","0.8","0.5054414672","0.9713064587","0.428678546","0.1655579887","","","","","","","","","","","","72","H","0","img/none_selected.jpg","","191","main_expt",""
"","bandit","271","730790","0.0-232.0-0.0","01468037","wem/bandit_either_3","A1YBZWXXW358IF","either","5","518","","","","","","","0","0","1","","0.7037613703","0.6","0.4","0.2","0.8","0.7037613703","0.9558555722","0.3358015867","0.1501427492","","","","","","","","","","","","72","H","0","img/none_selected.jpg","","192","main_expt",""
"","bandit","272","732977","0.0-233.0-0.0","01468037","wem/bandit_either_3","A1YBZWXXW358IF","either","5","642","","","","","","","1","0","0","0.5980286963","","0.6","0.4","0.2","0.8","","","","","0.5980286963","0.9443800135","0.2816430679","0.2062706367","","","","","","","","72","H","0","img/none_selected.jpg","","193","main_expt",""
"","bandit","273","735287","0.0-234.0-0.0","01468037","wem/bandit_either_3","A1YBZWXXW358IF","either","5","783","","","","","","","0","0","1","","0.5607231578","0.6","0.4","0.2","0.8","0.5607231578","0.947825408","0.2951519504","0.2782937815","","","","","","","","","","","","72","H","0","img/none_selected.jpg","","194","main_expt",""
"","bandit","274","737407","0.0-235.0-0.0","01468037","wem/bandit_either_3","A1YBZWXXW358IF","either","5","579","","","","","","","0","1","0","","0.6222063369","0.6","0.4","0.2","0.8","0.6222063369","0.9531013361","0.2482291913","0.2393938873","","","","","","","","","","","","72","H","0","img/none_selected.jpg","","195","main_expt",""
"","bandit","275","739657","0.0-236.0-0.0","01468037","wem/bandit_either_3","A1YBZWXXW358IF","either","5","708","","","","","","","0","1","0","","0.7092042058","0.6","0.4","0.2","0.8","0.7092042058","0.9653581558","0.2548661126","0.3385483064","","","","","","","","","","","","72","H","0","img/none_selected.jpg","","196","main_expt",""
"","bandit","276","741935","0.0-237.0-0.0","01468037","wem/bandit_either_3","A1YBZWXXW358IF","either","5","756","","","","","","","1","0","0","0.7397780251","","0.6","0.4","0.2","0.8","","","","","0.7397780251","0.9774234012","0.2789697966","0.3474357388","","","","","","","","72","H","0","img/none_selected.jpg","","197","main_expt",""
"","bandit","277","744350","0.0-238.0-0.0","01468037","wem/bandit_either_3","A1YBZWXXW358IF","either","5","866","","","","","","","0","0","1","","0.6977166648","0.6","0.4","0.2","0.8","0.6977166648","0.9866112083","0.2893473624","0.4511600961","","","","","","","","","","","","72","H","0","img/none_selected.jpg","","198","main_expt",""
"","bandit","278","746402","0.0-239.0-0.0","01468037","wem/bandit_either_3","A1YBZWXXW358IF","either","5","494","","","","","","","0","0","1","","0.4387406867","0.6","0.4","0.2","0.8","0.591703898","0.9889390623","0.2499124536","0.4387406867","","","","","","","","","","","","76","L","3","","","199","main_expt",""
"","bandit","279","748499","0.0-240.0-0.0","01468037","wem/bandit_either_3","A1YBZWXXW358IF","either","5","551","","","","","","","0","0","1","0.4368135332","","0.6","0.4","0.2","0.8","","","","","0.5107967375","0.9894921125","0.2643429758","0.4368135332","","","","","","","","76","L","3","","","200","main_expt",""
"","bandit","280","750618","0.0-241.0-0.0","01468037","wem/bandit_either_3","A1YBZWXXW358IF","either","5","588","","","","","","","0","1","0","","0.6528148869","0.6","0.4","0.2","0.8","0.6528148869","0.989248002","0.2382870841","0.3070084091","","","","","","","","","","","","72","H","0","img/none_selected.jpg","","201","main_expt",""
"","bandit","281","752678","0.0-242.0-0.0","01468037","wem/bandit_either_3","A1YBZWXXW358IF","either","5","514","","","","","","","1","0","0","0.3603585946","","0.6","0.4","0.2","0.8","","","","","0.6892998309","0.9957983392","0.1604624283","0.3603585946","","","","","","","","76","L","3","","","202","main_expt",""
"","bandit","282","755062","0.0-243.0-0.0","01468037","wem/bandit_either_3","A1YBZWXXW358IF","either","5","842","","","","","","","0","0","1","","0.260320329","0.6","0.4","0.2","0.8","0.6989476798","0.9958893","0.1407610566","0.260320329","","","","","","","","","","","","76","L","3","","","203","main_expt",""
"","bandit","283","757273","0.0-244.0-0.0","01468037","wem/bandit_either_3","A1YBZWXXW358IF","either","5","681","","","","","","","1","0","0","0.2003029851","","0.6","0.4","0.2","0.8","","","","","0.772264117","0.9955962674","0.1343245238","0.2003029851","","","","","","","","76","L","3","","","204","main_expt",""
"","bandit","284","759620","0.0-245.0-0.0","01468037","wem/bandit_either_3","A1YBZWXXW358IF","either","5","786","","","","","","","0","0","1","0.1922312923","","0.6","0.4","0.2","0.8","","","","","0.7366863645","0.9943432705","0.1715400642","0.1922312923","","","","","","","","76","L","3","","","205","main_expt",""
"","bandit","285","761987","0.0-246.0-0.0","01468037","wem/bandit_either_3","A1YBZWXXW358IF","either","5","812","","","","","","","1","0","0","0.1936085521","","0.6","0.4","0.2","0.8","","","","","0.7477287432","0.9982320458","0.117617648","0.1936085521","","","","","","","","76","L","3","","","206","main_expt",""
"","bandit","286","764544","0.0-247.0-0.0","01468037","wem/bandit_either_3","A1YBZWXXW358IF","either","5","999","","","","","","","1","0","0","0.1821705986","","0.6","0.4","0.2","0.8","","","","","0.8185776196","0.9976530308","0.1182717864","0.1821705986","","","","","","","","76","L","3","","","207","main_expt",""
"","bandit","287","767151","0.0-248.0-0.0","01468037","wem/bandit_either_3","A1YBZWXXW358IF","either","5","1081","","","","","","","0","0","1","0.1145050302","","0.6","0.4","0.2","0.8","","","","","0.8161769506","0.9961811318","0.1445047472","0.1145050302","","","","","","","","76","L","3","","","208","main_expt",""
"","bandit","288","769502","0.0-249.0-0.0","01468037","wem/bandit_either_3","A1YBZWXXW358IF","either","5","814","","","","","","","1","0","0","0.1206637037","","0.6","0.4","0.2","0.8","","","","","0.8224464957","0.9977639941","0.1264159314","0.1206637037","","","","","","","","76","L","3","","","209","main_expt",""
"","bandit","289","772008","0.0-250.0-0.0","01468037","wem/bandit_either_3","A1YBZWXXW358IF","either","5","965","","","","","","","0","0","1","0.1422927172","","0.6","0.4","0.2","0.8","","","","","0.7392866018","0.9953783407","0.1208777168","0.1422927172","","","","","","","","76","L","3","","","210","main_expt",""
"","bandit","290","774168","0.0-251.0-0.0","01468037","wem/bandit_either_3","A1YBZWXXW358IF","either","5","613","","","","","","","0","0","1","","0.1811219169","0.6","0.4","0.2","0.8","0.7125411919","0.9976351195","0.1733448518","0.1811219169","","","","","","","","","","","","76","L","3","","","211","main_expt",""
"","bandit","291","776300","0.0-252.0-0.0","01468037","wem/bandit_either_3","A1YBZWXXW358IF","either","5","595","","","","","","","0","0","1","0.7191881067","","0.6","0.4","0.2","0.8","","","","","0.7191881067","0.9983589292","0.1085262221","0.1982527665","","","","","","","","72","H","0","img/none_selected.jpg","","212","main_expt",""
"","bandit","292","778434","0.0-253.0-0.0","01468037","wem/bandit_either_3","A1YBZWXXW358IF","either","5","589","","","","","","","0","1","0","","0.7523845147","0.6","0.4","0.2","0.8","0.7523845147","0.9960427138","0.08145678985","0.124448309","","","","","","","","","","","","72","H","0","img/none_selected.jpg","","213","main_expt",""
"","bandit","293","780454","0.0-254.0-0.0","01468037","wem/bandit_either_3","A1YBZWXXW358IF","either","5","469","","","","","","","1","0","0","0.9924650588","","0.6","0.4","0.2","0.8","","","","","0.7193420906","0.9924650588","0.05725631888","0.1036015692","","","","","","","","74","J","1","","","214","main_expt",""
"","bandit","294","782769","0.0-255.0-0.0","01468037","wem/bandit_either_3","A1YBZWXXW358IF","either","5","757","","","","","","","0","1","0","","0.9858211903","0.6","0.4","0.2","0.8","0.6784461291","0.9858211903","0.04356988172","0.14458031","","","","","","","","","","","","74","J","1","","","215","main_expt",""
"","bandit","295","785177","0.0-256.0-0.0","01468037","wem/bandit_either_3","A1YBZWXXW358IF","either","5","860","","","","","","","0","1","0","","0.9915289077","0.6","0.4","0.2","0.8","0.5658185063","0.9915289077","0.04316154837","0.2094876981","","","","","","","","","","","","74","J","1","","","216","main_expt",""
"","bandit","296","787684","0.0-257.0-0.0","01468037","wem/bandit_either_3","A1YBZWXXW358IF","either","5","961","","","","","","","0","0","1","0.03453558383","","0.6","0.4","0.2","0.8","","","","","0.4886301847","0.9929544916","0.03453558383","0.24936904","","","","","","","","75","K","2","","","217","main_expt",""
"","bandit","297","790112","0.0-258.0-0.0","01468037","wem/bandit_either_3","A1YBZWXXW358IF","either","5","876","","","","","","","0","0","1","","0.03800932399","0.6","0.4","0.2","0.8","0.5674985979","0.9741721496","0.03800932399","0.2006789107","","","","","","","","","","","","75","K","2","","","218","main_expt",""
"","bandit","298","792417","0.0-259.0-0.0","01468037","wem/bandit_either_3","A1YBZWXXW358IF","either","5","741","","","","","","","0","0","1","","0.07914639327","0.6","0.4","0.2","0.8","0.6088772151","0.9413517393","0.07914639327","0.2118480588","","","","","","","","","","","","75","K","2","","","219","main_expt",""
"","bandit","299","794625","0.0-260.0-0.0","01468037","wem/bandit_either_3","A1YBZWXXW358IF","either","5","663","","","","","","","1","0","0","0.9230346446","","0.6","0.4","0.2","0.8","","","","","0.5856238885","0.9230346446","0.07044987786","0.2159213458","","","","","","","","74","J","1","","","220","main_expt",""
"","bandit","300","797015","0.0-261.0-0.0","01468037","wem/bandit_either_3","A1YBZWXXW358IF","either","5","826","","","","","","","0","1","0","","0.9216350241","0.6","0.4","0.2","0.8","0.6601978635","0.9216350241","0.1351506501","0.2097338805","","","","","","","","","","","","74","J","1","","","221","main_expt",""
"","bandit","301","799166","0.0-262.0-0.0","01468037","wem/bandit_either_3","A1YBZWXXW358IF","either","5","603","","","","","","","0","1","0","","0.9093406134","0.6","0.4","0.2","0.8","0.6540659739","0.9093406134","0.2099108548","0.1468233299","","","","","","","","","","","","74","J","1","","","222","main_expt",""
"","bandit","302","801421","0.0-263.0-0.0","01468037","wem/bandit_either_3","A1YBZWXXW358IF","either","5","705","","","","","","","0","0","1","","0.8361447498","0.6","0.4","0.2","0.8","0.7010542315","0.8361447498","0.2971693323","0.1379540926","","","","","","","","","","","","74","J","1","","","223","main_expt",""
"","bandit","303","803354","0.0-264.0-0.0","01468037","wem/bandit_either_3","A1YBZWXXW358IF","either","5","380","","","","","","","0","1","0","","0.8626161161","0.6","0.4","0.2","0.8","0.7972730751","0.8626161161","0.2754671199","0.1943723139","","","","","","","","","","","","74","J","1","","","224","main_expt",""
"","bandit","304","805254","0.0-265.0-0.0","01468037","wem/bandit_either_3","A1YBZWXXW358IF","either","5","335","","","","","","","0","1","0","","0.8726314772","0.6","0.4","0.2","0.8","0.8726314772","0.9176165053","0.2483133052","0.2949344278","","","","","","","","","","","","72","H","0","img/none_selected.jpg","","225","main_expt",""
"","bandit","305","807296","0.0-266.0-0.0","01468037","wem/bandit_either_3","A1YBZWXXW358IF","either","5","497","","","","","","","1","0","0","0.8569150835","","0.6","0.4","0.2","0.8","","","","","0.8569150835","0.9516545376","0.2945032007","0.4040967375","","","","","","","","72","H","0","img/none_selected.jpg","","226","main_expt",""
"","bandit","306","809508","0.0-267.0-0.0","01468037","wem/bandit_either_3","A1YBZWXXW358IF","either","5","670","","","","","","","1","0","0","0.8773762417","","0.6","0.4","0.2","0.8","","","","","0.8773762417","0.9448551655","0.2544933329","0.4369809926","","","","","","","","72","H","0","img/none_selected.jpg","","227","main_expt",""
"","bandit","307","811595","0.0-268.0-0.0","01468037","wem/bandit_either_3","A1YBZWXXW358IF","either","5","536","","","","","","","1","0","0","0.8514828757","","0.6","0.4","0.2","0.8","","","","","0.8514828757","0.9298030406","0.22227057","0.4228749262","","","","","","","","72","H","0","img/none_selected.jpg","","228","main_expt",""
"","bandit","308","813852","0.0-269.0-0.0","01468037","wem/bandit_either_3","A1YBZWXXW358IF","either","5","721","","","","","","","0","1","0","","0.893786405","0.6","0.4","0.2","0.8","0.893786405","0.9022116856","0.2319557967","0.4953143479","","","","","","","","","","","","72","H","0","img/none_selected.jpg","","229","main_expt",""
"","bandit","309","816044","0.0-270.0-0.0","01468037","wem/bandit_either_3","A1YBZWXXW358IF","either","5","660","","","","","","","0","1","0","","0.9350514117","0.6","0.4","0.2","0.8","0.9350514117","0.8934587516","0.3107577299","0.4752889979","","","","","","","","","","","","72","H","0","img/none_selected.jpg","","230","main_expt",""
"","bandit","310","818194","0.0-271.0-0.0","01468037","wem/bandit_either_3","A1YBZWXXW358IF","either","5","587","","","","","","","0","0","1","0.9139197991","","0.6","0.4","0.2","0.8","","","","","0.9139197991","0.8403693225","0.3046703461","0.4887049862","","","","","","","","72","H","0","img/none_selected.jpg","","231","main_expt",""
"","bandit","311","820226","0.0-272.0-0.0","01468037","wem/bandit_either_3","A1YBZWXXW358IF","either","5","489","","","","","","","1","0","0","0.8753904063","","0.6","0.4","0.2","0.8","","","","","0.8753904063","0.7373772703","0.4259459217","0.6065944358","","","","","","","","72","H","0","img/none_selected.jpg","","232","main_expt",""
"","bandit","312","822532","0.0-273.0-0.0","01468037","wem/bandit_either_3","A1YBZWXXW358IF","either","5","754","","","","","","","0","0","1","0.807664976","","0.6","0.4","0.2","0.8","","","","","0.807664976","0.7275490615","0.3391655585","0.5320380184","","","","","","","","72","H","0","img/none_selected.jpg","","233","main_expt",""
"","bandit","313","824618","0.0-274.0-0.0","01468037","wem/bandit_either_3","A1YBZWXXW358IF","either","5","535","","","","","","","1","0","0","0.817303243","","0.6","0.4","0.2","0.8","","","","","0.817303243","0.6910989812","0.3380141995","0.5845689413","","","","","","","","72","H","0","img/none_selected.jpg","","234","main_expt",""
"","bandit","314","827045","0.0-275.0-0.0","01468037","wem/bandit_either_3","A1YBZWXXW358IF","either","5","873","","","","","","","1","0","0","0.8320050337","","0.6","0.4","0.2","0.8","","","","","0.8320050337","0.6506848601","0.2949514339","0.4424117598","","","","","","","","72","H","0","img/none_selected.jpg","","235","main_expt",""
"","bandit","315","829252","0.0-276.0-0.0","01468037","wem/bandit_either_3","A1YBZWXXW358IF","either","5","671","","","","","","","1","0","0","0.8539654836","","0.6","0.4","0.2","0.8","","","","","0.8539654836","0.589166471","0.2575094814","0.4411324282","","","","","","","","72","H","0","img/none_selected.jpg","","236","main_expt",""
"","bandit","316","831462","0.0-277.0-0.0","01468037","wem/bandit_either_3","A1YBZWXXW358IF","either","5","672","","","","","","","1","0","0","0.8151920012","","0.6","0.4","0.2","0.8","","","","","0.8151920012","0.5475273787","0.3298960346","0.5792865955","","","","","","","","72","H","0","img/none_selected.jpg","","237","main_expt",""
"","bandit","317","833781","0.0-278.0-0.0","01468037","wem/bandit_either_3","A1YBZWXXW358IF","either","5","783","","","","","","","0","1","0","","0.8724257749","0.6","0.4","0.2","0.8","0.8724257749","0.5644141111","0.3922637729","0.6435093149","","","","","","","","","","","","72","H","0","img/none_selected.jpg","","238","main_expt",""
"","bandit","318","835928","0.0-279.0-0.0","01468037","wem/bandit_either_3","A1YBZWXXW358IF","either","5","596","","","","","","","0","0","1","","0.8232187668","0.6","0.4","0.2","0.8","0.8232187668","0.557522906","0.3200188668","0.571754567","","","","","","","","","","","","72","H","0","img/none_selected.jpg","","239","main_expt",""
"","bandit","319","838150","0.0-280.0-0.0","01468037","wem/bandit_either_3","A1YBZWXXW358IF","either","5","674","","","","","","","1","0","0","0.8306623225","","0.6","0.4","0.2","0.8","","","","","0.8306623225","0.603497511","0.3427015143","0.6642130709","","","","","","","","72","H","0","img/none_selected.jpg","","240","main_expt",""
"","bandit","320","840440","0.0-281.0-0.0","01468037","wem/bandit_either_3","A1YBZWXXW358IF","either","5","749","","","","","","","0","1","0","","0.7592816599","0.6","0.4","0.2","0.8","0.7592816599","0.5998739494","0.3027961335","0.702894688","","","","","","","","","","","","72","H","0","img/none_selected.jpg","","241","main_expt",""
"","bandit","321","842421","0.0-282.0-0.0","01468037","wem/bandit_either_3","A1YBZWXXW358IF","either","5","417","","","","","","","0","1","0","","0.8354326854","0.6","0.4","0.2","0.8","0.8354326854","0.5674661637","0.2916945226","0.6468691102","","","","","","","","","","","","72","H","0","img/none_selected.jpg","","242","main_expt",""
"","bandit","322","844569","0.0-283.0-0.0","01468037","wem/bandit_either_3","A1YBZWXXW358IF","either","5","605","","","","","","","1","0","0","0.8387573723","","0.6","0.4","0.2","0.8","","","","","0.8387573723","0.620083209","0.2703759756","0.7073159297","","","","","","","","72","H","0","img/none_selected.jpg","","243","main_expt",""
"","bandit","323","846764","0.0-284.0-0.0","01468037","wem/bandit_either_3","A1YBZWXXW358IF","either","5","654","","","","","","","0","1","0","","0.8683205951","0.6","0.4","0.2","0.8","0.8683205951","0.7089992968","0.2055036404","0.6719420595","","","","","","","","","","","","72","H","0","img/none_selected.jpg","","244","main_expt",""
"","bandit","324","848855","0.0-285.0-0.0","01468037","wem/bandit_either_3","A1YBZWXXW358IF","either","5","555","","","","","","","0","0","1","0.7825192054","","0.6","0.4","0.2","0.8","","","","","0.7825192054","0.6816226354","0.2458168489","0.7396289485","","","","","","","","72","H","0","img/none_selected.jpg","","245","main_expt",""
