"consent","trial_type","trial_index","time_elapsed","internal_node_id","subjID","study","MID","cond","drift","rt","responses","key_press","expt_phase","like","value","connected","gems","bombs","no_reward","GemPrChosen","BombPrChosen","GainOverPainPr_0","GainOverPainPr_1","GainOverPainPr_2","GainOverPainPr_3","LosePr_0","LosePr_1","LosePr_2","LosePr_3","WinPr_0","WinPr_1","WinPr_2","WinPr_3","Q0","Q1","Q2","gender","age","ethnicity","target","respCharCode","respKey","respChoiceNum","respChoice","practice","trial_counter","trial_label","button_pressed"
"INL_behavioral_consent_30min_online.html","consent","0","25951","0.0-0.0","03465827","wem/bandit_either_3","A2XG3FPY0UDZIJ","either","2","","","","","","","","","","","","","","","","","","","","","","","","","","","","","","","","","","","","","","",""
"","survey-text","1","36838","0.0-1.0","03465827","wem/bandit_either_3","A2XG3FPY0UDZIJ","either","2","9863","{""Q0"":""A2XG3FPY0UDZIJ""}","","","","","","","","","","","","","","","","","","","","","","","","","","","","","","","","","","","","",""
"","text","2","66555","0.0-2.0","03465827","wem/bandit_either_3","A2XG3FPY0UDZIJ","either","2","28702","","32","","","","","","","","","","","","","","","","","","","","","","","","","","","","","","","","","","","",""
"","text","3","73658","0.0-3.0","03465827","wem/bandit_either_3","A2XG3FPY0UDZIJ","either","2","7101","","32","","","","","","","","","","","","","","","","","","","","","","","","","","","","","","","","","","","",""
"","text","4","101569","0.0-4.0","03465827","wem/bandit_either_3","A2XG3FPY0UDZIJ","either","2","27909","","32","","","","","","","","","","","","","","","","","","","","","","","","","","","","","","","","","","","",""
"","text","5","117988","0.0-5.0","03465827","wem/bandit_either_3","A2XG3FPY0UDZIJ","either","2","16416","","32","","","","","","","","","","","","","","","","","","","","","","","","","","","","","","","","","","","",""
"","text","6","132537","0.0-6.0","03465827","wem/bandit_either_3","A2XG3FPY0UDZIJ","either","2","14547","","32","","","","","","","","","","","","","","","","","","","","","","","","","","","","","","","","","","","",""
"","text","7","141808","0.0-7.0","03465827","wem/bandit_either_3","A2XG3FPY0UDZIJ","either","2","9268","","32","","","","","","","","","","","","","","","","","","","","","","","","","","","","","","","","","","","",""
"","text","8","145974","0.0-8.0","03465827","wem/bandit_either_3","A2XG3FPY0UDZIJ","either","2","4163","","32","","","","","","","","","","","","","","","","","","","","","","","","","","","","","","","","","","","",""
"","identification","9","153566","0.0-9.0-0.0","03465827","wem/bandit_either_3","A2XG3FPY0UDZIJ","either","2","7575","","","","5","5","6","","","","","","","","","","","","","","","","","","","","","","","","the village of Zur","","","","","","","",""
"","identification","10","161053","0.0-9.0-1.0","03465827","wem/bandit_either_3","A2XG3FPY0UDZIJ","either","2","6465","","","","0","0","0","","","","","","","","","","","","","","","","","","","","","","","","the village of Nyx","","","","","","","",""
"","text","11","167352","0.0-10.0","03465827","wem/bandit_either_3","A2XG3FPY0UDZIJ","either","2","5286","","32","","","","","","","","","","","","","","","","","","","","","","","","","","","","","","","","","","","",""
"","text","12","170115","0.0-11.0","03465827","wem/bandit_either_3","A2XG3FPY0UDZIJ","either","2","2758","","32","","","","","","","","","","","","","","","","","","","","","","","","","","","","","","","","","","","",""
"","text","13","172535","0.0-12.0","03465827","wem/bandit_either_3","A2XG3FPY0UDZIJ","either","2","2418","","32","","","","","","","","","","","","","","","","","","","","","","","","","","","","","","","","","","","",""
"","text","14","176724","0.0-13.0","03465827","wem/bandit_either_3","A2XG3FPY0UDZIJ","either","2","4186","","32","","","","","","","","","","","","","","","","","","","","","","","","","","","","","","","","","","","",""
"","bandit","15","181057","0.0-14.0-0.0","03465827","wem/bandit_either_3","A2XG3FPY0UDZIJ","either","2","2803","","","","","","","0","0","1","0","0","","","","","0","","","","0","","","","","","","","","","","74","J","0","img/none_selected_demo.jpg","true","0","",""
"","bandit","16","183421","0.0-15.0-0.0","03465827","wem/bandit_either_3","A2XG3FPY0UDZIJ","either","2","841","","","","","","","0","0","1","0","0","","","","","0","","","","0","","","","","","","","","","","75","K","0","img/none_selected_demo.jpg","true","0","",""
"","text","17","192419","0.0-16.0","03465827","wem/bandit_either_3","A2XG3FPY0UDZIJ","either","2","8995","","32","","","","","","","","","","","","","","","","","","","","","","","","","","","","","","","","","","","",""
"","text","18","202155","0.0-17.0","03465827","wem/bandit_either_3","A2XG3FPY0UDZIJ","either","2","9733","","32","","","","","","","","","","","","","","","","","","","","","","","","","","","","","","","","","","","",""
"","text","19","208508","0.0-18.0","03465827","wem/bandit_either_3","A2XG3FPY0UDZIJ","either","2","6349","","32","","","","","","","","","","","","","","","","","","","","","","","","","","","","","","","","","","","",""
"","text","20","211214","0.0-19.0","03465827","wem/bandit_either_3","A2XG3FPY0UDZIJ","either","2","2704","","32","","","","","","","","","","","","","","","","","","","","","","","","","","","","","","","","","","","",""
"","bandit","21","213511","0.0-20.0-0.0","03465827","wem/bandit_either_3","A2XG3FPY0UDZIJ","either","2","780","","","","","","","1","0","0","0.8","","0.5","0.5","","","","","","","0.8","0.2","","","","","","","","","","74","J","0","img/none_selected_demo.jpg","true","0","80_20_practice",""
"","bandit","22","215598","0.0-20.0-1.0","03465827","wem/bandit_either_3","A2XG3FPY0UDZIJ","either","2","548","","","","","","","1","0","0","0.8","","0.5","0.5","","","","","","","0.8","0.2","","","","","","","","","","74","J","0","img/none_selected_demo.jpg","true","0","80_20_practice",""
"","bandit","23","217654","0.0-20.0-2.0","03465827","wem/bandit_either_3","A2XG3FPY0UDZIJ","either","2","530","","","","","","","1","0","0","0.8","","0.5","0.5","","","","","","","0.8","0.2","","","","","","","","","","74","J","0","img/none_selected_demo.jpg","true","0","80_20_practice",""
"","bandit","24","219618","0.0-20.0-3.0","03465827","wem/bandit_either_3","A2XG3FPY0UDZIJ","either","2","433","","","","","","","0","1","0","","0.8","0.5","0.5","","","0.8","0.2","","","","","","","","","","","","","","74","J","0","img/none_selected_demo.jpg","true","0","80_20_practice",""
"","bandit","25","221558","0.0-20.0-4.0","03465827","wem/bandit_either_3","A2XG3FPY0UDZIJ","either","2","412","","","","","","","0","0","1","","0.2","0.5","0.5","","","0.8","0.2","","","","","","","","","","","","","","75","K","1","","true","0","80_20_practice",""
"","bandit","26","223437","0.0-20.0-5.0","03465827","wem/bandit_either_3","A2XG3FPY0UDZIJ","either","2","348","","","","","","","0","0","1","","0.2","0.5","0.5","","","0.8","0.2","","","","","","","","","","","","","","75","K","1","","true","0","80_20_practice",""
"","bandit","27","225271","0.0-20.0-6.0","03465827","wem/bandit_either_3","A2XG3FPY0UDZIJ","either","2","308","","","","","","","0","0","1","0.2","","0.5","0.5","","","","","","","0.8","0.2","","","","","","","","","","75","K","1","","true","0","80_20_practice",""
"","bandit","28","227084","0.0-20.0-7.0","03465827","wem/bandit_either_3","A2XG3FPY0UDZIJ","either","2","288","","","","","","","0","0","1","0.8","","0.5","0.5","","","","","","","0.8","0.2","","","","","","","","","","74","J","0","img/none_selected_demo.jpg","true","0","80_20_practice",""
"","bandit","29","228891","0.0-20.0-8.0","03465827","wem/bandit_either_3","A2XG3FPY0UDZIJ","either","2","282","","","","","","","1","0","0","0.8","","0.5","0.5","","","","","","","0.8","0.2","","","","","","","","","","74","J","0","img/none_selected_demo.jpg","true","0","80_20_practice",""
"","bandit","30","230801","0.0-20.0-9.0","03465827","wem/bandit_either_3","A2XG3FPY0UDZIJ","either","2","384","","","","","","","0","1","0","","0.8","0.5","0.5","","","0.8","0.2","","","","","","","","","","","","","","74","J","0","img/none_selected_demo.jpg","true","0","80_20_practice",""
"","bandit","31","232671","0.0-20.0-10.0","03465827","wem/bandit_either_3","A2XG3FPY0UDZIJ","either","2","352","","","","","","","1","0","0","0.8","","0.5","0.5","","","","","","","0.8","0.2","","","","","","","","","","74","J","0","img/none_selected_demo.jpg","true","0","80_20_practice",""
"","bandit","32","234468","0.0-20.0-11.0","03465827","wem/bandit_either_3","A2XG3FPY0UDZIJ","either","2","270","","","","","","","0","1","0","","0.8","0.5","0.5","","","0.8","0.2","","","","","","","","","","","","","","74","J","0","img/none_selected_demo.jpg","true","0","80_20_practice",""
"","bandit","33","236240","0.0-20.0-12.0","03465827","wem/bandit_either_3","A2XG3FPY0UDZIJ","either","2","248","","","","","","","1","0","0","0.8","","0.5","0.5","","","","","","","0.8","0.2","","","","","","","","","","74","J","0","img/none_selected_demo.jpg","true","0","80_20_practice",""
"","bandit","34","238125","0.0-20.0-13.0","03465827","wem/bandit_either_3","A2XG3FPY0UDZIJ","either","2","349","","","","","","","0","0","1","0.8","","0.5","0.5","","","","","","","0.8","0.2","","","","","","","","","","74","J","0","img/none_selected_demo.jpg","true","0","80_20_practice",""
"","bandit","35","239904","0.0-20.0-14.0","03465827","wem/bandit_either_3","A2XG3FPY0UDZIJ","either","2","261","","","","","","","0","0","1","","0.2","0.5","0.5","","","0.8","0.2","","","","","","","","","","","","","","75","K","1","","true","0","80_20_practice",""
"","bandit","36","241748","0.0-20.0-15.0","03465827","wem/bandit_either_3","A2XG3FPY0UDZIJ","either","2","311","","","","","","","0","1","0","","0.8","0.5","0.5","","","0.8","0.2","","","","","","","","","","","","","","74","J","0","img/none_selected_demo.jpg","true","0","80_20_practice",""
"","bandit","37","243708","0.0-20.0-16.0","03465827","wem/bandit_either_3","A2XG3FPY0UDZIJ","either","2","437","","","","","","","0","1","0","","0.8","0.5","0.5","","","0.8","0.2","","","","","","","","","","","","","","74","J","0","img/none_selected_demo.jpg","true","0","80_20_practice",""
"","bandit","38","245505","0.0-20.0-17.0","03465827","wem/bandit_either_3","A2XG3FPY0UDZIJ","either","2","263","","","","","","","0","0","1","","0.8","0.5","0.5","","","0.8","0.2","","","","","","","","","","","","","","74","J","0","img/none_selected_demo.jpg","true","0","80_20_practice",""
"","bandit","39","247269","0.0-20.0-18.0","03465827","wem/bandit_either_3","A2XG3FPY0UDZIJ","either","2","244","","","","","","","0","1","0","","0.8","0.5","0.5","","","0.8","0.2","","","","","","","","","","","","","","74","J","0","img/none_selected_demo.jpg","true","0","80_20_practice",""
"","bandit","40","249128","0.0-20.0-19.0","03465827","wem/bandit_either_3","A2XG3FPY0UDZIJ","either","2","323","","","","","","","0","0","1","0.2","","0.5","0.5","","","","","","","0.8","0.2","","","","","","","","","","75","K","1","","true","0","80_20_practice",""
"","text","41","252373","0.0-21.0","03465827","wem/bandit_either_3","A2XG3FPY0UDZIJ","either","2","3240","","32","","","","","","","","","","","","","","","","","","","","","","","","","","","","","","","","","","","",""
"","bandit","42","255314","0.0-22.0-0.0","03465827","wem/bandit_either_3","A2XG3FPY0UDZIJ","either","2","1428","","","","","","","1","0","0","1","0","","","","","0","1","","","1","0","","","","","","","","","","74","J","0","img/none_selected_demo.jpg","true","0","",""
"","text","43","262844","0.0-23.0","03465827","wem/bandit_either_3","A2XG3FPY0UDZIJ","either","2","7525","","32","","","","","","","","","","","","","","","","","","","","","","","","","","","","","","","","","","","",""
"","text","44","266326","0.0-24.0","03465827","wem/bandit_either_3","A2XG3FPY0UDZIJ","either","2","3478","","32","","","","","","","","","","","","","","","","","","","","","","","","","","","","","","","","","","","",""
"","text","45","273143","0.0-25.0","03465827","wem/bandit_either_3","A2XG3FPY0UDZIJ","either","2","6813","","32","","","","","","","","","","","","","","","","","","","","","","","","","","","","","","","","","","","",""
"","text","46","275925","0.0-26.0","03465827","wem/bandit_either_3","A2XG3FPY0UDZIJ","either","2","2777","","32","","","","","","","","","","","","","","","","","","","","","","","","","","","","","","","","","","","",""
"","text","47","282182","0.0-27.0","03465827","wem/bandit_either_3","A2XG3FPY0UDZIJ","either","2","6252","","32","","","","","","","","","","","","","","","","","","","","","","","","","","","","","","","","","","","",""
"","text","48","284599","0.0-28.0","03465827","wem/bandit_either_3","A2XG3FPY0UDZIJ","either","2","2414","","32","","","","","","","","","","","","","","","","","","","","","","","","","","","","","","","","","","","",""
"","text","49","289413","0.0-29.0","03465827","wem/bandit_either_3","A2XG3FPY0UDZIJ","either","2","4811","","32","","","","","","","","","","","","","","","","","","","","","","","","","","","","","","","","","","","",""
"","text","50","292723","0.0-30.0","03465827","wem/bandit_either_3","A2XG3FPY0UDZIJ","either","2","3305","","32","","","","","","","","","","","","","","","","","","","","","","","","","","","","","","","","","","","",""
"","text","51","297443","0.0-31.0","03465827","wem/bandit_either_3","A2XG3FPY0UDZIJ","either","2","4716","","32","","","","","","","","","","","","","","","","","","","","","","","","","","","","","","","","","","","",""
"","text","52","299148","0.0-32.0","03465827","wem/bandit_either_3","A2XG3FPY0UDZIJ","either","2","1701","","32","","","","","","","","","","","","","","","","","","","","","","","","","","","","","","","","","","","",""
"","text","53","302260","0.0-33.0","03465827","wem/bandit_either_3","A2XG3FPY0UDZIJ","either","2","3109","","32","","","","","","","","","","","","","","","","","","","","","","","","","","","","","","","","","","","",""
"","bandit","54","304408","0.0-34.0-0.0","03465827","wem/bandit_either_3","A2XG3FPY0UDZIJ","either","2","611","","","","","","","1","0","0","0.8","","0.5","0.5","0.5","0.5","","","","","0.8","0.2","0.6","0.2","","","","","","","","72","H","0","img/none_selected.jpg","true","0","full_practice",""
"","bandit","55","306384","0.0-34.0-1.0","03465827","wem/bandit_either_3","A2XG3FPY0UDZIJ","either","2","439","","","","","","","0","1","0","","0.8","0.5","0.5","0.5","0.5","0.8","0.2","0.6","0.2","","","","","","","","","","","","72","H","0","img/none_selected.jpg","true","0","full_practice",""
"","bandit","56","308198","0.0-34.0-2.0","03465827","wem/bandit_either_3","A2XG3FPY0UDZIJ","either","2","288","","","","","","","1","0","0","0.8","","0.5","0.5","0.5","0.5","","","","","0.8","0.2","0.6","0.2","","","","","","","","72","H","0","img/none_selected.jpg","true","0","full_practice",""
"","bandit","57","310020","0.0-34.0-3.0","03465827","wem/bandit_either_3","A2XG3FPY0UDZIJ","either","2","298","","","","","","","1","0","0","0.8","","0.5","0.5","0.5","0.5","","","","","0.8","0.2","0.6","0.2","","","","","","","","72","H","0","img/none_selected.jpg","true","0","full_practice",""
"","bandit","58","311833","0.0-34.0-4.0","03465827","wem/bandit_either_3","A2XG3FPY0UDZIJ","either","2","291","","","","","","","1","0","0","0.8","","0.5","0.5","0.5","0.5","","","","","0.8","0.2","0.6","0.2","","","","","","","","72","H","0","img/none_selected.jpg","true","0","full_practice",""
"","bandit","59","313616","0.0-34.0-5.0","03465827","wem/bandit_either_3","A2XG3FPY0UDZIJ","either","2","257","","","","","","","0","0","1","","0.8","0.5","0.5","0.5","0.5","0.8","0.2","0.6","0.2","","","","","","","","","","","","72","H","0","img/none_selected.jpg","true","0","full_practice",""
"","bandit","60","315446","0.0-34.0-6.0","03465827","wem/bandit_either_3","A2XG3FPY0UDZIJ","either","2","273","","","","","","","1","0","0","0.8","","0.5","0.5","0.5","0.5","","","","","0.8","0.2","0.6","0.2","","","","","","","","72","H","0","img/none_selected.jpg","true","0","full_practice",""
"","bandit","61","317218","0.0-34.0-7.0","03465827","wem/bandit_either_3","A2XG3FPY0UDZIJ","either","2","254","","","","","","","0","0","1","","0.8","0.5","0.5","0.5","0.5","0.8","0.2","0.6","0.2","","","","","","","","","","","","72","H","0","img/none_selected.jpg","true","0","full_practice",""
"","bandit","62","318964","0.0-34.0-8.0","03465827","wem/bandit_either_3","A2XG3FPY0UDZIJ","either","2","224","","","","","","","1","0","0","0.8","","0.5","0.5","0.5","0.5","","","","","0.8","0.2","0.6","0.2","","","","","","","","72","H","0","img/none_selected.jpg","true","0","full_practice",""
"","bandit","63","320753","0.0-34.0-9.0","03465827","wem/bandit_either_3","A2XG3FPY0UDZIJ","either","2","268","","","","","","","1","0","0","0.8","","0.5","0.5","0.5","0.5","","","","","0.8","0.2","0.6","0.2","","","","","","","","72","H","0","img/none_selected.jpg","true","0","full_practice",""
"","bandit","64","322552","0.0-34.0-10.0","03465827","wem/bandit_either_3","A2XG3FPY0UDZIJ","either","2","285","","","","","","","1","0","0","0.8","","0.5","0.5","0.5","0.5","","","","","0.8","0.2","0.6","0.2","","","","","","","","72","H","0","img/none_selected.jpg","true","0","full_practice",""
"","bandit","65","324365","0.0-34.0-11.0","03465827","wem/bandit_either_3","A2XG3FPY0UDZIJ","either","2","293","","","","","","","1","0","0","0.8","","0.5","0.5","0.5","0.5","","","","","0.8","0.2","0.6","0.2","","","","","","","","72","H","0","img/none_selected.jpg","true","0","full_practice",""
"","bandit","66","326249","0.0-34.0-12.0","03465827","wem/bandit_either_3","A2XG3FPY0UDZIJ","either","2","362","","","","","","","1","0","0","0.8","","0.5","0.5","0.5","0.5","","","","","0.8","0.2","0.6","0.2","","","","","","","","72","H","0","img/none_selected.jpg","true","0","full_practice",""
"","bandit","67","328038","0.0-34.0-13.0","03465827","wem/bandit_either_3","A2XG3FPY0UDZIJ","either","2","257","","","","","","","0","1","0","","0.8","0.5","0.5","0.5","0.5","0.8","0.2","0.6","0.2","","","","","","","","","","","","72","H","0","img/none_selected.jpg","true","0","full_practice",""
"","bandit","68","329842","0.0-34.0-14.0","03465827","wem/bandit_either_3","A2XG3FPY0UDZIJ","either","2","277","","","","","","","0","1","0","","0.8","0.5","0.5","0.5","0.5","0.8","0.2","0.6","0.2","","","","","","","","","","","","72","H","0","img/none_selected.jpg","true","0","full_practice",""
"","bandit","69","331687","0.0-34.0-15.0","03465827","wem/bandit_either_3","A2XG3FPY0UDZIJ","either","2","321","","","","","","","0","1","0","","0.8","0.5","0.5","0.5","0.5","0.8","0.2","0.6","0.2","","","","","","","","","","","","72","H","0","img/none_selected.jpg","true","0","full_practice",""
"","bandit","70","333497","0.0-34.0-16.0","03465827","wem/bandit_either_3","A2XG3FPY0UDZIJ","either","2","284","","","","","","","0","1","0","","0.8","0.5","0.5","0.5","0.5","0.8","0.2","0.6","0.2","","","","","","","","","","","","72","H","0","img/none_selected.jpg","true","0","full_practice",""
"","bandit","71","335334","0.0-34.0-17.0","03465827","wem/bandit_either_3","A2XG3FPY0UDZIJ","either","2","314","","","","","","","0","1","0","","0.8","0.5","0.5","0.5","0.5","0.8","0.2","0.6","0.2","","","","","","","","","","","","72","H","0","img/none_selected.jpg","true","0","full_practice",""
"","bandit","72","337169","0.0-34.0-18.0","03465827","wem/bandit_either_3","A2XG3FPY0UDZIJ","either","2","310","","","","","","","1","0","0","0.8","","0.5","0.5","0.5","0.5","","","","","0.8","0.2","0.6","0.2","","","","","","","","72","H","0","img/none_selected.jpg","true","0","full_practice",""
"","bandit","73","338989","0.0-34.0-19.0","03465827","wem/bandit_either_3","A2XG3FPY0UDZIJ","either","2","283","","","","","","","1","0","0","0.8","","0.5","0.5","0.5","0.5","","","","","0.8","0.2","0.6","0.2","","","","","","","","72","H","0","img/none_selected.jpg","true","0","full_practice",""
"","text","74","341667","0.0-35.0","03465827","wem/bandit_either_3","A2XG3FPY0UDZIJ","either","2","2661","","32","","","","","","","","","","","","","","","","","","","","","","","","","","","","","","","","","","","",""
"","text","75","352239","0.0-36.0","03465827","wem/bandit_either_3","A2XG3FPY0UDZIJ","either","2","9553","","32","","","","","","","","","","","","","","","","","","","","","","","","","","","","","","","","","","","",""
"","text","76","363901","0.0-37.0","03465827","wem/bandit_either_3","A2XG3FPY0UDZIJ","either","2","11654","","32","","","","","","","","","","","","","","","","","","","","","","","","","","","","","","","","","","","",""
"","text","77","374000","0.0-38.0","03465827","wem/bandit_either_3","A2XG3FPY0UDZIJ","either","2","10095","","32","","","","","","","","","","","","","","","","","","","","","","","","","","","","","","","","","","","",""
"","text","78","380324","0.0-39.0","03465827","wem/bandit_either_3","A2XG3FPY0UDZIJ","either","2","6318","","32","","","","","","","","","","","","","","","","","","","","","","","","","","","","","","","","","","","",""
"","text","79","384943","0.0-40.0","03465827","wem/bandit_either_3","A2XG3FPY0UDZIJ","either","2","4613","","32","","","","","","","","","","","","","","","","","","","","","","","","","","","","","","","","","","","",""
"","bandit","80","387250","0.0-41.0-0.0","03465827","wem/bandit_either_3","A2XG3FPY0UDZIJ","either","2","776","","","","","","","1","0","0","0.7961415707","","0.6","0.2","0.8","0.4","","","","","0.7961415707","0.4841938304","0.9925337928","0.7092854079","","","","","","","","72","H","0","img/none_selected.jpg","","1","main_expt",""
"","bandit","81","389052","0.0-42.0-0.0","03465827","wem/bandit_either_3","A2XG3FPY0UDZIJ","either","2","273","","","","","","","1","0","0","0.7739630809","","0.6","0.2","0.8","0.4","","","","","0.7739630809","0.5300888233","0.9909612399","0.7343230146","","","","","","","","72","H","0","img/none_selected.jpg","","2","main_expt",""
"","bandit","82","390902","0.0-43.0-0.0","03465827","wem/bandit_either_3","A2XG3FPY0UDZIJ","either","2","314","","","","","","","0","1","0","","0.807852523","0.6","0.2","0.8","0.4","0.807852523","0.4747636274","0.9875934203","0.7616266478","","","","","","","","","","","","72","H","0","img/none_selected.jpg","","3","main_expt",""
"","bandit","83","392714","0.0-44.0-0.0","03465827","wem/bandit_either_3","A2XG3FPY0UDZIJ","either","2","286","","","","","","","1","0","0","0.7922386472","","0.6","0.2","0.8","0.4","","","","","0.7922386472","0.4841015375","0.9782241123","0.7555889459","","","","","","","","72","H","0","img/none_selected.jpg","","4","main_expt",""
"","bandit","84","394521","0.0-45.0-0.0","03465827","wem/bandit_either_3","A2XG3FPY0UDZIJ","either","2","275","","","","","","","0","1","0","","0.865094385","0.6","0.2","0.8","0.4","0.865094385","0.5545204825","0.9756627961","0.733520678","","","","","","","","","","","","72","H","0","img/none_selected.jpg","","5","main_expt",""
"","bandit","85","396316","0.0-46.0-0.0","03465827","wem/bandit_either_3","A2XG3FPY0UDZIJ","either","2","262","","","","","","","0","1","0","","0.800956518","0.6","0.2","0.8","0.4","0.800956518","0.6032406034","0.967089612","0.6705264102","","","","","","","","","","","","72","H","0","img/none_selected.jpg","","6","main_expt",""
"","bandit","86","398128","0.0-47.0-0.0","03465827","wem/bandit_either_3","A2XG3FPY0UDZIJ","either","2","293","","","","","","","0","1","0","","0.826484282","0.6","0.2","0.8","0.4","0.826484282","0.6629125932","0.9581374084","0.6395389268","","","","","","","","","","","","72","H","0","img/none_selected.jpg","","7","main_expt",""
"","bandit","87","399955","0.0-48.0-0.0","03465827","wem/bandit_either_3","A2XG3FPY0UDZIJ","either","2","284","","","","","","","1","0","0","0.8721258401","","0.6","0.2","0.8","0.4","","","","","0.8721258401","0.6179372523","0.9470057872","0.6463283336","","","","","","","","72","H","0","img/none_selected.jpg","","8","main_expt",""
"","bandit","88","402016","0.0-49.0-0.0","03465827","wem/bandit_either_3","A2XG3FPY0UDZIJ","either","2","524","","","","","","","0","1","0","","0.9123847657","0.6","0.2","0.8","0.4","0.9123847657","0.7126464358","0.9776699295","0.5257156782","","","","","","","","","","","","72","H","0","img/none_selected.jpg","","9","main_expt",""
"","bandit","89","404016","0.0-50.0-0.0","03465827","wem/bandit_either_3","A2XG3FPY0UDZIJ","either","2","468","","","","","","","0","0","1","","0.8996742502","0.6","0.2","0.8","0.4","0.8996742502","0.7356985298","0.9728878591","0.4763364632","","","","","","","","","","","","72","H","0","img/none_selected.jpg","","10","main_expt",""
"","bandit","90","405853","0.0-51.0-0.0","03465827","wem/bandit_either_3","A2XG3FPY0UDZIJ","either","2","295","","","","","","","1","0","0","0.9131723876","","0.6","0.2","0.8","0.4","","","","","0.9131723876","0.768711937","0.9593139104","0.4284616273","","","","","","","","72","H","0","img/none_selected.jpg","","11","main_expt",""
"","bandit","91","407793","0.0-52.0-0.0","03465827","wem/bandit_either_3","A2XG3FPY0UDZIJ","either","2","413","","","","","","","1","0","0","0.8766857583","","0.6","0.2","0.8","0.4","","","","","0.8766857583","0.775032537","0.9498917819","0.3846657661","","","","","","","","72","H","0","img/none_selected.jpg","","12","main_expt",""
"","bandit","92","409601","0.0-53.0-0.0","03465827","wem/bandit_either_3","A2XG3FPY0UDZIJ","either","2","288","","","","","","","0","1","0","","0.8395211377","0.6","0.2","0.8","0.4","0.8395211377","0.8005481332","0.9541602679","0.4534267517","","","","","","","","","","","","72","H","0","img/none_selected.jpg","","13","main_expt",""
"","bandit","93","411413","0.0-54.0-0.0","03465827","wem/bandit_either_3","A2XG3FPY0UDZIJ","either","2","283","","","","","","","0","1","0","","0.8716273459","0.6","0.2","0.8","0.4","0.8716273459","0.8437703121","0.9457654821","0.5781166702","","","","","","","","","","","","72","H","0","img/none_selected.jpg","","14","main_expt",""
"","bandit","94","413240","0.0-55.0-0.0","03465827","wem/bandit_either_3","A2XG3FPY0UDZIJ","either","2","304","","","","","","","0","1","0","","0.8884181174","0.6","0.2","0.8","0.4","0.8884181174","0.7878475566","0.961431504","0.6683268695","","","","","","","","","","","","72","H","0","img/none_selected.jpg","","15","main_expt",""
"","bandit","95","415078","0.0-56.0-0.0","03465827","wem/bandit_either_3","A2XG3FPY0UDZIJ","either","2","304","","","","","","","1","0","0","0.9144873871","","0.6","0.2","0.8","0.4","","","","","0.9144873871","0.7873795395","0.9614480804","0.6948649322","","","","","","","","72","H","0","img/none_selected.jpg","","16","main_expt",""
"","bandit","96","416931","0.0-57.0-0.0","03465827","wem/bandit_either_3","A2XG3FPY0UDZIJ","either","2","327","","","","","","","0","0","1","0.915766025","","0.6","0.2","0.8","0.4","","","","","0.915766025","0.8084550093","0.981184269","0.7674725463","","","","","","","","72","H","0","img/none_selected.jpg","","17","main_expt",""
"","bandit","97","418759","0.0-58.0-0.0","03465827","wem/bandit_either_3","A2XG3FPY0UDZIJ","either","2","301","","","","","","","0","1","0","","0.9357816117","0.6","0.2","0.8","0.4","0.9357816117","0.8436933745","0.9861919244","0.7706733977","","","","","","","","","","","","72","H","0","img/none_selected.jpg","","18","main_expt",""
"","bandit","98","420933","0.0-59.0-0.0","03465827","wem/bandit_either_3","A2XG3FPY0UDZIJ","either","2","647","","","","","","","0","1","0","","0.9482019282","0.6","0.2","0.8","0.4","0.9482019282","0.8059530903","0.986789567","0.7396491891","","","","","","","","","","","","72","H","0","img/none_selected.jpg","","19","main_expt",""
"","bandit","99","423970","0.0-60.0-0.0","03465827","wem/bandit_either_3","A2XG3FPY0UDZIJ","either","2","1496","","","","","","","0","1","0","","0.9433726768","0.6","0.2","0.8","0.4","0.9433726768","0.7839513496","0.986183881","0.6712916173","","","","","","","","","","","","72","H","0","img/none_selected.jpg","","20","main_expt",""
"","bandit","100","425791","0.0-61.0-0.0","03465827","wem/bandit_either_3","A2XG3FPY0UDZIJ","either","2","285","","","","","","","0","1","0","","0.9488284628","0.6","0.2","0.8","0.4","0.9488284628","0.7841815244","0.9887099493","0.6728887443","","","","","","","","","","","","72","H","0","img/none_selected.jpg","","21","main_expt",""
"","bandit","101","427603","0.0-62.0-0.0","03465827","wem/bandit_either_3","A2XG3FPY0UDZIJ","either","2","299","","","","","","","1","0","0","0.9500515088","","0.6","0.2","0.8","0.4","","","","","0.9500515088","0.8256278583","0.992558567","0.7838502077","","","","","","","","72","H","0","img/none_selected.jpg","","22","main_expt",""
"","bandit","102","429302","0.0-63.0-0.0","03465827","wem/bandit_either_3","A2XG3FPY0UDZIJ","either","2","163","","","","","","","1","0","0","0.9645760881","","0.6","0.2","0.8","0.4","","","","","0.9645760881","0.7043778873","0.9906074595","0.8711917965","","","","","","","","72","H","0","img/none_selected.jpg","","23","main_expt",""
"","bandit","103","431115","0.0-64.0-0.0","03465827","wem/bandit_either_3","A2XG3FPY0UDZIJ","either","2","284","","","","","","","1","0","0","0.946785539","","0.6","0.2","0.8","0.4","","","","","0.946785539","0.7662705475","0.9828703082","0.861124964","","","","","","","","72","H","0","img/none_selected.jpg","","24","main_expt",""
"","bandit","104","432925","0.0-65.0-0.0","03465827","wem/bandit_either_3","A2XG3FPY0UDZIJ","either","2","273","","","","","","","0","1","0","","0.9229473608","0.6","0.2","0.8","0.4","0.9229473608","0.6915147264","0.984618899","0.8551403996","","","","","","","","","","","","72","H","0","img/none_selected.jpg","","25","main_expt",""
"","bandit","105","434923","0.0-66.0-0.0","03465827","wem/bandit_either_3","A2XG3FPY0UDZIJ","either","2","485","","","","","","","0","0","1","","0.8729820127","0.6","0.2","0.8","0.4","0.8729820127","0.6844606422","0.9780938917","0.8959771014","","","","","","","","","","","","72","H","0","img/none_selected.jpg","","26","main_expt",""
"","bandit","106","436710","0.0-67.0-0.0","03465827","wem/bandit_either_3","A2XG3FPY0UDZIJ","either","2","262","","","","","","","1","0","0","0.859067388","","0.6","0.2","0.8","0.4","","","","","0.859067388","0.7953701942","0.9634866904","0.8786292531","","","","","","","","72","H","0","img/none_selected.jpg","","27","main_expt",""
"","bandit","107","438506","0.0-68.0-0.0","03465827","wem/bandit_either_3","A2XG3FPY0UDZIJ","either","2","284","","","","","","","1","0","0","0.836267867","","0.6","0.2","0.8","0.4","","","","","0.836267867","0.622657036","0.946494378","0.8920593834","","","","","","","","72","H","0","img/none_selected.jpg","","28","main_expt",""
"","bandit","108","440291","0.0-69.0-0.0","03465827","wem/bandit_either_3","A2XG3FPY0UDZIJ","either","2","258","","","","","","","0","1","0","","0.7158546556","0.6","0.2","0.8","0.4","0.7158546556","0.5757463716","0.9338647731","0.8234517222","","","","","","","","","","","","72","H","0","img/none_selected.jpg","","29","main_expt",""
"","bandit","109","442099","0.0-70.0-0.0","03465827","wem/bandit_either_3","A2XG3FPY0UDZIJ","either","2","285","","","","","","","0","0","1","0.7262950886","","0.6","0.2","0.8","0.4","","","","","0.7262950886","0.6048158844","0.9354801528","0.7963444676","","","","","","","","72","H","0","img/none_selected.jpg","","30","main_expt",""
"","bandit","110","443898","0.0-71.0-0.0","03465827","wem/bandit_either_3","A2XG3FPY0UDZIJ","either","2","265","","","","","","","0","1","0","","0.7049485024","0.6","0.2","0.8","0.4","0.7049485024","0.4831208743","0.9323861487","0.6847131082","","","","","","","","","","","","72","H","0","img/none_selected.jpg","","31","main_expt",""
"","bandit","111","445693","0.0-72.0-0.0","03465827","wem/bandit_either_3","A2XG3FPY0UDZIJ","either","2","260","","","","","","","0","0","1","","0.6294605358","0.6","0.2","0.8","0.4","0.6294605358","0.4413454117","0.9159531952","0.7745616343","","","","","","","","","","","","72","H","0","img/none_selected.jpg","","32","main_expt",""
"","bandit","112","447460","0.0-73.0-0.0","03465827","wem/bandit_either_3","A2XG3FPY0UDZIJ","either","2","238","","","","","","","0","0","1","0.7097184707","","0.6","0.2","0.8","0.4","","","","","0.7097184707","0.589686364","0.9501333659","0.8111568365","","","","","","","","72","H","0","img/none_selected.jpg","","33","main_expt",""
"","bandit","113","449374","0.0-74.0-0.0","03465827","wem/bandit_either_3","A2XG3FPY0UDZIJ","either","2","389","","","","","","","1","0","0","0.7291364049","","0.6","0.2","0.8","0.4","","","","","0.6324728327","0.5789977489","0.9485118263","0.7291364049","","","","","","","","76","L","3","","","34","main_expt",""
"","bandit","114","451167","0.0-75.0-0.0","03465827","wem/bandit_either_3","A2XG3FPY0UDZIJ","either","2","262","","","","","","","1","0","0","0.7920219322","","0.6","0.2","0.8","0.4","","","","","0.6809104991","0.5605822786","0.959491173","0.7920219322","","","","","","","","76","L","3","","","35","main_expt",""
"","bandit","115","452992","0.0-76.0-0.0","03465827","wem/bandit_either_3","A2XG3FPY0UDZIJ","either","2","300","","","","","","","0","1","0","","0.7889809596","0.6","0.2","0.8","0.4","0.5745256001","0.3330948712","0.9523687656","0.7889809596","","","","","","","","","","","","76","L","3","","","36","main_expt",""
"","bandit","116","454772","0.0-77.0-0.0","03465827","wem/bandit_either_3","A2XG3FPY0UDZIJ","either","2","254","","","","","","","0","1","0","","0.8060385269","0.6","0.2","0.8","0.4","0.6249275122","0.2430176499","0.9504344127","0.8060385269","","","","","","","","","","","","76","L","3","","","37","main_expt",""
"","bandit","117","456541","0.0-78.0-0.0","03465827","wem/bandit_either_3","A2XG3FPY0UDZIJ","either","2","237","","","","","","","0","1","0","","0.7188782676","0.6","0.2","0.8","0.4","0.5582777804","0.3106083343","0.9321408283","0.7188782676","","","","","","","","","","","","76","L","3","","","38","main_expt",""
"","bandit","118","458363","0.0-79.0-0.0","03465827","wem/bandit_either_3","A2XG3FPY0UDZIJ","either","2","282","","","","","","","1","0","0","0.7387945131","","0.6","0.2","0.8","0.4","","","","","0.6619895395","0.3239447463","0.9135525369","0.7387945131","","","","","","","","76","L","3","","","39","main_expt",""
"","bandit","119","460060","0.0-80.0-0.0","03465827","wem/bandit_either_3","A2XG3FPY0UDZIJ","either","2","161","","","","","","","1","0","0","0.7478035428","","0.6","0.2","0.8","0.4","","","","","0.6522152691","0.2946631509","0.8840916364","0.7478035428","","","","","","","","76","L","3","","","40","main_expt",""
"","bandit","120","461883","0.0-81.0-0.0","03465827","wem/bandit_either_3","A2XG3FPY0UDZIJ","either","2","298","","","","","","","0","1","0","","0.7802386085","0.6","0.2","0.8","0.4","0.6714070371","0.193597671","0.8747037504","0.7802386085","","","","","","","","","","","","76","L","3","","","41","main_expt",""
"","bandit","121","463663","0.0-82.0-0.0","03465827","wem/bandit_either_3","A2XG3FPY0UDZIJ","either","2","248","","","","","","","0","1","0","","0.7994277013","0.6","0.2","0.8","0.4","0.6390104416","0.1834529884","0.826315498","0.7994277013","","","","","","","","","","","","76","L","3","","","42","main_expt",""
"","bandit","122","465513","0.0-83.0-0.0","03465827","wem/bandit_either_3","A2XG3FPY0UDZIJ","either","2","310","","","","","","","0","1","0","","0.8718069658","0.6","0.2","0.8","0.4","0.6318841448","0.1558663495","0.7681371561","0.8718069658","","","","","","","","","","","","76","L","3","","","43","main_expt",""
"","bandit","123","467383","0.0-84.0-0.0","03465827","wem/bandit_either_3","A2XG3FPY0UDZIJ","either","2","340","","","","","","","1","0","0","0.7725207311","","0.6","0.2","0.8","0.4","","","","","0.5708139437","0.1573065196","0.7584360225","0.7725207311","","","","","","","","76","L","3","","","44","main_expt",""
"","bandit","124","469164","0.0-85.0-0.0","03465827","wem/bandit_either_3","A2XG3FPY0UDZIJ","either","2","240","","","","","","","0","1","0","","0.8399140445","0.6","0.2","0.8","0.4","0.5703812278","0.1743203636","0.816959585","0.8399140445","","","","","","","","","","","","76","L","3","","","45","main_expt",""
"","bandit","125","470990","0.0-86.0-0.0","03465827","wem/bandit_either_3","A2XG3FPY0UDZIJ","either","2","292","","","","","","","1","0","0","0.7830678696","","0.6","0.2","0.8","0.4","","","","","0.4520700595","0.1234040722","0.7571269921","0.7830678696","","","","","","","","76","L","3","","","46","main_expt",""
"","bandit","126","472811","0.0-87.0-0.0","03465827","wem/bandit_either_3","A2XG3FPY0UDZIJ","either","2","281","","","","","","","1","0","0","0.8255209912","","0.6","0.2","0.8","0.4","","","","","0.4953600952","0.1592846429","0.7086567283","0.8255209912","","","","","","","","76","L","3","","","47","main_expt",""
"","bandit","127","474649","0.0-88.0-0.0","03465827","wem/bandit_either_3","A2XG3FPY0UDZIJ","either","2","324","","","","","","","0","1","0","","0.7728754614","0.6","0.2","0.8","0.4","0.4912921637","0.1880090658","0.6428227569","0.7728754614","","","","","","","","","","","","76","L","3","","","48","main_expt",""
"","bandit","128","476432","0.0-89.0-0.0","03465827","wem/bandit_either_3","A2XG3FPY0UDZIJ","either","2","262","","","","","","","0","0","1","","0.8607162984","0.6","0.2","0.8","0.4","0.4694413912","0.3190576765","0.7004196772","0.8607162984","","","","","","","","","","","","76","L","3","","","49","main_expt",""
"","bandit","129","478261","0.0-90.0-0.0","03465827","wem/bandit_either_3","A2XG3FPY0UDZIJ","either","2","300","","","","","","","0","0","1","","0.8526113732","0.6","0.2","0.8","0.4","0.5835687148","0.277770718","0.6418514465","0.8526113732","","","","","","","","","","","","76","L","3","","","50","main_expt",""
"","bandit","130","480139","0.0-91.0-0.0","03465827","wem/bandit_either_3","A2XG3FPY0UDZIJ","either","2","335","","","","","","","0","1","0","","0.8630835666","0.6","0.2","0.8","0.4","0.581499138","0.3304163056","0.6322169777","0.8630835666","","","","","","","","","","","","76","L","3","","","51","main_expt",""
"","bandit","131","482019","0.0-92.0-0.0","03465827","wem/bandit_either_3","A2XG3FPY0UDZIJ","either","2","338","","","","","","","0","1","0","","0.8689990829","0.6","0.2","0.8","0.4","0.6521379128","0.3074301744","0.6160259873","0.8689990829","","","","","","","","","","","","76","L","3","","","52","main_expt",""
"","bandit","132","483808","0.0-93.0-0.0","03465827","wem/bandit_either_3","A2XG3FPY0UDZIJ","either","2","267","","","","","","","1","0","0","0.8829627288","","0.6","0.2","0.8","0.4","","","","","0.5743957808","0.3292402402","0.6635838846","0.8829627288","","","","","","","","76","L","3","","","53","main_expt",""
"","bandit","133","485640","0.0-94.0-0.0","03465827","wem/bandit_either_3","A2XG3FPY0UDZIJ","either","2","304","","","","","","","0","1","0","","0.8577096669","0.6","0.2","0.8","0.4","0.4765250731","0.3701383524","0.7334380463","0.8577096669","","","","","","","","","","","","76","L","3","","","54","main_expt",""
"","bandit","134","487458","0.0-95.0-0.0","03465827","wem/bandit_either_3","A2XG3FPY0UDZIJ","either","2","282","","","","","","","1","0","0","0.7951355038","","0.6","0.2","0.8","0.4","","","","","0.472038817","0.4023440482","0.6625049704","0.7951355038","","","","","","","","76","L","3","","","55","main_expt",""
"","bandit","135","489287","0.0-96.0-0.0","03465827","wem/bandit_either_3","A2XG3FPY0UDZIJ","either","2","302","","","","","","","0","1","0","","0.7832403428","0.6","0.2","0.8","0.4","0.6060805283","0.3320470731","0.6244126183","0.7832403428","","","","","","","","","","","","76","L","3","","","56","main_expt",""
"","bandit","136","491074","0.0-97.0-0.0","03465827","wem/bandit_either_3","A2XG3FPY0UDZIJ","either","2","255","","","","","","","1","0","0","0.7165346004","","0.6","0.2","0.8","0.4","","","","","0.5733746242","0.3398704556","0.693445159","0.7165346004","","","","","","","","76","L","3","","","57","main_expt",""
"","bandit","137","492979","0.0-98.0-0.0","03465827","wem/bandit_either_3","A2XG3FPY0UDZIJ","either","2","381","","","","","","","0","1","0","","0.7840704931","0.6","0.2","0.8","0.4","0.5268086549","0.3171476707","0.6603141298","0.7840704931","","","","","","","","","","","","76","L","3","","","58","main_expt",""
"","bandit","138","494799","0.0-99.0-0.0","03465827","wem/bandit_either_3","A2XG3FPY0UDZIJ","either","2","288","","","","","","","0","1","0","","0.7166558068","0.6","0.2","0.8","0.4","0.5298916697","0.1868584885","0.6435133917","0.7166558068","","","","","","","","","","","","76","L","3","","","59","main_expt",""
"","bandit","139","496822","0.0-100.0-0.0","03465827","wem/bandit_either_3","A2XG3FPY0UDZIJ","either","2","503","","","","","","","0","1","0","","0.6505055492","0.6","0.2","0.8","0.4","0.5547432704","0.2163153633","0.6720075741","0.6505055492","","","","","","","","","","","","76","L","3","","","60","main_expt",""
"","bandit","140","498874","0.0-101.0-0.0","03465827","wem/bandit_either_3","A2XG3FPY0UDZIJ","either","2","514","","","","","","","1","0","0","0.6465946667","","0.6","0.2","0.8","0.4","","","","","0.5407031957","0.2086512551","0.6703611074","0.6465946667","","","","","","","","76","L","3","","","61","main_expt",""
"","bandit","141","501068","0.0-102.0-0.0","03465827","wem/bandit_either_3","A2XG3FPY0UDZIJ","either","2","664","","","","","","","0","0","1","","0.709990362","0.6","0.2","0.8","0.4","0.6993449034","0.2250062338","0.64477312","0.709990362","","","","","","","","","","","","76","L","3","","","62","main_expt",""
"","bandit","142","502946","0.0-103.0-0.0","03465827","wem/bandit_either_3","A2XG3FPY0UDZIJ","either","2","359","","","","","","","0","1","0","","0.7542168012","0.6","0.2","0.8","0.4","0.6342967703","0.2739380208","0.509049177","0.7542168012","","","","","","","","","","","","76","L","3","","","63","main_expt",""
"","bandit","143","504760","0.0-104.0-0.0","03465827","wem/bandit_either_3","A2XG3FPY0UDZIJ","either","2","282","","","","","","","0","1","0","","0.7660604158","0.6","0.2","0.8","0.4","0.5961490325","0.3449536465","0.5535424332","0.7660604158","","","","","","","","","","","","76","L","3","","","64","main_expt",""
"","bandit","144","506579","0.0-105.0-0.0","03465827","wem/bandit_either_3","A2XG3FPY0UDZIJ","either","2","291","","","","","","","0","1","0","","0.7572602099","0.6","0.2","0.8","0.4","0.5771190674","0.34640195","0.6608621899","0.7572602099","","","","","","","","","","","","76","L","3","","","65","main_expt",""
"","bandit","145","508420","0.0-106.0-0.0","03465827","wem/bandit_either_3","A2XG3FPY0UDZIJ","either","2","322","","","","","","","1","0","0","0.686926195","","0.6","0.2","0.8","0.4","","","","","0.4765921407","0.5266288285","0.6535341977","0.686926195","","","","","","","","76","L","3","","","66","main_expt",""
"","bandit","146","510213","0.0-107.0-0.0","03465827","wem/bandit_either_3","A2XG3FPY0UDZIJ","either","2","262","","","","","","","0","0","1","","0.7334195653","0.6","0.2","0.8","0.4","0.5714361875","0.5588671697","0.6592628399","0.7334195653","","","","","","","","","","","","76","L","3","","","67","main_expt",""
"","bandit","147","512014","0.0-108.0-0.0","03465827","wem/bandit_either_3","A2XG3FPY0UDZIJ","either","2","264","","","","","","","0","0","1","","0.6114245881","0.6","0.2","0.8","0.4","0.6231829193","0.6097536784","0.6735013879","0.6114245881","","","","","","","","","","","","76","L","3","","","68","main_expt",""
"","bandit","148","513816","0.0-109.0-0.0","03465827","wem/bandit_either_3","A2XG3FPY0UDZIJ","either","2","269","","","","","","","0","1","0","","0.6460921668","0.6","0.2","0.8","0.4","0.5130256365","0.533457584","0.7209687993","0.6460921668","","","","","","","","","","","","76","L","3","","","69","main_expt",""
"","bandit","149","515619","0.0-110.0-0.0","03465827","wem/bandit_either_3","A2XG3FPY0UDZIJ","either","2","258","","","","","","","0","1","0","","0.6700702736","0.6","0.2","0.8","0.4","0.5167166","0.4124750721","0.690528825","0.6700702736","","","","","","","","","","","","76","L","3","","","70","main_expt",""
"","bandit","150","517418","0.0-111.0-0.0","03465827","wem/bandit_either_3","A2XG3FPY0UDZIJ","either","2","262","","","","","","","0","1","0","","0.6388012411","0.6","0.2","0.8","0.4","0.6448170737","0.4486526525","0.6453310316","0.6388012411","","","","","","","","","","","","76","L","3","","","71","main_expt",""
"","bandit","151","519206","0.0-112.0-0.0","03465827","wem/bandit_either_3","A2XG3FPY0UDZIJ","either","2","257","","","","","","","1","0","0","0.6046900378","","0.6","0.2","0.8","0.4","","","","","0.5640434706","0.4313602212","0.8140348339","0.6046900378","","","","","","","","76","L","3","","","72","main_expt",""
"","bandit","152","520994","0.0-113.0-0.0","03465827","wem/bandit_either_3","A2XG3FPY0UDZIJ","either","2","255","","","","","","","1","0","0","0.6062428704","","0.6","0.2","0.8","0.4","","","","","0.6296110197","0.3639072561","0.820931829","0.6062428704","","","","","","","","76","L","3","","","73","main_expt",""
"","bandit","153","522804","0.0-114.0-0.0","03465827","wem/bandit_either_3","A2XG3FPY0UDZIJ","either","2","278","","","","","","","0","0","1","","0.6237194739","0.6","0.2","0.8","0.4","0.6730210969","0.2882181569","0.8096233945","0.6237194739","","","","","","","","","","","","76","L","3","","","74","main_expt",""
"","bandit","154","524664","0.0-115.0-0.0","03465827","wem/bandit_either_3","A2XG3FPY0UDZIJ","either","2","321","","","","","","","0","1","0","","0.5971007372","0.6","0.2","0.8","0.4","0.5720403827","0.3561187133","0.7615001707","0.5971007372","","","","","","","","","","","","76","L","3","","","75","main_expt",""
"","bandit","155","526454","0.0-116.0-0.0","03465827","wem/bandit_either_3","A2XG3FPY0UDZIJ","either","2","263","","","","","","","0","0","1","0.5810032438","","0.6","0.2","0.8","0.4","","","","","0.6303512149","0.4480894403","0.8147365981","0.5810032438","","","","","","","","76","L","3","","","76","main_expt",""
"","bandit","156","528247","0.0-117.0-0.0","03465827","wem/bandit_either_3","A2XG3FPY0UDZIJ","either","2","261","","","","","","","0","0","1","","0.5792233978","0.6","0.2","0.8","0.4","0.5531797874","0.3220850356","0.8926338818","0.5792233978","","","","","","","","","","","","76","L","3","","","77","main_expt",""
"","bandit","157","530044","0.0-118.0-0.0","03465827","wem/bandit_either_3","A2XG3FPY0UDZIJ","either","2","263","","","","","","","0","0","1","0.692511921","","0.6","0.2","0.8","0.4","","","","","0.5449672882","0.3281133775","0.8669072201","0.692511921","","","","","","","","76","L","3","","","78","main_expt",""
"","bandit","158","531742","0.0-119.0-0.0","03465827","wem/bandit_either_3","A2XG3FPY0UDZIJ","either","2","163","","","","","","","1","0","0","0.9114006046","","0.6","0.2","0.8","0.4","","","","","0.4484013318","0.3814329202","0.9114006046","0.7019625083","","","","","","","","75","K","2","","","79","main_expt",""
"","bandit","159","533524","0.0-120.0-0.0","03465827","wem/bandit_either_3","A2XG3FPY0UDZIJ","either","2","250","","","","","","","0","1","0","","0.9268398106","0.6","0.2","0.8","0.4","0.5041425745","0.3512572076","0.9268398106","0.6785675641","","","","","","","","","","","","75","K","2","","","80","main_expt",""
"","bandit","160","535332","0.0-121.0-0.0","03465827","wem/bandit_either_3","A2XG3FPY0UDZIJ","either","2","270","","","","","","","1","0","0","0.9582858862","","0.6","0.2","0.8","0.4","","","","","0.3462078978","0.3624285329","0.9582858862","0.7101061672","","","","","","","","75","K","2","","","81","main_expt",""
"","bandit","161","537130","0.0-122.0-0.0","03465827","wem/bandit_either_3","A2XG3FPY0UDZIJ","either","2","269","","","","","","","1","0","0","0.9590071975","","0.6","0.2","0.8","0.4","","","","","0.3226795418","0.3111883408","0.9590071975","0.7217376576","","","","","","","","75","K","2","","","82","main_expt",""
"","bandit","162","538871","0.0-123.0-0.0","03465827","wem/bandit_either_3","A2XG3FPY0UDZIJ","either","2","210","","","","","","","1","0","0","0.9379973093","","0.6","0.2","0.8","0.4","","","","","0.3023868023","0.243162563","0.9379973093","0.6437777395","","","","","","","","75","K","2","","","83","main_expt",""
"","bandit","163","540707","0.0-124.0-0.0","03465827","wem/bandit_either_3","A2XG3FPY0UDZIJ","either","2","309","","","","","","","1","0","0","0.9411979228","","0.6","0.2","0.8","0.4","","","","","0.4040419094","0.347146949","0.9411979228","0.6533183273","","","","","","","","75","K","2","","","84","main_expt",""
"","bandit","164","542498","0.0-125.0-0.0","03465827","wem/bandit_either_3","A2XG3FPY0UDZIJ","either","2","260","","","","","","","1","0","0","0.9441700551","","0.6","0.2","0.8","0.4","","","","","0.4716136817","0.4416309426","0.9441700551","0.7469548387","","","","","","","","75","K","2","","","85","main_expt",""
"","bandit","165","544323","0.0-126.0-0.0","03465827","wem/bandit_either_3","A2XG3FPY0UDZIJ","either","2","290","","","","","","","0","1","0","","0.9323605113","0.6","0.2","0.8","0.4","0.4455883603","0.4523797492","0.9323605113","0.7366570046","","","","","","","","","","","","75","K","2","","","86","main_expt",""
"","bandit","166","546114","0.0-127.0-0.0","03465827","wem/bandit_either_3","A2XG3FPY0UDZIJ","either","2","263","","","","","","","1","0","0","0.8871332711","","0.6","0.2","0.8","0.4","","","","","0.5952575165","0.4621103264","0.8871332711","0.7142428019","","","","","","","","75","K","2","","","87","main_expt",""
"","bandit","167","547941","0.0-128.0-0.0","03465827","wem/bandit_either_3","A2XG3FPY0UDZIJ","either","2","311","","","","","","","1","0","0","0.8520973281","","0.6","0.2","0.8","0.4","","","","","0.5333825583","0.3800084876","0.8520973281","0.7057172343","","","","","","","","75","K","2","","","88","main_expt",""
"","bandit","168","549832","0.0-129.0-0.0","03465827","wem/bandit_either_3","A2XG3FPY0UDZIJ","either","2","353","","","","","","","1","0","0","0.7882210871","","0.6","0.2","0.8","0.4","","","","","0.4583166828","0.2354372355","0.7882210871","0.7289934888","","","","","","","","75","K","2","","","89","main_expt",""
"","bandit","169","551602","0.0-130.0-0.0","03465827","wem/bandit_either_3","A2XG3FPY0UDZIJ","either","2","236","","","","","","","1","0","0","0.720110267","","0.6","0.2","0.8","0.4","","","","","0.4782349553","0.2978482647","0.720110267","0.7475354559","","","","","","","","75","K","2","","","90","main_expt",""
"","bandit","170","553409","0.0-131.0-0.0","03465827","wem/bandit_either_3","A2XG3FPY0UDZIJ","either","2","293","","","","","","","0","1","0","","0.7390342074","0.6","0.2","0.8","0.4","0.464138054","0.3723871884","0.7390342074","0.6316706059","","","","","","","","","","","","75","K","2","","","91","main_expt",""
"","bandit","171","555254","0.0-132.0-0.0","03465827","wem/bandit_either_3","A2XG3FPY0UDZIJ","either","2","325","","","","","","","0","1","0","","0.8135224625","0.6","0.2","0.8","0.4","0.5084128334","0.5400298203","0.8135224625","0.6957908828","","","","","","","","","","","","75","K","2","","","92","main_expt",""
"","bandit","172","556978","0.0-133.0-0.0","03465827","wem/bandit_either_3","A2XG3FPY0UDZIJ","either","2","180","","","","","","","1","0","0","0.7814404678","","0.6","0.2","0.8","0.4","","","","","0.5211356389","0.5134744583","0.7814404678","0.6812665662","","","","","","","","75","K","2","","","93","main_expt",""
"","bandit","173","559412","0.0-134.0-0.0","03465827","wem/bandit_either_3","A2XG3FPY0UDZIJ","either","2","906","","","","","","","0","0","1","0.7672416568","","0.6","0.2","0.8","0.4","","","","","0.4554037602","0.4101580275","0.7672416568","0.6412933588","","","","","","","","75","K","2","","","94","main_expt",""
"","bandit","174","561244","0.0-135.0-0.0","03465827","wem/bandit_either_3","A2XG3FPY0UDZIJ","either","2","302","","","","","","","0","0","1","0.7573973965","","0.6","0.2","0.8","0.4","","","","","0.4195046205","0.2995167601","0.7573973965","0.5696630174","","","","","","","","75","K","2","","","95","main_expt",""
"","bandit","175","563064","0.0-136.0-0.0","03465827","wem/bandit_either_3","A2XG3FPY0UDZIJ","either","2","289","","","","","","","1","0","0","0.8177369732","","0.6","0.2","0.8","0.4","","","","","0.3638478563","0.2934894425","0.8177369732","0.6076398096","","","","","","","","75","K","2","","","96","main_expt",""
"","bandit","176","564841","0.0-137.0-0.0","03465827","wem/bandit_either_3","A2XG3FPY0UDZIJ","either","2","248","","","","","","","0","0","1","0.8124666872","","0.6","0.2","0.8","0.4","","","","","0.2839735208","0.2802715202","0.8124666872","0.5551612935","","","","","","","","75","K","2","","","97","main_expt",""
"","bandit","177","566708","0.0-138.0-0.0","03465827","wem/bandit_either_3","A2XG3FPY0UDZIJ","either","2","339","","","","","","","0","1","0","","0.881496875","0.6","0.2","0.8","0.4","0.2109275999","0.2703087955","0.881496875","0.6354974245","","","","","","","","","","","","75","K","2","","","98","main_expt",""
"","bandit","178","568531","0.0-139.0-0.0","03465827","wem/bandit_either_3","A2XG3FPY0UDZIJ","either","2","307","","","","","","","0","1","0","","0.8785981907","0.6","0.2","0.8","0.4","0.1531506719","0.3027543159","0.8785981907","0.5945745664","","","","","","","","","","","","75","K","2","","","99","main_expt",""
"","bandit","179","570354","0.0-140.0-0.0","03465827","wem/bandit_either_3","A2XG3FPY0UDZIJ","either","2","303","","","","","","","0","1","0","","0.8494581726","0.6","0.2","0.8","0.4","0.1262108991","0.3645318829","0.8494581726","0.5679097985","","","","","","","","","","","","75","K","2","","","100","main_expt",""
"","bandit","180","572330","0.0-141.0-0.0","03465827","wem/bandit_either_3","A2XG3FPY0UDZIJ","either","2","441","","","","","","","1","0","0","0.7754784616","","0.6","0.2","0.8","0.4","","","","","0.1340220502","0.4315832637","0.7754784616","0.6430580454","","","","","","","","75","K","2","","","101","main_expt",""
"","bandit","181","574131","0.0-142.0-0.0","03465827","wem/bandit_either_3","A2XG3FPY0UDZIJ","either","2","264","","","","","","","0","0","1","0.7626736499","","0.6","0.2","0.8","0.4","","","","","0.2167126086","0.3608531129","0.7626736499","0.6340200926","","","","","","","","75","K","2","","","102","main_expt",""
"","bandit","182","576074","0.0-143.0-0.0","03465827","wem/bandit_either_3","A2XG3FPY0UDZIJ","either","2","410","","","","","","","1","0","0","0.7329996306","","0.6","0.2","0.8","0.4","","","","","0.2796352144","0.3688981903","0.7329996306","0.6377668076","","","","","","","","75","K","2","","","103","main_expt",""
"","bandit","183","577963","0.0-144.0-0.0","03465827","wem/bandit_either_3","A2XG3FPY0UDZIJ","either","2","345","","","","","","","1","0","0","0.7467689404","","0.6","0.2","0.8","0.4","","","","","0.3556406549","0.3758155051","0.7467689404","0.6578341575","","","","","","","","75","K","2","","","104","main_expt",""
"","bandit","184","579848","0.0-145.0-0.0","03465827","wem/bandit_either_3","A2XG3FPY0UDZIJ","either","2","339","","","","","","","0","0","1","0.737018723","","0.6","0.2","0.8","0.4","","","","","0.3233911601","0.4508947075","0.737018723","0.6727034752","","","","","","","","75","K","2","","","105","main_expt",""
"","bandit","185","581690","0.0-146.0-0.0","03465827","wem/bandit_either_3","A2XG3FPY0UDZIJ","either","2","316","","","","","","","1","0","0","0.655194185","","0.6","0.2","0.8","0.4","","","","","0.2024631506","0.4132181144","0.655194185","0.6386482702","","","","","","","","75","K","2","","","106","main_expt",""
"","bandit","186","583722","0.0-147.0-0.0","03465827","wem/bandit_either_3","A2XG3FPY0UDZIJ","either","2","505","","","","","","","1","0","0","0.7122819559","","0.6","0.2","0.8","0.4","","","","","0.2290393164","0.4393512677","0.7122819559","0.6788938686","","","","","","","","75","K","2","","","107","main_expt",""
"","bandit","187","585529","0.0-148.0-0.0","03465827","wem/bandit_either_3","A2XG3FPY0UDZIJ","either","2","277","","","","","","","1","0","0","0.7326995505","","0.6","0.2","0.8","0.4","","","","","0.2217712157","0.4964319729","0.7326995505","0.7076498576","","","","","","","","75","K","2","","","108","main_expt",""
"","bandit","188","587365","0.0-149.0-0.0","03465827","wem/bandit_either_3","A2XG3FPY0UDZIJ","either","2","303","","","","","","","1","0","0","0.7165499475","","0.6","0.2","0.8","0.4","","","","","0.1566860935","0.4790921069","0.7165499475","0.6932550908","","","","","","","","75","K","2","","","109","main_expt",""
"","bandit","189","589153","0.0-150.0-0.0","03465827","wem/bandit_either_3","A2XG3FPY0UDZIJ","either","2","258","","","","","","","1","0","0","0.6058017554","","0.6","0.2","0.8","0.4","","","","","0.1083987113","0.5856434505","0.6058017554","0.7436061547","","","","","","","","75","K","2","","","110","main_expt",""
"","bandit","190","590982","0.0-151.0-0.0","03465827","wem/bandit_either_3","A2XG3FPY0UDZIJ","either","2","282","","","","","","","0","1","0","","0.5476823758","0.6","0.2","0.8","0.4","0.217828795","0.6444230696","0.5476823758","0.657194241","","","","","","","","","","","","75","K","2","","","111","main_expt",""
"","bandit","191","592806","0.0-152.0-0.0","03465827","wem/bandit_either_3","A2XG3FPY0UDZIJ","either","2","290","","","","","","","1","0","0","0.5688313193","","0.6","0.2","0.8","0.4","","","","","0.2212119155","0.603417252","0.5688313193","0.6317228327","","","","","","","","75","K","2","","","112","main_expt",""
"","bandit","192","594568","0.0-153.0-0.0","03465827","wem/bandit_either_3","A2XG3FPY0UDZIJ","either","2","252","","","","","","","1","0","0","0.50852785","","0.6","0.2","0.8","0.4","","","","","0.2374112476","0.420613871","0.50852785","0.4985892417","","","","","","","","75","K","2","","","113","main_expt",""
"","bandit","193","596391","0.0-154.0-0.0","03465827","wem/bandit_either_3","A2XG3FPY0UDZIJ","either","2","286","","","","","","","1","0","0","0.5711084253","","0.6","0.2","0.8","0.4","","","","","0.2703699348","0.2851569533","0.5711084253","0.579071345","","","","","","","","75","K","2","","","114","main_expt",""
"","bandit","194","598195","0.0-155.0-0.0","03465827","wem/bandit_either_3","A2XG3FPY0UDZIJ","either","2","269","","","","","","","0","0","1","0.4177754351","","0.6","0.2","0.8","0.4","","","","","0.1928485376","0.3166589884","0.4177754351","0.4595939904","","","","","","","","75","K","2","","","115","main_expt",""
"","bandit","195","599980","0.0-156.0-0.0","03465827","wem/bandit_either_3","A2XG3FPY0UDZIJ","either","2","257","","","","","","","1","0","0","0.387840809","","0.6","0.2","0.8","0.4","","","","","0.136356343","0.3928451607","0.387840809","0.3744567546","","","","","","","","75","K","2","","","116","main_expt",""
"","bandit","196","601871","0.0-157.0-0.0","03465827","wem/bandit_either_3","A2XG3FPY0UDZIJ","either","2","355","","","","","","","1","0","0","0.4456731606","","0.6","0.2","0.8","0.4","","","","","0.2193113504","0.560845346","0.4456731606","0.302145019","","","","","","","","75","K","2","","","117","main_expt",""
"","bandit","197","603624","0.0-158.0-0.0","03465827","wem/bandit_either_3","A2XG3FPY0UDZIJ","either","2","237","","","","","","","0","0","1","0.3045880574","","0.6","0.2","0.8","0.4","","","","","0.2686792008","0.5536818424","0.3045880574","0.3522466686","","","","","","","","75","K","2","","","118","main_expt",""
"","bandit","198","605406","0.0-159.0-0.0","03465827","wem/bandit_either_3","A2XG3FPY0UDZIJ","either","2","257","","","","","","","0","0","1","","0.3994134075","0.6","0.2","0.8","0.4","0.2668270476","0.3617659687","0.3994134075","0.4425542362","","","","","","","","","","","","75","K","2","","","119","main_expt",""
"","bandit","199","607257","0.0-160.0-0.0","03465827","wem/bandit_either_3","A2XG3FPY0UDZIJ","either","2","321","","","","","","","0","1","0","","0.3454740543","0.6","0.2","0.8","0.4","0.3723992114","0.3454740543","0.351449483","0.3377532805","","","","","","","","","","","","74","J","1","","","120","main_expt",""
"","bandit","200","608860","0.0-161.0-0.0","03465827","wem/bandit_either_3","A2XG3FPY0UDZIJ","either","2","74","","","","","","","0","1","0","","0.2798257893","0.6","0.2","0.8","0.4","0.4001238515","0.2798257893","0.3641911367","0.2929504356","","","","","","","","","","","","74","J","1","","","121","main_expt",""
"","bandit","201","610572","0.0-162.0-0.0","03465827","wem/bandit_either_3","A2XG3FPY0UDZIJ","either","2","186","","","","","","","0","1","0","","0.2261540995","0.6","0.2","0.8","0.4","0.4090120715","0.2261540995","0.2673706252","0.2504028886","","","","","","","","","","","","74","J","1","","","122","main_expt",""
"","bandit","202","612361","0.0-163.0-0.0","03465827","wem/bandit_either_3","A2XG3FPY0UDZIJ","either","2","258","","","","","","","1","0","0","0.2766663047","","0.6","0.2","0.8","0.4","","","","","0.4746108064","0.2766663047","0.3455372181","0.2414849785","","","","","","","","74","J","1","","","123","main_expt",""
"","bandit","203","614033","0.0-164.0-0.0","03465827","wem/bandit_either_3","A2XG3FPY0UDZIJ","either","2","156","","","","","","","0","0","1","","0.3126864395","0.6","0.2","0.8","0.4","0.453231646","0.3126864395","0.3524137631","0.1791255979","","","","","","","","","","","","74","J","1","","","124","main_expt",""
"","bandit","204","615759","0.0-165.0-0.0","03465827","wem/bandit_either_3","A2XG3FPY0UDZIJ","either","2","204","","","","","","","0","0","1","","0.2772507379","0.6","0.2","0.8","0.4","0.4888945922","0.2772507379","0.3680881866","0.1952456852","","","","","","","","","","","","74","J","1","","","125","main_expt",""
"","bandit","205","617450","0.0-166.0-0.0","03465827","wem/bandit_either_3","A2XG3FPY0UDZIJ","either","2","145","","","","","","","0","0","1","0.2441417391","","0.6","0.2","0.8","0.4","","","","","0.396932523","0.2441417391","0.2884444508","0.2614303707","","","","","","","","74","J","1","","","126","main_expt",""
"","bandit","206","618985","0.0-167.0-0.0","03465827","wem/bandit_either_3","A2XG3FPY0UDZIJ","either","2","3","","","","","","","1","0","0","0.4026562496","","0.6","0.2","0.8","0.4","","","","","0.4026562496","0.2304038214","0.2931854252","0.267511235","","","","","","","","72","H","0","img/none_selected.jpg","","127","main_expt",""
"","bandit","207","620738","0.0-168.0-0.0","03465827","wem/bandit_either_3","A2XG3FPY0UDZIJ","either","2","226","","","","","","","0","0","1","0.3072143153","","0.6","0.2","0.8","0.4","","","","","0.3072143153","0.2463692943","0.3115494401","0.2582460394","","","","","","","","72","H","0","img/none_selected.jpg","","128","main_expt",""
"","bandit","208","622333","0.0-169.0-0.0","03465827","wem/bandit_either_3","A2XG3FPY0UDZIJ","either","2","69","","","","","","","0","0","1","0.249100023","","0.6","0.2","0.8","0.4","","","","","0.3024431642","0.262841392","0.287093163","0.249100023","","","","","","","","76","L","3","","","129","main_expt",""
"","bandit","209","623956","0.0-170.0-0.0","03465827","wem/bandit_either_3","A2XG3FPY0UDZIJ","either","2","90","","","","","","","1","0","0","0.2014680341","","0.6","0.2","0.8","0.4","","","","","0.383823705","0.3044503748","0.242368994","0.2014680341","","","","","","","","76","L","3","","","130","main_expt",""
"","bandit","210","625792","0.0-171.0-0.0","03465827","wem/bandit_either_3","A2XG3FPY0UDZIJ","either","2","298","","","","","","","1","0","0","0.2514612397","","0.6","0.2","0.8","0.4","","","","","0.5448185218","0.2231782293","0.3141093292","0.2514612397","","","","","","","","76","L","3","","","131","main_expt",""
"","bandit","211","627590","0.0-172.0-0.0","03465827","wem/bandit_either_3","A2XG3FPY0UDZIJ","either","2","249","","","","","","","0","0","1","0.1719215191","","0.6","0.2","0.8","0.4","","","","","0.5741986762","0.265126842","0.3186943837","0.1719215191","","","","","","","","76","L","3","","","132","main_expt",""
"","bandit","212","629334","0.0-173.0-0.0","03465827","wem/bandit_either_3","A2XG3FPY0UDZIJ","either","2","223","","","","","","","1","0","0","0.151851594","","0.6","0.2","0.8","0.4","","","","","0.54298015","0.1996467811","0.3218599317","0.151851594","","","","","","","","76","L","3","","","133","main_expt",""
"","bandit","213","631067","0.0-174.0-0.0","03465827","wem/bandit_either_3","A2XG3FPY0UDZIJ","either","2","196","","","","","","","0","0","1","0.1693242304","","0.6","0.2","0.8","0.4","","","","","0.5504084981","0.1900899503","0.3372263261","0.1693242304","","","","","","","","76","L","3","","","134","main_expt",""
"","bandit","214","632853","0.0-175.0-0.0","03465827","wem/bandit_either_3","A2XG3FPY0UDZIJ","either","2","266","","","","","","","0","0","1","0.1541174352","","0.6","0.2","0.8","0.4","","","","","0.4874659601","0.172295534","0.3515125386","0.1541174352","","","","","","","","76","L","3","","","135","main_expt",""
"","bandit","215","634838","0.0-176.0-0.0","03465827","wem/bandit_either_3","A2XG3FPY0UDZIJ","either","2","451","","","","","","","0","0","1","","0.3677382912","0.6","0.2","0.8","0.4","0.3677382912","0.1171098277","0.2312583875","0.1374012581","","","","","","","","","","","","72","H","0","img/none_selected.jpg","","136","main_expt",""
"","bandit","216","636538","0.0-177.0-0.0","03465827","wem/bandit_either_3","A2XG3FPY0UDZIJ","either","2","175","","","","","","","0","0","1","0.2944012193","","0.6","0.2","0.8","0.4","","","","","0.2944012193","0.1390909791","0.3496768842","0.2889288236","","","","","","","","72","H","0","img/none_selected.jpg","","137","main_expt",""
"","bandit","217","638430","0.0-178.0-0.0","03465827","wem/bandit_either_3","A2XG3FPY0UDZIJ","either","2","358","","","","","","","0","0","1","0.1209370274","","0.6","0.2","0.8","0.4","","","","","0.3020033879","0.1209370274","0.4217982028","0.2177367931","","","","","","","","74","J","1","","","138","main_expt",""
"","bandit","218","640220","0.0-179.0-0.0","03465827","wem/bandit_either_3","A2XG3FPY0UDZIJ","either","2","258","","","","","","","0","0","1","","0.1441291996","0.6","0.2","0.8","0.4","0.2908104057","0.1441291996","0.5123523738","0.1704259453","","","","","","","","","","","","74","J","1","","","139","main_expt",""
"","bandit","219","642096","0.0-180.0-0.0","03465827","wem/bandit_either_3","A2XG3FPY0UDZIJ","either","2","324","","","","","","","1","0","0","0.3892042576","","0.6","0.2","0.8","0.4","","","","","0.2738290205","0.1380406349","0.3892042576","0.1827322183","","","","","","","","75","K","2","","","140","main_expt",""
"","bandit","220","643873","0.0-181.0-0.0","03465827","wem/bandit_either_3","A2XG3FPY0UDZIJ","either","2","250","","","","","","","1","0","0","0.4680147771","","0.6","0.2","0.8","0.4","","","","","0.3865798498","0.1312769784","0.4680147771","0.2030288612","","","","","","","","75","K","2","","","141","main_expt",""
"","bandit","221","645597","0.0-182.0-0.0","03465827","wem/bandit_either_3","A2XG3FPY0UDZIJ","either","2","190","","","","","","","0","0","1","0.3970866904","","0.6","0.2","0.8","0.4","","","","","0.3507917403","0.1880730553","0.3970866904","0.1760536641","","","","","","","","75","K","2","","","142","main_expt",""
"","bandit","222","647253","0.0-183.0-0.0","03465827","wem/bandit_either_3","A2XG3FPY0UDZIJ","either","2","127","","","","","","","1","0","0","0.3609481858","","0.6","0.2","0.8","0.4","","","","","0.2787839286","0.1798266991","0.3609481858","0.1428921374","","","","","","","","75","K","2","","","143","main_expt",""
"","bandit","223","649030","0.0-184.0-0.0","03465827","wem/bandit_either_3","A2XG3FPY0UDZIJ","either","2","236","","","","","","","0","1","0","","0.3701270871","0.6","0.2","0.8","0.4","0.2106619402","0.1881666754","0.3701270871","0.1260474704","","","","","","","","","","","","75","K","2","","","144","main_expt",""
"","bandit","224","650756","0.0-185.0-0.0","03465827","wem/bandit_either_3","A2XG3FPY0UDZIJ","either","2","190","","","","","","","0","0","1","0.3110645609","","0.6","0.2","0.8","0.4","","","","","0.3211677341","0.1683386122","0.3110645609","0.151337539","","","","","","","","75","K","2","","","145","main_expt",""
"","bandit","225","652491","0.0-186.0-0.0","03465827","wem/bandit_either_3","A2XG3FPY0UDZIJ","either","2","198","","","","","","","0","0","1","0.356964637","","0.6","0.2","0.8","0.4","","","","","0.4417580917","0.2609121533","0.356964637","0.1600114734","","","","","","","","75","K","2","","","146","main_expt",""
"","bandit","226","654259","0.0-187.0-0.0","03465827","wem/bandit_either_3","A2XG3FPY0UDZIJ","either","2","234","","","","","","","0","0","1","0.5143633813","","0.6","0.2","0.8","0.4","","","","","0.278611551","0.280259565","0.5143633813","0.1262446547","","","","","","","","75","K","2","","","147","main_expt",""
"","bandit","227","656081","0.0-188.0-0.0","03465827","wem/bandit_either_3","A2XG3FPY0UDZIJ","either","2","285","","","","","","","1","0","0","0.5086187798","","0.6","0.2","0.8","0.4","","","","","0.2811332351","0.2972918914","0.5086187798","0.1030311585","","","","","","","","75","K","2","","","148","main_expt",""
"","bandit","228","657824","0.0-189.0-0.0","03465827","wem/bandit_either_3","A2XG3FPY0UDZIJ","either","2","213","","","","","","","1","0","0","0.4676315778","","0.6","0.2","0.8","0.4","","","","","0.2606345315","0.3284309668","0.4676315778","0.123834606","","","","","","","","75","K","2","","","149","main_expt",""
"","bandit","229","659623","0.0-190.0-0.0","03465827","wem/bandit_either_3","A2XG3FPY0UDZIJ","either","2","267","","","","","","","1","0","0","0.4737351686","","0.6","0.2","0.8","0.4","","","","","0.260677327","0.3186890608","0.4737351686","0.06566206942","","","","","","","","75","K","2","","","150","main_expt",""
"","bandit","230","661452","0.0-191.0-0.0","03465827","wem/bandit_either_3","A2XG3FPY0UDZIJ","either","2","289","","","","","","","1","0","0","0.5387476985","","0.6","0.2","0.8","0.4","","","","","0.2579624968","0.3331747037","0.5387476985","0.06342121736","","","","","","","","75","K","2","","","151","main_expt",""
"","bandit","231","663116","0.0-192.0-0.0","03465827","wem/bandit_either_3","A2XG3FPY0UDZIJ","either","2","131","","","","","","","1","0","0","0.5065138565","","0.6","0.2","0.8","0.4","","","","","0.2536911072","0.364096089","0.5065138565","0.1162046696","","","","","","","","75","K","2","","","152","main_expt",""
"","bandit","232","664872","0.0-193.0-0.0","03465827","wem/bandit_either_3","A2XG3FPY0UDZIJ","either","2","227","","","","","","","0","0","1","0.5190676077","","0.6","0.2","0.8","0.4","","","","","0.1427943183","0.3189440566","0.5190676077","0.1388943584","","","","","","","","75","K","2","","","153","main_expt",""
"","bandit","233","666514","0.0-194.0-0.0","03465827","wem/bandit_either_3","A2XG3FPY0UDZIJ","either","2","124","","","","","","","1","0","0","0.4944482457","","0.6","0.2","0.8","0.4","","","","","0.08934943386","0.486858514","0.4944482457","0.1188489222","","","","","","","","75","K","2","","","154","main_expt",""
"","bandit","234","668486","0.0-195.0-0.0","03465827","wem/bandit_either_3","A2XG3FPY0UDZIJ","either","2","432","","","","","","","0","0","1","0.4987902374","","0.6","0.2","0.8","0.4","","","","","0.1048919666","0.398958755","0.4987902374","0.1255079792","","","","","","","","75","K","2","","","155","main_expt",""
"","bandit","235","670329","0.0-196.0-0.0","03465827","wem/bandit_either_3","A2XG3FPY0UDZIJ","either","2","303","","","","","","","1","0","0","0.4151199053","","0.6","0.2","0.8","0.4","","","","","0.1348874752","0.3508932217","0.4151199053","0.1705129017","","","","","","","","75","K","2","","","156","main_expt",""
"","bandit","236","671921","0.0-197.0-0.0","03465827","wem/bandit_either_3","A2XG3FPY0UDZIJ","either","2","56","","","","","","","1","0","0","0.4215128153","","0.6","0.2","0.8","0.4","","","","","0.1197456909","0.3736640956","0.4215128153","0.1892203872","","","","","","","","75","K","2","","","157","main_expt",""
"","bandit","237","673580","0.0-198.0-0.0","03465827","wem/bandit_either_3","A2XG3FPY0UDZIJ","either","2","123","","","","","","","1","0","0","0.3666899102","","0.6","0.2","0.8","0.4","","","","","0.1343935597","0.3215678611","0.3666899102","0.1589595026","","","","","","","","75","K","2","","","158","main_expt",""
"","bandit","238","675319","0.0-199.0-0.0","03465827","wem/bandit_either_3","A2XG3FPY0UDZIJ","either","2","215","","","","","","","0","0","1","0.3906786657","","0.6","0.2","0.8","0.4","","","","","0.04604274909","0.2732838962","0.3906786657","0.1426383857","","","","","","","","75","K","2","","","159","main_expt",""
"","bandit","239","677111","0.0-200.0-0.0","03465827","wem/bandit_either_3","A2XG3FPY0UDZIJ","either","2","267","","","","","","","1","0","0","0.4769972016","","0.6","0.2","0.8","0.4","","","","","0.08927965808","0.2323229575","0.4769972016","0.2747613825","","","","","","","","75","K","2","","","160","main_expt",""
"","bandit","240","678739","0.0-201.0-0.0","03465827","wem/bandit_either_3","A2XG3FPY0UDZIJ","either","2","92","","","","","","","0","0","1","0.4405879513","","0.6","0.2","0.8","0.4","","","","","0.1038156196","0.399022808","0.4405879513","0.2046882866","","","","","","","","75","K","2","","","161","main_expt",""
"","bandit","241","680404","0.0-202.0-0.0","03465827","wem/bandit_either_3","A2XG3FPY0UDZIJ","either","2","140","","","","","","","0","0","1","0.44055992","","0.6","0.2","0.8","0.4","","","","","0.1470739062","0.4967313539","0.44055992","0.1715152701","","","","","","","","75","K","2","","","162","main_expt",""
"","bandit","242","682160","0.0-203.0-0.0","03465827","wem/bandit_either_3","A2XG3FPY0UDZIJ","either","2","217","","","","","","","0","0","1","0.3434222481","","0.6","0.2","0.8","0.4","","","","","0.1214264794","0.5245029489","0.3434222481","0.2396687428","","","","","","","","75","K","2","","","163","main_expt",""
"","bandit","243","684023","0.0-204.0-0.0","03465827","wem/bandit_either_3","A2XG3FPY0UDZIJ","either","2","324","","","","","","","0","0","1","","0.3359744524","0.6","0.2","0.8","0.4","0.1563758897","0.5808119749","0.3862652833","0.3359744524","","","","","","","","","","","","76","L","3","","","164","main_expt",""
"","bandit","244","685730","0.0-205.0-0.0","03465827","wem/bandit_either_3","A2XG3FPY0UDZIJ","either","2","176","","","","","","","1","0","0","0.4940159592","","0.6","0.2","0.8","0.4","","","","","0.1311500467","0.6473032069","0.4270444342","0.4940159592","","","","","","","","76","L","3","","","165","main_expt",""
"","bandit","245","687484","0.0-206.0-0.0","03465827","wem/bandit_either_3","A2XG3FPY0UDZIJ","either","2","213","","","","","","","0","0","1","0.5922229292","","0.6","0.2","0.8","0.4","","","","","0.1419689761","0.6790689848","0.5073102058","0.5922229292","","","","","","","","76","L","3","","","166","main_expt",""
"","bandit","246","689338","0.0-207.0-0.0","03465827","wem/bandit_either_3","A2XG3FPY0UDZIJ","either","2","321","","","","","","","0","0","1","0.150246256","","0.6","0.2","0.8","0.4","","","","","0.150246256","0.5959653185","0.5417092253","0.5562626425","","","","","","","","72","H","0","img/none_selected.jpg","","167","main_expt",""
"","bandit","247","691123","0.0-208.0-0.0","03465827","wem/bandit_either_3","A2XG3FPY0UDZIJ","either","2","248","","","","","","","0","0","1","","0.2070971521","0.6","0.2","0.8","0.4","0.2070971521","0.361841396","0.6505471885","0.6489587791","","","","","","","","","","","","72","H","0","img/none_selected.jpg","","168","main_expt",""
"","bandit","248","692911","0.0-209.0-0.0","03465827","wem/bandit_either_3","A2XG3FPY0UDZIJ","either","2","247","","","","","","","0","1","0","","0.2564452127","0.6","0.2","0.8","0.4","0.2564452127","0.2594844845","0.6226729341","0.5652428614","","","","","","","","","","","","72","H","0","img/none_selected.jpg","","169","main_expt",""
"","bandit","249","694672","0.0-210.0-0.0","03465827","wem/bandit_either_3","A2XG3FPY0UDZIJ","either","2","219","","","","","","","0","0","1","","0.2845729388","0.6","0.2","0.8","0.4","0.2845729388","0.1987556041","0.7574543886","0.5344749526","","","","","","","","","","","","72","H","0","img/none_selected.jpg","","170","main_expt",""
"","bandit","250","696321","0.0-211.0-0.0","03465827","wem/bandit_either_3","A2XG3FPY0UDZIJ","either","2","132","","","","","","","1","0","0","0.2360657399","","0.6","0.2","0.8","0.4","","","","","0.2360657399","0.1583585206","0.774201251","0.6364900983","","","","","","","","72","H","0","img/none_selected.jpg","","171","main_expt",""
"","bandit","251","698123","0.0-212.0-0.0","03465827","wem/bandit_either_3","A2XG3FPY0UDZIJ","either","2","270","","","","","","","0","1","0","","0.3453554921","0.6","0.2","0.8","0.4","0.3453554921","0.1494938987","0.7739789177","0.5516193693","","","","","","","","","","","","72","H","0","img/none_selected.jpg","","172","main_expt",""
"","bandit","252","699902","0.0-213.0-0.0","03465827","wem/bandit_either_3","A2XG3FPY0UDZIJ","either","2","237","","","","","","","0","0","1","","0.2909261263","0.6","0.2","0.8","0.4","0.2909261263","0.1996494969","0.7146420849","0.5081608063","","","","","","","","","","","","72","H","0","img/none_selected.jpg","","173","main_expt",""
"","bandit","253","701519","0.0-214.0-0.0","03465827","wem/bandit_either_3","A2XG3FPY0UDZIJ","either","2","90","","","","","","","0","0","1","","0.3807546558","0.6","0.2","0.8","0.4","0.3807546558","0.2200767262","0.683245412","0.5247340446","","","","","","","","","","","","72","H","0","img/none_selected.jpg","","174","main_expt",""
"","bandit","254","703222","0.0-215.0-0.0","03465827","wem/bandit_either_3","A2XG3FPY0UDZIJ","either","2","153","","","","","","","1","0","0","0.3889518003","","0.6","0.2","0.8","0.4","","","","","0.3889518003","0.1929710708","0.7163731774","0.5823110366","","","","","","","","72","H","0","img/none_selected.jpg","","175","main_expt",""
"","bandit","255","704986","0.0-216.0-0.0","03465827","wem/bandit_either_3","A2XG3FPY0UDZIJ","either","2","222","","","","","","","0","0","1","","0.3662842853","0.6","0.2","0.8","0.4","0.3662842853","0.1756556012","0.6676116703","0.7693722391","","","","","","","","","","","","72","H","0","img/none_selected.jpg","","176","main_expt",""
"","bandit","256","706693","0.0-217.0-0.0","03465827","wem/bandit_either_3","A2XG3FPY0UDZIJ","either","2","164","","","","","","","1","0","0","0.3102656016","","0.6","0.2","0.8","0.4","","","","","0.3102656016","0.2404611203","0.711116056","0.8048595062","","","","","","","","72","H","0","img/none_selected.jpg","","177","main_expt",""
"","bandit","257","708491","0.0-218.0-0.0","03465827","wem/bandit_either_3","A2XG3FPY0UDZIJ","either","2","249","","","","","","","0","1","0","","0.3272385177","0.6","0.2","0.8","0.4","0.3272385177","0.1651874793","0.6541247318","0.8147320782","","","","","","","","","","","","72","H","0","img/none_selected.jpg","","178","main_expt",""
"","bandit","258","710244","0.0-219.0-0.0","03465827","wem/bandit_either_3","A2XG3FPY0UDZIJ","either","2","220","","","","","","","0","0","1","0.3185807274","","0.6","0.2","0.8","0.4","","","","","0.3185807274","0.1297692321","0.600925469","0.7755432213","","","","","","","","72","H","0","img/none_selected.jpg","","179","main_expt",""
"","bandit","259","712096","0.0-220.0-0.0","03465827","wem/bandit_either_3","A2XG3FPY0UDZIJ","either","2","316","","","","","","","0","0","1","","0.1311169289","0.6","0.2","0.8","0.4","0.3896265469","0.1311169289","0.6321701674","0.7309951384","","","","","","","","","","","","74","J","1","","","180","main_expt",""
"","bandit","260","713753","0.0-221.0-0.0","03465827","wem/bandit_either_3","A2XG3FPY0UDZIJ","either","2","112","","","","","","","0","1","0","","0.2184653543","0.6","0.2","0.8","0.4","0.4381139349","0.2184653543","0.7040606398","0.8068071681","","","","","","","","","","","","74","J","1","","","181","main_expt",""
"","bandit","261","715558","0.0-222.0-0.0","03465827","wem/bandit_either_3","A2XG3FPY0UDZIJ","either","2","265","","","","","","","0","0","1","","0.156745214","0.6","0.2","0.8","0.4","0.4339703771","0.156745214","0.6551517927","0.8096694819","","","","","","","","","","","","74","J","1","","","182","main_expt",""
"","bandit","262","717151","0.0-223.0-0.0","03465827","wem/bandit_either_3","A2XG3FPY0UDZIJ","either","2","59","","","","","","","0","0","1","0.07710569088","","0.6","0.2","0.8","0.4","","","","","0.5270594011","0.07710569088","0.7709035389","0.8522040983","","","","","","","","74","J","1","","","183","main_expt",""
"","bandit","263","718764","0.0-224.0-0.0","03465827","wem/bandit_either_3","A2XG3FPY0UDZIJ","either","2","78","","","","","","","0","0","1","0.07901501252","","0.6","0.2","0.8","0.4","","","","","0.4791569234","0.07901501252","0.7869666122","0.8636776132","","","","","","","","74","J","1","","","184","main_expt",""
"","bandit","264","720552","0.0-225.0-0.0","03465827","wem/bandit_either_3","A2XG3FPY0UDZIJ","either","2","251","","","","","","","1","0","0","0.804571828","","0.6","0.2","0.8","0.4","","","","","0.464074867","0.05695362571","0.804571828","0.8605951951","","","","","","","","75","K","2","","","185","main_expt",""
"","bandit","265","722088","0.0-226.0-0.0","03465827","wem/bandit_either_3","A2XG3FPY0UDZIJ","either","2","1","","","","","","","1","0","0","0.7866627628","","0.6","0.2","0.8","0.4","","","","","0.4654947356","0.03796608352","0.7866627628","0.8578427848","","","","","","","","75","K","2","","","186","main_expt",""
"","bandit","266","723927","0.0-227.0-0.0","03465827","wem/bandit_either_3","A2XG3FPY0UDZIJ","either","2","288","","","","","","","1","0","0","0.8006736442","","0.6","0.2","0.8","0.4","","","","","0.4338668179","0.05986429342","0.8006736442","0.8253306036","","","","","","","","75","K","2","","","187","main_expt",""
"","bandit","267","725740","0.0-228.0-0.0","03465827","wem/bandit_either_3","A2XG3FPY0UDZIJ","either","2","265","","","","","","","1","0","0","0.7687627789","","0.6","0.2","0.8","0.4","","","","","0.4679469354","0.05827831728","0.7687627789","0.8118593573","","","","","","","","75","K","2","","","188","main_expt",""
"","bandit","268","727536","0.0-229.0-0.0","03465827","wem/bandit_either_3","A2XG3FPY0UDZIJ","either","2","261","","","","","","","0","0","1","0.7009429779","","0.6","0.2","0.8","0.4","","","","","0.4645116859","0.06499387038","0.7009429779","0.8319104568","","","","","","","","75","K","2","","","189","main_expt",""
"","bandit","269","729685","0.0-230.0-0.0","03465827","wem/bandit_either_3","A2XG3FPY0UDZIJ","either","2","621","","","","","","","0","0","1","0.7531121838","","0.6","0.2","0.8","0.4","","","","","0.4260553166","0.0878029059","0.7531121838","0.8949986836","","","","","","","","75","K","2","","","190","main_expt",""
"","bandit","270","731457","0.0-231.0-0.0","03465827","wem/bandit_either_3","A2XG3FPY0UDZIJ","either","2","243","","","","","","","0","0","1","","0.6174616994","0.6","0.2","0.8","0.4","0.5323747461","0.1101088583","0.6174616994","0.9258368343","","","","","","","","","","","","75","K","2","","","191","main_expt",""
"","bandit","271","733227","0.0-232.0-0.0","03465827","wem/bandit_either_3","A2XG3FPY0UDZIJ","either","2","226","","","","","","","1","0","0","0.6331996982","","0.6","0.2","0.8","0.4","","","","","0.6013900654","0.1559643099","0.6331996982","0.9221438833","","","","","","","","75","K","2","","","192","main_expt",""
"","bandit","272","734928","0.0-233.0-0.0","03465827","wem/bandit_either_3","A2XG3FPY0UDZIJ","either","2","156","","","","","","","0","0","1","0.5596167322","","0.6","0.2","0.8","0.4","","","","","0.5332063066","0.1348882638","0.5596167322","0.878376231","","","","","","","","75","K","2","","","193","main_expt",""
"","bandit","273","736604","0.0-234.0-0.0","03465827","wem/bandit_either_3","A2XG3FPY0UDZIJ","either","2","150","","","","","","","0","0","1","0.5887018809","","0.6","0.2","0.8","0.4","","","","","0.5499496643","0.243093686","0.5887018809","0.7914694382","","","","","","","","75","K","2","","","194","main_expt",""
"","bandit","274","738179","0.0-235.0-0.0","03465827","wem/bandit_either_3","A2XG3FPY0UDZIJ","either","2","35","","","","","","","1","0","0","0.561552955","","0.6","0.2","0.8","0.4","","","","","0.4170732774","0.2792315856","0.561552955","0.7843027812","","","","","","","","75","K","2","","","195","main_expt",""
"","bandit","275","740054","0.0-236.0-0.0","03465827","wem/bandit_either_3","A2XG3FPY0UDZIJ","either","2","324","","","","","","","1","0","0","0.6199522587","","0.6","0.2","0.8","0.4","","","","","0.4050854298","0.2075419965","0.6199522587","0.7888241066","","","","","","","","75","K","2","","","196","main_expt",""
"","bandit","276","741884","0.0-237.0-0.0","03465827","wem/bandit_either_3","A2XG3FPY0UDZIJ","either","2","289","","","","","","","0","0","1","0.6886125155","","0.6","0.2","0.8","0.4","","","","","0.4522405917","0.1899284635","0.6886125155","0.8145025162","","","","","","","","75","K","2","","","197","main_expt",""
"","bandit","277","743700","0.0-238.0-0.0","03465827","wem/bandit_either_3","A2XG3FPY0UDZIJ","either","2","301","","","","","","","0","0","1","0.6468609917","","0.6","0.2","0.8","0.4","","","","","0.4547961131","0.1632143895","0.6468609917","0.8795467387","","","","","","","","75","K","2","","","198","main_expt",""
"","bandit","278","745559","0.0-239.0-0.0","03465827","wem/bandit_either_3","A2XG3FPY0UDZIJ","either","2","316","","","","","","","0","0","1","0.7134983028","","0.6","0.2","0.8","0.4","","","","","0.456709553","0.1580048483","0.7134983028","0.8716255916","","","","","","","","75","K","2","","","199","main_expt",""
"","bandit","279","747659","0.0-240.0-0.0","03465827","wem/bandit_either_3","A2XG3FPY0UDZIJ","either","2","556","","","","","","","1","0","0","0.4197111003","","0.6","0.2","0.8","0.4","","","","","0.4197111003","0.1815025648","0.6545285445","0.8596876402","","","","","","","","72","H","0","img/none_selected.jpg","","200","main_expt",""
"","bandit","280","749528","0.0-241.0-0.0","03465827","wem/bandit_either_3","A2XG3FPY0UDZIJ","either","2","338","","","","","","","1","0","0","0.4468864226","","0.6","0.2","0.8","0.4","","","","","0.4468864226","0.1453003075","0.6827561938","0.8714244785","","","","","","","","72","H","0","img/none_selected.jpg","","201","main_expt",""
"","bandit","281","752108","0.0-242.0-0.0","03465827","wem/bandit_either_3","A2XG3FPY0UDZIJ","either","2","1037","","","","","","","1","0","0","0.3852152277","","0.6","0.2","0.8","0.4","","","","","0.3852152277","0.1061510446","0.6590680519","0.8679491409","","","","","","","","72","H","0","img/none_selected.jpg","","202","main_expt",""
"","bandit","282","754469","0.0-243.0-0.0","03465827","wem/bandit_either_3","A2XG3FPY0UDZIJ","either","2","812","","","","","","","0","0","1","","0.3481501846","0.6","0.2","0.8","0.4","0.3481501846","0.09667757311","0.67998256","0.8421855008","","","","","","","","","","","","72","H","0","img/none_selected.jpg","","203","main_expt",""
"","bandit","283","756091","0.0-244.0-0.0","03465827","wem/bandit_either_3","A2XG3FPY0UDZIJ","either","2","82","","","","","","","1","0","0","0.3688904748","","0.6","0.2","0.8","0.4","","","","","0.3688904748","0.109576977","0.7157802034","0.8741547355","","","","","","","","72","H","0","img/none_selected.jpg","","204","main_expt",""
"","bandit","284","758267","0.0-245.0-0.0","03465827","wem/bandit_either_3","A2XG3FPY0UDZIJ","either","2","639","","","","","","","0","1","0","","0.4196025605","0.6","0.2","0.8","0.4","0.4196025605","0.1370524017","0.6750594522","0.8589537271","","","","","","","","","","","","72","H","0","img/none_selected.jpg","","205","main_expt",""
"","bandit","285","760230","0.0-246.0-0.0","03465827","wem/bandit_either_3","A2XG3FPY0UDZIJ","either","2","423","","","","","","","0","0","1","0.3558717694","","0.6","0.2","0.8","0.4","","","","","0.3558717694","0.1005848846","0.7170784861","0.8009191088","","","","","","","","72","H","0","img/none_selected.jpg","","206","main_expt",""
"","bandit","286","762164","0.0-247.0-0.0","03465827","wem/bandit_either_3","A2XG3FPY0UDZIJ","either","2","384","","","","","","","0","0","1","0.3978287694","","0.6","0.2","0.8","0.4","","","","","0.3978287694","0.1100528349","0.6886550294","0.8146279372","","","","","","","","72","H","0","img/none_selected.jpg","","207","main_expt",""
"","bandit","287","764788","0.0-248.0-0.0","03465827","wem/bandit_either_3","A2XG3FPY0UDZIJ","either","2","1080","","","","","","","1","0","0","0.3647175361","","0.6","0.2","0.8","0.4","","","","","0.3647175361","0.1165568201","0.7340041914","0.7498886323","","","","","","","","72","H","0","img/none_selected.jpg","","208","main_expt",""
"","bandit","288","766898","0.0-249.0-0.0","03465827","wem/bandit_either_3","A2XG3FPY0UDZIJ","either","2","575","","","","","","","0","1","0","","0.2942091963","0.6","0.2","0.8","0.4","0.2942091963","0.1607141963","0.7108339061","0.781298432","","","","","","","","","","","","72","H","0","img/none_selected.jpg","","209","main_expt",""
"","bandit","289","769217","0.0-250.0-0.0","03465827","wem/bandit_either_3","A2XG3FPY0UDZIJ","either","2","781","","","","","","","0","0","1","0.3228874634","","0.6","0.2","0.8","0.4","","","","","0.3228874634","0.2005879304","0.7322658343","0.8374694261","","","","","","","","72","H","0","img/none_selected.jpg","","210","main_expt",""
"","bandit","290","772668","0.0-251.0-0.0","03465827","wem/bandit_either_3","A2XG3FPY0UDZIJ","either","2","1894","","","","","","","0","0","1","0.3300931135","","0.6","0.2","0.8","0.4","","","","","0.3300931135","0.1999716741","0.6220956771","0.7461264045","","","","","","","","72","H","0","img/none_selected.jpg","","211","main_expt",""
"","bandit","291","775857","0.0-252.0-0.0","03465827","wem/bandit_either_3","A2XG3FPY0UDZIJ","either","2","1656","","","","","","","0","0","1","","0.4044608811","0.6","0.2","0.8","0.4","0.4044608811","0.2135957141","0.5400145011","0.7267359419","","","","","","","","","","","","72","H","0","img/none_selected.jpg","","212","main_expt",""
"","bandit","292","777850","0.0-253.0-0.0","03465827","wem/bandit_either_3","A2XG3FPY0UDZIJ","either","2","446","","","","","","","0","0","1","0.4916994921","","0.6","0.2","0.8","0.4","","","","","0.4916994921","0.2041793084","0.5419994818","0.6529835343","","","","","","","","72","H","0","img/none_selected.jpg","","213","main_expt",""
"","bandit","293","779503","0.0-254.0-0.0","03465827","wem/bandit_either_3","A2XG3FPY0UDZIJ","either","2","121","","","","","","","0","0","1","","0.2563089198","0.6","0.2","0.8","0.4","0.5387088508","0.2563089198","0.6195319152","0.5734554779","","","","","","","","","","","","74","J","1","","","214","main_expt",""
"","bandit","294","781485","0.0-255.0-0.0","03465827","wem/bandit_either_3","A2XG3FPY0UDZIJ","either","2","445","","","","","","","0","0","1","","0.2870699064","0.6","0.2","0.8","0.4","0.567041903","0.2870699064","0.7405966814","0.7056003711","","","","","","","","","","","","74","J","1","","","215","main_expt",""
"","bandit","295","783335","0.0-256.0-0.0","03465827","wem/bandit_either_3","A2XG3FPY0UDZIJ","either","2","298","","","","","","","1","0","0","0.8005734678","","0.6","0.2","0.8","0.4","","","","","0.539749723","0.2715554895","0.8005734678","0.7717913507","","","","","","","","75","K","2","","","216","main_expt",""
"","bandit","296","784882","0.0-257.0-0.0","03465827","wem/bandit_either_3","A2XG3FPY0UDZIJ","either","2","2","","","","","","","1","0","0","0.8392159132","","0.6","0.2","0.8","0.4","","","","","0.3803352486","0.2027777883","0.8392159132","0.834894728","","","","","","","","75","K","2","","","217","main_expt",""
"","bandit","297","786796","0.0-258.0-0.0","03465827","wem/bandit_either_3","A2XG3FPY0UDZIJ","either","2","362","","","","","","","1","0","0","0.7445585264","","0.6","0.2","0.8","0.4","","","","","0.3236333655","0.2169787163","0.7445585264","0.868580258","","","","","","","","75","K","2","","","218","main_expt",""
"","bandit","298","788727","0.0-259.0-0.0","03465827","wem/bandit_either_3","A2XG3FPY0UDZIJ","either","2","390","","","","","","","1","0","0","0.7174829008","","0.6","0.2","0.8","0.4","","","","","0.2612589469","0.2292932202","0.7174829008","0.8236231074","","","","","","","","75","K","2","","","219","main_expt",""
"","bandit","299","790549","0.0-260.0-0.0","03465827","wem/bandit_either_3","A2XG3FPY0UDZIJ","either","2","281","","","","","","","0","0","1","0.6601767392","","0.6","0.2","0.8","0.4","","","","","0.2228319794","0.2829053382","0.6601767392","0.7719294443","","","","","","","","75","K","2","","","220","main_expt",""
"","bandit","300","792607","0.0-261.0-0.0","03465827","wem/bandit_either_3","A2XG3FPY0UDZIJ","either","2","513","","","","","","","0","1","0","","0.703996204","0.6","0.2","0.8","0.4","0.2204856404","0.2691731019","0.703996204","0.7609360252","","","","","","","","","","","","75","K","2","","","221","main_expt",""
"","bandit","301","794471","0.0-262.0-0.0","03465827","wem/bandit_either_3","A2XG3FPY0UDZIJ","either","2","336","","","","","","","1","0","0","0.6188024556","","0.6","0.2","0.8","0.4","","","","","0.2269951902","0.1974112065","0.6188024556","0.7319851961","","","","","","","","75","K","2","","","222","main_expt",""
"","bandit","302","796315","0.0-263.0-0.0","03465827","wem/bandit_either_3","A2XG3FPY0UDZIJ","either","2","308","","","","","","","0","0","1","0.5695888615","","0.6","0.2","0.8","0.4","","","","","0.3417830843","0.08486155027","0.5695888615","0.6994646324","","","","","","","","75","K","2","","","223","main_expt",""
"","bandit","303","798162","0.0-264.0-0.0","03465827","wem/bandit_either_3","A2XG3FPY0UDZIJ","either","2","304","","","","","","","0","0","1","0.6590173842","","0.6","0.2","0.8","0.4","","","","","0.4057490183","0.1930609847","0.6590173842","0.6817307813","","","","","","","","75","K","2","","","224","main_expt",""
"","bandit","304","799980","0.0-265.0-0.0","03465827","wem/bandit_either_3","A2XG3FPY0UDZIJ","either","2","285","","","","","","","0","0","1","","0.6779124893","0.6","0.2","0.8","0.4","0.4266979185","0.2026087193","0.6779124893","0.67394888","","","","","","","","","","","","75","K","2","","","225","main_expt",""
"","bandit","305","801527","0.0-266.0-0.0","03465827","wem/bandit_either_3","A2XG3FPY0UDZIJ","either","2","19","","","","","","","0","1","0","","0.6520670614","0.6","0.2","0.8","0.4","0.4723095555","0.1295559036","0.6433757785","0.6520670614","","","","","","","","","","","","76","L","3","","","226","main_expt",""
"","bandit","306","803366","0.0-267.0-0.0","03465827","wem/bandit_either_3","A2XG3FPY0UDZIJ","either","2","297","","","","","","","0","0","1","","0.6598054912","0.6","0.2","0.8","0.4","0.4396274322","0.1014701128","0.6050090536","0.6598054912","","","","","","","","","","","","76","L","3","","","227","main_expt",""
"","bandit","307","805189","0.0-268.0-0.0","03465827","wem/bandit_either_3","A2XG3FPY0UDZIJ","either","2","254","","","","","","","1","0","0","0.7313296172","","0.6","0.2","0.8","0.4","","","","","0.4581465293","0.1374428951","0.5614220587","0.7313296172","","","","","","","","76","L","3","","","228","main_expt",""
"","bandit","308","807056","0.0-269.0-0.0","03465827","wem/bandit_either_3","A2XG3FPY0UDZIJ","either","2","323","","","","","","","0","1","0","","0.5771612872","0.6","0.2","0.8","0.4","0.3635076811","0.2147377822","0.536938762","0.5771612872","","","","","","","","","","","","76","L","3","","","229","main_expt",""
"","bandit","309","808882","0.0-270.0-0.0","03465827","wem/bandit_either_3","A2XG3FPY0UDZIJ","either","2","278","","","","","","","0","1","0","","0.6474737632","0.6","0.2","0.8","0.4","0.4109812081","0.2128984172","0.4691369301","0.6474737632","","","","","","","","","","","","76","L","3","","","230","main_expt",""
"","bandit","310","810691","0.0-271.0-0.0","03465827","wem/bandit_either_3","A2XG3FPY0UDZIJ","either","2","284","","","","","","","0","0","1","0.77083729","","0.6","0.2","0.8","0.4","","","","","0.3769467169","0.2566260117","0.3801843724","0.77083729","","","","","","","","76","L","3","","","231","main_expt",""
"","bandit","311","812281","0.0-272.0-0.0","03465827","wem/bandit_either_3","A2XG3FPY0UDZIJ","either","2","62","","","","","","","1","0","0","0.7372448464","","0.6","0.2","0.8","0.4","","","","","0.4489681289","0.307190163","0.4401380948","0.7372448464","","","","","","","","76","L","3","","","232","main_expt",""
"","bandit","312","814116","0.0-273.0-0.0","03465827","wem/bandit_either_3","A2XG3FPY0UDZIJ","either","2","305","","","","","","","0","1","0","","0.8061851957","0.6","0.2","0.8","0.4","0.5191563331","0.3235632008","0.4589823784","0.8061851957","","","","","","","","","","","","76","L","3","","","233","main_expt",""
"","bandit","313","816403","0.0-274.0-0.0","03465827","wem/bandit_either_3","A2XG3FPY0UDZIJ","either","2","743","","","","","","","0","1","0","","0.7628128465","0.6","0.2","0.8","0.4","0.5635532962","0.2229472669","0.412850409","0.7628128465","","","","","","","","","","","","76","L","3","","","234","main_expt",""
"","bandit","314","818313","0.0-275.0-0.0","03465827","wem/bandit_either_3","A2XG3FPY0UDZIJ","either","2","366","","","","","","","0","0","1","0.7139354314","","0.6","0.2","0.8","0.4","","","","","0.6059211115","0.3245092944","0.3071086281","0.7139354314","","","","","","","","76","L","3","","","235","main_expt",""
"","bandit","315","820143","0.0-276.0-0.0","03465827","wem/bandit_either_3","A2XG3FPY0UDZIJ","either","2","285","","","","","","","1","0","0","0.8459685894","","0.6","0.2","0.8","0.4","","","","","0.5767319418","0.3817813951","0.3088172556","0.8459685894","","","","","","","","76","L","3","","","236","main_expt",""
"","bandit","316","821917","0.0-277.0-0.0","03465827","wem/bandit_either_3","A2XG3FPY0UDZIJ","either","2","243","","","","","","","0","1","0","","0.8258062243","0.6","0.2","0.8","0.4","0.6195352853","0.5108794425","0.2725525041","0.8258062243","","","","","","","","","","","","76","L","3","","","237","main_expt",""
"","bandit","317","823853","0.0-278.0-0.0","03465827","wem/bandit_either_3","A2XG3FPY0UDZIJ","either","2","385","","","","","","","1","0","0","0.7390020401","","0.6","0.2","0.8","0.4","","","","","0.7504070514","0.545868674","0.2929581335","0.7390020401","","","","","","","","76","L","3","","","238","main_expt",""
"","bandit","318","825597","0.0-279.0-0.0","03465827","wem/bandit_either_3","A2XG3FPY0UDZIJ","either","2","212","","","","","","","0","1","0","","0.7159327665","0.6","0.2","0.8","0.4","0.7863609923","0.5696008367","0.3009301418","0.7159327665","","","","","","","","","","","","76","L","3","","","239","main_expt",""
"","bandit","319","827518","0.0-280.0-0.0","03465827","wem/bandit_either_3","A2XG3FPY0UDZIJ","either","2","350","","","","","","","0","1","0","","0.7704913736","0.6","0.2","0.8","0.4","0.7472107855","0.7175907516","0.1757133805","0.7704913736","","","","","","","","","","","","76","L","3","","","240","main_expt",""
"","bandit","320","829323","0.0-281.0-0.0","03465827","wem/bandit_either_3","A2XG3FPY0UDZIJ","either","2","271","","","","","","","0","1","0","","0.7832900934","0.6","0.2","0.8","0.4","0.7633099306","0.8333566257","0.1490953818","0.7832900934","","","","","","","","","","","","76","L","3","","","241","main_expt",""
"","bandit","321","831046","0.0-282.0-0.0","03465827","wem/bandit_either_3","A2XG3FPY0UDZIJ","either","2","191","","","","","","","0","0","1","","0.746364214","0.6","0.2","0.8","0.4","0.8192624891","0.8661582331","0.1187436938","0.746364214","","","","","","","","","","","","76","L","3","","","242","main_expt",""
"","bandit","322","832925","0.0-283.0-0.0","03465827","wem/bandit_either_3","A2XG3FPY0UDZIJ","either","2","338","","","","","","","1","0","0","0.7014576998","","0.6","0.2","0.8","0.4","","","","","0.7500708258","0.8970489214","0.07814629235","0.7014576998","","","","","","","","76","L","3","","","243","main_expt",""
"","bandit","323","834727","0.0-284.0-0.0","03465827","wem/bandit_either_3","A2XG3FPY0UDZIJ","either","2","259","","","","","","","0","1","0","","0.6810302351","0.6","0.2","0.8","0.4","0.7656319196","0.8760308497","0.06497313331","0.6810302351","","","","","","","","","","","","76","L","3","","","244","main_expt",""
