"consent","trial_type","trial_index","time_elapsed","internal_node_id","subjID","study","MID","cond","drift","rt","responses","key_press","expt_phase","like","value","connected","gems","bombs","no_reward","GemPrChosen","BombPrChosen","GainOverPainPr_0","GainOverPainPr_1","GainOverPainPr_2","GainOverPainPr_3","LosePr_0","LosePr_1","LosePr_2","LosePr_3","WinPr_0","WinPr_1","WinPr_2","WinPr_3","Q0","Q1","Q2","gender","age","ethnicity","target","respCharCode","respKey","respChoiceNum","respChoice","practice","trial_counter","trial_label","button_pressed"
"INL_behavioral_consent_30min_online.html","consent","0","12829","0.0-0.0","05329053","wem/bandit_either_3","A7FXUMAFLRJL2","either","5","","","","","","","","","","","","","","","","","","","","","","","","","","","","","","","","","","","","","","",""
"","survey-text","1","21608","0.0-1.0","05329053","wem/bandit_either_3","A7FXUMAFLRJL2","either","5","7748","{""Q0"":""A7FXUMAFLRJL2""}","","","","","","","","","","","","","","","","","","","","","","","","","","","","","","","","","","","","",""
"","text","2","38950","0.0-2.0","05329053","wem/bandit_either_3","A7FXUMAFLRJL2","either","5","16334","","32","","","","","","","","","","","","","","","","","","","","","","","","","","","","","","","","","","","",""
"","text","3","46732","0.0-3.0","05329053","wem/bandit_either_3","A7FXUMAFLRJL2","either","5","7778","","32","","","","","","","","","","","","","","","","","","","","","","","","","","","","","","","","","","","",""
"","text","4","77104","0.0-4.0","05329053","wem/bandit_either_3","A7FXUMAFLRJL2","either","5","30364","","32","","","","","","","","","","","","","","","","","","","","","","","","","","","","","","","","","","","",""
"","text","5","105963","0.0-5.0","05329053","wem/bandit_either_3","A7FXUMAFLRJL2","either","5","28847","","32","","","","","","","","","","","","","","","","","","","","","","","","","","","","","","","","","","","",""
"","text","6","131547","0.0-6.0","05329053","wem/bandit_either_3","A7FXUMAFLRJL2","either","5","25576","","32","","","","","","","","","","","","","","","","","","","","","","","","","","","","","","","","","","","",""
"","text","7","140363","0.0-7.0","05329053","wem/bandit_either_3","A7FXUMAFLRJL2","either","5","8807","","32","","","","","","","","","","","","","","","","","","","","","","","","","","","","","","","","","","","",""
"","text","8","146592","0.0-8.0","05329053","wem/bandit_either_3","A7FXUMAFLRJL2","either","5","6216","","32","","","","","","","","","","","","","","","","","","","","","","","","","","","","","","","","","","","",""
"","identification","9","163711","0.0-9.0-0.0","05329053","wem/bandit_either_3","A7FXUMAFLRJL2","either","5","17016","","","","4","6","6","","","","","","","","","","","","","","","","","","","","","","","","the village of Zur","","","","","","","",""
"","identification","10","176900","0.0-9.0-1.0","05329053","wem/bandit_either_3","A7FXUMAFLRJL2","either","5","12100","","","","2","2","0","","","","","","","","","","","","","","","","","","","","","","","","the village of Nyx","","","","","","","",""
"","text","11","184459","0.0-10.0","05329053","wem/bandit_either_3","A7FXUMAFLRJL2","either","5","6540","","32","","","","","","","","","","","","","","","","","","","","","","","","","","","","","","","","","","","",""
"","text","12","187537","0.0-11.0","05329053","wem/bandit_either_3","A7FXUMAFLRJL2","either","5","3074","","32","","","","","","","","","","","","","","","","","","","","","","","","","","","","","","","","","","","",""
"","text","13","190427","0.0-12.0","05329053","wem/bandit_either_3","A7FXUMAFLRJL2","either","5","2884","","32","","","","","","","","","","","","","","","","","","","","","","","","","","","","","","","","","","","",""
"","text","14","198991","0.0-13.0","05329053","wem/bandit_either_3","A7FXUMAFLRJL2","either","5","8561","","32","","","","","","","","","","","","","","","","","","","","","","","","","","","","","","","","","","","",""
"","bandit","15","203258","0.0-14.0-0.0","05329053","wem/bandit_either_3","A7FXUMAFLRJL2","either","5","2721","","","","","","","0","0","1","0","0","","","","","0","","","","0","","","","","","","","","","","74","J","0","img/none_selected_demo.jpg","true","0","",""
"","bandit","16","207020","0.0-15.0-0.0","05329053","wem/bandit_either_3","A7FXUMAFLRJL2","either","5","2210","","","","","","","0","0","1","0","0","","","","","0","","","","0","","","","","","","","","","","75","K","0","img/none_selected_demo.jpg","true","0","",""
"","text","17","217795","0.0-16.0","05329053","wem/bandit_either_3","A7FXUMAFLRJL2","either","5","10757","","32","","","","","","","","","","","","","","","","","","","","","","","","","","","","","","","","","","","",""
"","text","18","230543","0.0-17.0","05329053","wem/bandit_either_3","A7FXUMAFLRJL2","either","5","12733","","32","","","","","","","","","","","","","","","","","","","","","","","","","","","","","","","","","","","",""
"","text","19","238676","0.0-18.0","05329053","wem/bandit_either_3","A7FXUMAFLRJL2","either","5","8124","","32","","","","","","","","","","","","","","","","","","","","","","","","","","","","","","","","","","","",""
"","text","20","243190","0.0-19.0","05329053","wem/bandit_either_3","A7FXUMAFLRJL2","either","5","4506","","32","","","","","","","","","","","","","","","","","","","","","","","","","","","","","","","","","","","",""
"","bandit","21","246300","0.0-20.0-0.0","05329053","wem/bandit_either_3","A7FXUMAFLRJL2","either","5","1555","","","","","","","0","0","1","","0.8","0.5","0.5","","","0.8","0.2","","","","","","","","","","","","","","74","J","0","img/none_selected_demo.jpg","true","0","80_20_practice",""
"","bandit","22","248718","0.0-20.0-1.0","05329053","wem/bandit_either_3","A7FXUMAFLRJL2","either","5","867","","","","","","","0","0","1","0.2","","0.5","0.5","","","","","","","0.8","0.2","","","","","","","","","","75","K","1","","true","0","80_20_practice",""
"","bandit","23","251019","0.0-20.0-2.0","05329053","wem/bandit_either_3","A7FXUMAFLRJL2","either","5","767","","","","","","","0","0","1","0.2","","0.5","0.5","","","","","","","0.8","0.2","","","","","","","","","","75","K","1","","true","0","80_20_practice",""
"","bandit","24","253370","0.0-20.0-3.0","05329053","wem/bandit_either_3","A7FXUMAFLRJL2","either","5","819","","","","","","","0","1","0","","0.8","0.5","0.5","","","0.8","0.2","","","","","","","","","","","","","","74","J","0","img/none_selected_demo.jpg","true","0","80_20_practice",""
"","bandit","25","255688","0.0-20.0-4.0","05329053","wem/bandit_either_3","A7FXUMAFLRJL2","either","5","793","","","","","","","0","1","0","","0.8","0.5","0.5","","","0.8","0.2","","","","","","","","","","","","","","74","J","0","img/none_selected_demo.jpg","true","0","80_20_practice",""
"","bandit","26","258205","0.0-20.0-5.0","05329053","wem/bandit_either_3","A7FXUMAFLRJL2","either","5","992","","","","","","","0","1","0","","0.8","0.5","0.5","","","0.8","0.2","","","","","","","","","","","","","","74","J","0","img/none_selected_demo.jpg","true","0","80_20_practice",""
"","bandit","27","260385","0.0-20.0-6.0","05329053","wem/bandit_either_3","A7FXUMAFLRJL2","either","5","619","","","","","","","1","0","0","0.8","","0.5","0.5","","","","","","","0.8","0.2","","","","","","","","","","74","J","0","img/none_selected_demo.jpg","true","0","80_20_practice",""
"","bandit","28","262306","0.0-20.0-7.0","05329053","wem/bandit_either_3","A7FXUMAFLRJL2","either","5","394","","","","","","","0","1","0","","0.8","0.5","0.5","","","0.8","0.2","","","","","","","","","","","","","","74","J","0","img/none_selected_demo.jpg","true","0","80_20_practice",""
"","bandit","29","264185","0.0-20.0-8.0","05329053","wem/bandit_either_3","A7FXUMAFLRJL2","either","5","351","","","","","","","1","0","0","0.8","","0.5","0.5","","","","","","","0.8","0.2","","","","","","","","","","74","J","0","img/none_selected_demo.jpg","true","0","80_20_practice",""
"","bandit","30","266127","0.0-20.0-9.0","05329053","wem/bandit_either_3","A7FXUMAFLRJL2","either","5","360","","","","","","","0","1","0","","0.8","0.5","0.5","","","0.8","0.2","","","","","","","","","","","","","","74","J","0","img/none_selected_demo.jpg","true","0","80_20_practice",""
"","bandit","31","268063","0.0-20.0-10.0","05329053","wem/bandit_either_3","A7FXUMAFLRJL2","either","5","391","","","","","","","0","0","1","","0.8","0.5","0.5","","","0.8","0.2","","","","","","","","","","","","","","74","J","0","img/none_selected_demo.jpg","true","0","80_20_practice",""
"","bandit","32","269980","0.0-20.0-11.0","05329053","wem/bandit_either_3","A7FXUMAFLRJL2","either","5","392","","","","","","","0","0","1","0.8","","0.5","0.5","","","","","","","0.8","0.2","","","","","","","","","","74","J","0","img/none_selected_demo.jpg","true","0","80_20_practice",""
"","bandit","33","271840","0.0-20.0-12.0","05329053","wem/bandit_either_3","A7FXUMAFLRJL2","either","5","330","","","","","","","1","0","0","0.8","","0.5","0.5","","","","","","","0.8","0.2","","","","","","","","","","74","J","0","img/none_selected_demo.jpg","true","0","80_20_practice",""
"","bandit","34","273726","0.0-20.0-13.0","05329053","wem/bandit_either_3","A7FXUMAFLRJL2","either","5","335","","","","","","","1","0","0","0.8","","0.5","0.5","","","","","","","0.8","0.2","","","","","","","","","","74","J","0","img/none_selected_demo.jpg","true","0","80_20_practice",""
"","bandit","35","275720","0.0-20.0-14.0","05329053","wem/bandit_either_3","A7FXUMAFLRJL2","either","5","433","","","","","","","0","1","0","","0.8","0.5","0.5","","","0.8","0.2","","","","","","","","","","","","","","74","J","0","img/none_selected_demo.jpg","true","0","80_20_practice",""
"","bandit","36","277471","0.0-20.0-15.0","05329053","wem/bandit_either_3","A7FXUMAFLRJL2","either","5","158","","","","","","","0","1","0","","0.8","0.5","0.5","","","0.8","0.2","","","","","","","","","","","","","","74","J","0","img/none_selected_demo.jpg","true","0","80_20_practice",""
"","bandit","37","279333","0.0-20.0-16.0","05329053","wem/bandit_either_3","A7FXUMAFLRJL2","either","5","293","","","","","","","1","0","0","0.8","","0.5","0.5","","","","","","","0.8","0.2","","","","","","","","","","74","J","0","img/none_selected_demo.jpg","true","0","80_20_practice",""
"","bandit","38","281162","0.0-20.0-17.0","05329053","wem/bandit_either_3","A7FXUMAFLRJL2","either","5","280","","","","","","","0","1","0","","0.8","0.5","0.5","","","0.8","0.2","","","","","","","","","","","","","","74","J","0","img/none_selected_demo.jpg","true","0","80_20_practice",""
"","bandit","39","283054","0.0-20.0-18.0","05329053","wem/bandit_either_3","A7FXUMAFLRJL2","either","5","358","","","","","","","0","1","0","","0.8","0.5","0.5","","","0.8","0.2","","","","","","","","","","","","","","74","J","0","img/none_selected_demo.jpg","true","0","80_20_practice",""
"","bandit","40","286013","0.0-20.0-19.0","05329053","wem/bandit_either_3","A7FXUMAFLRJL2","either","5","364","","","","","","","0","0","1","","0.8","0.5","0.5","","","0.8","0.2","","","","","","","","","","","","","","74","J","0","img/none_selected_demo.jpg","true","0","80_20_practice",""
"","text","41","292173","0.0-21.0","05329053","wem/bandit_either_3","A7FXUMAFLRJL2","either","5","6140","","32","","","","","","","","","","","","","","","","","","","","","","","","","","","","","","","","","","","",""
"","bandit","42","294791","0.0-22.0-0.0","05329053","wem/bandit_either_3","A7FXUMAFLRJL2","either","5","1075","","","","","","","1","0","0","1","0","","","","","0","1","","","1","0","","","","","","","","","","74","J","0","img/none_selected_demo.jpg","true","0","",""
"","text","43","300718","0.0-23.0","05329053","wem/bandit_either_3","A7FXUMAFLRJL2","either","5","5919","","32","","","","","","","","","","","","","","","","","","","","","","","","","","","","","","","","","","","",""
"","text","44","303498","0.0-24.0","05329053","wem/bandit_either_3","A7FXUMAFLRJL2","either","5","2769","","32","","","","","","","","","","","","","","","","","","","","","","","","","","","","","","","","","","","",""
"","text","45","306430","0.0-25.0","05329053","wem/bandit_either_3","A7FXUMAFLRJL2","either","5","2921","","32","","","","","","","","","","","","","","","","","","","","","","","","","","","","","","","","","","","",""
"","text","46","312233","0.0-26.0","05329053","wem/bandit_either_3","A7FXUMAFLRJL2","either","5","5796","","32","","","","","","","","","","","","","","","","","","","","","","","","","","","","","","","","","","","",""
"","text","47","321511","0.0-27.0","05329053","wem/bandit_either_3","A7FXUMAFLRJL2","either","5","9273","","32","","","","","","","","","","","","","","","","","","","","","","","","","","","","","","","","","","","",""
"","text","48","324742","0.0-28.0","05329053","wem/bandit_either_3","A7FXUMAFLRJL2","either","5","3226","","32","","","","","","","","","","","","","","","","","","","","","","","","","","","","","","","","","","","",""
"","text","49","329905","0.0-29.0","05329053","wem/bandit_either_3","A7FXUMAFLRJL2","either","5","5158","","32","","","","","","","","","","","","","","","","","","","","","","","","","","","","","","","","","","","",""
"","text","50","336436","0.0-30.0","05329053","wem/bandit_either_3","A7FXUMAFLRJL2","either","5","6524","","32","","","","","","","","","","","","","","","","","","","","","","","","","","","","","","","","","","","",""
"","text","51","339929","0.0-31.0","05329053","wem/bandit_either_3","A7FXUMAFLRJL2","either","5","3481","","32","","","","","","","","","","","","","","","","","","","","","","","","","","","","","","","","","","","",""
"","text","52","341746","0.0-32.0","05329053","wem/bandit_either_3","A7FXUMAFLRJL2","either","5","1811","","32","","","","","","","","","","","","","","","","","","","","","","","","","","","","","","","","","","","",""
"","text","53","348944","0.0-33.0","05329053","wem/bandit_either_3","A7FXUMAFLRJL2","either","5","7190","","32","","","","","","","","","","","","","","","","","","","","","","","","","","","","","","","","","","","",""
"","bandit","54","351859","0.0-34.0-0.0","05329053","wem/bandit_either_3","A7FXUMAFLRJL2","either","5","1341","","","","","","","0","0","1","","0.2","0.5","0.5","0.5","0.5","0.8","0.2","0.6","0.2","","","","","","","","","","","","76","L","3","","true","0","full_practice",""
"","bandit","55","354097","0.0-34.0-1.0","05329053","wem/bandit_either_3","A7FXUMAFLRJL2","either","5","692","","","","","","","0","1","0","","0.6","0.5","0.5","0.5","0.5","0.8","0.2","0.6","0.2","","","","","","","","","","","","75","K","2","","true","0","full_practice",""
"","bandit","56","356119","0.0-34.0-2.0","05329053","wem/bandit_either_3","A7FXUMAFLRJL2","either","5","471","","","","","","","0","0","1","0.6","","0.5","0.5","0.5","0.5","","","","","0.8","0.2","0.6","0.2","","","","","","","","75","K","2","","true","0","full_practice",""
"","bandit","57","358320","0.0-34.0-3.0","05329053","wem/bandit_either_3","A7FXUMAFLRJL2","either","5","634","","","","","","","0","0","1","0.2","","0.5","0.5","0.5","0.5","","","","","0.8","0.2","0.6","0.2","","","","","","","","74","J","1","","true","0","full_practice",""
"","bandit","58","360416","0.0-34.0-4.0","05329053","wem/bandit_either_3","A7FXUMAFLRJL2","either","5","548","","","","","","","0","1","0","","0.8","0.5","0.5","0.5","0.5","0.8","0.2","0.6","0.2","","","","","","","","","","","","72","H","0","img/none_selected.jpg","true","0","full_practice",""
"","bandit","59","362280","0.0-34.0-5.0","05329053","wem/bandit_either_3","A7FXUMAFLRJL2","either","5","329","","","","","","","0","0","1","","0.8","0.5","0.5","0.5","0.5","0.8","0.2","0.6","0.2","","","","","","","","","","","","72","H","0","img/none_selected.jpg","true","0","full_practice",""
"","bandit","60","364232","0.0-34.0-6.0","05329053","wem/bandit_either_3","A7FXUMAFLRJL2","either","5","370","","","","","","","0","1","0","","0.8","0.5","0.5","0.5","0.5","0.8","0.2","0.6","0.2","","","","","","","","","","","","72","H","0","img/none_selected.jpg","true","0","full_practice",""
"","bandit","61","366126","0.0-34.0-7.0","05329053","wem/bandit_either_3","A7FXUMAFLRJL2","either","5","336","","","","","","","0","1","0","","0.8","0.5","0.5","0.5","0.5","0.8","0.2","0.6","0.2","","","","","","","","","","","","72","H","0","img/none_selected.jpg","true","0","full_practice",""
"","bandit","62","368015","0.0-34.0-8.0","05329053","wem/bandit_either_3","A7FXUMAFLRJL2","either","5","335","","","","","","","1","0","0","0.8","","0.5","0.5","0.5","0.5","","","","","0.8","0.2","0.6","0.2","","","","","","","","72","H","0","img/none_selected.jpg","true","0","full_practice",""
"","bandit","63","369852","0.0-34.0-9.0","05329053","wem/bandit_either_3","A7FXUMAFLRJL2","either","5","304","","","","","","","1","0","0","0.8","","0.5","0.5","0.5","0.5","","","","","0.8","0.2","0.6","0.2","","","","","","","","72","H","0","img/none_selected.jpg","true","0","full_practice",""
"","bandit","64","371772","0.0-34.0-10.0","05329053","wem/bandit_either_3","A7FXUMAFLRJL2","either","5","389","","","","","","","0","0","1","0.8","","0.5","0.5","0.5","0.5","","","","","0.8","0.2","0.6","0.2","","","","","","","","72","H","0","img/none_selected.jpg","true","0","full_practice",""
"","bandit","65","373679","0.0-34.0-11.0","05329053","wem/bandit_either_3","A7FXUMAFLRJL2","either","5","370","","","","","","","1","0","0","0.8","","0.5","0.5","0.5","0.5","","","","","0.8","0.2","0.6","0.2","","","","","","","","72","H","0","img/none_selected.jpg","true","0","full_practice",""
"","bandit","66","375537","0.0-34.0-12.0","05329053","wem/bandit_either_3","A7FXUMAFLRJL2","either","5","318","","","","","","","1","0","0","0.8","","0.5","0.5","0.5","0.5","","","","","0.8","0.2","0.6","0.2","","","","","","","","72","H","0","img/none_selected.jpg","true","0","full_practice",""
"","bandit","67","377403","0.0-34.0-13.0","05329053","wem/bandit_either_3","A7FXUMAFLRJL2","either","5","319","","","","","","","1","0","0","0.8","","0.5","0.5","0.5","0.5","","","","","0.8","0.2","0.6","0.2","","","","","","","","72","H","0","img/none_selected.jpg","true","0","full_practice",""
"","bandit","68","380241","0.0-34.0-14.0","05329053","wem/bandit_either_3","A7FXUMAFLRJL2","either","5","349","","","","","","","1","0","0","0.8","","0.5","0.5","0.5","0.5","","","","","0.8","0.2","0.6","0.2","","","","","","","","72","H","0","img/none_selected.jpg","true","0","full_practice",""
"","bandit","69","381787","0.0-34.0-15.0","05329053","wem/bandit_either_3","A7FXUMAFLRJL2","either","5","13","","","","","","","0","1","0","","0.8","0.5","0.5","0.5","0.5","0.8","0.2","0.6","0.2","","","","","","","","","","","","72","H","0","img/none_selected.jpg","true","0","full_practice",""
"","bandit","70","384228","0.0-34.0-16.0","05329053","wem/bandit_either_3","A7FXUMAFLRJL2","either","5","904","","","","","","","1","0","0","0.8","","0.5","0.5","0.5","0.5","","","","","0.8","0.2","0.6","0.2","","","","","","","","72","H","0","img/none_selected.jpg","true","0","full_practice",""
"","bandit","71","386167","0.0-34.0-17.0","05329053","wem/bandit_either_3","A7FXUMAFLRJL2","either","5","405","","","","","","","1","0","0","0.8","","0.5","0.5","0.5","0.5","","","","","0.8","0.2","0.6","0.2","","","","","","","","72","H","0","img/none_selected.jpg","true","0","full_practice",""
"","bandit","72","388033","0.0-34.0-18.0","05329053","wem/bandit_either_3","A7FXUMAFLRJL2","either","5","331","","","","","","","1","0","0","0.8","","0.5","0.5","0.5","0.5","","","","","0.8","0.2","0.6","0.2","","","","","","","","72","H","0","img/none_selected.jpg","true","0","full_practice",""
"","bandit","73","389864","0.0-34.0-19.0","05329053","wem/bandit_either_3","A7FXUMAFLRJL2","either","5","297","","","","","","","0","1","0","","0.8","0.5","0.5","0.5","0.5","0.8","0.2","0.6","0.2","","","","","","","","","","","","72","H","0","img/none_selected.jpg","true","0","full_practice",""
"","text","74","396471","0.0-35.0","05329053","wem/bandit_either_3","A7FXUMAFLRJL2","either","5","6590","","32","","","","","","","","","","","","","","","","","","","","","","","","","","","","","","","","","","","",""
"","text","75","425934","0.0-36.0","05329053","wem/bandit_either_3","A7FXUMAFLRJL2","either","5","28452","","32","","","","","","","","","","","","","","","","","","","","","","","","","","","","","","","","","","","",""
"","text","76","443749","0.0-37.0","05329053","wem/bandit_either_3","A7FXUMAFLRJL2","either","5","17791","","32","","","","","","","","","","","","","","","","","","","","","","","","","","","","","","","","","","","",""
"","text","77","451587","0.0-38.0","05329053","wem/bandit_either_3","A7FXUMAFLRJL2","either","5","7820","","32","","","","","","","","","","","","","","","","","","","","","","","","","","","","","","","","","","","",""
"","text","78","459026","0.0-39.0","05329053","wem/bandit_either_3","A7FXUMAFLRJL2","either","5","7428","","32","","","","","","","","","","","","","","","","","","","","","","","","","","","","","","","","","","","",""
"","text","79","466760","0.0-40.0","05329053","wem/bandit_either_3","A7FXUMAFLRJL2","either","5","7724","","32","","","","","","","","","","","","","","","","","","","","","","","","","","","","","","","","","","","",""
"","bandit","80","470303","0.0-41.0-0.0","05329053","wem/bandit_either_3","A7FXUMAFLRJL2","either","5","1992","","","","","","","1","0","0","0.6131215568","","0.4","0.6","0.2","0.8","","","","","0.6131215568","0.4253928501","0.32692793","0.4909711759","","","","","","","","72","H","0","img/none_selected.jpg","","1","main_expt",""
"","bandit","81","472358","0.0-42.0-0.0","05329053","wem/bandit_either_3","A7FXUMAFLRJL2","either","5","499","","","","","","","0","1","0","","0.6783759564","0.4","0.6","0.2","0.8","0.6783759564","0.5447097682","0.3068321923","0.5514346198","","","","","","","","","","","","72","H","0","img/none_selected.jpg","","2","main_expt",""
"","bandit","82","474399","0.0-43.0-0.0","05329053","wem/bandit_either_3","A7FXUMAFLRJL2","either","5","503","","","","","","","1","0","0","0.6535049038","","0.4","0.6","0.2","0.8","","","","","0.6535049038","0.5631376832","0.2871808385","0.5966913043","","","","","","","","72","H","0","img/none_selected.jpg","","3","main_expt",""
"","bandit","83","477026","0.0-44.0-0.0","05329053","wem/bandit_either_3","A7FXUMAFLRJL2","either","5","1091","","","","","","","0","0","1","","0.5433476707","0.4","0.6","0.2","0.8","0.5433476707","0.5889355808","0.3062311279","0.6236804691","","","","","","","","","","","","72","H","0","img/none_selected.jpg","","4","main_expt",""
"","bandit","84","478951","0.0-45.0-0.0","05329053","wem/bandit_either_3","A7FXUMAFLRJL2","either","5","396","","","","","","","0","0","1","0.4256320799","","0.4","0.6","0.2","0.8","","","","","0.4256320799","0.6125363118","0.2453374439","0.5844938386","","","","","","","","72","H","0","img/none_selected.jpg","","5","main_expt",""
"","bandit","85","480941","0.0-46.0-0.0","05329053","wem/bandit_either_3","A7FXUMAFLRJL2","either","5","458","","","","","","","0","1","0","","0.5204159956","0.4","0.6","0.2","0.8","0.4097031487","0.5204159956","0.2258644136","0.4929788692","","","","","","","","","","","","74","J","1","","","6","main_expt",""
"","bandit","86","482827","0.0-47.0-0.0","05329053","wem/bandit_either_3","A7FXUMAFLRJL2","either","5","343","","","","","","","0","0","1","","0.5949894572","0.4","0.6","0.2","0.8","0.4614862243","0.5949894572","0.2251512132","0.3978044106","","","","","","","","","","","","74","J","1","","","7","main_expt",""
"","bandit","87","484687","0.0-48.0-0.0","05329053","wem/bandit_either_3","A7FXUMAFLRJL2","either","5","324","","","","","","","1","0","0","0.7043393759","","0.4","0.6","0.2","0.8","","","","","0.4305419438","0.7043393759","0.1597376121","0.5080346622","","","","","","","","74","J","1","","","8","main_expt",""
"","bandit","88","486571","0.0-49.0-0.0","05329053","wem/bandit_either_3","A7FXUMAFLRJL2","either","5","349","","","","","","","1","0","0","0.6866437556","","0.4","0.6","0.2","0.8","","","","","0.6000641755","0.6866437556","0.1395884133","0.440708512","","","","","","","","74","J","1","","","9","main_expt",""
"","bandit","89","488500","0.0-50.0-0.0","05329053","wem/bandit_either_3","A7FXUMAFLRJL2","either","5","347","","","","","","","0","1","0","","0.6743415364","0.4","0.6","0.2","0.8","0.66675231","0.6743415364","0.1529628815","0.4862198985","","","","","","","","","","","","74","J","1","","","10","main_expt",""
"","bandit","90","490451","0.0-51.0-0.0","05329053","wem/bandit_either_3","A7FXUMAFLRJL2","either","5","370","","","","","","","0","0","1","0.6907290289","","0.4","0.6","0.2","0.8","","","","","0.538431352","0.6907290289","0.1918890603","0.4942886423","","","","","","","","74","J","1","","","11","main_expt",""
"","bandit","91","492687","0.0-52.0-0.0","05329053","wem/bandit_either_3","A7FXUMAFLRJL2","either","5","687","","","","","","","0","0","1","","0.1412308375","0.4","0.6","0.2","0.8","0.5683478731","0.7254617755","0.1412308375","0.4999864232","","","","","","","","","","","","75","K","2","","","12","main_expt",""
"","bandit","92","494560","0.0-53.0-0.0","05329053","wem/bandit_either_3","A7FXUMAFLRJL2","either","5","338","","","","","","","0","1","0","","0.1854965676","0.4","0.6","0.2","0.8","0.5870071372","0.7533793381","0.1854965676","0.3945724157","","","","","","","","","","","","75","K","2","","","13","main_expt",""
"","bandit","93","496462","0.0-54.0-0.0","05329053","wem/bandit_either_3","A7FXUMAFLRJL2","either","5","320","","","","","","","0","0","1","","0.2200151947","0.4","0.6","0.2","0.8","0.3389967741","0.6909187676","0.2200151947","0.458684297","","","","","","","","","","","","75","K","2","","","14","main_expt",""
"","bandit","94","498239","0.0-55.0-0.0","05329053","wem/bandit_either_3","A7FXUMAFLRJL2","either","5","217","","","","","","","1","0","0","0.5338449271","","0.4","0.6","0.2","0.8","","","","","0.2927381815","0.7916820586","0.1497743902","0.5338449271","","","","","","","","76","L","3","","","15","main_expt",""
"","bandit","95","500213","0.0-56.0-0.0","05329053","wem/bandit_either_3","A7FXUMAFLRJL2","either","5","427","","","","","","","1","0","0","0.6821016448","","0.4","0.6","0.2","0.8","","","","","0.2268478953","0.7991661796","0.1767244745","0.6821016448","","","","","","","","76","L","3","","","16","main_expt",""
"","bandit","96","502460","0.0-57.0-0.0","05329053","wem/bandit_either_3","A7FXUMAFLRJL2","either","5","705","","","","","","","0","0","1","0.6963612506","","0.4","0.6","0.2","0.8","","","","","0.2364877179","0.7352739439","0.1953364786","0.6963612506","","","","","","","","76","L","3","","","17","main_expt",""
"","bandit","97","504416","0.0-58.0-0.0","05329053","wem/bandit_either_3","A7FXUMAFLRJL2","either","5","410","","","","","","","0","0","1","0.7035779666","","0.4","0.6","0.2","0.8","","","","","0.280777314","0.6911569498","0.139355503","0.7035779666","","","","","","","","76","L","3","","","18","main_expt",""
"","bandit","98","506267","0.0-59.0-0.0","05329053","wem/bandit_either_3","A7FXUMAFLRJL2","either","5","313","","","","","","","0","1","0","","0.129677489","0.4","0.6","0.2","0.8","0.3280428268","0.6372159304","0.129677489","0.677086514","","","","","","","","","","","","75","K","2","","","19","main_expt",""
"","bandit","99","508164","0.0-60.0-0.0","05329053","wem/bandit_either_3","A7FXUMAFLRJL2","either","5","364","","","","","","","0","1","0","","0.1584506979","0.4","0.6","0.2","0.8","0.213865824","0.5917564331","0.1584506979","0.5211019236","","","","","","","","","","","","75","K","2","","","20","main_expt",""
"","bandit","100","510496","0.0-61.0-0.0","05329053","wem/bandit_either_3","A7FXUMAFLRJL2","either","5","795","","","","","","","0","0","1","","0.1934985877","0.4","0.6","0.2","0.8","0.2755747612","0.6351733259","0.1934985877","0.6040081297","","","","","","","","","","","","75","K","2","","","21","main_expt",""
"","bandit","101","512643","0.0-62.0-0.0","05329053","wem/bandit_either_3","A7FXUMAFLRJL2","either","5","610","","","","","","","0","0","1","0.57448168","","0.4","0.6","0.2","0.8","","","","","0.3096891892","0.57448168","0.1184813826","0.5276460007","","","","","","","","74","J","1","","","22","main_expt",""
"","bandit","102","514867","0.0-63.0-0.0","05329053","wem/bandit_either_3","A7FXUMAFLRJL2","either","5","694","","","","","","","0","0","1","0.532235281","","0.4","0.6","0.2","0.8","","","","","0.1855444332","0.532235281","0.1387482349","0.4373756081","","","","","","","","74","J","1","","","23","main_expt",""
"","bandit","103","516728","0.0-64.0-0.0","05329053","wem/bandit_either_3","A7FXUMAFLRJL2","either","5","328","","","","","","","0","1","0","","0.1275075135","0.4","0.6","0.2","0.8","0.2026045625","0.4695599312","0.1275075135","0.4051577966","","","","","","","","","","","","75","K","2","","","24","main_expt",""
"","bandit","104","518833","0.0-65.0-0.0","05329053","wem/bandit_either_3","A7FXUMAFLRJL2","either","5","565","","","","","","","0","0","1","","0.1324238285","0.4","0.6","0.2","0.8","0.2610081957","0.3710761786","0.1324238285","0.3583026632","","","","","","","","","","","","75","K","2","","","25","main_expt",""
"","bandit","105","520906","0.0-66.0-0.0","05329053","wem/bandit_either_3","A7FXUMAFLRJL2","either","5","538","","","","","","","0","0","1","","0.2068764453","0.4","0.6","0.2","0.8","0.2068764453","0.3104834237","0.2222282692","0.4070676783","","","","","","","","","","","","72","H","0","img/none_selected.jpg","","26","main_expt",""
"","bandit","106","523659","0.0-67.0-0.0","05329053","wem/bandit_either_3","A7FXUMAFLRJL2","either","5","1219","","","","","","","0","1","0","","0.3962805628","0.4","0.6","0.2","0.8","0.1387354037","0.4250638914","0.2367528544","0.3962805628","","","","","","","","","","","","76","L","3","","","27","main_expt",""
"","bandit","107","525659","0.0-68.0-0.0","05329053","wem/bandit_either_3","A7FXUMAFLRJL2","either","5","466","","","","","","","0","1","0","","0.3381264529","0.4","0.6","0.2","0.8","0.2065421522","0.3738912408","0.1581712713","0.3381264529","","","","","","","","","","","","76","L","3","","","28","main_expt",""
"","bandit","108","527859","0.0-69.0-0.0","05329053","wem/bandit_either_3","A7FXUMAFLRJL2","either","5","671","","","","","","","0","0","1","","0.3405446746","0.4","0.6","0.2","0.8","0.2452437498","0.411092256","0.2361440946","0.3405446746","","","","","","","","","","","","76","L","3","","","29","main_expt",""
"","bandit","109","529834","0.0-70.0-0.0","05329053","wem/bandit_either_3","A7FXUMAFLRJL2","either","5","385","","","","","","","0","0","1","0.3051502752","","0.4","0.6","0.2","0.8","","","","","0.3076129501","0.306262239","0.3051502752","0.3536414415","","","","","","","","75","K","2","","","30","main_expt",""
"","bandit","110","532080","0.0-71.0-0.0","05329053","wem/bandit_either_3","A7FXUMAFLRJL2","either","5","713","","","","","","","0","0","1","0.2846857217","","0.4","0.6","0.2","0.8","","","","","0.275744379","0.2846857217","0.3588845582","0.3201297868","","","","","","","","74","J","1","","","31","main_expt",""
"","bandit","111","534180","0.0-72.0-0.0","05329053","wem/bandit_either_3","A7FXUMAFLRJL2","either","5","555","","","","","","","0","0","1","0.1582224348","","0.4","0.6","0.2","0.8","","","","","0.1582224348","0.260797537","0.3351264969","0.414050106","","","","","","","","72","H","0","img/none_selected.jpg","","32","main_expt",""
"","bandit","112","536306","0.0-73.0-0.0","05329053","wem/bandit_either_3","A7FXUMAFLRJL2","either","5","584","","","","","","","0","0","1","","0.4846208784","0.4","0.6","0.2","0.8","0.07234251762","0.3108282978","0.3369799553","0.4846208784","","","","","","","","","","","","76","L","3","","","33","main_expt",""
"","bandit","113","538497","0.0-74.0-0.0","05329053","wem/bandit_either_3","A7FXUMAFLRJL2","either","5","645","","","","","","","0","0","1","","0.3040676539","0.4","0.6","0.2","0.8","0.07244310326","0.3996464291","0.3040676539","0.4250330595","","","","","","","","","","","","75","K","2","","","34","main_expt",""
"","bandit","114","540518","0.0-75.0-0.0","05329053","wem/bandit_either_3","A7FXUMAFLRJL2","either","5","483","","","","","","","0","0","1","0.4368131495","","0.4","0.6","0.2","0.8","","","","","0.07140094546","0.4368131495","0.2974236485","0.499329675","","","","","","","","74","J","1","","","35","main_expt",""
"","bandit","115","542588","0.0-76.0-0.0","05329053","wem/bandit_either_3","A7FXUMAFLRJL2","either","5","520","","","","","","","0","0","1","","0.08624361683","0.4","0.6","0.2","0.8","0.08624361683","0.3396719642","0.310238309","0.3892953339","","","","","","","","","","","","72","H","0","img/none_selected.jpg","","36","main_expt",""
"","bandit","116","544556","0.0-77.0-0.0","05329053","wem/bandit_either_3","A7FXUMAFLRJL2","either","5","438","","","","","","","1","0","0","0.3680424748","","0.4","0.6","0.2","0.8","","","","","0.07543251018","0.4409026667","0.2818719109","0.3680424748","","","","","","","","76","L","3","","","37","main_expt",""
"","bandit","117","546476","0.0-78.0-0.0","05329053","wem/bandit_either_3","A7FXUMAFLRJL2","either","5","389","","","","","","","0","0","1","0.4909804269","","0.4","0.6","0.2","0.8","","","","","0.1324785543","0.489392614","0.2925765749","0.4909804269","","","","","","","","76","L","3","","","38","main_expt",""
"","bandit","118","548560","0.0-79.0-0.0","05329053","wem/bandit_either_3","A7FXUMAFLRJL2","either","5","541","","","","","","","0","0","1","","0.3033582507","0.4","0.6","0.2","0.8","0.1824024676","0.4403114744","0.3033582507","0.5165168671","","","","","","","","","","","","75","K","2","","","39","main_expt",""
"","bandit","119","550727","0.0-80.0-0.0","05329053","wem/bandit_either_3","A7FXUMAFLRJL2","either","5","582","","","","","","","0","0","1","0.343221944","","0.4","0.6","0.2","0.8","","","","","0.09861269436","0.343221944","0.2371445562","0.6036007873","","","","","","","","74","J","1","","","40","main_expt",""
"","bandit","120","552654","0.0-81.0-0.0","05329053","wem/bandit_either_3","A7FXUMAFLRJL2","either","5","387","","","","","","","0","0","1","0.1028082326","","0.4","0.6","0.2","0.8","","","","","0.1028082326","0.450343793","0.2072661203","0.6078828369","","","","","","","","72","H","0","img/none_selected.jpg","","41","main_expt",""
"","bandit","121","554614","0.0-82.0-0.0","05329053","wem/bandit_either_3","A7FXUMAFLRJL2","either","5","410","","","","","","","0","0","1","","0.1850700716","0.4","0.6","0.2","0.8","0.1326350751","0.4422822993","0.1850700716","0.5757077757","","","","","","","","","","","","75","K","2","","","42","main_expt",""
"","bandit","122","556529","0.0-83.0-0.0","05329053","wem/bandit_either_3","A7FXUMAFLRJL2","either","5","374","","","","","","","0","0","1","","0.4755437476","0.4","0.6","0.2","0.8","0.1591685393","0.4755437476","0.1700345657","0.504524575","","","","","","","","","","","","74","J","1","","","43","main_expt",""
"","bandit","123","558591","0.0-84.0-0.0","05329053","wem/bandit_either_3","A7FXUMAFLRJL2","either","5","487","","","","","","","0","0","1","0.3354744533","","0.4","0.6","0.2","0.8","","","","","0.1558361793","0.6211160782","0.150922449","0.3354744533","","","","","","","","76","L","3","","","44","main_expt",""
"","bandit","124","560631","0.0-85.0-0.0","05329053","wem/bandit_either_3","A7FXUMAFLRJL2","either","5","446","","","","","","","0","0","1","0.08224127908","","0.4","0.6","0.2","0.8","","","","","0.08224127908","0.5950963145","0.08792573626","0.2259933845","","","","","","","","72","H","0","img/none_selected.jpg","","45","main_expt",""
"","bandit","125","562670","0.0-86.0-0.0","05329053","wem/bandit_either_3","A7FXUMAFLRJL2","either","5","423","","","","","","","0","0","1","0.1991815266","","0.4","0.6","0.2","0.8","","","","","0.05681632526","0.600883672","0.05210962111","0.1991815266","","","","","","","","76","L","3","","","46","main_expt",""
"","bandit","126","564589","0.0-87.0-0.0","05329053","wem/bandit_either_3","A7FXUMAFLRJL2","either","5","371","","","","","","","0","0","1","","0.1658512007","0.4","0.6","0.2","0.8","0.02046531905","0.6018426621","0.1658512007","0.1821259253","","","","","","","","","","","","75","K","2","","","47","main_expt",""
"","bandit","127","566923","0.0-88.0-0.0","05329053","wem/bandit_either_3","A7FXUMAFLRJL2","either","5","500","","","","","","","1","0","0","0.6719149388","","0.4","0.6","0.2","0.8","","","","","0.02793369594","0.6719149388","0.2171730843","0.1850219792","","","","","","","","74","J","1","","","48","main_expt",""
"","bandit","128","569901","0.0-89.0-0.0","05329053","wem/bandit_either_3","A7FXUMAFLRJL2","either","5","1408","","","","","","","1","0","0","0.5824093935","","0.4","0.6","0.2","0.8","","","","","0.01520235592","0.5824093935","0.2545874694","0.2843491098","","","","","","","","74","J","1","","","49","main_expt",""
"","bandit","129","572179","0.0-90.0-0.0","05329053","wem/bandit_either_3","A7FXUMAFLRJL2","either","5","726","","","","","","","0","0","1","","0.5697547833","0.4","0.6","0.2","0.8","0.008868670712","0.5697547833","0.1971443839","0.2385085868","","","","","","","","","","","","74","J","1","","","50","main_expt",""
"","bandit","130","574443","0.0-91.0-0.0","05329053","wem/bandit_either_3","A7FXUMAFLRJL2","either","5","593","","","","","","","1","0","0","0.5875551098","","0.4","0.6","0.2","0.8","","","","","0.004668439046","0.5875551098","0.1743954459","0.2762119933","","","","","","","","74","J","1","","","51","main_expt",""
"","bandit","131","576732","0.0-92.0-0.0","05329053","wem/bandit_either_3","A7FXUMAFLRJL2","either","5","385","","","","","","","1","0","0","0.691822337","","0.4","0.6","0.2","0.8","","","","","0.003090075005","0.691822337","0.1007451992","0.2350807626","","","","","","","","74","J","1","","","52","main_expt",""
"","bandit","132","578702","0.0-93.0-0.0","05329053","wem/bandit_either_3","A7FXUMAFLRJL2","either","5","403","","","","","","","1","0","0","0.7363191169","","0.4","0.6","0.2","0.8","","","","","0.003474758773","0.7363191169","0.1648918076","0.2301492847","","","","","","","","74","J","1","","","53","main_expt",""
"","bandit","133","580721","0.0-94.0-0.0","05329053","wem/bandit_either_3","A7FXUMAFLRJL2","either","5","474","","","","","","","0","0","1","","0.7639548597","0.4","0.6","0.2","0.8","0.003279238457","0.7639548597","0.1761014763","0.2779325162","","","","","","","","","","","","74","J","1","","","54","main_expt",""
"","bandit","134","582823","0.0-95.0-0.0","05329053","wem/bandit_either_3","A7FXUMAFLRJL2","either","5","523","","","","","","","1","0","0","0.7264154962","","0.4","0.6","0.2","0.8","","","","","0.001847339967","0.7264154962","0.1460392243","0.2882189161","","","","","","","","74","J","1","","","55","main_expt",""
"","bandit","135","584751","0.0-96.0-0.0","05329053","wem/bandit_either_3","A7FXUMAFLRJL2","either","5","346","","","","","","","0","0","1","","0.7511403137","0.4","0.6","0.2","0.8","0.001186331615","0.7511403137","0.1882527018","0.2646822794","","","","","","","","","","","","74","J","1","","","56","main_expt",""
"","bandit","136","586920","0.0-97.0-0.0","05329053","wem/bandit_either_3","A7FXUMAFLRJL2","either","5","621","","","","","","","1","0","0","0.6292194553","","0.4","0.6","0.2","0.8","","","","","0.001917609755","0.6292194553","0.1836596221","0.3080117871","","","","","","","","74","J","1","","","57","main_expt",""
"","bandit","137","589693","0.0-98.0-0.0","05329053","wem/bandit_either_3","A7FXUMAFLRJL2","either","5","1230","","","","","","","1","0","0","0.5622591622","","0.4","0.6","0.2","0.8","","","","","0.004115025419","0.5622591622","0.2259562874","0.2609020091","","","","","","","","74","J","1","","","58","main_expt",""
"","bandit","138","592237","0.0-99.0-0.0","05329053","wem/bandit_either_3","A7FXUMAFLRJL2","either","5","997","","","","","","","0","1","0","","0.6394190939","0.4","0.6","0.2","0.8","0.007083433589","0.6394190939","0.1673227733","0.3014652953","","","","","","","","","","","","74","J","1","","","59","main_expt",""
"","bandit","139","594479","0.0-100.0-0.0","05329053","wem/bandit_either_3","A7FXUMAFLRJL2","either","5","700","","","","","","","1","0","0","0.502148976","","0.4","0.6","0.2","0.8","","","","","0.0100473459","0.502148976","0.1404143731","0.2872544729","","","","","","","","74","J","1","","","60","main_expt",""
"","bandit","140","596987","0.0-101.0-0.0","05329053","wem/bandit_either_3","A7FXUMAFLRJL2","either","5","969","","","","","","","0","1","0","","0.5541662771","0.4","0.6","0.2","0.8","0.02288810402","0.5541662771","0.1087230511","0.2347068593","","","","","","","","","","","","74","J","1","","","61","main_expt",""
"","bandit","141","599557","0.0-102.0-0.0","05329053","wem/bandit_either_3","A7FXUMAFLRJL2","either","5","1026","","","","","","","1","0","0","0.6016144889","","0.4","0.6","0.2","0.8","","","","","0.04890713094","0.6016144889","0.1173770395","0.1786743828","","","","","","","","74","J","1","","","62","main_expt",""
"","bandit","142","601888","0.0-103.0-0.0","05329053","wem/bandit_either_3","A7FXUMAFLRJL2","either","5","795","","","","","","","0","0","1","0.6306423252","","0.4","0.6","0.2","0.8","","","","","0.06015841579","0.6306423252","0.1173961002","0.1627017484","","","","","","","","74","J","1","","","63","main_expt",""
"","bandit","143","604178","0.0-104.0-0.0","05329053","wem/bandit_either_3","A7FXUMAFLRJL2","either","5","752","","","","","","","0","0","1","0.5963496952","","0.4","0.6","0.2","0.8","","","","","0.0697324588","0.5963496952","0.1093057248","0.2220220934","","","","","","","","74","J","1","","","64","main_expt",""
"","bandit","144","606499","0.0-105.0-0.0","05329053","wem/bandit_either_3","A7FXUMAFLRJL2","either","5","779","","","","","","","0","1","0","","0.5835424673","0.4","0.6","0.2","0.8","0.03955641554","0.5835424673","0.1437581537","0.1387290973","","","","","","","","","","","","74","J","1","","","65","main_expt",""
"","bandit","145","608730","0.0-106.0-0.0","05329053","wem/bandit_either_3","A7FXUMAFLRJL2","either","5","680","","","","","","","0","0","1","0.5789137396","","0.4","0.6","0.2","0.8","","","","","0.04104317144","0.5789137396","0.1321246006","0.1481952943","","","","","","","","74","J","1","","","66","main_expt",""
"","bandit","146","610950","0.0-107.0-0.0","05329053","wem/bandit_either_3","A7FXUMAFLRJL2","either","5","679","","","","","","","0","0","1","","0.6503196648","0.4","0.6","0.2","0.8","0.07749417123","0.6503196648","0.1441415222","0.1354395346","","","","","","","","","","","","74","J","1","","","67","main_expt",""
"","bandit","147","612975","0.0-108.0-0.0","05329053","wem/bandit_either_3","A7FXUMAFLRJL2","either","5","480","","","","","","","1","0","0","0.1606162296","","0.4","0.6","0.2","0.8","","","","","0.1606162296","0.7295955131","0.1794787892","0.09431815687","","","","","","","","72","H","0","img/none_selected.jpg","","68","main_expt",""
"","bandit","148","615399","0.0-109.0-0.0","05329053","wem/bandit_either_3","A7FXUMAFLRJL2","either","5","881","","","","","","","0","0","1","0.1458723802","","0.4","0.6","0.2","0.8","","","","","0.1458723802","0.7924649224","0.2467892919","0.09491494314","","","","","","","","72","H","0","img/none_selected.jpg","","69","main_expt",""
"","bandit","149","617598","0.0-110.0-0.0","05329053","wem/bandit_either_3","A7FXUMAFLRJL2","either","5","667","","","","","","","0","0","1","","0.09936082334","0.4","0.6","0.2","0.8","0.09936082334","0.7104550926","0.2683381141","0.144379617","","","","","","","","","","","","72","H","0","img/none_selected.jpg","","70","main_expt",""
"","bandit","150","619942","0.0-111.0-0.0","05329053","wem/bandit_either_3","A7FXUMAFLRJL2","either","5","806","","","","","","","0","0","1","","0.3513633517","0.4","0.6","0.2","0.8","0.08487306657","0.6350436987","0.3513633517","0.1522740794","","","","","","","","","","","","75","K","2","","","71","main_expt",""
"","bandit","151","622133","0.0-112.0-0.0","05329053","wem/bandit_either_3","A7FXUMAFLRJL2","either","5","649","","","","","","","0","1","0","","0.2914052368","0.4","0.6","0.2","0.8","0.08819471669","0.5987872161","0.2914052368","0.1668466162","","","","","","","","","","","","75","K","2","","","72","main_expt",""
"","bandit","152","624550","0.0-113.0-0.0","05329053","wem/bandit_either_3","A7FXUMAFLRJL2","either","5","742","","","","","","","0","1","0","","0.2877488323","0.4","0.6","0.2","0.8","0.1283432424","0.5985066563","0.2877488323","0.1896474075","","","","","","","","","","","","75","K","2","","","73","main_expt",""
"","bandit","153","626663","0.0-114.0-0.0","05329053","wem/bandit_either_3","A7FXUMAFLRJL2","either","5","580","","","","","","","0","0","1","","0.2562899571","0.4","0.6","0.2","0.8","0.09379917772","0.6384302553","0.2562899571","0.2374421278","","","","","","","","","","","","75","K","2","","","74","main_expt",""
"","bandit","154","628632","0.0-115.0-0.0","05329053","wem/bandit_either_3","A7FXUMAFLRJL2","either","5","422","","","","","","","0","0","1","0.2733605005","","0.4","0.6","0.2","0.8","","","","","0.09049970266","0.5658832615","0.2733605005","0.2083661751","","","","","","","","75","K","2","","","75","main_expt",""
"","bandit","155","630556","0.0-116.0-0.0","05329053","wem/bandit_either_3","A7FXUMAFLRJL2","either","5","364","","","","","","","0","0","1","0.2438220339","","0.4","0.6","0.2","0.8","","","","","0.08721668036","0.6242699585","0.3937912108","0.2438220339","","","","","","","","76","L","3","","","76","main_expt",""
"","bandit","156","632888","0.0-117.0-0.0","05329053","wem/bandit_either_3","A7FXUMAFLRJL2","either","5","758","","","","","","","1","0","0","0.2688374605","","0.4","0.6","0.2","0.8","","","","","0.06435523183","0.5744400186","0.2317864895","0.2688374605","","","","","","","","76","L","3","","","77","main_expt",""
"","bandit","157","635452","0.0-118.0-0.0","05329053","wem/bandit_either_3","A7FXUMAFLRJL2","either","5","734","","","","","","","0","0","1","0.354885782","","0.4","0.6","0.2","0.8","","","","","0.0482567949","0.5888420407","0.1809738678","0.354885782","","","","","","","","76","L","3","","","78","main_expt",""
"","bandit","158","637709","0.0-119.0-0.0","05329053","wem/bandit_either_3","A7FXUMAFLRJL2","either","5","708","","","","","","","0","1","0","","0.3618930149","0.4","0.6","0.2","0.8","0.0437210955","0.6367332082","0.1139783564","0.3618930149","","","","","","","","","","","","76","L","3","","","79","main_expt",""
"","bandit","159","640161","0.0-120.0-0.0","05329053","wem/bandit_either_3","A7FXUMAFLRJL2","either","5","887","","","","","","","0","0","1","0.2656346555","","0.4","0.6","0.2","0.8","","","","","0.02877808334","0.6870764151","0.08785846653","0.2656346555","","","","","","","","76","L","3","","","80","main_expt",""
"","bandit","160","642530","0.0-121.0-0.0","05329053","wem/bandit_either_3","A7FXUMAFLRJL2","either","5","825","","","","","","","0","1","0","","0.4245431589","0.4","0.6","0.2","0.8","0.01921293631","0.594282643","0.09113866108","0.4245431589","","","","","","","","","","","","76","L","3","","","81","main_expt",""
"","bandit","161","644740","0.0-122.0-0.0","05329053","wem/bandit_either_3","A7FXUMAFLRJL2","either","5","668","","","","","","","0","0","1","0.4469352605","","0.4","0.6","0.2","0.8","","","","","0.04933803159","0.6134463007","0.1055231707","0.4469352605","","","","","","","","76","L","3","","","82","main_expt",""
"","bandit","162","646988","0.0-123.0-0.0","05329053","wem/bandit_either_3","A7FXUMAFLRJL2","either","5","668","","","","","","","0","1","0","","0.4492602846","0.4","0.6","0.2","0.8","0.03134335394","0.573719985","0.09865920741","0.4492602846","","","","","","","","","","","","76","L","3","","","83","main_expt",""
"","bandit","163","649276","0.0-124.0-0.0","05329053","wem/bandit_either_3","A7FXUMAFLRJL2","either","5","746","","","","","","","0","0","1","0.4800113203","","0.4","0.6","0.2","0.8","","","","","0.08181594064","0.5666188995","0.06745845416","0.4800113203","","","","","","","","76","L","3","","","84","main_expt",""
"","bandit","164","651668","0.0-125.0-0.0","05329053","wem/bandit_either_3","A7FXUMAFLRJL2","either","5","851","","","","","","","0","0","1","0.53417275","","0.4","0.6","0.2","0.8","","","","","0.09326949564","0.5161506384","0.05723787215","0.53417275","","","","","","","","76","L","3","","","85","main_expt",""
"","bandit","165","653995","0.0-126.0-0.0","05329053","wem/bandit_either_3","A7FXUMAFLRJL2","either","5","783","","","","","","","0","0","1","","0.04283717318","0.4","0.6","0.2","0.8","0.1365856799","0.4408304524","0.04283717318","0.4431594274","","","","","","","","","","","","75","K","2","","","86","main_expt",""
"","bandit","166","656106","0.0-127.0-0.0","05329053","wem/bandit_either_3","A7FXUMAFLRJL2","either","5","566","","","","","","","0","0","1","","0.04801612347","0.4","0.6","0.2","0.8","0.1845868617","0.4926691315","0.04801612347","0.4135642243","","","","","","","","","","","","75","K","2","","","87","main_expt",""
"","bandit","167","658313","0.0-128.0-0.0","05329053","wem/bandit_either_3","A7FXUMAFLRJL2","either","5","659","","","","","","","1","0","0","0.6047228172","","0.4","0.6","0.2","0.8","","","","","0.2304222619","0.6047228172","0.1154775412","0.4785462387","","","","","","","","74","J","1","","","88","main_expt",""
"","bandit","168","660652","0.0-129.0-0.0","05329053","wem/bandit_either_3","A7FXUMAFLRJL2","either","5","804","","","","","","","0","0","1","0.5311406509","","0.4","0.6","0.2","0.8","","","","","0.1408060154","0.5311406509","0.1308375778","0.6395163219","","","","","","","","74","J","1","","","89","main_expt",""
"","bandit","169","663505","0.0-130.0-0.0","05329053","wem/bandit_either_3","A7FXUMAFLRJL2","either","5","1316","","","","","","","0","1","0","","0.6262376813","0.4","0.6","0.2","0.8","0.1870966622","0.6262376813","0.07282967421","0.6143207643","","","","","","","","","","","","74","J","1","","","90","main_expt",""
"","bandit","170","666045","0.0-131.0-0.0","05329053","wem/bandit_either_3","A7FXUMAFLRJL2","either","5","1002","","","","","","","0","1","0","","0.690423555","0.4","0.6","0.2","0.8","0.192698437","0.690423555","0.07599207753","0.446485487","","","","","","","","","","","","74","J","1","","","91","main_expt",""
"","bandit","171","668499","0.0-132.0-0.0","05329053","wem/bandit_either_3","A7FXUMAFLRJL2","either","5","916","","","","","","","1","0","0","0.6517149298","","0.4","0.6","0.2","0.8","","","","","0.1683480261","0.6517149298","0.04323911508","0.5169677416","","","","","","","","74","J","1","","","92","main_expt",""
"","bandit","172","670879","0.0-133.0-0.0","05329053","wem/bandit_either_3","A7FXUMAFLRJL2","either","5","842","","","","","","","1","0","0","0.5656193004","","0.4","0.6","0.2","0.8","","","","","0.1330499919","0.5656193004","0.04253576945","0.4242737166","","","","","","","","74","J","1","","","93","main_expt",""
"","bandit","173","673699","0.0-134.0-0.0","05329053","wem/bandit_either_3","A7FXUMAFLRJL2","either","5","1284","","","","","","","0","0","1","","0.4344563295","0.4","0.6","0.2","0.8","0.1880917327","0.4344563295","0.04534385772","0.3479993201","","","","","","","","","","","","74","J","1","","","94","main_expt",""
"","bandit","174","676249","0.0-135.0-0.0","05329053","wem/bandit_either_3","A7FXUMAFLRJL2","either","5","1012","","","","","","","1","0","0","0.5651083109","","0.4","0.6","0.2","0.8","","","","","0.1867575465","0.5651083109","0.03318992591","0.3701135783","","","","","","","","74","J","1","","","95","main_expt",""
"","bandit","175","678748","0.0-136.0-0.0","05329053","wem/bandit_either_3","A7FXUMAFLRJL2","either","5","957","","","","","","","0","1","0","","0.5348041914","0.4","0.6","0.2","0.8","0.2231999883","0.5348041914","0.03408771876","0.3430407586","","","","","","","","","","","","74","J","1","","","96","main_expt",""
"","bandit","176","681196","0.0-137.0-0.0","05329053","wem/bandit_either_3","A7FXUMAFLRJL2","either","5","903","","","","","","","0","1","0","","0.5627844697","0.4","0.6","0.2","0.8","0.2149045243","0.5627844697","0.05013144164","0.2876443713","","","","","","","","","","","","74","J","1","","","97","main_expt",""
"","bandit","177","683459","0.0-138.0-0.0","05329053","wem/bandit_either_3","A7FXUMAFLRJL2","either","5","720","","","","","","","1","0","0","0.6177525637","","0.4","0.6","0.2","0.8","","","","","0.1963416079","0.6177525637","0.03739082544","0.3310412313","","","","","","","","74","J","1","","","98","main_expt",""
"","bandit","178","685898","0.0-139.0-0.0","05329053","wem/bandit_either_3","A7FXUMAFLRJL2","either","5","902","","","","","","","1","0","0","0.7429557604","","0.4","0.6","0.2","0.8","","","","","0.1659387142","0.7429557604","0.1018336486","0.3893078888","","","","","","","","74","J","1","","","99","main_expt",""
"","bandit","179","688395","0.0-140.0-0.0","05329053","wem/bandit_either_3","A7FXUMAFLRJL2","either","5","956","","","","","","","0","1","0","","0.6717563967","0.4","0.6","0.2","0.8","0.145948344","0.6717563967","0.1398961818","0.4049224607","","","","","","","","","","","","74","J","1","","","100","main_expt",""
"","bandit","180","690866","0.0-141.0-0.0","05329053","wem/bandit_either_3","A7FXUMAFLRJL2","either","5","919","","","","","","","0","0","1","","0.6929666651","0.4","0.6","0.2","0.8","0.1366695263","0.6929666651","0.1830356504","0.3259939159","","","","","","","","","","","","74","J","1","","","101","main_expt",""
"","bandit","181","693480","0.0-142.0-0.0","05329053","wem/bandit_either_3","A7FXUMAFLRJL2","either","5","1074","","","","","","","0","0","1","0.6827494989","","0.4","0.6","0.2","0.8","","","","","0.1543059156","0.6827494989","0.1396005595","0.3598161211","","","","","","","","74","J","1","","","102","main_expt",""
"","bandit","182","695702","0.0-143.0-0.0","05329053","wem/bandit_either_3","A7FXUMAFLRJL2","either","5","675","","","","","","","0","0","1","","0.7315485361","0.4","0.6","0.2","0.8","0.1484193465","0.7315485361","0.0853830874","0.3385951472","","","","","","","","","","","","74","J","1","","","103","main_expt",""
"","bandit","183","697724","0.0-144.0-0.0","05329053","wem/bandit_either_3","A7FXUMAFLRJL2","either","5","478","","","","","","","0","0","1","0.1516288854","","0.4","0.6","0.2","0.8","","","","","0.1516288854","0.6852971926","0.09317924201","0.4881545817","","","","","","","","72","H","0","img/none_selected.jpg","","104","main_expt",""
"","bandit","184","699918","0.0-145.0-0.0","05329053","wem/bandit_either_3","A7FXUMAFLRJL2","either","5","646","","","","","","","0","0","1","","0.1283123627","0.4","0.6","0.2","0.8","0.1283123627","0.693594393","0.08203708102","0.4790883063","","","","","","","","","","","","72","H","0","img/none_selected.jpg","","105","main_expt",""
"","bandit","185","702158","0.0-146.0-0.0","05329053","wem/bandit_either_3","A7FXUMAFLRJL2","either","5","657","","","","","","","0","0","1","0.07160056992","","0.4","0.6","0.2","0.8","","","","","0.2016068708","0.6101065231","0.07160056992","0.4354998123","","","","","","","","75","K","2","","","106","main_expt",""
"","bandit","186","704528","0.0-147.0-0.0","05329053","wem/bandit_either_3","A7FXUMAFLRJL2","either","5","802","","","","","","","0","1","0","","0.4789065637","0.4","0.6","0.2","0.8","0.2344181992","0.5549317608","0.09799112372","0.4789065637","","","","","","","","","","","","76","L","3","","","107","main_expt",""
"","bandit","187","706817","0.0-148.0-0.0","05329053","wem/bandit_either_3","A7FXUMAFLRJL2","either","5","737","","","","","","","1","0","0","0.2921896665","","0.4","0.6","0.2","0.8","","","","","0.2234564856","0.5753690117","0.1101799882","0.2921896665","","","","","","","","76","L","3","","","108","main_expt",""
"","bandit","188","709095","0.0-149.0-0.0","05329053","wem/bandit_either_3","A7FXUMAFLRJL2","either","5","708","","","","","","","0","0","1","","0.3545905428","0.4","0.6","0.2","0.8","0.2494485671","0.5748544728","0.07189968831","0.3545905428","","","","","","","","","","","","76","L","3","","","109","main_expt",""
"","bandit","189","711274","0.0-150.0-0.0","05329053","wem/bandit_either_3","A7FXUMAFLRJL2","either","5","605","","","","","","","1","0","0","0.3110769573","","0.4","0.6","0.2","0.8","","","","","0.2804015825","0.6473038793","0.06101418375","0.3110769573","","","","","","","","76","L","3","","","110","main_expt",""
"","bandit","190","713762","0.0-151.0-0.0","05329053","wem/bandit_either_3","A7FXUMAFLRJL2","either","5","928","","","","","","","0","1","0","","0.3673577619","0.4","0.6","0.2","0.8","0.254644275","0.6296147118","0.1032726654","0.3673577619","","","","","","","","","","","","76","L","3","","","111","main_expt",""
"","bandit","191","716202","0.0-152.0-0.0","05329053","wem/bandit_either_3","A7FXUMAFLRJL2","either","5","896","","","","","","","1","0","0","0.3439961468","","0.4","0.6","0.2","0.8","","","","","0.2686709136","0.6174722021","0.1061240248","0.3439961468","","","","","","","","76","L","3","","","112","main_expt",""
"","bandit","192","718570","0.0-153.0-0.0","05329053","wem/bandit_either_3","A7FXUMAFLRJL2","either","5","814","","","","","","","0","0","1","0.3389202036","","0.4","0.6","0.2","0.8","","","","","0.3211503982","0.7467975424","0.1150632514","0.3389202036","","","","","","","","76","L","3","","","113","main_expt",""
"","bandit","193","720712","0.0-154.0-0.0","05329053","wem/bandit_either_3","A7FXUMAFLRJL2","either","5","603","","","","","","","1","0","0","0.3122185675","","0.4","0.6","0.2","0.8","","","","","0.3067152309","0.7797220863","0.1491479201","0.3122185675","","","","","","","","76","L","3","","","114","main_expt",""
"","bandit","194","723101","0.0-155.0-0.0","05329053","wem/bandit_either_3","A7FXUMAFLRJL2","either","5","853","","","","","","","0","0","1","0.2431064996","","0.4","0.6","0.2","0.8","","","","","0.3274584286","0.8152411921","0.08304421353","0.2431064996","","","","","","","","76","L","3","","","115","main_expt",""
"","bandit","195","725104","0.0-156.0-0.0","05329053","wem/bandit_either_3","A7FXUMAFLRJL2","either","5","464","","","","","","","1","0","0","0.2225404561","","0.4","0.6","0.2","0.8","","","","","0.2491959293","0.7362727539","0.1391191417","0.2225404561","","","","","","","","76","L","3","","","116","main_expt",""
"","bandit","196","727205","0.0-157.0-0.0","05329053","wem/bandit_either_3","A7FXUMAFLRJL2","either","5","563","","","","","","","0","0","1","0.2891792411","","0.4","0.6","0.2","0.8","","","","","0.1425156065","0.7051771602","0.1689833708","0.2891792411","","","","","","","","76","L","3","","","117","main_expt",""
"","bandit","197","729256","0.0-158.0-0.0","05329053","wem/bandit_either_3","A7FXUMAFLRJL2","either","5","408","","","","","","","0","0","1","","0.3147139712","0.4","0.6","0.2","0.8","0.1550025764","0.7099604309","0.1341186766","0.3147139712","","","","","","","","","","","","76","L","3","","","118","main_expt",""
"","bandit","198","731478","0.0-159.0-0.0","05329053","wem/bandit_either_3","A7FXUMAFLRJL2","either","5","681","","","","","","","1","0","0","0.4890071061","","0.4","0.6","0.2","0.8","","","","","0.1733664784","0.6633752461","0.1211065448","0.4890071061","","","","","","","","76","L","3","","","119","main_expt",""
"","bandit","199","733699","0.0-160.0-0.0","05329053","wem/bandit_either_3","A7FXUMAFLRJL2","either","5","679","","","","","","","1","0","0","0.5238994176","","0.4","0.6","0.2","0.8","","","","","0.2091577514","0.6748815414","0.1317257861","0.5238994176","","","","","","","","76","L","3","","","120","main_expt",""
"","bandit","200","735716","0.0-161.0-0.0","05329053","wem/bandit_either_3","A7FXUMAFLRJL2","either","5","470","","","","","","","1","0","0","0.4821854017","","0.4","0.6","0.2","0.8","","","","","0.2038206067","0.694041989","0.08851148741","0.4821854017","","","","","","","","76","L","3","","","121","main_expt",""
"","bandit","201","737886","0.0-162.0-0.0","05329053","wem/bandit_either_3","A7FXUMAFLRJL2","either","5","628","","","","","","","1","0","0","0.5695824443","","0.4","0.6","0.2","0.8","","","","","0.1646827865","0.7808088803","0.1313095228","0.5695824443","","","","","","","","76","L","3","","","122","main_expt",""
"","bandit","202","740027","0.0-163.0-0.0","05329053","wem/bandit_either_3","A7FXUMAFLRJL2","either","5","600","","","","","","","0","1","0","","0.5884468641","0.4","0.6","0.2","0.8","0.08951947698","0.7513243775","0.1990721176","0.5884468641","","","","","","","","","","","","76","L","3","","","123","main_expt",""
"","bandit","203","742497","0.0-164.0-0.0","05329053","wem/bandit_either_3","A7FXUMAFLRJL2","either","5","932","","","","","","","1","0","0","0.6578864121","","0.4","0.6","0.2","0.8","","","","","0.09676311751","0.7095593687","0.3510587203","0.6578864121","","","","","","","","76","L","3","","","124","main_expt",""
"","bandit","204","744949","0.0-165.0-0.0","05329053","wem/bandit_either_3","A7FXUMAFLRJL2","either","5","906","","","","","","","1","0","0","0.6610648035","","0.4","0.6","0.2","0.8","","","","","0.08914634913","0.6464373278","0.2829787335","0.6610648035","","","","","","","","76","L","3","","","125","main_expt",""
"","bandit","205","747040","0.0-166.0-0.0","05329053","wem/bandit_either_3","A7FXUMAFLRJL2","either","5","545","","","","","","","1","0","0","0.6745370829","","0.4","0.6","0.2","0.8","","","","","0.1104844084","0.69855693","0.3253732313","0.6745370829","","","","","","","","76","L","3","","","126","main_expt",""
"","bandit","206","749511","0.0-167.0-0.0","05329053","wem/bandit_either_3","A7FXUMAFLRJL2","either","5","832","","","","","","","1","0","0","0.6357656308","","0.4","0.6","0.2","0.8","","","","","0.1302598269","0.6394960802","0.2969307539","0.6357656308","","","","","","","","76","L","3","","","127","main_expt",""
"","bandit","207","751856","0.0-168.0-0.0","05329053","wem/bandit_either_3","A7FXUMAFLRJL2","either","5","805","","","","","","","1","0","0","0.6746479632","","0.4","0.6","0.2","0.8","","","","","0.1739983423","0.5912569563","0.3862322559","0.6746479632","","","","","","","","76","L","3","","","128","main_expt",""
"","bandit","208","754289","0.0-169.0-0.0","05329053","wem/bandit_either_3","A7FXUMAFLRJL2","either","5","339","","","","","","","0","0","1","","0.609360971","0.4","0.6","0.2","0.8","0.2144078185","0.6408154383","0.3399993615","0.609360971","","","","","","","","","","","","76","L","3","","","129","main_expt",""
"","bandit","209","759490","0.0-170.0-0.0","05329053","wem/bandit_either_3","A7FXUMAFLRJL2","either","5","3636","","","","","","","1","0","0","0.5791775941","","0.4","0.6","0.2","0.8","","","","","0.2133227205","0.6160079471","0.4343217783","0.5791775941","","","","","","","","76","L","3","","","130","main_expt",""
"","bandit","210","762068","0.0-171.0-0.0","05329053","wem/bandit_either_3","A7FXUMAFLRJL2","either","5","1038","","","","","","","1","0","0","0.6039133906","","0.4","0.6","0.2","0.8","","","","","0.3009586135","0.6639311205","0.4116870082","0.6039133906","","","","","","","","76","L","3","","","131","main_expt",""
"","bandit","211","764378","0.0-172.0-0.0","05329053","wem/bandit_either_3","A7FXUMAFLRJL2","either","5","769","","","","","","","0","0","1","0.5564977279","","0.4","0.6","0.2","0.8","","","","","0.3257006372","0.7314418876","0.3235444519","0.5564977279","","","","","","","","76","L","3","","","132","main_expt",""
"","bandit","212","766530","0.0-173.0-0.0","05329053","wem/bandit_either_3","A7FXUMAFLRJL2","either","5","603","","","","","","","0","0","1","0.5453182718","","0.4","0.6","0.2","0.8","","","","","0.3286432436","0.7343064015","0.4204005917","0.5453182718","","","","","","","","76","L","3","","","133","main_expt",""
"","bandit","213","768429","0.0-174.0-0.0","05329053","wem/bandit_either_3","A7FXUMAFLRJL2","either","5","352","","","","","","","1","0","0","0.5557967555","","0.4","0.6","0.2","0.8","","","","","0.3343575241","0.6345074403","0.5326734174","0.5557967555","","","","","","","","76","L","3","","","134","main_expt",""
"","bandit","214","771033","0.0-175.0-0.0","05329053","wem/bandit_either_3","A7FXUMAFLRJL2","either","5","1042","","","","","","","0","0","1","0.5719827955","","0.4","0.6","0.2","0.8","","","","","0.2917270645","0.752921597","0.6096825818","0.5719827955","","","","","","","","76","L","3","","","135","main_expt",""
"","bandit","215","772956","0.0-176.0-0.0","05329053","wem/bandit_either_3","A7FXUMAFLRJL2","either","5","348","","","","","","","0","0","1","0.4756276611","","0.4","0.6","0.2","0.8","","","","","0.3972485531","0.7642539739","0.6827328332","0.4756276611","","","","","","","","76","L","3","","","136","main_expt",""
"","bandit","216","775461","0.0-177.0-0.0","05329053","wem/bandit_either_3","A7FXUMAFLRJL2","either","5","932","","","","","","","0","1","0","","0.7166238274","0.4","0.6","0.2","0.8","0.4294090248","0.7166238274","0.6604068036","0.5078949877","","","","","","","","","","","","74","J","1","","","137","main_expt",""
"","bandit","217","777591","0.0-178.0-0.0","05329053","wem/bandit_either_3","A7FXUMAFLRJL2","either","5","579","","","","","","","0","1","0","","0.713549589","0.4","0.6","0.2","0.8","0.5009988565","0.713549589","0.653661868","0.4938131475","","","","","","","","","","","","74","J","1","","","138","main_expt",""
"","bandit","218","779809","0.0-179.0-0.0","05329053","wem/bandit_either_3","A7FXUMAFLRJL2","either","5","630","","","","","","","0","0","1","","0.6905374229","0.4","0.6","0.2","0.8","0.4993746949","0.6905374229","0.6169918179","0.654612375","","","","","","","","","","","","74","J","1","","","139","main_expt",""
"","bandit","219","782038","0.0-180.0-0.0","05329053","wem/bandit_either_3","A7FXUMAFLRJL2","either","5","663","","","","","","","0","1","0","","0.6614813372","0.4","0.6","0.2","0.8","0.5448973659","0.6614813372","0.6657435074","0.52663091","","","","","","","","","","","","74","J","1","","","140","main_expt",""
"","bandit","220","784222","0.0-181.0-0.0","05329053","wem/bandit_either_3","A7FXUMAFLRJL2","either","5","623","","","","","","","0","1","0","","0.7024355817","0.4","0.6","0.2","0.8","0.4829720837","0.7024355817","0.6349341703","0.5976356642","","","","","","","","","","","","74","J","1","","","141","main_expt",""
"","bandit","221","786392","0.0-182.0-0.0","05329053","wem/bandit_either_3","A7FXUMAFLRJL2","either","5","615","","","","","","","0","0","1","0.7185929435","","0.4","0.6","0.2","0.8","","","","","0.5402580016","0.7185929435","0.6379356982","0.5956183516","","","","","","","","74","J","1","","","142","main_expt",""
"","bandit","222","788492","0.0-183.0-0.0","05329053","wem/bandit_either_3","A7FXUMAFLRJL2","either","5","558","","","","","","","0","1","0","","0.6240660549","0.4","0.6","0.2","0.8","0.5478015274","0.6240660549","0.6022688156","0.6432894639","","","","","","","","","","","","74","J","1","","","143","main_expt",""
"","bandit","223","790529","0.0-184.0-0.0","05329053","wem/bandit_either_3","A7FXUMAFLRJL2","either","5","497","","","","","","","1","0","0","0.5797935966","","0.4","0.6","0.2","0.8","","","","","0.5189832842","0.5797935966","0.5806731621","0.6691106198","","","","","","","","74","J","1","","","144","main_expt",""
"","bandit","224","792607","0.0-185.0-0.0","05329053","wem/bandit_either_3","A7FXUMAFLRJL2","either","5","529","","","","","","","0","1","0","","0.520403766","0.4","0.6","0.2","0.8","0.4556604905","0.520403766","0.5512406412","0.677031803","","","","","","","","","","","","74","J","1","","","145","main_expt",""
"","bandit","225","794695","0.0-186.0-0.0","05329053","wem/bandit_either_3","A7FXUMAFLRJL2","either","5","538","","","","","","","0","0","1","","0.5330345992","0.4","0.6","0.2","0.8","0.48011385","0.5330345992","0.6055708535","0.6697886415","","","","","","","","","","","","74","J","1","","","146","main_expt",""
"","bandit","226","796841","0.0-187.0-0.0","05329053","wem/bandit_either_3","A7FXUMAFLRJL2","either","5","593","","","","","","","1","0","0","0.5692896821","","0.4","0.6","0.2","0.8","","","","","0.5363471167","0.5692896821","0.5711328773","0.7101623398","","","","","","","","74","J","1","","","147","main_expt",""
"","bandit","227","798971","0.0-188.0-0.0","05329053","wem/bandit_either_3","A7FXUMAFLRJL2","either","5","589","","","","","","","0","0","1","0.4877368026","","0.4","0.6","0.2","0.8","","","","","0.4929714004","0.4877368026","0.4258462921","0.733230793","","","","","","","","74","J","1","","","148","main_expt",""
"","bandit","228","801063","0.0-189.0-0.0","05329053","wem/bandit_either_3","A7FXUMAFLRJL2","either","5","549","","","","","","","0","0","1","0.5936336812","","0.4","0.6","0.2","0.8","","","","","0.4356177925","0.5936336812","0.327967402","0.7010449773","","","","","","","","74","J","1","","","149","main_expt",""
"","bandit","229","803101","0.0-190.0-0.0","05329053","wem/bandit_either_3","A7FXUMAFLRJL2","either","5","495","","","","","","","0","0","1","","0.7027445866","0.4","0.6","0.2","0.8","0.4054894896","0.7027445866","0.4343474627","0.6668672445","","","","","","","","","","","","74","J","1","","","150","main_expt",""
"","bandit","230","805352","0.0-191.0-0.0","05329053","wem/bandit_either_3","A7FXUMAFLRJL2","either","5","709","","","","","","","1","0","0","0.5612636021","","0.4","0.6","0.2","0.8","","","","","0.5283130311","0.7690633033","0.5382828223","0.5612636021","","","","","","","","76","L","3","","","151","main_expt",""
"","bandit","231","807542","0.0-192.0-0.0","05329053","wem/bandit_either_3","A7FXUMAFLRJL2","either","5","652","","","","","","","1","0","0","0.7032448324","","0.4","0.6","0.2","0.8","","","","","0.6323123958","0.5989969619","0.6572277468","0.7032448324","","","","","","","","76","L","3","","","152","main_expt",""
"","bandit","232","809919","0.0-193.0-0.0","05329053","wem/bandit_either_3","A7FXUMAFLRJL2","either","5","667","","","","","","","1","0","0","0.6918543646","","0.4","0.6","0.2","0.8","","","","","0.5847243132","0.6126787421","0.668560183","0.6918543646","","","","","","","","76","L","3","","","153","main_expt",""
"","bandit","233","811841","0.0-194.0-0.0","05329053","wem/bandit_either_3","A7FXUMAFLRJL2","either","5","377","","","","","","","0","0","1","","0.647195156","0.4","0.6","0.2","0.8","0.4285456013","0.5461115941","0.6954524596","0.647195156","","","","","","","","","","","","76","L","3","","","154","main_expt",""
"","bandit","234","813911","0.0-195.0-0.0","05329053","wem/bandit_either_3","A7FXUMAFLRJL2","either","5","398","","","","","","","1","0","0","0.6135998722","","0.4","0.6","0.2","0.8","","","","","0.4772645207","0.5456348337","0.5684527538","0.6135998722","","","","","","","","76","L","3","","","155","main_expt",""
"","bandit","235","816151","0.0-196.0-0.0","05329053","wem/bandit_either_3","A7FXUMAFLRJL2","either","5","694","","","","","","","0","0","1","0.5591033916","","0.4","0.6","0.2","0.8","","","","","0.4982711843","0.4782917504","0.6034375159","0.5591033916","","","","","","","","76","L","3","","","156","main_expt",""
"","bandit","236","818414","0.0-197.0-0.0","05329053","wem/bandit_either_3","A7FXUMAFLRJL2","either","5","717","","","","","","","0","1","0","","0.5090787948","0.4","0.6","0.2","0.8","0.5275183668","0.4868537485","0.5835723018","0.5090787948","","","","","","","","","","","","76","L","3","","","157","main_expt",""
"","bandit","237","820610","0.0-198.0-0.0","05329053","wem/bandit_either_3","A7FXUMAFLRJL2","either","5","648","","","","","","","0","0","1","0.6087372924","","0.4","0.6","0.2","0.8","","","","","0.4489423754","0.5361642224","0.5234712835","0.6087372924","","","","","","","","76","L","3","","","158","main_expt",""
"","bandit","238","822500","0.0-199.0-0.0","05329053","wem/bandit_either_3","A7FXUMAFLRJL2","either","5","346","","","","","","","0","0","1","0.6064578463","","0.4","0.6","0.2","0.8","","","","","0.4933275403","0.4947944436","0.5636881177","0.6064578463","","","","","","","","76","L","3","","","159","main_expt",""
"","bandit","239","824463","0.0-200.0-0.0","05329053","wem/bandit_either_3","A7FXUMAFLRJL2","either","5","421","","","","","","","0","1","0","","0.6951258233","0.4","0.6","0.2","0.8","0.4521998099","0.5106889885","0.4785340868","0.6951258233","","","","","","","","","","","","76","L","3","","","160","main_expt",""
"","bandit","240","826658","0.0-201.0-0.0","05329053","wem/bandit_either_3","A7FXUMAFLRJL2","either","5","655","","","","","","","1","0","0","0.7129510734","","0.4","0.6","0.2","0.8","","","","","0.5114636712","0.4566704777","0.5038962889","0.7129510734","","","","","","","","76","L","3","","","161","main_expt",""
"","bandit","241","828699","0.0-202.0-0.0","05329053","wem/bandit_either_3","A7FXUMAFLRJL2","either","5","467","","","","","","","0","1","0","","0.7028034005","0.4","0.6","0.2","0.8","0.5242674757","0.3259271754","0.4448395692","0.7028034005","","","","","","","","","","","","76","L","3","","","162","main_expt",""
"","bandit","242","830797","0.0-203.0-0.0","05329053","wem/bandit_either_3","A7FXUMAFLRJL2","either","5","466","","","","","","","1","0","0","0.6293758899","","0.4","0.6","0.2","0.8","","","","","0.5687322637","0.2806734392","0.471982621","0.6293758899","","","","","","","","76","L","3","","","163","main_expt",""
"","bandit","243","832872","0.0-204.0-0.0","05329053","wem/bandit_either_3","A7FXUMAFLRJL2","either","5","526","","","","","","","1","0","0","0.6813427096","","0.4","0.6","0.2","0.8","","","","","0.5635146256","0.2973163189","0.6517066897","0.6813427096","","","","","","","","76","L","3","","","164","main_expt",""
"","bandit","244","837919","0.0-205.0-0.0","05329053","wem/bandit_either_3","A7FXUMAFLRJL2","either","5","3497","","","","","","","0","0","1","0.7231406025","","0.4","0.6","0.2","0.8","","","","","0.6588968294","0.2872552927","0.6339143586","0.7231406025","","","","","","","","76","L","3","","","165","main_expt",""
"","bandit","245","846934","0.0-206.0-0.0","05329053","wem/bandit_either_3","A7FXUMAFLRJL2","either","5","7451","","","","","","","1","0","0","0.325395791","","0.4","0.6","0.2","0.8","","","","","0.74872254","0.325395791","0.6507743373","0.6274448994","","","","","","","","74","J","1","","","166","main_expt",""
"","bandit","246","850405","0.0-207.0-0.0","05329053","wem/bandit_either_3","A7FXUMAFLRJL2","either","5","1346","","","","","","","1","0","0","0.3307719744","","0.4","0.6","0.2","0.8","","","","","0.7741304825","0.3307719744","0.6753437353","0.6778384319","","","","","","","","74","J","1","","","167","main_expt",""
"","bandit","247","853181","0.0-208.0-0.0","05329053","wem/bandit_either_3","A7FXUMAFLRJL2","either","5","539","","","","","","","0","0","1","0.4033689778","","0.4","0.6","0.2","0.8","","","","","0.8873722237","0.4033689778","0.6308788189","0.6928942004","","","","","","","","74","J","1","","","168","main_expt",""
"","bandit","248","855671","0.0-209.0-0.0","05329053","wem/bandit_either_3","A7FXUMAFLRJL2","either","5","917","","","","","","","0","0","1","0.4089274666","","0.4","0.6","0.2","0.8","","","","","0.8649989169","0.4089274666","0.6289357746","0.6181376835","","","","","","","","74","J","1","","","169","main_expt",""
"","bandit","249","858304","0.0-210.0-0.0","05329053","wem/bandit_either_3","A7FXUMAFLRJL2","either","5","1059","","","","","","","0","0","1","0.6539136718","","0.4","0.6","0.2","0.8","","","","","0.8634323334","0.4033631647","0.6308829817","0.6539136718","","","","","","","","76","L","3","","","170","main_expt",""
"","bandit","250","860462","0.0-211.0-0.0","05329053","wem/bandit_either_3","A7FXUMAFLRJL2","either","5","577","","","","","","","0","0","1","","0.6008061885","0.4","0.6","0.2","0.8","0.8050812792","0.3743415885","0.6008061885","0.7935188527","","","","","","","","","","","","75","K","2","","","171","main_expt",""
"","bandit","251","862459","0.0-212.0-0.0","05329053","wem/bandit_either_3","A7FXUMAFLRJL2","either","5","436","","","","","","","0","1","0","","0.7635000848","0.4","0.6","0.2","0.8","0.7635000848","0.4145867416","0.6498855282","0.7959482017","","","","","","","","","","","","72","H","0","img/none_selected.jpg","","172","main_expt",""
"","bandit","252","864479","0.0-213.0-0.0","05329053","wem/bandit_either_3","A7FXUMAFLRJL2","either","5","424","","","","","","","0","1","0","","0.7793560846","0.4","0.6","0.2","0.8","0.7793560846","0.4421490518","0.6361658802","0.7720377381","","","","","","","","","","","","72","H","0","img/none_selected.jpg","","173","main_expt",""
"","bandit","253","866549","0.0-214.0-0.0","05329053","wem/bandit_either_3","A7FXUMAFLRJL2","either","5","492","","","","","","","0","1","0","","0.7290013271","0.4","0.6","0.2","0.8","0.7290013271","0.373112653","0.5494915933","0.7751150559","","","","","","","","","","","","72","H","0","img/none_selected.jpg","","174","main_expt",""
"","bandit","254","868735","0.0-215.0-0.0","05329053","wem/bandit_either_3","A7FXUMAFLRJL2","either","5","624","","","","","","","0","0","1","","0.8353873757","0.4","0.6","0.2","0.8","0.8353873757","0.372221374","0.6292002022","0.7699246652","","","","","","","","","","","","72","H","0","img/none_selected.jpg","","175","main_expt",""
"","bandit","255","870780","0.0-216.0-0.0","05329053","wem/bandit_either_3","A7FXUMAFLRJL2","either","5","496","","","","","","","1","0","0","0.8589437223","","0.4","0.6","0.2","0.8","","","","","0.8589437223","0.3594456443","0.4999600136","0.8092821718","","","","","","","","72","H","0","img/none_selected.jpg","","176","main_expt",""
"","bandit","256","872681","0.0-217.0-0.0","05329053","wem/bandit_either_3","A7FXUMAFLRJL2","either","5","355","","","","","","","0","1","0","","0.8824379228","0.4","0.6","0.2","0.8","0.8824379228","0.3705823864","0.4500304274","0.7728258073","","","","","","","","","","","","72","H","0","img/none_selected.jpg","","177","main_expt",""
"","bandit","257","874793","0.0-218.0-0.0","05329053","wem/bandit_either_3","A7FXUMAFLRJL2","either","5","568","","","","","","","0","1","0","","0.8862787626","0.4","0.6","0.2","0.8","0.8862787626","0.3042584581","0.4626099748","0.8128952128","","","","","","","","","","","","72","H","0","img/none_selected.jpg","","178","main_expt",""
"","bandit","258","876706","0.0-219.0-0.0","05329053","wem/bandit_either_3","A7FXUMAFLRJL2","either","5","365","","","","","","","0","1","0","","0.8851661012","0.4","0.6","0.2","0.8","0.8851661012","0.3056645996","0.3074659707","0.7878088044","","","","","","","","","","","","72","H","0","img/none_selected.jpg","","179","main_expt",""
"","bandit","259","878710","0.0-220.0-0.0","05329053","wem/bandit_either_3","A7FXUMAFLRJL2","either","5","453","","","","","","","0","1","0","","0.8623840347","0.4","0.6","0.2","0.8","0.8623840347","0.3124458775","0.2445312817","0.7626215198","","","","","","","","","","","","72","H","0","img/none_selected.jpg","","180","main_expt",""
"","bandit","260","880631","0.0-221.0-0.0","05329053","wem/bandit_either_3","A7FXUMAFLRJL2","either","5","377","","","","","","","1","0","0","0.8815853427","","0.4","0.6","0.2","0.8","","","","","0.8815853427","0.2597333415","0.2284870313","0.7059637017","","","","","","","","72","H","0","img/none_selected.jpg","","181","main_expt",""
"","bandit","261","882517","0.0-222.0-0.0","05329053","wem/bandit_either_3","A7FXUMAFLRJL2","either","5","334","","","","","","","1","0","0","0.8955826305","","0.4","0.6","0.2","0.8","","","","","0.8955826305","0.2117009826","0.2195648065","0.6691747745","","","","","","","","72","H","0","img/none_selected.jpg","","182","main_expt",""
"","bandit","262","884512","0.0-223.0-0.0","05329053","wem/bandit_either_3","A7FXUMAFLRJL2","either","5","451","","","","","","","1","0","0","0.9362873759","","0.4","0.6","0.2","0.8","","","","","0.9362873759","0.2327762041","0.2327716204","0.5523838876","","","","","","","","72","H","0","img/none_selected.jpg","","183","main_expt",""
"","bandit","263","886490","0.0-224.0-0.0","05329053","wem/bandit_either_3","A7FXUMAFLRJL2","either","5","429","","","","","","","0","1","0","","0.9484326647","0.4","0.6","0.2","0.8","0.9484326647","0.2750618684","0.3207903029","0.5451875246","","","","","","","","","","","","72","H","0","img/none_selected.jpg","","184","main_expt",""
"","bandit","264","888905","0.0-225.0-0.0","05329053","wem/bandit_either_3","A7FXUMAFLRJL2","either","5","863","","","","","","","0","0","1","","0.9660783121","0.4","0.6","0.2","0.8","0.9660783121","0.2305846964","0.3609723674","0.6090771744","","","","","","","","","","","","72","H","0","img/none_selected.jpg","","185","main_expt",""
"","bandit","265","891046","0.0-226.0-0.0","05329053","wem/bandit_either_3","A7FXUMAFLRJL2","either","5","593","","","","","","","1","0","0","0.9665376101","","0.4","0.6","0.2","0.8","","","","","0.9665376101","0.2597669424","0.4442397518","0.5810996076","","","","","","","","72","H","0","img/none_selected.jpg","","186","main_expt",""
"","bandit","266","894107","0.0-227.0-0.0","05329053","wem/bandit_either_3","A7FXUMAFLRJL2","either","5","1514","","","","","","","1","0","0","0.9644184371","","0.4","0.6","0.2","0.8","","","","","0.9644184371","0.2143742246","0.4478442549","0.4445572548","","","","","","","","72","H","0","img/none_selected.jpg","","187","main_expt",""
"","bandit","267","897107","0.0-228.0-0.0","05329053","wem/bandit_either_3","A7FXUMAFLRJL2","either","5","1457","","","","","","","0","1","0","","0.9731237162","0.4","0.6","0.2","0.8","0.9731237162","0.2294707647","0.4026396634","0.4113554433","","","","","","","","","","","","72","H","0","img/none_selected.jpg","","188","main_expt",""
"","bandit","268","901277","0.0-229.0-0.0","05329053","wem/bandit_either_3","A7FXUMAFLRJL2","either","5","2618","","","","","","","1","0","0","0.9787475226","","0.4","0.6","0.2","0.8","","","","","0.9787475226","0.2469430613","0.5072589837","0.4053553249","","","","","","","","72","H","0","img/none_selected.jpg","","189","main_expt",""
"","bandit","269","905616","0.0-230.0-0.0","05329053","wem/bandit_either_3","A7FXUMAFLRJL2","either","5","2800","","","","","","","1","0","0","0.9847816181","","0.4","0.6","0.2","0.8","","","","","0.9847816181","0.2437728268","0.5234843415","0.4927633492","","","","","","","","72","H","0","img/none_selected.jpg","","190","main_expt",""
"","bandit","270","908130","0.0-231.0-0.0","05329053","wem/bandit_either_3","A7FXUMAFLRJL2","either","5","970","","","","","","","0","1","0","","0.9713064587","0.4","0.6","0.2","0.8","0.9713064587","0.1655579887","0.5054414672","0.428678546","","","","","","","","","","","","72","H","0","img/none_selected.jpg","","191","main_expt",""
"","bandit","271","910682","0.0-232.0-0.0","05329053","wem/bandit_either_3","A7FXUMAFLRJL2","either","5","1013","","","","","","","0","1","0","","0.9558555722","0.4","0.6","0.2","0.8","0.9558555722","0.1501427492","0.7037613703","0.3358015867","","","","","","","","","","","","72","H","0","img/none_selected.jpg","","192","main_expt",""
"","bandit","272","913388","0.0-233.0-0.0","05329053","wem/bandit_either_3","A7FXUMAFLRJL2","either","5","1098","","","","","","","0","1","0","","0.9443800135","0.4","0.6","0.2","0.8","0.9443800135","0.2062706367","0.5980286963","0.2816430679","","","","","","","","","","","","72","H","0","img/none_selected.jpg","","193","main_expt",""
"","bandit","273","915811","0.0-234.0-0.0","05329053","wem/bandit_either_3","A7FXUMAFLRJL2","either","5","831","","","","","","","1","0","0","0.947825408","","0.4","0.6","0.2","0.8","","","","","0.947825408","0.2782937815","0.5607231578","0.2951519504","","","","","","","","72","H","0","img/none_selected.jpg","","194","main_expt",""
"","bandit","274","918145","0.0-235.0-0.0","05329053","wem/bandit_either_3","A7FXUMAFLRJL2","either","5","630","","","","","","","1","0","0","0.9531013361","","0.4","0.6","0.2","0.8","","","","","0.9531013361","0.2393938873","0.6222063369","0.2482291913","","","","","","","","72","H","0","img/none_selected.jpg","","195","main_expt",""
"","bandit","275","921670","0.0-236.0-0.0","05329053","wem/bandit_either_3","A7FXUMAFLRJL2","either","5","1944","","","","","","","0","1","0","","0.9653581558","0.4","0.6","0.2","0.8","0.9653581558","0.3385483064","0.7092042058","0.2548661126","","","","","","","","","","","","72","H","0","img/none_selected.jpg","","196","main_expt",""
"","bandit","276","926610","0.0-237.0-0.0","05329053","wem/bandit_either_3","A7FXUMAFLRJL2","either","5","3357","","","","","","","0","1","0","","0.9774234012","0.4","0.6","0.2","0.8","0.9774234012","0.3474357388","0.7397780251","0.2789697966","","","","","","","","","","","","72","H","0","img/none_selected.jpg","","197","main_expt",""
"","bandit","277","931512","0.0-238.0-0.0","05329053","wem/bandit_either_3","A7FXUMAFLRJL2","either","5","3307","","","","","","","1","0","0","0.9866112083","","0.4","0.6","0.2","0.8","","","","","0.9866112083","0.4511600961","0.6977166648","0.2893473624","","","","","","","","72","H","0","img/none_selected.jpg","","198","main_expt",""
"","bandit","278","933887","0.0-239.0-0.0","05329053","wem/bandit_either_3","A7FXUMAFLRJL2","either","5","799","","","","","","","0","1","0","","0.9889390623","0.4","0.6","0.2","0.8","0.9889390623","0.4387406867","0.591703898","0.2499124536","","","","","","","","","","","","72","H","0","img/none_selected.jpg","","199","main_expt",""
"","bandit","279","941213","0.0-240.0-0.0","05329053","wem/bandit_either_3","A7FXUMAFLRJL2","either","5","5750","","","","","","","1","0","0","0.9894921125","","0.4","0.6","0.2","0.8","","","","","0.9894921125","0.4368135332","0.5107967375","0.2643429758","","","","","","","","72","H","0","img/none_selected.jpg","","200","main_expt",""
"","bandit","280","947826","0.0-241.0-0.0","05329053","wem/bandit_either_3","A7FXUMAFLRJL2","either","5","5014","","","","","","","1","0","0","0.989248002","","0.4","0.6","0.2","0.8","","","","","0.989248002","0.3070084091","0.6528148869","0.2382870841","","","","","","","","72","H","0","img/none_selected.jpg","","201","main_expt",""
"","bandit","281","950717","0.0-242.0-0.0","05329053","wem/bandit_either_3","A7FXUMAFLRJL2","either","5","1304","","","","","","","1","0","0","0.9957983392","","0.4","0.6","0.2","0.8","","","","","0.9957983392","0.3603585946","0.6892998309","0.1604624283","","","","","","","","72","H","0","img/none_selected.jpg","","202","main_expt",""
"","bandit","282","953518","0.0-243.0-0.0","05329053","wem/bandit_either_3","A7FXUMAFLRJL2","either","5","1237","","","","","","","0","1","0","","0.9958893","0.4","0.6","0.2","0.8","0.9958893","0.260320329","0.6989476798","0.1407610566","","","","","","","","","","","","72","H","0","img/none_selected.jpg","","203","main_expt",""
"","bandit","283","955898","0.0-244.0-0.0","05329053","wem/bandit_either_3","A7FXUMAFLRJL2","either","5","832","","","","","","","0","1","0","","0.9955962674","0.4","0.6","0.2","0.8","0.9955962674","0.2003029851","0.772264117","0.1343245238","","","","","","","","","","","","72","H","0","img/none_selected.jpg","","204","main_expt",""
"","bandit","284","958279","0.0-245.0-0.0","05329053","wem/bandit_either_3","A7FXUMAFLRJL2","either","5","833","","","","","","","1","0","0","0.9943432705","","0.4","0.6","0.2","0.8","","","","","0.9943432705","0.1922312923","0.7366863645","0.1715400642","","","","","","","","72","H","0","img/none_selected.jpg","","205","main_expt",""
"","bandit","285","962540","0.0-246.0-0.0","05329053","wem/bandit_either_3","A7FXUMAFLRJL2","either","5","2700","","","","","","","0","1","0","","0.9982320458","0.4","0.6","0.2","0.8","0.9982320458","0.1936085521","0.7477287432","0.117617648","","","","","","","","","","","","72","H","0","img/none_selected.jpg","","206","main_expt",""
"","bandit","286","966219","0.0-247.0-0.0","05329053","wem/bandit_either_3","A7FXUMAFLRJL2","either","5","2135","","","","","","","0","1","0","","0.9976530308","0.4","0.6","0.2","0.8","0.9976530308","0.1821705986","0.8185776196","0.1182717864","","","","","","","","","","","","72","H","0","img/none_selected.jpg","","207","main_expt",""
"","bandit","287","967830","0.0-248.0-0.0","05329053","wem/bandit_either_3","A7FXUMAFLRJL2","either","5","64","","","","","","","0","1","0","","0.9961811318","0.4","0.6","0.2","0.8","0.9961811318","0.1145050302","0.8161769506","0.1445047472","","","","","","","","","","","","72","H","0","img/none_selected.jpg","","208","main_expt",""
"","bandit","288","970016","0.0-249.0-0.0","05329053","wem/bandit_either_3","A7FXUMAFLRJL2","either","5","641","","","","","","","1","0","0","0.9977639941","","0.4","0.6","0.2","0.8","","","","","0.9977639941","0.1206637037","0.8224464957","0.1264159314","","","","","","","","72","H","0","img/none_selected.jpg","","209","main_expt",""
"","bandit","289","973574","0.0-250.0-0.0","05329053","wem/bandit_either_3","A7FXUMAFLRJL2","either","5","2007","","","","","","","0","1","0","","0.9953783407","0.4","0.6","0.2","0.8","0.9953783407","0.1422927172","0.7392866018","0.1208777168","","","","","","","","","","","","72","H","0","img/none_selected.jpg","","210","main_expt",""
"","bandit","290","975961","0.0-251.0-0.0","05329053","wem/bandit_either_3","A7FXUMAFLRJL2","either","5","834","","","","","","","0","1","0","","0.9976351195","0.4","0.6","0.2","0.8","0.9976351195","0.1811219169","0.7125411919","0.1733448518","","","","","","","","","","","","72","H","0","img/none_selected.jpg","","211","main_expt",""
"","bandit","291","978004","0.0-252.0-0.0","05329053","wem/bandit_either_3","A7FXUMAFLRJL2","either","5","486","","","","","","","0","1","0","","0.9983589292","0.4","0.6","0.2","0.8","0.9983589292","0.1982527665","0.7191881067","0.1085262221","","","","","","","","","","","","72","H","0","img/none_selected.jpg","","212","main_expt",""
"","bandit","292","980744","0.0-253.0-0.0","05329053","wem/bandit_either_3","A7FXUMAFLRJL2","either","5","1192","","","","","","","1","0","0","0.9960427138","","0.4","0.6","0.2","0.8","","","","","0.9960427138","0.124448309","0.7523845147","0.08145678985","","","","","","","","72","H","0","img/none_selected.jpg","","213","main_expt",""
"","bandit","293","984486","0.0-254.0-0.0","05329053","wem/bandit_either_3","A7FXUMAFLRJL2","either","5","2183","","","","","","","0","1","0","","0.9924650588","0.4","0.6","0.2","0.8","0.9924650588","0.1036015692","0.7193420906","0.05725631888","","","","","","","","","","","","72","H","0","img/none_selected.jpg","","214","main_expt",""
"","bandit","294","987016","0.0-255.0-0.0","05329053","wem/bandit_either_3","A7FXUMAFLRJL2","either","5","941","","","","","","","0","1","0","","0.9858211903","0.4","0.6","0.2","0.8","0.9858211903","0.14458031","0.6784461291","0.04356988172","","","","","","","","","","","","72","H","0","img/none_selected.jpg","","215","main_expt",""
"","bandit","295","989262","0.0-256.0-0.0","05329053","wem/bandit_either_3","A7FXUMAFLRJL2","either","5","672","","","","","","","0","1","0","","0.9915289077","0.4","0.6","0.2","0.8","0.9915289077","0.2094876981","0.5658185063","0.04316154837","","","","","","","","","","","","72","H","0","img/none_selected.jpg","","216","main_expt",""
"","bandit","296","991422","0.0-257.0-0.0","05329053","wem/bandit_either_3","A7FXUMAFLRJL2","either","5","586","","","","","","","1","0","0","0.9929544916","","0.4","0.6","0.2","0.8","","","","","0.9929544916","0.24936904","0.4886301847","0.03453558383","","","","","","","","72","H","0","img/none_selected.jpg","","217","main_expt",""
"","bandit","297","993632","0.0-258.0-0.0","05329053","wem/bandit_either_3","A7FXUMAFLRJL2","either","5","611","","","","","","","1","0","0","0.9741721496","","0.4","0.6","0.2","0.8","","","","","0.9741721496","0.2006789107","0.5674985979","0.03800932399","","","","","","","","72","H","0","img/none_selected.jpg","","218","main_expt",""
"","bandit","298","996281","0.0-259.0-0.0","05329053","wem/bandit_either_3","A7FXUMAFLRJL2","either","5","1080","","","","","","","1","0","0","0.9413517393","","0.4","0.6","0.2","0.8","","","","","0.9413517393","0.2118480588","0.6088772151","0.07914639327","","","","","","","","72","H","0","img/none_selected.jpg","","219","main_expt",""
"","bandit","299","999951","0.0-260.0-0.0","05329053","wem/bandit_either_3","A7FXUMAFLRJL2","either","5","2113","","","","","","","0","1","0","","0.9230346446","0.4","0.6","0.2","0.8","0.9230346446","0.2159213458","0.5856238885","0.07044987786","","","","","","","","","","","","72","H","0","img/none_selected.jpg","","220","main_expt",""
"","bandit","300","1003294","0.0-261.0-0.0","05329053","wem/bandit_either_3","A7FXUMAFLRJL2","either","5","1790","","","","","","","1","0","0","0.9216350241","","0.4","0.6","0.2","0.8","","","","","0.9216350241","0.2097338805","0.6601978635","0.1351506501","","","","","","","","72","H","0","img/none_selected.jpg","","221","main_expt",""
"","bandit","301","1006880","0.0-262.0-0.0","05329053","wem/bandit_either_3","A7FXUMAFLRJL2","either","5","1997","","","","","","","0","1","0","","0.9093406134","0.4","0.6","0.2","0.8","0.9093406134","0.1468233299","0.6540659739","0.2099108548","","","","","","","","","","","","72","H","0","img/none_selected.jpg","","222","main_expt",""
"","bandit","302","1008838","0.0-263.0-0.0","05329053","wem/bandit_either_3","A7FXUMAFLRJL2","either","5","379","","","","","","","1","0","0","0.8361447498","","0.4","0.6","0.2","0.8","","","","","0.8361447498","0.1379540926","0.7010542315","0.2971693323","","","","","","","","72","H","0","img/none_selected.jpg","","223","main_expt",""
"","bandit","303","1010849","0.0-264.0-0.0","05329053","wem/bandit_either_3","A7FXUMAFLRJL2","either","5","453","","","","","","","0","1","0","","0.8626161161","0.4","0.6","0.2","0.8","0.8626161161","0.1943723139","0.7972730751","0.2754671199","","","","","","","","","","","","72","H","0","img/none_selected.jpg","","224","main_expt",""
"","bandit","304","1012968","0.0-265.0-0.0","05329053","wem/bandit_either_3","A7FXUMAFLRJL2","either","5","566","","","","","","","0","1","0","","0.9176165053","0.4","0.6","0.2","0.8","0.9176165053","0.2949344278","0.8726314772","0.2483133052","","","","","","","","","","","","72","H","0","img/none_selected.jpg","","225","main_expt",""
"","bandit","305","1015249","0.0-266.0-0.0","05329053","wem/bandit_either_3","A7FXUMAFLRJL2","either","5","663","","","","","","","0","1","0","","0.9516545376","0.4","0.6","0.2","0.8","0.9516545376","0.4040967375","0.8569150835","0.2945032007","","","","","","","","","","","","72","H","0","img/none_selected.jpg","","226","main_expt",""
"","bandit","306","1017275","0.0-267.0-0.0","05329053","wem/bandit_either_3","A7FXUMAFLRJL2","either","5","466","","","","","","","0","1","0","","0.9448551655","0.4","0.6","0.2","0.8","0.9448551655","0.4369809926","0.8773762417","0.2544933329","","","","","","","","","","","","72","H","0","img/none_selected.jpg","","227","main_expt",""
"","bandit","307","1019461","0.0-268.0-0.0","05329053","wem/bandit_either_3","A7FXUMAFLRJL2","either","5","594","","","","","","","1","0","0","0.9298030406","","0.4","0.6","0.2","0.8","","","","","0.9298030406","0.4228749262","0.8514828757","0.22227057","","","","","","","","72","H","0","img/none_selected.jpg","","228","main_expt",""
"","bandit","308","1021488","0.0-269.0-0.0","05329053","wem/bandit_either_3","A7FXUMAFLRJL2","either","5","457","","","","","","","1","0","0","0.9022116856","","0.4","0.6","0.2","0.8","","","","","0.9022116856","0.4953143479","0.893786405","0.2319557967","","","","","","","","72","H","0","img/none_selected.jpg","","229","main_expt",""
"","bandit","309","1024177","0.0-270.0-0.0","05329053","wem/bandit_either_3","A7FXUMAFLRJL2","either","5","1121","","","","","","","1","0","0","0.8934587516","","0.4","0.6","0.2","0.8","","","","","0.8934587516","0.4752889979","0.9350514117","0.3107577299","","","","","","","","72","H","0","img/none_selected.jpg","","230","main_expt",""
"","bandit","310","1026278","0.0-271.0-0.0","05329053","wem/bandit_either_3","A7FXUMAFLRJL2","either","5","516","","","","","","","0","1","0","","0.8403693225","0.4","0.6","0.2","0.8","0.8403693225","0.4887049862","0.9139197991","0.3046703461","","","","","","","","","","","","72","H","0","img/none_selected.jpg","","231","main_expt",""
"","bandit","311","1029182","0.0-272.0-0.0","05329053","wem/bandit_either_3","A7FXUMAFLRJL2","either","5","1336","","","","","","","0","1","0","","0.7373772703","0.4","0.6","0.2","0.8","0.7373772703","0.6065944358","0.8753904063","0.4259459217","","","","","","","","","","","","72","H","0","img/none_selected.jpg","","232","main_expt",""
"","bandit","312","1033259","0.0-273.0-0.0","05329053","wem/bandit_either_3","A7FXUMAFLRJL2","either","5","2453","","","","","","","1","0","0","0.7275490615","","0.4","0.6","0.2","0.8","","","","","0.7275490615","0.5320380184","0.807664976","0.3391655585","","","","","","","","72","H","0","img/none_selected.jpg","","233","main_expt",""
"","bandit","313","1036728","0.0-274.0-0.0","05329053","wem/bandit_either_3","A7FXUMAFLRJL2","either","5","1883","","","","","","","0","1","0","","0.6910989812","0.4","0.6","0.2","0.8","0.6910989812","0.5845689413","0.817303243","0.3380141995","","","","","","","","","","","","72","H","0","img/none_selected.jpg","","234","main_expt",""
"","bandit","314","1038619","0.0-275.0-0.0","05329053","wem/bandit_either_3","A7FXUMAFLRJL2","either","5","319","","","","","","","1","0","0","0.6506848601","","0.4","0.6","0.2","0.8","","","","","0.6506848601","0.4424117598","0.8320050337","0.2949514339","","","","","","","","72","H","0","img/none_selected.jpg","","235","main_expt",""
"","bandit","315","1040681","0.0-276.0-0.0","05329053","wem/bandit_either_3","A7FXUMAFLRJL2","either","5","510","","","","","","","1","0","0","0.589166471","","0.4","0.6","0.2","0.8","","","","","0.589166471","0.4411324282","0.8539654836","0.2575094814","","","","","","","","72","H","0","img/none_selected.jpg","","236","main_expt",""
"","bandit","316","1042972","0.0-277.0-0.0","05329053","wem/bandit_either_3","A7FXUMAFLRJL2","either","5","742","","","","","","","0","1","0","","0.5475273787","0.4","0.6","0.2","0.8","0.5475273787","0.5792865955","0.8151920012","0.3298960346","","","","","","","","","","","","72","H","0","img/none_selected.jpg","","237","main_expt",""
"","bandit","317","1045320","0.0-278.0-0.0","05329053","wem/bandit_either_3","A7FXUMAFLRJL2","either","5","290","","","","","","","0","0","1","","0.5644141111","0.4","0.6","0.2","0.8","0.5644141111","0.6435093149","0.8724257749","0.3922637729","","","","","","","","","","","","72","H","0","img/none_selected.jpg","","238","main_expt",""
"","bandit","318","1047211","0.0-279.0-0.0","05329053","wem/bandit_either_3","A7FXUMAFLRJL2","either","5","306","","","","","","","0","1","0","","0.557522906","0.4","0.6","0.2","0.8","0.557522906","0.571754567","0.8232187668","0.3200188668","","","","","","","","","","","","72","H","0","img/none_selected.jpg","","239","main_expt",""
"","bandit","319","1049470","0.0-280.0-0.0","05329053","wem/bandit_either_3","A7FXUMAFLRJL2","either","5","677","","","","","","","0","1","0","","0.603497511","0.4","0.6","0.2","0.8","0.603497511","0.6642130709","0.8306623225","0.3427015143","","","","","","","","","","","","72","H","0","img/none_selected.jpg","","240","main_expt",""
"","bandit","320","1051352","0.0-281.0-0.0","05329053","wem/bandit_either_3","A7FXUMAFLRJL2","either","5","308","","","","","","","1","0","0","0.5998739494","","0.4","0.6","0.2","0.8","","","","","0.5998739494","0.702894688","0.7592816599","0.3027961335","","","","","","","","72","H","0","img/none_selected.jpg","","241","main_expt",""
"","bandit","321","1053388","0.0-282.0-0.0","05329053","wem/bandit_either_3","A7FXUMAFLRJL2","either","5","447","","","","","","","0","0","1","","0.5674661637","0.4","0.6","0.2","0.8","0.5674661637","0.6468691102","0.8354326854","0.2916945226","","","","","","","","","","","","72","H","0","img/none_selected.jpg","","242","main_expt",""
