"consent","trial_type","trial_index","time_elapsed","internal_node_id","subjID","study","MID","cond","drift","rt","responses","key_press","expt_phase","like","value","connected","gems","bombs","no_reward","GemPrChosen","BombPrChosen","GainOverPainPr_0","GainOverPainPr_1","GainOverPainPr_2","GainOverPainPr_3","LosePr_0","LosePr_1","LosePr_2","LosePr_3","WinPr_0","WinPr_1","WinPr_2","WinPr_3","Q0","Q1","Q2","gender","age","ethnicity","target","respCharCode","respKey","respChoiceNum","respChoice","practice","trial_counter","trial_label","button_pressed"
"INL_behavioral_consent_30min_online.html","consent","0","13277","0.0-0.0","06750736","wem/bandit_either_3","ACSS93E03ZUGX","either","6","","","","","","","","","","","","","","","","","","","","","","","","","","","","","","","","","","","","","","",""
"","survey-text","1","17605","0.0-1.0","06750736","wem/bandit_either_3","ACSS93E03ZUGX","either","6","3320","{""Q0"":""ACSS93E03ZUGX""}","","","","","","","","","","","","","","","","","","","","","","","","","","","","","","","","","","","","",""
"","text","2","24416","0.0-2.0","06750736","wem/bandit_either_3","ACSS93E03ZUGX","either","6","5808","","32","","","","","","","","","","","","","","","","","","","","","","","","","","","","","","","","","","","",""
"","text","3","28848","0.0-3.0","06750736","wem/bandit_either_3","ACSS93E03ZUGX","either","6","4432","","32","","","","","","","","","","","","","","","","","","","","","","","","","","","","","","","","","","","",""
"","text","4","42208","0.0-4.0","06750736","wem/bandit_either_3","ACSS93E03ZUGX","either","6","13358","","32","","","","","","","","","","","","","","","","","","","","","","","","","","","","","","","","","","","",""
"","text","5","51054","0.0-5.0","06750736","wem/bandit_either_3","ACSS93E03ZUGX","either","6","8846","","32","","","","","","","","","","","","","","","","","","","","","","","","","","","","","","","","","","","",""
"","text","6","59712","0.0-6.0","06750736","wem/bandit_either_3","ACSS93E03ZUGX","either","6","8656","","32","","","","","","","","","","","","","","","","","","","","","","","","","","","","","","","","","","","",""
"","text","7","143952","0.0-7.0","06750736","wem/bandit_either_3","ACSS93E03ZUGX","either","6","84238","","32","","","","","","","","","","","","","","","","","","","","","","","","","","","","","","","","","","","",""
"","text","8","147199","0.0-8.0","06750736","wem/bandit_either_3","ACSS93E03ZUGX","either","6","3245","","32","","","","","","","","","","","","","","","","","","","","","","","","","","","","","","","","","","","",""
"","identification","9","154933","0.0-9.0-0.0","06750736","wem/bandit_either_3","ACSS93E03ZUGX","either","6","7721","","","","2","2","1","","","","","","","","","","","","","","","","","","","","","","","","the village of Zur","","","","","","","",""
"","identification","10","161420","0.0-9.0-1.0","06750736","wem/bandit_either_3","ACSS93E03ZUGX","either","6","5477","","","","4","5","4","","","","","","","","","","","","","","","","","","","","","","","","the village of Nyx","","","","","","","",""
"","text","11","167520","0.0-10.0","06750736","wem/bandit_either_3","ACSS93E03ZUGX","either","6","5098","","32","","","","","","","","","","","","","","","","","","","","","","","","","","","","","","","","","","","",""
"","text","12","169582","0.0-11.0","06750736","wem/bandit_either_3","ACSS93E03ZUGX","either","6","2061","","32","","","","","","","","","","","","","","","","","","","","","","","","","","","","","","","","","","","",""
"","text","13","171055","0.0-12.0","06750736","wem/bandit_either_3","ACSS93E03ZUGX","either","6","1471","","32","","","","","","","","","","","","","","","","","","","","","","","","","","","","","","","","","","","",""
"","text","14","173247","0.0-13.0","06750736","wem/bandit_either_3","ACSS93E03ZUGX","either","6","2190","","32","","","","","","","","","","","","","","","","","","","","","","","","","","","","","","","","","","","",""
"","bandit","15","177247","0.0-14.0-0.0","06750736","wem/bandit_either_3","ACSS93E03ZUGX","either","6","2493","","","","","","","0","0","1","0","0","","","","","0","","","","0","","","","","","","","","","","74","J","0","img/none_selected_demo.jpg","true","0","",""
"","bandit","16","179852","0.0-15.0-0.0","06750736","wem/bandit_either_3","ACSS93E03ZUGX","either","6","1104","","","","","","","0","0","1","0","0","","","","","0","","","","0","","","","","","","","","","","75","K","0","img/none_selected_demo.jpg","true","0","",""
"","text","17","180032","0.0-16.0","06750736","wem/bandit_either_3","ACSS93E03ZUGX","either","6","178","","32","","","","","","","","","","","","","","","","","","","","","","","","","","","","","","","","","","","",""
"","text","18","187407","0.0-17.0","06750736","wem/bandit_either_3","ACSS93E03ZUGX","either","6","7374","","32","","","","","","","","","","","","","","","","","","","","","","","","","","","","","","","","","","","",""
"","text","19","189168","0.0-18.0","06750736","wem/bandit_either_3","ACSS93E03ZUGX","either","6","1759","","32","","","","","","","","","","","","","","","","","","","","","","","","","","","","","","","","","","","",""
"","text","20","191199","0.0-19.0","06750736","wem/bandit_either_3","ACSS93E03ZUGX","either","6","2030","","32","","","","","","","","","","","","","","","","","","","","","","","","","","","","","","","","","","","",""
"","bandit","21","193659","0.0-20.0-0.0","06750736","wem/bandit_either_3","ACSS93E03ZUGX","either","6","958","","","","","","","0","0","1","0.2","","0.5","0.5","","","","","","","0.8","0.2","","","","","","","","","","75","K","1","","true","0","80_20_practice",""
"","bandit","22","195983","0.0-20.0-1.0","06750736","wem/bandit_either_3","ACSS93E03ZUGX","either","6","815","","","","","","","0","1","0","","0.8","0.5","0.5","","","0.8","0.2","","","","","","","","","","","","","","74","J","0","img/none_selected_demo.jpg","true","0","80_20_practice",""
"","bandit","23","198603","0.0-20.0-2.0","06750736","wem/bandit_either_3","ACSS93E03ZUGX","either","6","1118","","","","","","","1","0","0","0.8","","0.5","0.5","","","","","","","0.8","0.2","","","","","","","","","","74","J","0","img/none_selected_demo.jpg","true","0","80_20_practice",""
"","bandit","24","200688","0.0-20.0-3.0","06750736","wem/bandit_either_3","ACSS93E03ZUGX","either","6","578","","","","","","","0","1","0","","0.8","0.5","0.5","","","0.8","0.2","","","","","","","","","","","","","","74","J","0","img/none_selected_demo.jpg","true","0","80_20_practice",""
"","bandit","25","203069","0.0-20.0-4.0","06750736","wem/bandit_either_3","ACSS93E03ZUGX","either","6","876","","","","","","","0","0","1","","0.8","0.5","0.5","","","0.8","0.2","","","","","","","","","","","","","","74","J","0","img/none_selected_demo.jpg","true","0","80_20_practice",""
"","bandit","26","229196","0.0-20.0-5.0","06750736","wem/bandit_either_3","ACSS93E03ZUGX","either","6","24625","","","","","","","0","1","0","","0.8","0.5","0.5","","","0.8","0.2","","","","","","","","","","","","","","74","J","0","img/none_selected_demo.jpg","true","0","80_20_practice",""
"","bandit","27","231069","0.0-20.0-6.0","06750736","wem/bandit_either_3","ACSS93E03ZUGX","either","6","367","","","","","","","1","0","0","0.8","","0.5","0.5","","","","","","","0.8","0.2","","","","","","","","","","74","J","0","img/none_selected_demo.jpg","true","0","80_20_practice",""
"","bandit","28","232877","0.0-20.0-7.0","06750736","wem/bandit_either_3","ACSS93E03ZUGX","either","6","304","","","","","","","0","0","1","","0.2","0.5","0.5","","","0.8","0.2","","","","","","","","","","","","","","75","K","1","","true","0","80_20_practice",""
"","bandit","29","234476","0.0-20.0-8.0","06750736","wem/bandit_either_3","ACSS93E03ZUGX","either","6","96","","","","","","","0","1","0","","0.8","0.5","0.5","","","0.8","0.2","","","","","","","","","","","","","","74","J","0","img/none_selected_demo.jpg","true","0","80_20_practice",""
"","bandit","30","236252","0.0-20.0-9.0","06750736","wem/bandit_either_3","ACSS93E03ZUGX","either","6","271","","","","","","","0","1","0","","0.8","0.5","0.5","","","0.8","0.2","","","","","","","","","","","","","","74","J","0","img/none_selected_demo.jpg","true","0","80_20_practice",""
"","bandit","31","239082","0.0-20.0-10.0","06750736","wem/bandit_either_3","ACSS93E03ZUGX","either","6","1329","","","","","","","0","0","1","0.8","","0.5","0.5","","","","","","","0.8","0.2","","","","","","","","","","74","J","0","img/none_selected_demo.jpg","true","0","80_20_practice",""
"","bandit","32","240898","0.0-20.0-11.0","06750736","wem/bandit_either_3","ACSS93E03ZUGX","either","6","307","","","","","","","1","0","0","0.8","","0.5","0.5","","","","","","","0.8","0.2","","","","","","","","","","74","J","0","img/none_selected_demo.jpg","true","0","80_20_practice",""
"","bandit","33","242666","0.0-20.0-12.0","06750736","wem/bandit_either_3","ACSS93E03ZUGX","either","6","266","","","","","","","0","1","0","","0.8","0.5","0.5","","","0.8","0.2","","","","","","","","","","","","","","74","J","0","img/none_selected_demo.jpg","true","0","80_20_practice",""
"","bandit","34","245708","0.0-20.0-13.0","06750736","wem/bandit_either_3","ACSS93E03ZUGX","either","6","1538","","","","","","","1","0","0","0.8","","0.5","0.5","","","","","","","0.8","0.2","","","","","","","","","","74","J","0","img/none_selected_demo.jpg","true","0","80_20_practice",""
"","bandit","35","247502","0.0-20.0-14.0","06750736","wem/bandit_either_3","ACSS93E03ZUGX","either","6","287","","","","","","","0","0","1","","0.8","0.5","0.5","","","0.8","0.2","","","","","","","","","","","","","","74","J","0","img/none_selected_demo.jpg","true","0","80_20_practice",""
"","bandit","36","250252","0.0-20.0-15.0","06750736","wem/bandit_either_3","ACSS93E03ZUGX","either","6","1246","","","","","","","0","1","0","","0.8","0.5","0.5","","","0.8","0.2","","","","","","","","","","","","","","74","J","0","img/none_selected_demo.jpg","true","0","80_20_practice",""
"","bandit","37","252702","0.0-20.0-16.0","06750736","wem/bandit_either_3","ACSS93E03ZUGX","either","6","945","","","","","","","0","1","0","","0.8","0.5","0.5","","","0.8","0.2","","","","","","","","","","","","","","74","J","0","img/none_selected_demo.jpg","true","0","80_20_practice",""
"","bandit","38","254557","0.0-20.0-17.0","06750736","wem/bandit_either_3","ACSS93E03ZUGX","either","6","351","","","","","","","1","0","0","0.8","","0.5","0.5","","","","","","","0.8","0.2","","","","","","","","","","74","J","0","img/none_selected_demo.jpg","true","0","80_20_practice",""
"","bandit","39","256621","0.0-20.0-18.0","06750736","wem/bandit_either_3","ACSS93E03ZUGX","either","6","559","","","","","","","0","1","0","","0.8","0.5","0.5","","","0.8","0.2","","","","","","","","","","","","","","74","J","0","img/none_selected_demo.jpg","true","0","80_20_practice",""
"","bandit","40","258462","0.0-20.0-19.0","06750736","wem/bandit_either_3","ACSS93E03ZUGX","either","6","335","","","","","","","1","0","0","0.8","","0.5","0.5","","","","","","","0.8","0.2","","","","","","","","","","74","J","0","img/none_selected_demo.jpg","true","0","80_20_practice",""
"","text","41","275249","0.0-21.0","06750736","wem/bandit_either_3","ACSS93E03ZUGX","either","6","16786","","32","","","","","","","","","","","","","","","","","","","","","","","","","","","","","","","","","","","",""
"","bandit","42","278428","0.0-22.0-0.0","06750736","wem/bandit_either_3","ACSS93E03ZUGX","either","6","1676","","","","","","","1","0","0","1","0","","","","","0","1","","","1","0","","","","","","","","","","74","J","0","img/none_selected_demo.jpg","true","0","",""
"","text","43","281871","0.0-23.0","06750736","wem/bandit_either_3","ACSS93E03ZUGX","either","6","3441","","32","","","","","","","","","","","","","","","","","","","","","","","","","","","","","","","","","","","",""
"","text","44","284654","0.0-24.0","06750736","wem/bandit_either_3","ACSS93E03ZUGX","either","6","2782","","32","","","","","","","","","","","","","","","","","","","","","","","","","","","","","","","","","","","",""
"","text","45","285696","0.0-25.0","06750736","wem/bandit_either_3","ACSS93E03ZUGX","either","6","1040","","32","","","","","","","","","","","","","","","","","","","","","","","","","","","","","","","","","","","",""
"","text","46","287615","0.0-26.0","06750736","wem/bandit_either_3","ACSS93E03ZUGX","either","6","1917","","32","","","","","","","","","","","","","","","","","","","","","","","","","","","","","","","","","","","",""
"","text","47","300480","0.0-27.0","06750736","wem/bandit_either_3","ACSS93E03ZUGX","either","6","12864","","32","","","","","","","","","","","","","","","","","","","","","","","","","","","","","","","","","","","",""
"","text","48","302671","0.0-28.0","06750736","wem/bandit_either_3","ACSS93E03ZUGX","either","6","2189","","32","","","","","","","","","","","","","","","","","","","","","","","","","","","","","","","","","","","",""
"","text","49","305854","0.0-29.0","06750736","wem/bandit_either_3","ACSS93E03ZUGX","either","6","3182","","32","","","","","","","","","","","","","","","","","","","","","","","","","","","","","","","","","","","",""
"","text","50","308575","0.0-30.0","06750736","wem/bandit_either_3","ACSS93E03ZUGX","either","6","2719","","32","","","","","","","","","","","","","","","","","","","","","","","","","","","","","","","","","","","",""
"","text","51","311120","0.0-31.0","06750736","wem/bandit_either_3","ACSS93E03ZUGX","either","6","2543","","32","","","","","","","","","","","","","","","","","","","","","","","","","","","","","","","","","","","",""
"","text","52","312623","0.0-32.0","06750736","wem/bandit_either_3","ACSS93E03ZUGX","either","6","1501","","32","","","","","","","","","","","","","","","","","","","","","","","","","","","","","","","","","","","",""
"","text","53","320863","0.0-33.0","06750736","wem/bandit_either_3","ACSS93E03ZUGX","either","6","8238","","32","","","","","","","","","","","","","","","","","","","","","","","","","","","","","","","","","","","",""
"","bandit","54","323615","0.0-34.0-0.0","06750736","wem/bandit_either_3","ACSS93E03ZUGX","either","6","1245","","","","","","","0","1","0","","0.6","0.5","0.5","0.5","0.5","0.8","0.2","0.6","0.2","","","","","","","","","","","","75","K","2","","true","0","full_practice",""
"","bandit","55","325868","0.0-34.0-1.0","06750736","wem/bandit_either_3","ACSS93E03ZUGX","either","6","749","","","","","","","0","0","1","0.6","","0.5","0.5","0.5","0.5","","","","","0.8","0.2","0.6","0.2","","","","","","","","75","K","2","","true","0","full_practice",""
"","bandit","56","327899","0.0-34.0-2.0","06750736","wem/bandit_either_3","ACSS93E03ZUGX","either","6","528","","","","","","","1","0","0","0.6","","0.5","0.5","0.5","0.5","","","","","0.8","0.2","0.6","0.2","","","","","","","","75","K","2","","true","0","full_practice",""
"","bandit","57","329515","0.0-34.0-3.0","06750736","wem/bandit_either_3","ACSS93E03ZUGX","either","6","112","","","","","","","0","0","1","0.2","","0.5","0.5","0.5","0.5","","","","","0.8","0.2","0.6","0.2","","","","","","","","76","L","3","","true","0","full_practice",""
"","bandit","58","331292","0.0-34.0-4.0","06750736","wem/bandit_either_3","ACSS93E03ZUGX","either","6","273","","","","","","","0","0","1","0.2","","0.5","0.5","0.5","0.5","","","","","0.8","0.2","0.6","0.2","","","","","","","","74","J","1","","true","0","full_practice",""
"","bandit","59","333260","0.0-34.0-5.0","06750736","wem/bandit_either_3","ACSS93E03ZUGX","either","6","463","","","","","","","0","1","0","","0.6","0.5","0.5","0.5","0.5","0.8","0.2","0.6","0.2","","","","","","","","","","","","75","K","2","","true","0","full_practice",""
"","bandit","60","335421","0.0-34.0-6.0","06750736","wem/bandit_either_3","ACSS93E03ZUGX","either","6","657","","","","","","","0","0","1","0.6","","0.5","0.5","0.5","0.5","","","","","0.8","0.2","0.6","0.2","","","","","","","","75","K","2","","true","0","full_practice",""
"","bandit","61","337422","0.0-34.0-7.0","06750736","wem/bandit_either_3","ACSS93E03ZUGX","either","6","495","","","","","","","0","0","1","0.8","","0.5","0.5","0.5","0.5","","","","","0.8","0.2","0.6","0.2","","","","","","","","72","H","0","img/none_selected.jpg","true","0","full_practice",""
"","bandit","62","339308","0.0-34.0-8.0","06750736","wem/bandit_either_3","ACSS93E03ZUGX","either","6","383","","","","","","","0","1","0","","0.6","0.5","0.5","0.5","0.5","0.8","0.2","0.6","0.2","","","","","","","","","","","","75","K","2","","true","0","full_practice",""
"","bandit","63","341309","0.0-34.0-9.0","06750736","wem/bandit_either_3","ACSS93E03ZUGX","either","6","495","","","","","","","0","1","0","","0.6","0.5","0.5","0.5","0.5","0.8","0.2","0.6","0.2","","","","","","","","","","","","75","K","2","","true","0","full_practice",""
"","bandit","64","343402","0.0-34.0-10.0","06750736","wem/bandit_either_3","ACSS93E03ZUGX","either","6","591","","","","","","","0","1","0","","0.6","0.5","0.5","0.5","0.5","0.8","0.2","0.6","0.2","","","","","","","","","","","","75","K","2","","true","0","full_practice",""
"","bandit","65","345339","0.0-34.0-11.0","06750736","wem/bandit_either_3","ACSS93E03ZUGX","either","6","433","","","","","","","1","0","0","0.6","","0.5","0.5","0.5","0.5","","","","","0.8","0.2","0.6","0.2","","","","","","","","75","K","2","","true","0","full_practice",""
"","bandit","66","347292","0.0-34.0-12.0","06750736","wem/bandit_either_3","ACSS93E03ZUGX","either","6","450","","","","","","","0","0","1","0.2","","0.5","0.5","0.5","0.5","","","","","0.8","0.2","0.6","0.2","","","","","","","","74","J","1","","true","0","full_practice",""
"","bandit","67","348895","0.0-34.0-13.0","06750736","wem/bandit_either_3","ACSS93E03ZUGX","either","6","95","","","","","","","0","0","1","","0.6","0.5","0.5","0.5","0.5","0.8","0.2","0.6","0.2","","","","","","","","","","","","75","K","2","","true","0","full_practice",""
"","bandit","68","350543","0.0-34.0-14.0","06750736","wem/bandit_either_3","ACSS93E03ZUGX","either","6","143","","","","","","","0","1","0","","0.2","0.5","0.5","0.5","0.5","0.8","0.2","0.6","0.2","","","","","","","","","","","","76","L","3","","true","0","full_practice",""
"","bandit","69","352430","0.0-34.0-15.0","06750736","wem/bandit_either_3","ACSS93E03ZUGX","either","6","382","","","","","","","0","0","1","0.2","","0.5","0.5","0.5","0.5","","","","","0.8","0.2","0.6","0.2","","","","","","","","74","J","1","","true","0","full_practice",""
"","bandit","70","354285","0.0-34.0-16.0","06750736","wem/bandit_either_3","ACSS93E03ZUGX","either","6","348","","","","","","","0","0","1","0.6","","0.5","0.5","0.5","0.5","","","","","0.8","0.2","0.6","0.2","","","","","","","","75","K","2","","true","0","full_practice",""
"","bandit","71","356111","0.0-34.0-17.0","06750736","wem/bandit_either_3","ACSS93E03ZUGX","either","6","318","","","","","","","0","1","0","","0.2","0.5","0.5","0.5","0.5","0.8","0.2","0.6","0.2","","","","","","","","","","","","76","L","3","","true","0","full_practice",""
"","bandit","72","358143","0.0-34.0-18.0","06750736","wem/bandit_either_3","ACSS93E03ZUGX","either","6","528","","","","","","","0","0","1","0.2","","0.5","0.5","0.5","0.5","","","","","0.8","0.2","0.6","0.2","","","","","","","","76","L","3","","true","0","full_practice",""
"","bandit","73","360093","0.0-34.0-19.0","06750736","wem/bandit_either_3","ACSS93E03ZUGX","either","6","445","","","","","","","0","1","0","","0.2","0.5","0.5","0.5","0.5","0.8","0.2","0.6","0.2","","","","","","","","","","","","76","L","3","","true","0","full_practice",""
"","text","74","362784","0.0-35.0","06750736","wem/bandit_either_3","ACSS93E03ZUGX","either","6","2685","","32","","","","","","","","","","","","","","","","","","","","","","","","","","","","","","","","","","","",""
"","text","75","372465","0.0-36.0","06750736","wem/bandit_either_3","ACSS93E03ZUGX","either","6","8679","","32","","","","","","","","","","","","","","","","","","","","","","","","","","","","","","","","","","","",""
"","text","76","380256","0.0-37.0","06750736","wem/bandit_either_3","ACSS93E03ZUGX","either","6","7789","","32","","","","","","","","","","","","","","","","","","","","","","","","","","","","","","","","","","","",""
"","text","77","383921","0.0-38.0","06750736","wem/bandit_either_3","ACSS93E03ZUGX","either","6","3663","","32","","","","","","","","","","","","","","","","","","","","","","","","","","","","","","","","","","","",""
"","text","78","387712","0.0-39.0","06750736","wem/bandit_either_3","ACSS93E03ZUGX","either","6","3789","","32","","","","","","","","","","","","","","","","","","","","","","","","","","","","","","","","","","","",""
"","text","79","389952","0.0-40.0","06750736","wem/bandit_either_3","ACSS93E03ZUGX","either","6","2238","","32","","","","","","","","","","","","","","","","","","","","","","","","","","","","","","","","","","","",""
"","bandit","80","394574","0.0-41.0-0.0","06750736","wem/bandit_either_3","ACSS93E03ZUGX","either","6","3116","","","","","","","0","0","1","","0.2309914537","0.4","0.2","0.6","0.8","0.2309914537","0.1947351938","0.7197236342","0.3049938501","","","","","","","","","","","","72","H","0","img/none_selected.jpg","","1","main_expt",""
"","bandit","81","396558","0.0-42.0-0.0","06750736","wem/bandit_either_3","ACSS93E03ZUGX","either","6","480","","","","","","","0","0","1","","0.1865171684","0.4","0.2","0.6","0.8","0.2351366282","0.1865171684","0.7453792406","0.3105507028","","","","","","","","","","","","74","J","1","","","2","main_expt",""
"","bandit","82","398382","0.0-43.0-0.0","06750736","wem/bandit_either_3","ACSS93E03ZUGX","either","6","317","","","","","","","1","0","0","0.7422746785","","0.4","0.2","0.6","0.8","","","","","0.3338792953","0.1578482069","0.7422746785","0.347932066","","","","","","","","75","K","2","","","3","main_expt",""
"","bandit","83","400223","0.0-44.0-0.0","06750736","wem/bandit_either_3","ACSS93E03ZUGX","either","6","336","","","","","","","0","1","0","","0.8152876082","0.4","0.2","0.6","0.8","0.2578124611","0.1733557992","0.8152876082","0.294099503","","","","","","","","","","","","75","K","2","","","4","main_expt",""
"","bandit","84","402158","0.0-45.0-0.0","06750736","wem/bandit_either_3","ACSS93E03ZUGX","either","6","430","","","","","","","1","0","0","0.8494846052","","0.4","0.2","0.6","0.8","","","","","0.152782507","0.1275681293","0.8494846052","0.256228135","","","","","","","","75","K","2","","","5","main_expt",""
"","bandit","85","404109","0.0-46.0-0.0","06750736","wem/bandit_either_3","ACSS93E03ZUGX","either","6","446","","","","","","","0","1","0","","0.8036792828","0.4","0.2","0.6","0.8","0.200224935","0.1776351543","0.8036792828","0.3142053347","","","","","","","","","","","","75","K","2","","","6","main_expt",""
"","bandit","86","405916","0.0-47.0-0.0","06750736","wem/bandit_either_3","ACSS93E03ZUGX","either","6","302","","","","","","","1","0","0","0.8659664865","","0.4","0.2","0.6","0.8","","","","","0.2200442108","0.1412615145","0.8659664865","0.2382568898","","","","","","","","75","K","2","","","7","main_expt",""
"","bandit","87","407711","0.0-48.0-0.0","06750736","wem/bandit_either_3","ACSS93E03ZUGX","either","6","289","","","","","","","1","0","0","0.8475436228","","0.4","0.2","0.6","0.8","","","","","0.1516915951","0.1508054742","0.8475436228","0.220471749","","","","","","","","75","K","2","","","8","main_expt",""
"","bandit","88","409550","0.0-49.0-0.0","06750736","wem/bandit_either_3","ACSS93E03ZUGX","either","6","334","","","","","","","1","0","0","0.8034999265","","0.4","0.2","0.6","0.8","","","","","0.1468829212","0.1882404854","0.8034999265","0.2842820234","","","","","","","","75","K","2","","","9","main_expt",""
"","bandit","89","411483","0.0-50.0-0.0","06750736","wem/bandit_either_3","ACSS93E03ZUGX","either","6","429","","","","","","","0","1","0","","0.7148412232","0.4","0.2","0.6","0.8","0.1507643719","0.1731305678","0.7148412232","0.3392415315","","","","","","","","","","","","75","K","2","","","10","main_expt",""
"","bandit","90","413530","0.0-51.0-0.0","06750736","wem/bandit_either_3","ACSS93E03ZUGX","either","6","544","","","","","","","0","0","1","0.7213030285","","0.4","0.2","0.6","0.8","","","","","0.18301","0.2475279461","0.7213030285","0.4470346709","","","","","","","","75","K","2","","","11","main_expt",""
"","bandit","91","415451","0.0-52.0-0.0","06750736","wem/bandit_either_3","ACSS93E03ZUGX","either","6","417","","","","","","","0","0","1","","0.209562337","0.4","0.2","0.6","0.8","0.209562337","0.2068792089","0.7396148754","0.5143820195","","","","","","","","","","","","72","H","0","img/none_selected.jpg","","12","main_expt",""
"","bandit","92","417018","0.0-53.0-0.0","06750736","wem/bandit_either_3","ACSS93E03ZUGX","either","6","63","","","","","","","0","0","1","0.4934308908","","0.4","0.2","0.6","0.8","","","","","0.2133897639","0.1594062408","0.6870781676","0.4934308908","","","","","","","","76","L","3","","","13","main_expt",""
"","bandit","93","420430","0.0-54.0-0.0","06750736","wem/bandit_either_3","ACSS93E03ZUGX","either","6","1904","","","","","","","0","1","0","","0.1808320347","0.4","0.2","0.6","0.8","0.1865122749","0.1808320347","0.6561171826","0.5884397519","","","","","","","","","","","","74","J","1","","","14","main_expt",""
"","bandit","94","422266","0.0-55.0-0.0","06750736","wem/bandit_either_3","ACSS93E03ZUGX","either","6","334","","","","","","","0","0","1","","0.2401125286","0.4","0.2","0.6","0.8","0.3169691733","0.2401125286","0.6255101569","0.425765204","","","","","","","","","","","","74","J","1","","","15","main_expt",""
"","bandit","95","424157","0.0-56.0-0.0","06750736","wem/bandit_either_3","ACSS93E03ZUGX","either","6","384","","","","","","","0","0","1","","0.1823220599","0.4","0.2","0.6","0.8","0.3927767979","0.1823220599","0.6101220295","0.4458974369","","","","","","","","","","","","74","J","1","","","16","main_expt",""
"","bandit","96","426013","0.0-57.0-0.0","06750736","wem/bandit_either_3","ACSS93E03ZUGX","either","6","351","","","","","","","1","0","0","0.6233337625","","0.4","0.2","0.6","0.8","","","","","0.2882183284","0.2076179308","0.6233337625","0.4907358526","","","","","","","","75","K","2","","","17","main_expt",""
"","bandit","97","427853","0.0-58.0-0.0","06750736","wem/bandit_either_3","ACSS93E03ZUGX","either","6","334","","","","","","","0","1","0","","0.598865074","0.4","0.2","0.6","0.8","0.3212622409","0.2310064443","0.598865074","0.4895096529","","","","","","","","","","","","75","K","2","","","18","main_expt",""
"","bandit","98","429663","0.0-59.0-0.0","06750736","wem/bandit_either_3","ACSS93E03ZUGX","either","6","304","","","","","","","1","0","0","0.6318918302","","0.4","0.2","0.6","0.8","","","","","0.3678238944","0.1919199612","0.6318918302","0.5437378015","","","","","","","","75","K","2","","","19","main_expt",""
"","bandit","99","431563","0.0-60.0-0.0","06750736","wem/bandit_either_3","ACSS93E03ZUGX","either","6","394","","","","","","","0","1","0","","0.5667690756","0.4","0.2","0.6","0.8","0.4357360734","0.2150176637","0.5667690756","0.543071052","","","","","","","","","","","","75","K","2","","","20","main_expt",""
"","bandit","100","433371","0.0-61.0-0.0","06750736","wem/bandit_either_3","ACSS93E03ZUGX","either","6","302","","","","","","","0","0","1","0.6364396753","","0.4","0.2","0.6","0.8","","","","","0.4486518506","0.2980309021","0.6364396753","0.5457928974","","","","","","","","75","K","2","","","21","main_expt",""
"","bandit","101","435166","0.0-62.0-0.0","06750736","wem/bandit_either_3","ACSS93E03ZUGX","either","6","289","","","","","","","0","0","1","0.4531799458","","0.4","0.2","0.6","0.8","","","","","0.5145372488","0.3238742104","0.5563436533","0.4531799458","","","","","","","","76","L","3","","","22","main_expt",""
"","bandit","102","436939","0.0-63.0-0.0","06750736","wem/bandit_either_3","ACSS93E03ZUGX","either","6","267","","","","","","","0","0","1","0.4555064456","","0.4","0.2","0.6","0.8","","","","","0.6324996067","0.4158928209","0.4555064456","0.4321579995","","","","","","","","75","K","2","","","23","main_expt",""
"","bandit","103","438605","0.0-64.0-0.0","06750736","wem/bandit_either_3","ACSS93E03ZUGX","either","6","158","","","","","","","0","0","1","","0.2798670784","0.4","0.2","0.6","0.8","0.6665025749","0.2798670784","0.4398961724","0.3892872195","","","","","","","","","","","","74","J","1","","","24","main_expt",""
"","bandit","104","440156","0.0-65.0-0.0","06750736","wem/bandit_either_3","ACSS93E03ZUGX","either","6","47","","","","","","","0","1","0","","0.5316582614","0.4","0.2","0.6","0.8","0.5316582614","0.3932164435","0.3810464824","0.4322880781","","","","","","","","","","","","72","H","0","img/none_selected.jpg","","25","main_expt",""
"","bandit","105","441789","0.0-66.0-0.0","06750736","wem/bandit_either_3","ACSS93E03ZUGX","either","6","126","","","","","","","0","1","0","","0.4282094451","0.4","0.2","0.6","0.8","0.4282094451","0.3243459504","0.451695138","0.4560392573","","","","","","","","","","","","72","H","0","img/none_selected.jpg","","26","main_expt",""
"","bandit","106","443562","0.0-67.0-0.0","06750736","wem/bandit_either_3","ACSS93E03ZUGX","either","6","270","","","","","","","0","1","0","","0.4711380508","0.4","0.2","0.6","0.8","0.4711380508","0.4266302179","0.4423729324","0.5372901799","","","","","","","","","","","","72","H","0","img/none_selected.jpg","","27","main_expt",""
"","bandit","107","445390","0.0-68.0-0.0","06750736","wem/bandit_either_3","ACSS93E03ZUGX","either","6","324","","","","","","","0","1","0","","0.4539290932","0.4","0.2","0.6","0.8","0.4539290932","0.4206607535","0.4221124674","0.6619872032","","","","","","","","","","","","72","H","0","img/none_selected.jpg","","28","main_expt",""
"","bandit","108","447262","0.0-69.0-0.0","06750736","wem/bandit_either_3","ACSS93E03ZUGX","either","6","364","","","","","","","1","0","0","0.4378511583","","0.4","0.2","0.6","0.8","","","","","0.4378511583","0.440099583","0.489207998","0.5939885142","","","","","","","","72","H","0","img/none_selected.jpg","","29","main_expt",""
"","bandit","109","449210","0.0-70.0-0.0","06750736","wem/bandit_either_3","ACSS93E03ZUGX","either","6","444","","","","","","","0","0","1","","0.3425428874","0.4","0.2","0.6","0.8","0.3425428874","0.3982168329","0.4406356357","0.5602145404","","","","","","","","","","","","72","H","0","img/none_selected.jpg","","30","main_expt",""
"","bandit","110","451261","0.0-71.0-0.0","06750736","wem/bandit_either_3","ACSS93E03ZUGX","either","6","545","","","","","","","0","1","0","","0.3573437221","0.4","0.2","0.6","0.8","0.2354865125","0.3573437221","0.484130952","0.5376870091","","","","","","","","","","","","74","J","1","","","31","main_expt",""
"","bandit","111","453130","0.0-72.0-0.0","06750736","wem/bandit_either_3","ACSS93E03ZUGX","either","6","366","","","","","","","0","1","0","","0.3712986889","0.4","0.2","0.6","0.8","0.2552437171","0.3712986889","0.432294219","0.6346195819","","","","","","","","","","","","74","J","1","","","32","main_expt",""
"","bandit","112","455134","0.0-73.0-0.0","06750736","wem/bandit_either_3","ACSS93E03ZUGX","either","6","498","","","","","","","0","0","1","0.45096985","","0.4","0.2","0.6","0.8","","","","","0.2470382599","0.45096985","0.4821309474","0.7540961955","","","","","","","","74","J","1","","","33","main_expt",""
"","bandit","113","456924","0.0-74.0-0.0","06750736","wem/bandit_either_3","ACSS93E03ZUGX","either","6","285","","","","","","","0","1","0","","0.5559331637","0.4","0.2","0.6","0.8","0.2951894024","0.5559331637","0.4702474349","0.699797925","","","","","","","","","","","","74","J","1","","","34","main_expt",""
"","bandit","114","458956","0.0-75.0-0.0","06750736","wem/bandit_either_3","ACSS93E03ZUGX","either","6","527","","","","","","","0","0","1","","0.7354386419","0.4","0.2","0.6","0.8","0.2596626779","0.7354386419","0.5363697359","0.7410295452","","","","","","","","","","","","74","J","1","","","35","main_expt",""
"","bandit","115","460893","0.0-76.0-0.0","06750736","wem/bandit_either_3","ACSS93E03ZUGX","either","6","429","","","","","","","0","1","0","","0.6934166837","0.4","0.2","0.6","0.8","0.3164764808","0.6934166837","0.602250539","0.7332281969","","","","","","","","","","","","74","J","1","","","36","main_expt",""
"","bandit","116","463150","0.0-77.0-0.0","06750736","wem/bandit_either_3","ACSS93E03ZUGX","either","6","752","","","","","","","0","0","1","0.6311869688","","0.4","0.2","0.6","0.8","","","","","0.3672962009","0.6311869688","0.5337433964","0.736713329","","","","","","","","74","J","1","","","37","main_expt",""
"","bandit","117","465741","0.0-78.0-0.0","06750736","wem/bandit_either_3","ACSS93E03ZUGX","either","6","1084","","","","","","","1","0","0","0.6583504975","","0.4","0.2","0.6","0.8","","","","","0.4056598401","0.6583504975","0.5970413872","0.6860808007","","","","","","","","74","J","1","","","38","main_expt",""
"","bandit","118","467933","0.0-79.0-0.0","06750736","wem/bandit_either_3","ACSS93E03ZUGX","either","6","683","","","","","","","0","1","0","","0.5861321806","0.4","0.2","0.6","0.8","0.4236995386","0.5861321806","0.6529448079","0.7498761973","","","","","","","","","","","","74","J","1","","","39","main_expt",""
"","bandit","119","469899","0.0-80.0-0.0","06750736","wem/bandit_either_3","ACSS93E03ZUGX","either","6","461","","","","","","","0","1","0","","0.4892836735","0.4","0.2","0.6","0.8","0.4365163158","0.4892836735","0.6612991154","0.7043283504","","","","","","","","","","","","74","J","1","","","40","main_expt",""
"","bandit","120","471948","0.0-81.0-0.0","06750736","wem/bandit_either_3","ACSS93E03ZUGX","either","6","543","","","","","","","0","1","0","","0.3479900608","0.4","0.2","0.6","0.8","0.4854269132","0.3479900608","0.7390431107","0.6469690382","","","","","","","","","","","","74","J","1","","","41","main_expt",""
"","bandit","121","474077","0.0-82.0-0.0","06750736","wem/bandit_either_3","ACSS93E03ZUGX","either","6","624","","","","","","","0","1","0","","0.376709287","0.4","0.2","0.6","0.8","0.4753587859","0.376709287","0.7609423287","0.6388905256","","","","","","","","","","","","74","J","1","","","42","main_expt",""
"","bandit","122","476079","0.0-83.0-0.0","06750736","wem/bandit_either_3","ACSS93E03ZUGX","either","6","495","","","","","","","0","1","0","","0.4319300722","0.4","0.2","0.6","0.8","0.452202747","0.4319300722","0.8039673949","0.6383372244","","","","","","","","","","","","74","J","1","","","43","main_expt",""
"","bandit","123","477996","0.0-84.0-0.0","06750736","wem/bandit_either_3","ACSS93E03ZUGX","either","6","413","","","","","","","0","1","0","","0.4458636389","0.4","0.2","0.6","0.8","0.5522191005","0.4458636389","0.8216753652","0.6247854939","","","","","","","","","","","","74","J","1","","","44","main_expt",""
"","bandit","124","479774","0.0-85.0-0.0","06750736","wem/bandit_either_3","ACSS93E03ZUGX","either","6","272","","","","","","","0","0","1","","0.4323480181","0.4","0.2","0.6","0.8","0.4878962787","0.4323480181","0.7636866317","0.6341880498","","","","","","","","","","","","74","J","1","","","45","main_expt",""
"","bandit","125","481580","0.0-86.0-0.0","06750736","wem/bandit_either_3","ACSS93E03ZUGX","either","6","301","","","","","","","1","0","0","0.8203755575","","0.4","0.2","0.6","0.8","","","","","0.487595293","0.4348202433","0.8203755575","0.5081310512","","","","","","","","75","K","2","","","46","main_expt",""
"","bandit","126","483548","0.0-87.0-0.0","06750736","wem/bandit_either_3","ACSS93E03ZUGX","either","6","463","","","","","","","1","0","0","0.8706375764","","0.4","0.2","0.6","0.8","","","","","0.444754188","0.3430847618","0.8706375764","0.4202927251","","","","","","","","75","K","2","","","47","main_expt",""
"","bandit","127","485470","0.0-88.0-0.0","06750736","wem/bandit_either_3","ACSS93E03ZUGX","either","6","416","","","","","","","1","0","0","0.8019506245","","0.4","0.2","0.6","0.8","","","","","0.5044276746","0.2601977795","0.8019506245","0.4767868938","","","","","","","","75","K","2","","","48","main_expt",""
"","bandit","128","487341","0.0-89.0-0.0","06750736","wem/bandit_either_3","ACSS93E03ZUGX","either","6","365","","","","","","","0","1","0","","0.7331224435","0.4","0.2","0.6","0.8","0.3766714482","0.2368144698","0.7331224435","0.3749468019","","","","","","","","","","","","75","K","2","","","49","main_expt",""
"","bandit","129","489147","0.0-90.0-0.0","06750736","wem/bandit_either_3","ACSS93E03ZUGX","either","6","302","","","","","","","0","0","1","0.7908344101","","0.4","0.2","0.6","0.8","","","","","0.406992786","0.2484527115","0.7908344101","0.3532902347","","","","","","","","75","K","2","","","50","main_expt",""
"","bandit","130","490896","0.0-91.0-0.0","06750736","wem/bandit_either_3","ACSS93E03ZUGX","either","6","240","","","","","","","0","0","1","0.7922828235","","0.4","0.2","0.6","0.8","","","","","0.3854505747","0.230268934","0.7922828235","0.2413466802","","","","","","","","75","K","2","","","51","main_expt",""
"","bandit","131","492748","0.0-92.0-0.0","06750736","wem/bandit_either_3","ACSS93E03ZUGX","either","6","346","","","","","","","1","0","0","0.2673723166","","0.4","0.2","0.6","0.8","","","","","0.3956915145","0.3429002399","0.7485378942","0.2673723166","","","","","","","","76","L","3","","","52","main_expt",""
"","bandit","132","494620","0.0-93.0-0.0","06750736","wem/bandit_either_3","ACSS93E03ZUGX","either","6","367","","","","","","","0","0","1","","0.2806035608","0.4","0.2","0.6","0.8","0.3062348001","0.2871029552","0.6603794952","0.2806035608","","","","","","","","","","","","76","L","3","","","53","main_expt",""
"","bandit","133","498479","0.0-94.0-0.0","06750736","wem/bandit_either_3","ACSS93E03ZUGX","either","6","2350","","","","","","","0","0","1","","0.2544312064","0.4","0.2","0.6","0.8","0.2996500993","0.2594444468","0.6931449795","0.2544312064","","","","","","","","","","","","76","L","3","","","54","main_expt",""
"","bandit","134","500478","0.0-95.0-0.0","06750736","wem/bandit_either_3","ACSS93E03ZUGX","either","6","492","","","","","","","0","0","1","0.3362815808","","0.4","0.2","0.6","0.8","","","","","0.2518247787","0.3333749245","0.7553272845","0.3362815808","","","","","","","","76","L","3","","","55","main_expt",""
"","bandit","135","502288","0.0-96.0-0.0","06750736","wem/bandit_either_3","ACSS93E03ZUGX","either","6","301","","","","","","","0","0","1","","0.3014763065","0.4","0.2","0.6","0.8","0.3014763065","0.3049104067","0.7231548626","0.3798256012","","","","","","","","","","","","72","H","0","img/none_selected.jpg","","56","main_expt",""
"","bandit","136","504125","0.0-97.0-0.0","06750736","wem/bandit_either_3","ACSS93E03ZUGX","either","6","332","","","","","","","0","1","0","","0.3623273811","0.4","0.2","0.6","0.8","0.2730843718","0.3623273811","0.7485901337","0.3989549393","","","","","","","","","","","","74","J","1","","","57","main_expt",""
"","bandit","137","506175","0.0-98.0-0.0","06750736","wem/bandit_either_3","ACSS93E03ZUGX","either","6","542","","","","","","","0","0","1","","0.3621169042","0.4","0.2","0.6","0.8","0.367239041","0.3621169042","0.797082508","0.3373398956","","","","","","","","","","","","74","J","1","","","58","main_expt",""
"","bandit","138","508655","0.0-99.0-0.0","06750736","wem/bandit_either_3","ACSS93E03ZUGX","either","6","974","","","","","","","0","1","0","","0.3672848169","0.4","0.2","0.6","0.8","0.4005220403","0.3672848169","0.7466963627","0.3381045731","","","","","","","","","","","","74","J","1","","","59","main_expt",""
"","bandit","139","511116","0.0-100.0-0.0","06750736","wem/bandit_either_3","ACSS93E03ZUGX","either","6","957","","","","","","","1","0","0","0.5123874715","","0.4","0.2","0.6","0.8","","","","","0.4863912708","0.5123874715","0.6359615323","0.4838111383","","","","","","","","74","J","1","","","60","main_expt",""
"","bandit","140","512991","0.0-101.0-0.0","06750736","wem/bandit_either_3","ACSS93E03ZUGX","either","6","366","","","","","","","0","0","1","","0.5218319631","0.4","0.2","0.6","0.8","0.5220595343","0.5218319631","0.7125939799","0.4290776342","","","","","","","","","","","","74","J","1","","","61","main_expt",""
"","bandit","141","514845","0.0-102.0-0.0","06750736","wem/bandit_either_3","ACSS93E03ZUGX","either","6","349","","","","","","","0","1","0","","0.6482151027","0.4","0.2","0.6","0.8","0.5447889898","0.6482151027","0.5978650666","0.4387439774","","","","","","","","","","","","74","J","1","","","62","main_expt",""
"","bandit","142","516573","0.0-103.0-0.0","06750736","wem/bandit_either_3","ACSS93E03ZUGX","either","6","222","","","","","","","0","1","0","","0.6966290852","0.4","0.2","0.6","0.8","0.5517390004","0.6966290852","0.5166338879","0.3670418014","","","","","","","","","","","","74","J","1","","","63","main_expt",""
"","bandit","143","518894","0.0-104.0-0.0","06750736","wem/bandit_either_3","ACSS93E03ZUGX","either","6","814","","","","","","","0","1","0","","0.6497033777","0.4","0.2","0.6","0.8","0.6576188384","0.6497033777","0.4901650138","0.3470393933","","","","","","","","","","","","74","J","1","","","64","main_expt",""
"","bandit","144","520798","0.0-105.0-0.0","06750736","wem/bandit_either_3","ACSS93E03ZUGX","either","6","397","","","","","","","1","0","0","0.6925184903","","0.4","0.2","0.6","0.8","","","","","0.5156176703","0.6925184903","0.459365688","0.3361574661","","","","","","","","74","J","1","","","65","main_expt",""
"","bandit","145","523390","0.0-106.0-0.0","06750736","wem/bandit_either_3","ACSS93E03ZUGX","either","6","1085","","","","","","","0","1","0","","0.8298767513","0.4","0.2","0.6","0.8","0.3851410914","0.8298767513","0.4666104807","0.34308242","","","","","","","","","","","","74","J","1","","","66","main_expt",""
"","bandit","146","525454","0.0-107.0-0.0","06750736","wem/bandit_either_3","ACSS93E03ZUGX","either","6","557","","","","","","","0","1","0","","0.8506596021","0.4","0.2","0.6","0.8","0.3925250542","0.8506596021","0.5547259005","0.3730603492","","","","","","","","","","","","74","J","1","","","67","main_expt",""
"","bandit","147","527501","0.0-108.0-0.0","06750736","wem/bandit_either_3","ACSS93E03ZUGX","either","6","542","","","","","","","0","0","1","","0.8536910832","0.4","0.2","0.6","0.8","0.3884113518","0.8536910832","0.6038719492","0.4089949532","","","","","","","","","","","","74","J","1","","","68","main_expt",""
"","bandit","148","529344","0.0-109.0-0.0","06750736","wem/bandit_either_3","ACSS93E03ZUGX","either","6","334","","","","","","","1","0","0","0.6148283845","","0.4","0.2","0.6","0.8","","","","","0.3434478979","0.8642538991","0.6148283845","0.3749002533","","","","","","","","75","K","2","","","69","main_expt",""
"","bandit","149","531326","0.0-110.0-0.0","06750736","wem/bandit_either_3","ACSS93E03ZUGX","either","6","476","","","","","","","1","0","0","0.6683283761","","0.4","0.2","0.6","0.8","","","","","0.4426642051","0.8073802352","0.6683283761","0.4133869845","","","","","","","","75","K","2","","","70","main_expt",""
"","bandit","150","533103","0.0-111.0-0.0","06750736","wem/bandit_either_3","ACSS93E03ZUGX","either","6","267","","","","","","","1","0","0","0.738459761","","0.4","0.2","0.6","0.8","","","","","0.4518046004","0.8059201048","0.738459761","0.3302164541","","","","","","","","75","K","2","","","71","main_expt",""
"","bandit","151","536667","0.0-112.0-0.0","06750736","wem/bandit_either_3","ACSS93E03ZUGX","either","6","2060","","","","","","","0","1","0","","0.6525166508","0.4","0.2","0.6","0.8","0.4903223245","0.8262275011","0.6525166508","0.2570952275","","","","","","","","","","","","75","K","2","","","72","main_expt",""
"","bandit","152","538492","0.0-113.0-0.0","06750736","wem/bandit_either_3","ACSS93E03ZUGX","either","6","319","","","","","","","0","0","1","","0.5715134512","0.4","0.2","0.6","0.8","0.5296083002","0.7334390718","0.5715134512","0.2042885023","","","","","","","","","","","","75","K","2","","","73","main_expt",""
"","bandit","153","540555","0.0-114.0-0.0","06750736","wem/bandit_either_3","ACSS93E03ZUGX","either","6","557","","","","","","","0","0","1","0.6228045854","","0.4","0.2","0.6","0.8","","","","","0.4883026933","0.7490977197","0.6228045854","0.2152837516","","","","","","","","75","K","2","","","74","main_expt",""
"","bandit","154","542155","0.0-115.0-0.0","06750736","wem/bandit_either_3","ACSS93E03ZUGX","either","6","94","","","","","","","0","0","1","0.613630376","","0.4","0.2","0.6","0.8","","","","","0.4914171484","0.7554087461","0.613630376","0.2044775694","","","","","","","","75","K","2","","","75","main_expt",""
"","bandit","155","543948","0.0-116.0-0.0","06750736","wem/bandit_either_3","ACSS93E03ZUGX","either","6","285","","","","","","","0","1","0","","0.6059218973","0.4","0.2","0.6","0.8","0.6059218973","0.804443878","0.7047266053","0.2247613499","","","","","","","","","","","","72","H","0","img/none_selected.jpg","","76","main_expt",""
"","bandit","156","545707","0.0-117.0-0.0","06750736","wem/bandit_either_3","ACSS93E03ZUGX","either","6","252","","","","","","","0","0","1","","0.553792366","0.4","0.2","0.6","0.8","0.553792366","0.6656620098","0.6910360943","0.2266335256","","","","","","","","","","","","72","H","0","img/none_selected.jpg","","77","main_expt",""
"","bandit","157","547549","0.0-118.0-0.0","06750736","wem/bandit_either_3","ACSS93E03ZUGX","either","6","335","","","","","","","0","1","0","","0.6884193839","0.4","0.2","0.6","0.8","0.6884193839","0.5898140708","0.5515992215","0.1659731505","","","","","","","","","","","","72","H","0","img/none_selected.jpg","","78","main_expt",""
"","bandit","158","549886","0.0-119.0-0.0","06750736","wem/bandit_either_3","ACSS93E03ZUGX","either","6","830","","","","","","","0","1","0","","0.7214277645","0.4","0.2","0.6","0.8","0.7214277645","0.613215191","0.6448399581","0.2343921172","","","","","","","","","","","","72","H","0","img/none_selected.jpg","","79","main_expt",""
"","bandit","159","551981","0.0-120.0-0.0","06750736","wem/bandit_either_3","ACSS93E03ZUGX","either","6","588","","","","","","","0","1","0","","0.7328142644","0.4","0.2","0.6","0.8","0.7328142644","0.4605925783","0.739479497","0.2164054515","","","","","","","","","","","","72","H","0","img/none_selected.jpg","","80","main_expt",""
"","bandit","160","554062","0.0-121.0-0.0","06750736","wem/bandit_either_3","ACSS93E03ZUGX","either","6","572","","","","","","","0","0","1","","0.7101675561","0.4","0.2","0.6","0.8","0.7101675561","0.5390789087","0.6956071838","0.1361232007","","","","","","","","","","","","72","H","0","img/none_selected.jpg","","81","main_expt",""
"","bandit","161","555915","0.0-122.0-0.0","06750736","wem/bandit_either_3","ACSS93E03ZUGX","either","6","348","","","","","","","1","0","0","0.6984384541","","0.4","0.2","0.6","0.8","","","","","0.6984384541","0.621290364","0.5886517937","0.2275447725","","","","","","","","72","H","0","img/none_selected.jpg","","82","main_expt",""
"","bandit","162","558113","0.0-123.0-0.0","06750736","wem/bandit_either_3","ACSS93E03ZUGX","either","6","687","","","","","","","0","1","0","","0.7447883659","0.4","0.2","0.6","0.8","0.7447883659","0.6359424421","0.4764182235","0.1900607051","","","","","","","","","","","","72","H","0","img/none_selected.jpg","","83","main_expt",""
"","bandit","163","560222","0.0-124.0-0.0","06750736","wem/bandit_either_3","ACSS93E03ZUGX","either","6","601","","","","","","","1","0","0","0.6900592863","","0.4","0.2","0.6","0.8","","","","","0.6900592863","0.6133664729","0.5149027494","0.1306868958","","","","","","","","72","H","0","img/none_selected.jpg","","84","main_expt",""
"","bandit","164","562378","0.0-125.0-0.0","06750736","wem/bandit_either_3","ACSS93E03ZUGX","either","6","651","","","","","","","1","0","0","0.7010597455","","0.4","0.2","0.6","0.8","","","","","0.7010597455","0.7815463305","0.4908067213","0.1683201849","","","","","","","","72","H","0","img/none_selected.jpg","","85","main_expt",""
"","bandit","165","564332","0.0-126.0-0.0","06750736","wem/bandit_either_3","ACSS93E03ZUGX","either","6","448","","","","","","","0","1","0","","0.6171062652","0.4","0.2","0.6","0.8","0.6171062652","0.7355789231","0.4139472458","0.1290314955","","","","","","","","","","","","72","H","0","img/none_selected.jpg","","86","main_expt",""
"","bandit","166","566171","0.0-127.0-0.0","06750736","wem/bandit_either_3","ACSS93E03ZUGX","either","6","333","","","","","","","0","0","1","0.5629375242","","0.4","0.2","0.6","0.8","","","","","0.5629375242","0.7267399876","0.4253818619","0.2297537383","","","","","","","","72","H","0","img/none_selected.jpg","","87","main_expt",""
"","bandit","167","570988","0.0-128.0-0.0","06750736","wem/bandit_either_3","ACSS93E03ZUGX","either","6","3312","","","","","","","0","1","0","","0.6434443074","0.4","0.2","0.6","0.8","0.6434443074","0.7703195612","0.4448862761","0.1878263516","","","","","","","","","","","","72","H","0","img/none_selected.jpg","","88","main_expt",""
"","bandit","168","573069","0.0-129.0-0.0","06750736","wem/bandit_either_3","ACSS93E03ZUGX","either","6","573","","","","","","","0","0","1","","0.7296698787","0.4","0.2","0.6","0.8","0.7296698787","0.81872988","0.4295642349","0.1896964823","","","","","","","","","","","","72","H","0","img/none_selected.jpg","","89","main_expt",""
"","bandit","169","575117","0.0-130.0-0.0","06750736","wem/bandit_either_3","ACSS93E03ZUGX","either","6","541","","","","","","","0","1","0","","0.8032570632","0.4","0.2","0.6","0.8","0.7042864347","0.8032570632","0.3655203192","0.1614970172","","","","","","","","","","","","74","J","1","","","90","main_expt",""
"","bandit","170","577052","0.0-131.0-0.0","06750736","wem/bandit_either_3","ACSS93E03ZUGX","either","6","429","","","","","","","0","1","0","","0.8257352781","0.4","0.2","0.6","0.8","0.7606559624","0.8257352781","0.402428746","0.2107705911","","","","","","","","","","","","74","J","1","","","91","main_expt",""
"","bandit","171","578779","0.0-132.0-0.0","06750736","wem/bandit_either_3","ACSS93E03ZUGX","either","6","221","","","","","","","0","1","0","","0.7762210657","0.4","0.2","0.6","0.8","0.8466818248","0.7762210657","0.452733603","0.1317951273","","","","","","","","","","","","74","J","1","","","92","main_expt",""
"","bandit","172","580794","0.0-133.0-0.0","06750736","wem/bandit_either_3","ACSS93E03ZUGX","either","6","509","","","","","","","0","1","0","","0.8293629201","0.4","0.2","0.6","0.8","0.8181600593","0.8293629201","0.5416456901","0.09268613222","","","","","","","","","","","","74","J","1","","","93","main_expt",""
"","bandit","173","582765","0.0-134.0-0.0","06750736","wem/bandit_either_3","ACSS93E03ZUGX","either","6","465","","","","","","","0","1","0","","0.7849393417","0.4","0.2","0.6","0.8","0.7259749053","0.7849393417","0.5246039132","0.06418168538","","","","","","","","","","","","74","J","1","","","94","main_expt",""
"","bandit","174","584702","0.0-135.0-0.0","06750736","wem/bandit_either_3","ACSS93E03ZUGX","either","6","429","","","","","","","0","1","0","","0.7850226125","0.4","0.2","0.6","0.8","0.6538641892","0.7850226125","0.606801291","0.100072779","","","","","","","","","","","","74","J","1","","","95","main_expt",""
"","bandit","175","586571","0.0-136.0-0.0","06750736","wem/bandit_either_3","ACSS93E03ZUGX","either","6","361","","","","","","","1","0","0","0.8013150942","","0.4","0.2","0.6","0.8","","","","","0.6384360591","0.8013150942","0.7175242067","0.09628221604","","","","","","","","74","J","1","","","96","main_expt",""
"","bandit","176","588412","0.0-137.0-0.0","06750736","wem/bandit_either_3","ACSS93E03ZUGX","either","6","334","","","","","","","0","0","1","","0.70340399","0.4","0.2","0.6","0.8","0.6836118029","0.70340399","0.7706560561","0.1335622201","","","","","","","","","","","","74","J","1","","","97","main_expt",""
"","bandit","177","590234","0.0-138.0-0.0","06750736","wem/bandit_either_3","ACSS93E03ZUGX","either","6","316","","","","","","","0","0","1","","0.7562517051","0.4","0.2","0.6","0.8","0.659457158","0.7562517051","0.7234704616","0.167202632","","","","","","","","","","","","74","J","1","","","98","main_expt",""
"","bandit","178","592061","0.0-139.0-0.0","06750736","wem/bandit_either_3","ACSS93E03ZUGX","either","6","320","","","","","","","0","0","1","","0.6582042781","0.4","0.2","0.6","0.8","0.7726162223","0.6514659141","0.6582042781","0.1216125457","","","","","","","","","","","","75","K","2","","","99","main_expt",""
"","bandit","179","593870","0.0-140.0-0.0","06750736","wem/bandit_either_3","ACSS93E03ZUGX","either","6","302","","","","","","","0","0","1","0.1163239148","","0.4","0.2","0.6","0.8","","","","","0.8446518706","0.7112237606","0.6530973887","0.1163239148","","","","","","","","76","L","3","","","100","main_expt",""
"","bandit","180","595645","0.0-141.0-0.0","06750736","wem/bandit_either_3","ACSS93E03ZUGX","either","6","268","","","","","","","0","0","1","","0.6865981462","0.4","0.2","0.6","0.8","0.8784151442","0.6865981462","0.6690961394","0.1037928869","","","","","","","","","","","","74","J","1","","","101","main_expt",""
"","bandit","181","597154","0.0-142.0-0.0","06750736","wem/bandit_either_3","ACSS93E03ZUGX","either","6","0","","","","","","","0","0","1","0.6268844929","","0.4","0.2","0.6","0.8","","","","","0.8781202538","0.6663704066","0.6268844929","0.0991068806","","","","","","","","75","K","2","","","102","main_expt",""
"","bandit","182","598843","0.0-143.0-0.0","06750736","wem/bandit_either_3","ACSS93E03ZUGX","either","6","183","","","","","","","0","0","1","0.1226752409","","0.4","0.2","0.6","0.8","","","","","0.8123732176","0.6006744832","0.6657789595","0.1226752409","","","","","","","","76","L","3","","","103","main_expt",""
"","bandit","183","600524","0.0-144.0-0.0","06750736","wem/bandit_either_3","ACSS93E03ZUGX","either","6","173","","","","","","","0","1","0","","0.8461937008","0.4","0.2","0.6","0.8","0.8461937008","0.518723913","0.6951589836","0.1552466415","","","","","","","","","","","","72","H","0","img/none_selected.jpg","","104","main_expt",""
"","bandit","184","602253","0.0-145.0-0.0","06750736","wem/bandit_either_3","ACSS93E03ZUGX","either","6","221","","","","","","","0","1","0","","0.8664825842","0.4","0.2","0.6","0.8","0.8664825842","0.5343999165","0.6382729445","0.1702138509","","","","","","","","","","","","72","H","0","img/none_selected.jpg","","105","main_expt",""
"","bandit","185","604076","0.0-146.0-0.0","06750736","wem/bandit_either_3","ACSS93E03ZUGX","either","6","319","","","","","","","0","1","0","","0.8703997655","0.4","0.2","0.6","0.8","0.8703997655","0.4959998489","0.7139624249","0.2021425125","","","","","","","","","","","","72","H","0","img/none_selected.jpg","","106","main_expt",""
"","bandit","186","605980","0.0-147.0-0.0","06750736","wem/bandit_either_3","ACSS93E03ZUGX","either","6","397","","","","","","","0","1","0","","0.8964314806","0.4","0.2","0.6","0.8","0.8964314806","0.5052663648","0.7718136471","0.2196373816","","","","","","","","","","","","72","H","0","img/none_selected.jpg","","107","main_expt",""
"","bandit","187","607837","0.0-148.0-0.0","06750736","wem/bandit_either_3","ACSS93E03ZUGX","either","6","349","","","","","","","0","1","0","","0.9080126319","0.4","0.2","0.6","0.8","0.9080126319","0.4859582203","0.8818715302","0.2393661099","","","","","","","","","","","","72","H","0","img/none_selected.jpg","","108","main_expt",""
"","bandit","188","609719","0.0-149.0-0.0","06750736","wem/bandit_either_3","ACSS93E03ZUGX","either","6","374","","","","","","","1","0","0","0.8880845243","","0.4","0.2","0.6","0.8","","","","","0.8880845243","0.523617738","0.8757741924","0.2516352594","","","","","","","","72","H","0","img/none_selected.jpg","","109","main_expt",""
"","bandit","189","611676","0.0-150.0-0.0","06750736","wem/bandit_either_3","ACSS93E03ZUGX","either","6","450","","","","","","","0","1","0","","0.899251136","0.4","0.2","0.6","0.8","0.899251136","0.5492010791","0.8657151097","0.2424291788","","","","","","","","","","","","72","H","0","img/none_selected.jpg","","110","main_expt",""
"","bandit","190","613514","0.0-151.0-0.0","06750736","wem/bandit_either_3","ACSS93E03ZUGX","either","6","333","","","","","","","0","0","1","","0.9019514556","0.4","0.2","0.6","0.8","0.9019514556","0.5467154696","0.8457624762","0.2033086481","","","","","","","","","","","","72","H","0","img/none_selected.jpg","","111","main_expt",""
"","bandit","191","615326","0.0-152.0-0.0","06750736","wem/bandit_either_3","ACSS93E03ZUGX","either","6","304","","","","","","","1","0","0","0.9315537639","","0.4","0.2","0.6","0.8","","","","","0.9315537639","0.5396215981","0.8756116827","0.208613213","","","","","","","","72","H","0","img/none_selected.jpg","","112","main_expt",""
"","bandit","192","617260","0.0-153.0-0.0","06750736","wem/bandit_either_3","ACSS93E03ZUGX","either","6","427","","","","","","","0","0","1","","0.9254394702","0.4","0.2","0.6","0.8","0.9254394702","0.5542875214","0.8773181328","0.2743958833","","","","","","","","","","","","72","H","0","img/none_selected.jpg","","113","main_expt",""
"","bandit","193","618908","0.0-154.0-0.0","06750736","wem/bandit_either_3","ACSS93E03ZUGX","either","6","139","","","","","","","1","0","0","0.9394904604","","0.4","0.2","0.6","0.8","","","","","0.9394904604","0.6411428718","0.8842236373","0.2657329006","","","","","","","","72","H","0","img/none_selected.jpg","","114","main_expt",""
"","bandit","194","621003","0.0-155.0-0.0","06750736","wem/bandit_either_3","ACSS93E03ZUGX","either","6","590","","","","","","","1","0","0","0.9533355239","","0.4","0.2","0.6","0.8","","","","","0.9533355239","0.7261400339","0.8499121835","0.3234316928","","","","","","","","72","H","0","img/none_selected.jpg","","115","main_expt",""
"","bandit","195","623101","0.0-156.0-0.0","06750736","wem/bandit_either_3","ACSS93E03ZUGX","either","6","590","","","","","","","1","0","0","0.960842596","","0.4","0.2","0.6","0.8","","","","","0.960842596","0.7395407697","0.7890056153","0.3625587123","","","","","","","","72","H","0","img/none_selected.jpg","","116","main_expt",""
"","bandit","196","624954","0.0-157.0-0.0","06750736","wem/bandit_either_3","ACSS93E03ZUGX","either","6","348","","","","","","","1","0","0","0.937733065","","0.4","0.2","0.6","0.8","","","","","0.937733065","0.8231731708","0.7709890197","0.4946904956","","","","","","","","72","H","0","img/none_selected.jpg","","117","main_expt",""
"","bandit","197","626638","0.0-158.0-0.0","06750736","wem/bandit_either_3","ACSS93E03ZUGX","either","6","175","","","","","","","1","0","0","0.9561499645","","0.4","0.2","0.6","0.8","","","","","0.9561499645","0.8278750807","0.7459937787","0.6246330079","","","","","","","","72","H","0","img/none_selected.jpg","","118","main_expt",""
"","bandit","198","628253","0.0-159.0-0.0","06750736","wem/bandit_either_3","ACSS93E03ZUGX","either","6","108","","","","","","","0","1","0","","0.9595118281","0.4","0.2","0.6","0.8","0.9595118281","0.8715827524","0.716881491","0.5818097722","","","","","","","","","","","","72","H","0","img/none_selected.jpg","","119","main_expt",""
"","bandit","199","629997","0.0-160.0-0.0","06750736","wem/bandit_either_3","ACSS93E03ZUGX","either","6","236","","","","","","","1","0","0","0.9548463758","","0.4","0.2","0.6","0.8","","","","","0.9548463758","0.8522670476","0.6595649419","0.5990025551","","","","","","","","72","H","0","img/none_selected.jpg","","120","main_expt",""
"","bandit","200","632188","0.0-161.0-0.0","06750736","wem/bandit_either_3","ACSS93E03ZUGX","either","6","685","","","","","","","1","0","0","0.958085665","","0.4","0.2","0.6","0.8","","","","","0.958085665","0.8266542562","0.6576447048","0.6534424477","","","","","","","","72","H","0","img/none_selected.jpg","","121","main_expt",""
"","bandit","201","636203","0.0-162.0-0.0","06750736","wem/bandit_either_3","ACSS93E03ZUGX","either","6","2507","","","","","","","0","1","0","","0.9630601427","0.4","0.2","0.6","0.8","0.9630601427","0.81688531","0.6391957719","0.5952731017","","","","","","","","","","","","72","H","0","img/none_selected.jpg","","122","main_expt",""
"","bandit","202","638285","0.0-163.0-0.0","06750736","wem/bandit_either_3","ACSS93E03ZUGX","either","6","576","","","","","","","0","1","0","","0.9790283764","0.4","0.2","0.6","0.8","0.9790283764","0.8307363081","0.5873908865","0.6469086187","","","","","","","","","","","","72","H","0","img/none_selected.jpg","","123","main_expt",""
"","bandit","203","640011","0.0-164.0-0.0","06750736","wem/bandit_either_3","ACSS93E03ZUGX","either","6","219","","","","","","","0","1","0","","0.9718765302","0.4","0.2","0.6","0.8","0.9718765302","0.6943824695","0.6592760984","0.6911454426","","","","","","","","","","","","72","H","0","img/none_selected.jpg","","124","main_expt",""
"","bandit","204","641771","0.0-165.0-0.0","06750736","wem/bandit_either_3","ACSS93E03ZUGX","either","6","253","","","","","","","1","0","0","0.9845173964","","0.4","0.2","0.6","0.8","","","","","0.9845173964","0.7137568944","0.6012083746","0.750572215","","","","","","","","72","H","0","img/none_selected.jpg","","125","main_expt",""
"","bandit","205","643693","0.0-166.0-0.0","06750736","wem/bandit_either_3","ACSS93E03ZUGX","either","6","414","","","","","","","1","0","0","0.9804670004","","0.4","0.2","0.6","0.8","","","","","0.9804670004","0.6878742658","0.6043440275","0.8108432581","","","","","","","","72","H","0","img/none_selected.jpg","","126","main_expt",""
"","bandit","206","646827","0.0-167.0-0.0","06750736","wem/bandit_either_3","ACSS93E03ZUGX","either","6","1628","","","","","","","1","0","0","0.9792667249","","0.4","0.2","0.6","0.8","","","","","0.9792667249","0.6175454059","0.5043142332","0.8338196277","","","","","","","","72","H","0","img/none_selected.jpg","","127","main_expt",""
"","bandit","207","650397","0.0-168.0-0.0","06750736","wem/bandit_either_3","ACSS93E03ZUGX","either","6","2062","","","","","","","1","0","0","0.9853815399","","0.4","0.2","0.6","0.8","","","","","0.9853815399","0.5556505876","0.5778209799","0.8624128669","","","","","","","","72","H","0","img/none_selected.jpg","","128","main_expt",""
"","bandit","208","659806","0.0-169.0-0.0","06750736","wem/bandit_either_3","ACSS93E03ZUGX","either","6","7900","","","","","","","0","1","0","","0.9838319732","0.4","0.2","0.6","0.8","0.9838319732","0.5948532478","0.5806273004","0.9026068167","","","","","","","","","","","","72","H","0","img/none_selected.jpg","","129","main_expt",""
"","bandit","209","661837","0.0-170.0-0.0","06750736","wem/bandit_either_3","ACSS93E03ZUGX","either","6","526","","","","","","","1","0","0","0.9798768453","","0.4","0.2","0.6","0.8","","","","","0.9798768453","0.6646968067","0.4152233618","0.8983636673","","","","","","","","72","H","0","img/none_selected.jpg","","130","main_expt",""
"","bandit","210","663500","0.0-171.0-0.0","06750736","wem/bandit_either_3","ACSS93E03ZUGX","either","6","154","","","","","","","1","0","0","0.9628017066","","0.4","0.2","0.6","0.8","","","","","0.9628017066","0.6676177377","0.4527057242","0.888478962","","","","","","","","72","H","0","img/none_selected.jpg","","131","main_expt",""
"","bandit","211","665212","0.0-172.0-0.0","06750736","wem/bandit_either_3","ACSS93E03ZUGX","either","6","206","","","","","","","0","1","0","","0.9723970119","0.4","0.2","0.6","0.8","0.9723970119","0.7638630926","0.5185753891","0.8470567254","","","","","","","","","","","","72","H","0","img/none_selected.jpg","","132","main_expt",""
"","bandit","212","666909","0.0-173.0-0.0","06750736","wem/bandit_either_3","ACSS93E03ZUGX","either","6","190","","","","","","","0","1","0","","0.9754432393","0.4","0.2","0.6","0.8","0.9754432393","0.726350598","0.4567386081","0.8852081265","","","","","","","","","","","","72","H","0","img/none_selected.jpg","","133","main_expt",""
"","bandit","213","668846","0.0-174.0-0.0","06750736","wem/bandit_either_3","ACSS93E03ZUGX","either","6","428","","","","","","","1","0","0","0.9635376407","","0.4","0.2","0.6","0.8","","","","","0.9635376407","0.7638059904","0.4494056808","0.8317422298","","","","","","","","72","H","0","img/none_selected.jpg","","134","main_expt",""
"","bandit","214","670700","0.0-175.0-0.0","06750736","wem/bandit_either_3","ACSS93E03ZUGX","either","6","347","","","","","","","1","0","0","0.9304273523","","0.4","0.2","0.6","0.8","","","","","0.9304273523","0.7337835984","0.4608562393","0.8121858422","","","","","","","","72","H","0","img/none_selected.jpg","","135","main_expt",""
"","bandit","215","673389","0.0-176.0-0.0","06750736","wem/bandit_either_3","ACSS93E03ZUGX","either","6","1183","","","","","","","1","0","0","0.9295592062","","0.4","0.2","0.6","0.8","","","","","0.9295592062","0.7869055623","0.6684020244","0.8473276522","","","","","","","","72","H","0","img/none_selected.jpg","","136","main_expt",""
"","bandit","216","675645","0.0-177.0-0.0","06750736","wem/bandit_either_3","ACSS93E03ZUGX","either","6","748","","","","","","","0","0","1","","0.9343332129","0.4","0.2","0.6","0.8","0.9343332129","0.8033651193","0.614137061","0.8251243182","","","","","","","","","","","","72","H","0","img/none_selected.jpg","","137","main_expt",""
"","bandit","217","677596","0.0-178.0-0.0","06750736","wem/bandit_either_3","ACSS93E03ZUGX","either","6","446","","","","","","","1","0","0","0.9325781127","","0.4","0.2","0.6","0.8","","","","","0.9325781127","0.7620089345","0.711021659","0.7892590299","","","","","","","","72","H","0","img/none_selected.jpg","","138","main_expt",""
"","bandit","218","679455","0.0-179.0-0.0","06750736","wem/bandit_either_3","ACSS93E03ZUGX","either","6","351","","","","","","","1","0","0","0.9687763229","","0.4","0.2","0.6","0.8","","","","","0.9687763229","0.8098853196","0.5731932267","0.753698647","","","","","","","","72","H","0","img/none_selected.jpg","","139","main_expt",""
"","bandit","219","681407","0.0-180.0-0.0","06750736","wem/bandit_either_3","ACSS93E03ZUGX","either","6","444","","","","","","","0","1","0","","0.9520204639","0.4","0.2","0.6","0.8","0.9520204639","0.8737133651","0.6553783698","0.7281837229","","","","","","","","","","","","72","H","0","img/none_selected.jpg","","140","main_expt",""
"","bandit","220","683324","0.0-181.0-0.0","06750736","wem/bandit_either_3","ACSS93E03ZUGX","either","6","411","","","","","","","0","1","0","","0.9615613541","0.4","0.2","0.6","0.8","0.9615613541","0.8464817719","0.5665224918","0.7913145473","","","","","","","","","","","","72","H","0","img/none_selected.jpg","","141","main_expt",""
"","bandit","221","685263","0.0-182.0-0.0","06750736","wem/bandit_either_3","ACSS93E03ZUGX","either","6","431","","","","","","","1","0","0","0.9438722422","","0.4","0.2","0.6","0.8","","","","","0.9438722422","0.8457688645","0.5230460729","0.7498898283","","","","","","","","72","H","0","img/none_selected.jpg","","142","main_expt",""
"","bandit","222","687388","0.0-183.0-0.0","06750736","wem/bandit_either_3","ACSS93E03ZUGX","either","6","619","","","","","","","1","0","0","0.9419241064","","0.4","0.2","0.6","0.8","","","","","0.9419241064","0.8801682128","0.5401897842","0.723110339","","","","","","","","72","H","0","img/none_selected.jpg","","143","main_expt",""
"","bandit","223","689646","0.0-184.0-0.0","06750736","wem/bandit_either_3","ACSS93E03ZUGX","either","6","749","","","","","","","0","0","1","","0.9383966058","0.4","0.2","0.6","0.8","0.9383966058","0.7806105972","0.5495292383","0.7697142539","","","","","","","","","","","","72","H","0","img/none_selected.jpg","","144","main_expt",""
"","bandit","224","691502","0.0-185.0-0.0","06750736","wem/bandit_either_3","ACSS93E03ZUGX","either","6","348","","","","","","","1","0","0","0.9442204223","","0.4","0.2","0.6","0.8","","","","","0.9442204223","0.7384744451","0.4718854897","0.8279494337","","","","","","","","72","H","0","img/none_selected.jpg","","145","main_expt",""
"","bandit","225","693533","0.0-186.0-0.0","06750736","wem/bandit_either_3","ACSS93E03ZUGX","either","6","524","","","","","","","0","1","0","","0.9461270134","0.4","0.2","0.6","0.8","0.9461270134","0.7078417075","0.3790577705","0.747104877","","","","","","","","","","","","72","H","0","img/none_selected.jpg","","146","main_expt",""
"","bandit","226","695903","0.0-187.0-0.0","06750736","wem/bandit_either_3","ACSS93E03ZUGX","either","6","862","","","","","","","0","0","1","","0.9677113618","0.4","0.2","0.6","0.8","0.9677113618","0.7671729372","0.3671333747","0.7635883185","","","","","","","","","","","","72","H","0","img/none_selected.jpg","","147","main_expt",""
"","bandit","227","697533","0.0-188.0-0.0","06750736","wem/bandit_either_3","ACSS93E03ZUGX","either","6","124","","","","","","","0","1","0","","0.7515071201","0.4","0.2","0.6","0.8","0.9603287673","0.7515071201","0.4462771912","0.6650729927","","","","","","","","","","","","74","J","1","","","148","main_expt",""
"","bandit","228","699487","0.0-189.0-0.0","06750736","wem/bandit_either_3","ACSS93E03ZUGX","either","6","444","","","","","","","0","1","0","","0.7582160768","0.4","0.2","0.6","0.8","0.9256305183","0.7582160768","0.3929125452","0.594527628","","","","","","","","","","","","74","J","1","","","149","main_expt",""
"","bandit","229","701422","0.0-190.0-0.0","06750736","wem/bandit_either_3","ACSS93E03ZUGX","either","6","427","","","","","","","0","0","1","","0.6843302658","0.4","0.2","0.6","0.8","0.9222609783","0.6843302658","0.3825194633","0.5101412162","","","","","","","","","","","","74","J","1","","","150","main_expt",""
"","bandit","230","703279","0.0-191.0-0.0","06750736","wem/bandit_either_3","ACSS93E03ZUGX","either","6","348","","","","","","","0","1","0","","0.4980827124","0.4","0.2","0.6","0.8","0.9522131909","0.4980827124","0.3889652011","0.5755011036","","","","","","","","","","","","74","J","1","","","151","main_expt",""
"","bandit","231","705388","0.0-192.0-0.0","06750736","wem/bandit_either_3","ACSS93E03ZUGX","either","6","603","","","","","","","0","1","0","","0.5418861514","0.4","0.2","0.6","0.8","0.9351777179","0.5418861514","0.372169082","0.5415628766","","","","","","","","","","","","74","J","1","","","152","main_expt",""
"","bandit","232","707359","0.0-193.0-0.0","06750736","wem/bandit_either_3","ACSS93E03ZUGX","either","6","463","","","","","","","0","1","0","","0.6424708626","0.4","0.2","0.6","0.8","0.9526549669","0.6424708626","0.4275919172","0.6392888902","","","","","","","","","","","","74","J","1","","","153","main_expt",""
"","bandit","233","709357","0.0-194.0-0.0","06750736","wem/bandit_either_3","ACSS93E03ZUGX","either","6","490","","","","","","","0","1","0","","0.6200403258","0.4","0.2","0.6","0.8","0.944677936","0.6200403258","0.3978897223","0.6798835142","","","","","","","","","","","","74","J","1","","","154","main_expt",""
"","bandit","234","711262","0.0-195.0-0.0","06750736","wem/bandit_either_3","ACSS93E03ZUGX","either","6","396","","","","","","","0","1","0","","0.5087788092","0.4","0.2","0.6","0.8","0.9443948233","0.5087788092","0.4922143253","0.7376683638","","","","","","","","","","","","74","J","1","","","155","main_expt",""
"","bandit","235","713596","0.0-196.0-0.0","06750736","wem/bandit_either_3","ACSS93E03ZUGX","either","6","828","","","","","","","0","0","1","","0.4397360723","0.4","0.2","0.6","0.8","0.9312029685","0.4397360723","0.5060601407","0.7740838489","","","","","","","","","","","","74","J","1","","","156","main_expt",""
"","bandit","236","715644","0.0-197.0-0.0","06750736","wem/bandit_either_3","ACSS93E03ZUGX","either","6","542","","","","","","","0","1","0","","0.4529934193","0.4","0.2","0.6","0.8","0.9009413449","0.4529934193","0.56460533","0.7526352547","","","","","","","","","","","","74","J","1","","","157","main_expt",""
"","bandit","237","717695","0.0-198.0-0.0","06750736","wem/bandit_either_3","ACSS93E03ZUGX","either","6","543","","","","","","","0","0","1","","0.522014142","0.4","0.2","0.6","0.8","0.8799225656","0.522014142","0.5551408743","0.807066173","","","","","","","","","","","","74","J","1","","","158","main_expt",""
"","bandit","238","719598","0.0-199.0-0.0","06750736","wem/bandit_either_3","ACSS93E03ZUGX","either","6","396","","","","","","","1","0","0","0.6362487126","","0.4","0.2","0.6","0.8","","","","","0.9103166083","0.447178695","0.6362487126","0.8348587906","","","","","","","","75","K","2","","","159","main_expt",""
"","bandit","239","721532","0.0-200.0-0.0","06750736","wem/bandit_either_3","ACSS93E03ZUGX","either","6","428","","","","","","","0","0","1","0.5818198138","","0.4","0.2","0.6","0.8","","","","","0.9575168601","0.4293784973","0.5818198138","0.8054329593","","","","","","","","75","K","2","","","160","main_expt",""
"","bandit","240","723340","0.0-201.0-0.0","06750736","wem/bandit_either_3","ACSS93E03ZUGX","either","6","301","","","","","","","0","0","1","","0.5079421761","0.4","0.2","0.6","0.8","0.9323430526","0.4263694152","0.5079421761","0.8263011938","","","","","","","","","","","","75","K","2","","","161","main_expt",""
"","bandit","241","725120","0.0-202.0-0.0","06750736","wem/bandit_either_3","ACSS93E03ZUGX","either","6","270","","","","","","","1","0","0","0.8468561623","","0.4","0.2","0.6","0.8","","","","","0.8731035433","0.4394756583","0.3944353318","0.8468561623","","","","","","","","76","L","3","","","162","main_expt",""
"","bandit","242","726972","0.0-203.0-0.0","06750736","wem/bandit_either_3","ACSS93E03ZUGX","either","6","339","","","","","","","1","0","0","0.866861138","","0.4","0.2","0.6","0.8","","","","","0.860239847","0.4632532181","0.4560534757","0.866861138","","","","","","","","76","L","3","","","163","main_expt",""
"","bandit","243","728894","0.0-204.0-0.0","06750736","wem/bandit_either_3","ACSS93E03ZUGX","either","6","414","","","","","","","0","0","1","0.8621839131","","0.4","0.2","0.6","0.8","","","","","0.8327160304","0.469091439","0.4338988853","0.8621839131","","","","","","","","76","L","3","","","164","main_expt",""
"","bandit","244","730686","0.0-205.0-0.0","06750736","wem/bandit_either_3","ACSS93E03ZUGX","either","6","283","","","","","","","1","0","0","0.8368369455","","0.4","0.2","0.6","0.8","","","","","0.8780399083","0.4691854483","0.3640020004","0.8368369455","","","","","","","","76","L","3","","","165","main_expt",""
"","bandit","245","732573","0.0-206.0-0.0","06750736","wem/bandit_either_3","ACSS93E03ZUGX","either","6","379","","","","","","","1","0","0","0.8543831227","","0.4","0.2","0.6","0.8","","","","","0.8659509199","0.424594696","0.4433911144","0.8543831227","","","","","","","","76","L","3","","","166","main_expt",""
"","bandit","246","734557","0.0-207.0-0.0","06750736","wem/bandit_either_3","ACSS93E03ZUGX","either","6","476","","","","","","","1","0","0","0.8444257961","","0.4","0.2","0.6","0.8","","","","","0.8458676595","0.4691217736","0.4852122499","0.8444257961","","","","","","","","76","L","3","","","167","main_expt",""
"","bandit","247","736461","0.0-208.0-0.0","06750736","wem/bandit_either_3","ACSS93E03ZUGX","either","6","395","","","","","","","1","0","0","0.8895061166","","0.4","0.2","0.6","0.8","","","","","0.7368025647","0.4605946041","0.4829488348","0.8895061166","","","","","","","","76","L","3","","","168","main_expt",""
"","bandit","248","738286","0.0-209.0-0.0","06750736","wem/bandit_either_3","ACSS93E03ZUGX","either","6","318","","","","","","","1","0","0","0.8980662015","","0.4","0.2","0.6","0.8","","","","","0.6811301937","0.4302520818","0.467087579","0.8980662015","","","","","","","","76","L","3","","","169","main_expt",""
"","bandit","249","740093","0.0-210.0-0.0","06750736","wem/bandit_either_3","ACSS93E03ZUGX","either","6","301","","","","","","","0","1","0","","0.9399190154","0.4","0.2","0.6","0.8","0.6781719117","0.3846086554","0.3575164989","0.9399190154","","","","","","","","","","","","76","L","3","","","170","main_expt",""
"","bandit","250","741889","0.0-211.0-0.0","06750736","wem/bandit_either_3","ACSS93E03ZUGX","either","6","284","","","","","","","0","1","0","","0.9199626721","0.4","0.2","0.6","0.8","0.5779776893","0.4938912128","0.3433755155","0.9199626721","","","","","","","","","","","","76","L","3","","","171","main_expt",""
"","bandit","251","743677","0.0-212.0-0.0","06750736","wem/bandit_either_3","ACSS93E03ZUGX","either","6","280","","","","","","","0","0","1","0.8885959212","","0.4","0.2","0.6","0.8","","","","","0.5461867433","0.5409242696","0.2921203137","0.8885959212","","","","","","","","76","L","3","","","172","main_expt",""
"","bandit","252","745388","0.0-213.0-0.0","06750736","wem/bandit_either_3","ACSS93E03ZUGX","either","6","204","","","","","","","1","0","0","0.8502068985","","0.4","0.2","0.6","0.8","","","","","0.5898781272","0.4899310385","0.3237382503","0.8502068985","","","","","","","","76","L","3","","","173","main_expt",""
"","bandit","253","747214","0.0-214.0-0.0","06750736","wem/bandit_either_3","ACSS93E03ZUGX","either","6","316","","","","","","","1","0","0","0.9054067092","","0.4","0.2","0.6","0.8","","","","","0.5990225055","0.4464532747","0.2935635685","0.9054067092","","","","","","","","76","L","3","","","174","main_expt",""
"","bandit","254","749100","0.0-215.0-0.0","06750736","wem/bandit_either_3","ACSS93E03ZUGX","either","6","377","","","","","","","1","0","0","0.9096893241","","0.4","0.2","0.6","0.8","","","","","0.6129624105","0.4363040476","0.2797951809","0.9096893241","","","","","","","","76","L","3","","","175","main_expt",""
"","bandit","255","751023","0.0-216.0-0.0","06750736","wem/bandit_either_3","ACSS93E03ZUGX","either","6","414","","","","","","","0","0","1","0.9081003197","","0.4","0.2","0.6","0.8","","","","","0.5434192492","0.4198776974","0.2067270565","0.9081003197","","","","","","","","76","L","3","","","176","main_expt",""
"","bandit","256","752956","0.0-217.0-0.0","06750736","wem/bandit_either_3","ACSS93E03ZUGX","either","6","426","","","","","","","1","0","0","0.8417535431","","0.4","0.2","0.6","0.8","","","","","0.5893108522","0.4001478854","0.19266164","0.8417535431","","","","","","","","76","L","3","","","177","main_expt",""
"","bandit","257","755068","0.0-218.0-0.0","06750736","wem/bandit_either_3","ACSS93E03ZUGX","either","6","604","","","","","","","1","0","0","0.8045518304","","0.4","0.2","0.6","0.8","","","","","0.4862463398","0.3015477047","0.1393448617","0.8045518304","","","","","","","","76","L","3","","","178","main_expt",""
"","bandit","258","757039","0.0-219.0-0.0","06750736","wem/bandit_either_3","ACSS93E03ZUGX","either","6","461","","","","","","","1","0","0","0.8250115846","","0.4","0.2","0.6","0.8","","","","","0.4227787996","0.2700131006","0.1149816072","0.8250115846","","","","","","","","76","L","3","","","179","main_expt",""
"","bandit","259","759372","0.0-220.0-0.0","06750736","wem/bandit_either_3","ACSS93E03ZUGX","either","6","826","","","","","","","0","0","1","0.7418096358","","0.4","0.2","0.6","0.8","","","","","0.3583368423","0.3473069","0.1231561222","0.7418096358","","","","","","","","76","L","3","","","180","main_expt",""
"","bandit","260","760974","0.0-221.0-0.0","06750736","wem/bandit_either_3","ACSS93E03ZUGX","either","6","92","","","","","","","0","0","1","0.3478804011","","0.4","0.2","0.6","0.8","","","","","0.3820052134","0.3478804011","0.1134989143","0.7180260456","","","","","","","","74","J","1","","","181","main_expt",""
"","bandit","261","762573","0.0-222.0-0.0","06750736","wem/bandit_either_3","ACSS93E03ZUGX","either","6","92","","","","","","","0","0","1","0.437769555","","0.4","0.2","0.6","0.8","","","","","0.437769555","0.3304981007","0.07317944644","0.6777378447","","","","","","","","72","H","0","img/none_selected.jpg","","182","main_expt",""
"","bandit","262","764127","0.0-223.0-0.0","06750736","wem/bandit_either_3","ACSS93E03ZUGX","either","6","44","","","","","","","0","1","0","","0.2578466268","0.4","0.2","0.6","0.8","0.3951330089","0.2578466268","0.05085611098","0.6331465848","","","","","","","","","","","","74","J","1","","","183","main_expt",""
"","bandit","263","766207","0.0-224.0-0.0","06750736","wem/bandit_either_3","ACSS93E03ZUGX","either","6","570","","","","","","","0","0","1","","0.3550464129","0.4","0.2","0.6","0.8","0.4062376343","0.3550464129","0.07152820202","0.6578519513","","","","","","","","","","","","74","J","1","","","184","main_expt",""
"","bandit","264","769406","0.0-225.0-0.0","06750736","wem/bandit_either_3","ACSS93E03ZUGX","either","6","1690","","","","","","","0","0","1","0.2993299556","","0.4","0.2","0.6","0.8","","","","","0.4035727276","0.2993299556","0.08814522307","0.7160298793","","","","","","","","74","J","1","","","185","main_expt",""
"","bandit","265","771213","0.0-226.0-0.0","06750736","wem/bandit_either_3","ACSS93E03ZUGX","either","6","298","","","","","","","0","0","1","0.0931487442","","0.4","0.2","0.6","0.8","","","","","0.4595565904","0.3985972224","0.0931487442","0.7081703269","","","","","","","","75","K","2","","","186","main_expt",""
"","bandit","266","773027","0.0-227.0-0.0","06750736","wem/bandit_either_3","ACSS93E03ZUGX","either","6","301","","","","","","","0","0","1","","0.05847154344","0.4","0.2","0.6","0.8","0.4956959756","0.4563810555","0.05847154344","0.7670757258","","","","","","","","","","","","75","K","2","","","187","main_expt",""
"","bandit","267","774812","0.0-228.0-0.0","06750736","wem/bandit_either_3","ACSS93E03ZUGX","either","6","275","","","","","","","1","0","0","0.7986884496","","0.4","0.2","0.6","0.8","","","","","0.4295585103","0.4621092719","0.05005107021","0.7986884496","","","","","","","","76","L","3","","","188","main_expt",""
"","bandit","268","776698","0.0-229.0-0.0","06750736","wem/bandit_either_3","ACSS93E03ZUGX","either","6","378","","","","","","","1","0","0","0.8113194514","","0.4","0.2","0.6","0.8","","","","","0.4121259827","0.4214675273","0.05158958255","0.8113194514","","","","","","","","76","L","3","","","189","main_expt",""
"","bandit","269","779034","0.0-230.0-0.0","06750736","wem/bandit_either_3","ACSS93E03ZUGX","either","6","829","","","","","","","1","0","0","0.8311477635","","0.4","0.2","0.6","0.8","","","","","0.40505342","0.4445162903","0.0530996007","0.8311477635","","","","","","","","76","L","3","","","190","main_expt",""
"","bandit","270","781197","0.0-231.0-0.0","06750736","wem/bandit_either_3","ACSS93E03ZUGX","either","6","654","","","","","","","1","0","0","0.7941336253","","0.4","0.2","0.6","0.8","","","","","0.3671493273","0.4077799102","0.05342003941","0.7941336253","","","","","","","","76","L","3","","","191","main_expt",""
"","bandit","271","783470","0.0-232.0-0.0","06750736","wem/bandit_either_3","ACSS93E03ZUGX","either","6","765","","","","","","","0","1","0","","0.841847859","0.4","0.2","0.6","0.8","0.3367263454","0.413117206","0.05264216412","0.841847859","","","","","","","","","","","","76","L","3","","","192","main_expt",""
"","bandit","272","785565","0.0-233.0-0.0","06750736","wem/bandit_either_3","ACSS93E03ZUGX","either","6","586","","","","","","","1","0","0","0.865127625","","0.4","0.2","0.6","0.8","","","","","0.2587514209","0.374663265","0.07418965368","0.865127625","","","","","","","","76","L","3","","","193","main_expt",""
"","bandit","273","788170","0.0-234.0-0.0","06750736","wem/bandit_either_3","ACSS93E03ZUGX","either","6","1099","","","","","","","0","1","0","","0.8369883383","0.4","0.2","0.6","0.8","0.2123696513","0.2792309937","0.1148515542","0.8369883383","","","","","","","","","","","","76","L","3","","","194","main_expt",""
"","bandit","274","790222","0.0-235.0-0.0","06750736","wem/bandit_either_3","ACSS93E03ZUGX","either","6","540","","","","","","","0","1","0","","0.8226177272","0.4","0.2","0.6","0.8","0.2551117677","0.3090424304","0.1102075851","0.8226177272","","","","","","","","","","","","76","L","3","","","195","main_expt",""
"","bandit","275","792011","0.0-236.0-0.0","06750736","wem/bandit_either_3","ACSS93E03ZUGX","either","6","283","","","","","","","1","0","0","0.8759919892","","0.4","0.2","0.6","0.8","","","","","0.2948177706","0.2254203465","0.09307195637","0.8759919892","","","","","","","","76","L","3","","","196","main_expt",""
"","bandit","276","793742","0.0-237.0-0.0","06750736","wem/bandit_either_3","ACSS93E03ZUGX","either","6","223","","","","","","","1","0","0","0.9413038234","","0.4","0.2","0.6","0.8","","","","","0.2864074111","0.2104085952","0.08341332984","0.9413038234","","","","","","","","76","L","3","","","197","main_expt",""
"","bandit","277","795613","0.0-238.0-0.0","06750736","wem/bandit_either_3","ACSS93E03ZUGX","either","6","361","","","","","","","1","0","0","0.9384937307","","0.4","0.2","0.6","0.8","","","","","0.3044962429","0.1686499416","0.06206278739","0.9384937307","","","","","","","","76","L","3","","","198","main_expt",""
"","bandit","278","797419","0.0-239.0-0.0","06750736","wem/bandit_either_3","ACSS93E03ZUGX","either","6","300","","","","","","","0","0","1","0.927250614","","0.4","0.2","0.6","0.8","","","","","0.2804127106","0.1696058054","0.1015706687","0.927250614","","","","","","","","76","L","3","","","199","main_expt",""
"","bandit","279","799563","0.0-240.0-0.0","06750736","wem/bandit_either_3","ACSS93E03ZUGX","either","6","635","","","","","","","1","0","0","0.8840406778","","0.4","0.2","0.6","0.8","","","","","0.3151112274","0.1940139532","0.07348353789","0.8840406778","","","","","","","","76","L","3","","","200","main_expt",""
"","bandit","280","801903","0.0-241.0-0.0","06750736","wem/bandit_either_3","ACSS93E03ZUGX","either","6","828","","","","","","","1","0","0","0.8866639954","","0.4","0.2","0.6","0.8","","","","","0.3124471347","0.2384341862","0.09218994405","0.8866639954","","","","","","","","76","L","3","","","201","main_expt",""
"","bandit","281","803662","0.0-242.0-0.0","06750736","wem/bandit_either_3","ACSS93E03ZUGX","either","6","248","","","","","","","0","0","1","0.8188103646","","0.4","0.2","0.6","0.8","","","","","0.3418115628","0.2069173963","0.1662378481","0.8188103646","","","","","","","","76","L","3","","","202","main_expt",""
"","bandit","282","807083","0.0-243.0-0.0","06750736","wem/bandit_either_3","ACSS93E03ZUGX","either","6","1914","","","","","","","0","1","0","","0.8026106274","0.4","0.2","0.6","0.8","0.2676578736","0.2502389624","0.1808123801","0.8026106274","","","","","","","","","","","","76","L","3","","","203","main_expt",""
"","bandit","283","809854","0.0-244.0-0.0","06750736","wem/bandit_either_3","ACSS93E03ZUGX","either","6","1260","","","","","","","1","0","0","0.6613987003","","0.4","0.2","0.6","0.8","","","","","0.2513587973","0.2226806","0.2011980288","0.6613987003","","","","","","","","76","L","3","","","204","main_expt",""
"","bandit","284","811964","0.0-245.0-0.0","06750736","wem/bandit_either_3","ACSS93E03ZUGX","either","6","601","","","","","","","0","0","1","","0.7402115251","0.4","0.2","0.6","0.8","0.2733703365","0.2327973494","0.1877492959","0.7402115251","","","","","","","","","","","","76","L","3","","","205","main_expt",""
"","bandit","285","814123","0.0-246.0-0.0","06750736","wem/bandit_either_3","ACSS93E03ZUGX","either","6","651","","","","","","","0","1","0","","0.3134624789","0.4","0.2","0.6","0.8","0.3212331514","0.3134624789","0.1891298069","0.6792505986","","","","","","","","","","","","74","J","1","","","206","main_expt",""
"","bandit","286","815899","0.0-247.0-0.0","06750736","wem/bandit_either_3","ACSS93E03ZUGX","either","6","269","","","","","","","0","0","1","","0.3808856429","0.4","0.2","0.6","0.8","0.3381772831","0.3808856429","0.2092890992","0.6510378203","","","","","","","","","","","","74","J","1","","","207","main_expt",""
"","bandit","287","817755","0.0-248.0-0.0","06750736","wem/bandit_either_3","ACSS93E03ZUGX","either","6","349","","","","","","","0","0","1","","0.318509643","0.4","0.2","0.6","0.8","0.2370260631","0.318509643","0.2563161799","0.5971377862","","","","","","","","","","","","74","J","1","","","208","main_expt",""
"","bandit","288","819532","0.0-249.0-0.0","06750736","wem/bandit_either_3","ACSS93E03ZUGX","either","6","267","","","","","","","0","0","1","0.2157004535","","0.4","0.2","0.6","0.8","","","","","0.2157004535","0.2932847295","0.2643940457","0.6040603887","","","","","","","","72","H","0","img/none_selected.jpg","","209","main_expt",""
"","bandit","289","821355","0.0-250.0-0.0","06750736","wem/bandit_either_3","ACSS93E03ZUGX","either","6","313","","","","","","","0","0","1","","0.2710870001","0.4","0.2","0.6","0.8","0.2655169153","0.2230023122","0.2710870001","0.7794442159","","","","","","","","","","","","75","K","2","","","210","main_expt",""
"","bandit","290","823199","0.0-251.0-0.0","06750736","wem/bandit_either_3","ACSS93E03ZUGX","either","6","331","","","","","","","0","0","1","","0.1899351836","0.4","0.2","0.6","0.8","0.2359505063","0.1899351836","0.2056380183","0.8397026392","","","","","","","","","","","","74","J","1","","","211","main_expt",""
"","bandit","291","824875","0.0-252.0-0.0","06750736","wem/bandit_either_3","ACSS93E03ZUGX","either","6","169","","","","","","","1","0","0","0.2487045614","","0.4","0.2","0.6","0.8","","","","","0.2431981852","0.2593929449","0.2487045614","0.7883870126","","","","","","","","75","K","2","","","212","main_expt",""
"","bandit","292","826797","0.0-253.0-0.0","06750736","wem/bandit_either_3","ACSS93E03ZUGX","either","6","413","","","","","","","0","0","1","","0.3520378668","0.4","0.2","0.6","0.8","0.3385658967","0.2304425673","0.3520378668","0.7160446845","","","","","","","","","","","","75","K","2","","","213","main_expt",""
"","bandit","293","828541","0.0-254.0-0.0","06750736","wem/bandit_either_3","ACSS93E03ZUGX","either","6","233","","","","","","","1","0","0","0.7501162241","","0.4","0.2","0.6","0.8","","","","","0.445002088","0.2849244028","0.3455661114","0.7501162241","","","","","","","","76","L","3","","","214","main_expt",""
"","bandit","294","830363","0.0-255.0-0.0","06750736","wem/bandit_either_3","ACSS93E03ZUGX","either","6","314","","","","","","","1","0","0","0.7574589115","","0.4","0.2","0.6","0.8","","","","","0.4340580748","0.3184819088","0.3290646698","0.7574589115","","","","","","","","76","L","3","","","215","main_expt",""
"","bandit","295","832124","0.0-256.0-0.0","06750736","wem/bandit_either_3","ACSS93E03ZUGX","either","6","251","","","","","","","1","0","0","0.7376674805","","0.4","0.2","0.6","0.8","","","","","0.3996931216","0.2989728513","0.2737258078","0.7376674805","","","","","","","","76","L","3","","","216","main_expt",""
"","bandit","296","834012","0.0-257.0-0.0","06750736","wem/bandit_either_3","ACSS93E03ZUGX","either","6","379","","","","","","","0","0","1","0.67262171","","0.4","0.2","0.6","0.8","","","","","0.453570069","0.5538830624","0.2401291484","0.67262171","","","","","","","","76","L","3","","","217","main_expt",""
"","bandit","297","835838","0.0-258.0-0.0","06750736","wem/bandit_either_3","ACSS93E03ZUGX","either","6","315","","","","","","","1","0","0","0.6309662891","","0.4","0.2","0.6","0.8","","","","","0.3566620654","0.5331458927","0.2395298113","0.6309662891","","","","","","","","76","L","3","","","218","main_expt",""
"","bandit","298","837743","0.0-259.0-0.0","06750736","wem/bandit_either_3","ACSS93E03ZUGX","either","6","394","","","","","","","0","0","1","0.610488243","","0.4","0.2","0.6","0.8","","","","","0.3114207129","0.409279481","0.2333127667","0.610488243","","","","","","","","76","L","3","","","219","main_expt",""
"","bandit","299","839564","0.0-260.0-0.0","06750736","wem/bandit_either_3","ACSS93E03ZUGX","either","6","313","","","","","","","0","0","1","","0.2097963002","0.4","0.2","0.6","0.8","0.348491043","0.3910907299","0.2097963002","0.6741838821","","","","","","","","","","","","75","K","2","","","220","main_expt",""
"","bandit","300","841340","0.0-261.0-0.0","06750736","wem/bandit_either_3","ACSS93E03ZUGX","either","6","267","","","","","","","0","0","1","","0.37386253","0.4","0.2","0.6","0.8","0.325682353","0.37386253","0.1761429423","0.6938787555","","","","","","","","","","","","74","J","1","","","221","main_expt",""
"","bandit","301","843106","0.0-262.0-0.0","06750736","wem/bandit_either_3","ACSS93E03ZUGX","either","6","251","","","","","","","0","0","1","","0.3582518194","0.4","0.2","0.6","0.8","0.3582518194","0.5460784034","0.1770547834","0.622086605","","","","","","","","","","","","72","H","0","img/none_selected.jpg","","222","main_expt",""
"","bandit","302","844895","0.0-263.0-0.0","06750736","wem/bandit_either_3","ACSS93E03ZUGX","either","6","276","","","","","","","1","0","0","0.3596631187","","0.4","0.2","0.6","0.8","","","","","0.3596631187","0.5484594206","0.1494166006","0.6190419158","","","","","","","","72","H","0","img/none_selected.jpg","","223","main_expt",""
"","bandit","303","847021","0.0-264.0-0.0","06750736","wem/bandit_either_3","ACSS93E03ZUGX","either","6","616","","","","","","","0","0","1","","0.4757784632","0.4","0.2","0.6","0.8","0.4757784632","0.5156266917","0.1444184755","0.6525227655","","","","","","","","","","","","72","H","0","img/none_selected.jpg","","224","main_expt",""
"","bandit","304","848848","0.0-265.0-0.0","06750736","wem/bandit_either_3","ACSS93E03ZUGX","either","6","316","","","","","","","0","0","1","0.5739960468","","0.4","0.2","0.6","0.8","","","","","0.5384710229","0.5120039273","0.2381889698","0.5739960468","","","","","","","","76","L","3","","","225","main_expt",""
"","bandit","305","850445","0.0-266.0-0.0","06750736","wem/bandit_either_3","ACSS93E03ZUGX","either","6","87","","","","","","","0","0","1","0.1429230379","","0.4","0.2","0.6","0.8","","","","","0.5308581489","0.5568413113","0.1429230379","0.6038380469","","","","","","","","75","K","2","","","226","main_expt",""
"","bandit","306","852172","0.0-267.0-0.0","06750736","wem/bandit_either_3","ACSS93E03ZUGX","either","6","218","","","","","","","0","0","1","","0.124100867","0.4","0.2","0.6","0.8","0.488482713","0.5277183188","0.124100867","0.5203417309","","","","","","","","","","","","75","K","2","","","227","main_expt",""
"","bandit","307","853708","0.0-268.0-0.0","06750736","wem/bandit_either_3","ACSS93E03ZUGX","either","6","28","","","","","","","0","0","1","","0.5041270258","0.4","0.2","0.6","0.8","0.4406219513","0.5041270258","0.1762219884","0.4263922038","","","","","","","","","","","","74","J","1","","","228","main_expt",""
"","bandit","308","855487","0.0-269.0-0.0","06750736","wem/bandit_either_3","ACSS93E03ZUGX","either","6","267","","","","","","","0","0","1","","0.4892119921","0.4","0.2","0.6","0.8","0.4892119921","0.4541369304","0.1910325121","0.3475105047","","","","","","","","","","","","72","H","0","img/none_selected.jpg","","229","main_expt",""
"","bandit","309","857101","0.0-270.0-0.0","06750736","wem/bandit_either_3","ACSS93E03ZUGX","either","6","105","","","","","","","0","0","1","","0.5129573662","0.4","0.2","0.6","0.8","0.5129573662","0.4504381994","0.2571549068","0.3353007417","","","","","","","","","","","","72","H","0","img/none_selected.jpg","","230","main_expt",""
"","bandit","310","858942","0.0-271.0-0.0","06750736","wem/bandit_either_3","ACSS93E03ZUGX","either","6","330","","","","","","","0","1","0","","0.4698668598","0.4","0.2","0.6","0.8","0.4382888871","0.4698668598","0.1781345747","0.2870546929","","","","","","","","","","","","74","J","1","","","231","main_expt",""
"","bandit","311","860796","0.0-272.0-0.0","06750736","wem/bandit_either_3","ACSS93E03ZUGX","either","6","345","","","","","","","0","1","0","","0.5460008395","0.4","0.2","0.6","0.8","0.42174841","0.5460008395","0.1748933913","0.3092655517","","","","","","","","","","","","74","J","1","","","232","main_expt",""
"","bandit","312","862734","0.0-273.0-0.0","06750736","wem/bandit_either_3","ACSS93E03ZUGX","either","6","426","","","","","","","0","1","0","","0.5345299581","0.4","0.2","0.6","0.8","0.4297142637","0.5345299581","0.2196371411","0.4231157335","","","","","","","","","","","","74","J","1","","","233","main_expt",""
"","bandit","313","864701","0.0-274.0-0.0","06750736","wem/bandit_either_3","ACSS93E03ZUGX","either","6","457","","","","","","","0","0","1","0.508060833","","0.4","0.2","0.6","0.8","","","","","0.3016140143","0.508060833","0.2052749597","0.5525929145","","","","","","","","74","J","1","","","234","main_expt",""
"","bandit","314","866604","0.0-275.0-0.0","06750736","wem/bandit_either_3","ACSS93E03ZUGX","either","6","396","","","","","","","0","0","1","0.4956589368","","0.4","0.2","0.6","0.8","","","","","0.2735586703","0.4956589368","0.3158924645","0.7239072418","","","","","","","","74","J","1","","","235","main_expt",""
"","bandit","315","868909","0.0-276.0-0.0","06750736","wem/bandit_either_3","ACSS93E03ZUGX","either","6","795","","","","","","","0","0","1","","0.5514737959","0.4","0.2","0.6","0.8","0.2536827631","0.5514737959","0.3668106878","0.8076920848","","","","","","","","","","","","74","J","1","","","236","main_expt",""
"","bandit","316","870497","0.0-277.0-0.0","06750736","wem/bandit_either_3","ACSS93E03ZUGX","either","6","78","","","","","","","0","0","1","0.3866395083","","0.4","0.2","0.6","0.8","","","","","0.2478783488","0.5183580196","0.3866395083","0.7703095863","","","","","","","","75","K","2","","","237","main_expt",""
"","bandit","317","873822","0.0-278.0-0.0","06750736","wem/bandit_either_3","ACSS93E03ZUGX","either","6","1814","","","","","","","0","0","1","","0.4108821033","0.4","0.2","0.6","0.8","0.1688186905","0.5320509842","0.4108821033","0.6485929649","","","","","","","","","","","","75","K","2","","","238","main_expt",""
"","bandit","318","875917","0.0-279.0-0.0","06750736","wem/bandit_either_3","ACSS93E03ZUGX","either","6","585","","","","","","","0","0","1","","0.46832295","0.4","0.2","0.6","0.8","0.1232648298","0.46832295","0.4384900471","0.7028133827","","","","","","","","","","","","74","J","1","","","239","main_expt",""
"","bandit","319","877725","0.0-280.0-0.0","06750736","wem/bandit_either_3","ACSS93E03ZUGX","either","6","298","","","","","","","0","0","1","0.6620055833","","0.4","0.2","0.6","0.8","","","","","0.1720424997","0.5024711131","0.4246438665","0.6620055833","","","","","","","","76","L","3","","","240","main_expt",""
"","bandit","320","879485","0.0-281.0-0.0","06750736","wem/bandit_either_3","ACSS93E03ZUGX","either","6","251","","","","","","","0","0","1","0.6925250702","","0.4","0.2","0.6","0.8","","","","","0.1045812876","0.6092933485","0.3783755671","0.6925250702","","","","","","","","76","L","3","","","241","main_expt",""
"","bandit","321","881153","0.0-282.0-0.0","06750736","wem/bandit_either_3","ACSS93E03ZUGX","either","6","155","","","","","","","0","0","1","","0.08136382084","0.4","0.2","0.6","0.8","0.08136382084","0.5812412386","0.3619864671","0.7076428944","","","","","","","","","","","","72","H","0","img/none_selected.jpg","","242","main_expt",""
"","bandit","322","882892","0.0-283.0-0.0","06750736","wem/bandit_either_3","ACSS93E03ZUGX","either","6","231","","","","","","","0","0","1","","0.08711917736","0.4","0.2","0.6","0.8","0.08711917736","0.5582769518","0.4143237557","0.6671697692","","","","","","","","","","","","72","H","0","img/none_selected.jpg","","243","main_expt",""
"","bandit","323","884510","0.0-284.0-0.0","06750736","wem/bandit_either_3","ACSS93E03ZUGX","either","6","106","","","","","","","0","0","1","","0.07033008343","0.4","0.2","0.6","0.8","0.07033008343","0.5728611736","0.3883911391","0.6829807443","","","","","","","","","","","","72","H","0","img/none_selected.jpg","","244","main_expt",""
"","bandit","324","886111","0.0-285.0-0.0","06750736","wem/bandit_either_3","ACSS93E03ZUGX","either","6","91","","","","","","","0","0","1","0.4821733131","","0.4","0.2","0.6","0.8","","","","","0.04273118291","0.4821733131","0.3724790504","0.6068076256","","","","","","","","74","J","1","","","245","main_expt",""
