"consent","trial_type","trial_index","time_elapsed","internal_node_id","subjID","study","MID","cond","drift","rt","responses","key_press","expt_phase","like","value","connected","gems","bombs","no_reward","GemPrChosen","BombPrChosen","GainOverPainPr_0","GainOverPainPr_1","GainOverPainPr_2","GainOverPainPr_3","LosePr_0","LosePr_1","LosePr_2","LosePr_3","WinPr_0","WinPr_1","WinPr_2","WinPr_3","Q0","Q1","Q2","gender","age","ethnicity","target","respCharCode","respKey","respChoiceNum","respChoice","practice","trial_counter","trial_label","button_pressed"
"INL_behavioral_consent_30min_online.html","consent","0","17763","0.0-0.0","07827655","wem/bandit_either_3","A13PXTFOXDCKBF","either","1","","","","","","","","","","","","","","","","","","","","","","","","","","","","","","","","","","","","","","",""
"","survey-text","1","25202","0.0-1.0","07827655","wem/bandit_either_3","A13PXTFOXDCKBF","either","1","6423","{""Q0"":""A13PXTFOXDCKBF""}","","","","","","","","","","","","","","","","","","","","","","","","","","","","","","","","","","","","",""
"","text","2","31697","0.0-2.0","07827655","wem/bandit_either_3","A13PXTFOXDCKBF","either","1","5486","","32","","","","","","","","","","","","","","","","","","","","","","","","","","","","","","","","","","","",""
"","text","3","39873","0.0-3.0","07827655","wem/bandit_either_3","A13PXTFOXDCKBF","either","1","8174","","32","","","","","","","","","","","","","","","","","","","","","","","","","","","","","","","","","","","",""
"","text","4","55417","0.0-4.0","07827655","wem/bandit_either_3","A13PXTFOXDCKBF","either","1","15542","","32","","","","","","","","","","","","","","","","","","","","","","","","","","","","","","","","","","","",""
"","text","5","69841","0.0-5.0","07827655","wem/bandit_either_3","A13PXTFOXDCKBF","either","1","14420","","32","","","","","","","","","","","","","","","","","","","","","","","","","","","","","","","","","","","",""
"","text","6","83760","0.0-6.0","07827655","wem/bandit_either_3","A13PXTFOXDCKBF","either","1","13917","","32","","","","","","","","","","","","","","","","","","","","","","","","","","","","","","","","","","","",""
"","text","7","89712","0.0-7.0","07827655","wem/bandit_either_3","A13PXTFOXDCKBF","either","1","5950","","32","","","","","","","","","","","","","","","","","","","","","","","","","","","","","","","","","","","",""
"","text","8","94823","0.0-8.0","07827655","wem/bandit_either_3","A13PXTFOXDCKBF","either","1","5110","","32","","","","","","","","","","","","","","","","","","","","","","","","","","","","","","","","","","","",""
"","identification","9","100620","0.0-9.0-0.0","07827655","wem/bandit_either_3","A13PXTFOXDCKBF","either","1","5779","","","","3","3","3","","","","","","","","","","","","","","","","","","","","","","","","the village of Zur","","","","","","","",""
"","identification","10","104603","0.0-9.0-1.0","07827655","wem/bandit_either_3","A13PXTFOXDCKBF","either","1","2966","","","","2","2","2","","","","","","","","","","","","","","","","","","","","","","","","the village of Nyx","","","","","","","",""
"","text","11","110922","0.0-10.0","07827655","wem/bandit_either_3","A13PXTFOXDCKBF","either","1","5311","","32","","","","","","","","","","","","","","","","","","","","","","","","","","","","","","","","","","","",""
"","text","12","113946","0.0-11.0","07827655","wem/bandit_either_3","A13PXTFOXDCKBF","either","1","3021","","32","","","","","","","","","","","","","","","","","","","","","","","","","","","","","","","","","","","",""
"","text","13","115529","0.0-12.0","07827655","wem/bandit_either_3","A13PXTFOXDCKBF","either","1","1579","","32","","","","","","","","","","","","","","","","","","","","","","","","","","","","","","","","","","","",""
"","text","14","121849","0.0-13.0","07827655","wem/bandit_either_3","A13PXTFOXDCKBF","either","1","6317","","32","","","","","","","","","","","","","","","","","","","","","","","","","","","","","","","","","","","",""
"","bandit","15","124923","0.0-14.0-0.0","07827655","wem/bandit_either_3","A13PXTFOXDCKBF","either","1","1550","","","","","","","0","0","1","0","0","","","","","0","","","","0","","","","","","","","","","","74","J","0","img/none_selected_demo.jpg","true","0","",""
"","bandit","16","127120","0.0-15.0-0.0","07827655","wem/bandit_either_3","A13PXTFOXDCKBF","either","1","671","","","","","","","0","0","1","0","0","","","","","0","","","","0","","","","","","","","","","","75","K","0","img/none_selected_demo.jpg","true","0","",""
"","text","17","134825","0.0-16.0","07827655","wem/bandit_either_3","A13PXTFOXDCKBF","either","1","7700","","32","","","","","","","","","","","","","","","","","","","","","","","","","","","","","","","","","","","",""
"","text","18","145249","0.0-17.0","07827655","wem/bandit_either_3","A13PXTFOXDCKBF","either","1","10420","","32","","","","","","","","","","","","","","","","","","","","","","","","","","","","","","","","","","","",""
"","text","19","148808","0.0-18.0","07827655","wem/bandit_either_3","A13PXTFOXDCKBF","either","1","3557","","32","","","","","","","","","","","","","","","","","","","","","","","","","","","","","","","","","","","",""
"","text","20","150232","0.0-19.0","07827655","wem/bandit_either_3","A13PXTFOXDCKBF","either","1","1421","","32","","","","","","","","","","","","","","","","","","","","","","","","","","","","","","","","","","","",""
"","bandit","21","152385","0.0-20.0-0.0","07827655","wem/bandit_either_3","A13PXTFOXDCKBF","either","1","633","","","","","","","0","0","1","0.2","","0.5","0.5","","","","","","","0.8","0.2","","","","","","","","","","75","K","1","","true","0","80_20_practice",""
"","bandit","22","154258","0.0-20.0-1.0","07827655","wem/bandit_either_3","A13PXTFOXDCKBF","either","1","354","","","","","","","0","1","0","","0.8","0.5","0.5","","","0.8","0.2","","","","","","","","","","","","","","74","J","0","img/none_selected_demo.jpg","true","0","80_20_practice",""
"","bandit","23","156199","0.0-20.0-2.0","07827655","wem/bandit_either_3","A13PXTFOXDCKBF","either","1","417","","","","","","","0","1","0","","0.8","0.5","0.5","","","0.8","0.2","","","","","","","","","","","","","","74","J","0","img/none_selected_demo.jpg","true","0","80_20_practice",""
"","bandit","24","158185","0.0-20.0-3.0","07827655","wem/bandit_either_3","A13PXTFOXDCKBF","either","1","445","","","","","","","1","0","0","0.8","","0.5","0.5","","","","","","","0.8","0.2","","","","","","","","","","74","J","0","img/none_selected_demo.jpg","true","0","80_20_practice",""
"","bandit","25","160034","0.0-20.0-4.0","07827655","wem/bandit_either_3","A13PXTFOXDCKBF","either","1","324","","","","","","","1","0","0","0.8","","0.5","0.5","","","","","","","0.8","0.2","","","","","","","","","","74","J","0","img/none_selected_demo.jpg","true","0","80_20_practice",""
"","bandit","26","161881","0.0-20.0-5.0","07827655","wem/bandit_either_3","A13PXTFOXDCKBF","either","1","330","","","","","","","1","0","0","0.8","","0.5","0.5","","","","","","","0.8","0.2","","","","","","","","","","74","J","0","img/none_selected_demo.jpg","true","0","80_20_practice",""
"","bandit","27","163745","0.0-20.0-6.0","07827655","wem/bandit_either_3","A13PXTFOXDCKBF","either","1","344","","","","","","","0","1","0","","0.8","0.5","0.5","","","0.8","0.2","","","","","","","","","","","","","","74","J","0","img/none_selected_demo.jpg","true","0","80_20_practice",""
"","bandit","28","165654","0.0-20.0-7.0","07827655","wem/bandit_either_3","A13PXTFOXDCKBF","either","1","387","","","","","","","0","0","1","0.2","","0.5","0.5","","","","","","","0.8","0.2","","","","","","","","","","75","K","1","","true","0","80_20_practice",""
"","bandit","29","167215","0.0-20.0-8.0","07827655","wem/bandit_either_3","A13PXTFOXDCKBF","either","1","45","","","","","","","1","0","0","0.8","","0.5","0.5","","","","","","","0.8","0.2","","","","","","","","","","74","J","0","img/none_selected_demo.jpg","true","0","80_20_practice",""
"","bandit","30","169123","0.0-20.0-9.0","07827655","wem/bandit_either_3","A13PXTFOXDCKBF","either","1","396","","","","","","","1","0","0","0.8","","0.5","0.5","","","","","","","0.8","0.2","","","","","","","","","","74","J","0","img/none_selected_demo.jpg","true","0","80_20_practice",""
"","bandit","31","171157","0.0-20.0-10.0","07827655","wem/bandit_either_3","A13PXTFOXDCKBF","either","1","513","","","","","","","0","1","0","","0.8","0.5","0.5","","","0.8","0.2","","","","","","","","","","","","","","74","J","0","img/none_selected_demo.jpg","true","0","80_20_practice",""
"","bandit","32","173189","0.0-20.0-11.0","07827655","wem/bandit_either_3","A13PXTFOXDCKBF","either","1","511","","","","","","","0","1","0","","0.8","0.5","0.5","","","0.8","0.2","","","","","","","","","","","","","","74","J","0","img/none_selected_demo.jpg","true","0","80_20_practice",""
"","bandit","33","175099","0.0-20.0-12.0","07827655","wem/bandit_either_3","A13PXTFOXDCKBF","either","1","380","","","","","","","0","1","0","","0.8","0.5","0.5","","","0.8","0.2","","","","","","","","","","","","","","74","J","0","img/none_selected_demo.jpg","true","0","80_20_practice",""
"","bandit","34","176774","0.0-20.0-13.0","07827655","wem/bandit_either_3","A13PXTFOXDCKBF","either","1","141","","","","","","","0","1","0","","0.8","0.5","0.5","","","0.8","0.2","","","","","","","","","","","","","","74","J","0","img/none_selected_demo.jpg","true","0","80_20_practice",""
"","bandit","35","178666","0.0-20.0-14.0","07827655","wem/bandit_either_3","A13PXTFOXDCKBF","either","1","366","","","","","","","1","0","0","0.8","","0.5","0.5","","","","","","","0.8","0.2","","","","","","","","","","74","J","0","img/none_selected_demo.jpg","true","0","80_20_practice",""
"","bandit","36","180576","0.0-20.0-15.0","07827655","wem/bandit_either_3","A13PXTFOXDCKBF","either","1","383","","","","","","","1","0","0","0.8","","0.5","0.5","","","","","","","0.8","0.2","","","","","","","","","","74","J","0","img/none_selected_demo.jpg","true","0","80_20_practice",""
"","bandit","37","182434","0.0-20.0-16.0","07827655","wem/bandit_either_3","A13PXTFOXDCKBF","either","1","334","","","","","","","1","0","0","0.8","","0.5","0.5","","","","","","","0.8","0.2","","","","","","","","","","74","J","0","img/none_selected_demo.jpg","true","0","80_20_practice",""
"","bandit","38","184737","0.0-20.0-17.0","07827655","wem/bandit_either_3","A13PXTFOXDCKBF","either","1","782","","","","","","","1","0","0","0.8","","0.5","0.5","","","","","","","0.8","0.2","","","","","","","","","","74","J","0","img/none_selected_demo.jpg","true","0","80_20_practice",""
"","bandit","39","186676","0.0-20.0-18.0","07827655","wem/bandit_either_3","A13PXTFOXDCKBF","either","1","409","","","","","","","0","1","0","","0.8","0.5","0.5","","","0.8","0.2","","","","","","","","","","","","","","74","J","0","img/none_selected_demo.jpg","true","0","80_20_practice",""
"","bandit","40","188468","0.0-20.0-19.0","07827655","wem/bandit_either_3","A13PXTFOXDCKBF","either","1","272","","","","","","","1","0","0","0.8","","0.5","0.5","","","","","","","0.8","0.2","","","","","","","","","","74","J","0","img/none_selected_demo.jpg","true","0","80_20_practice",""
"","text","41","190680","0.0-21.0","07827655","wem/bandit_either_3","A13PXTFOXDCKBF","either","1","2207","","32","","","","","","","","","","","","","","","","","","","","","","","","","","","","","","","","","","","",""
"","bandit","42","193516","0.0-22.0-0.0","07827655","wem/bandit_either_3","A13PXTFOXDCKBF","either","1","1320","","","","","","","1","0","0","1","0","","","","","0","1","","","1","0","","","","","","","","","","74","J","0","img/none_selected_demo.jpg","true","0","",""
"","text","43","193608","0.0-23.0","07827655","wem/bandit_either_3","A13PXTFOXDCKBF","either","1","88","","32","","","","","","","","","","","","","","","","","","","","","","","","","","","","","","","","","","","",""
"","text","44","194993","0.0-24.0","07827655","wem/bandit_either_3","A13PXTFOXDCKBF","either","1","1382","","32","","","","","","","","","","","","","","","","","","","","","","","","","","","","","","","","","","","",""
"","text","45","198208","0.0-25.0","07827655","wem/bandit_either_3","A13PXTFOXDCKBF","either","1","3211","","32","","","","","","","","","","","","","","","","","","","","","","","","","","","","","","","","","","","",""
"","text","46","200961","0.0-26.0","07827655","wem/bandit_either_3","A13PXTFOXDCKBF","either","1","2749","","32","","","","","","","","","","","","","","","","","","","","","","","","","","","","","","","","","","","",""
"","text","47","212273","0.0-27.0","07827655","wem/bandit_either_3","A13PXTFOXDCKBF","either","1","11306","","32","","","","","","","","","","","","","","","","","","","","","","","","","","","","","","","","","","","",""
"","text","48","216089","0.0-28.0","07827655","wem/bandit_either_3","A13PXTFOXDCKBF","either","1","3811","","32","","","","","","","","","","","","","","","","","","","","","","","","","","","","","","","","","","","",""
"","text","49","221105","0.0-29.0","07827655","wem/bandit_either_3","A13PXTFOXDCKBF","either","1","5011","","32","","","","","","","","","","","","","","","","","","","","","","","","","","","","","","","","","","","",""
"","text","50","225961","0.0-30.0","07827655","wem/bandit_either_3","A13PXTFOXDCKBF","either","1","4851","","32","","","","","","","","","","","","","","","","","","","","","","","","","","","","","","","","","","","",""
"","text","51","230009","0.0-31.0","07827655","wem/bandit_either_3","A13PXTFOXDCKBF","either","1","4043","","32","","","","","","","","","","","","","","","","","","","","","","","","","","","","","","","","","","","",""
"","text","52","231065","0.0-32.0","07827655","wem/bandit_either_3","A13PXTFOXDCKBF","either","1","1051","","32","","","","","","","","","","","","","","","","","","","","","","","","","","","","","","","","","","","",""
"","text","53","233504","0.0-33.0","07827655","wem/bandit_either_3","A13PXTFOXDCKBF","either","1","2435","","32","","","","","","","","","","","","","","","","","","","","","","","","","","","","","","","","","","","",""
"","bandit","54","235796","0.0-34.0-0.0","07827655","wem/bandit_either_3","A13PXTFOXDCKBF","either","1","757","","","","","","","1","0","0","0.8","","0.5","0.5","0.5","0.5","","","","","0.8","0.2","0.6","0.2","","","","","","","","72","H","0","img/none_selected.jpg","true","0","full_practice",""
"","bandit","55","237736","0.0-34.0-1.0","07827655","wem/bandit_either_3","A13PXTFOXDCKBF","either","1","403","","","","","","","0","0","1","0.8","","0.5","0.5","0.5","0.5","","","","","0.8","0.2","0.6","0.2","","","","","","","","72","H","0","img/none_selected.jpg","true","0","full_practice",""
"","bandit","56","239445","0.0-34.0-2.0","07827655","wem/bandit_either_3","A13PXTFOXDCKBF","either","1","178","","","","","","","0","0","1","0.2","","0.5","0.5","0.5","0.5","","","","","0.8","0.2","0.6","0.2","","","","","","","","74","J","1","","true","0","full_practice",""
"","bandit","57","241635","0.0-34.0-3.0","07827655","wem/bandit_either_3","A13PXTFOXDCKBF","either","1","670","","","","","","","0","1","0","","0.6","0.5","0.5","0.5","0.5","0.8","0.2","0.6","0.2","","","","","","","","","","","","75","K","2","","true","0","full_practice",""
"","bandit","58","243576","0.0-34.0-4.0","07827655","wem/bandit_either_3","A13PXTFOXDCKBF","either","1","418","","","","","","","0","1","0","","0.6","0.5","0.5","0.5","0.5","0.8","0.2","0.6","0.2","","","","","","","","","","","","75","K","2","","true","0","full_practice",""
"","bandit","59","245595","0.0-34.0-5.0","07827655","wem/bandit_either_3","A13PXTFOXDCKBF","either","1","497","","","","","","","0","0","1","","0.6","0.5","0.5","0.5","0.5","0.8","0.2","0.6","0.2","","","","","","","","","","","","75","K","2","","true","0","full_practice",""
"","bandit","60","247374","0.0-34.0-6.0","07827655","wem/bandit_either_3","A13PXTFOXDCKBF","either","1","256","","","","","","","0","0","1","0.2","","0.5","0.5","0.5","0.5","","","","","0.8","0.2","0.6","0.2","","","","","","","","76","L","3","","true","0","full_practice",""
"","bandit","61","249218","0.0-34.0-7.0","07827655","wem/bandit_either_3","A13PXTFOXDCKBF","either","1","320","","","","","","","0","0","1","0.2","","0.5","0.5","0.5","0.5","","","","","0.8","0.2","0.6","0.2","","","","","","","","74","J","1","","true","0","full_practice",""
"","bandit","62","251049","0.0-34.0-8.0","07827655","wem/bandit_either_3","A13PXTFOXDCKBF","either","1","293","","","","","","","0","0","1","","0.2","0.5","0.5","0.5","0.5","0.8","0.2","0.6","0.2","","","","","","","","","","","","74","J","1","","true","0","full_practice",""
"","bandit","63","252814","0.0-34.0-9.0","07827655","wem/bandit_either_3","A13PXTFOXDCKBF","either","1","241","","","","","","","1","0","0","0.8","","0.5","0.5","0.5","0.5","","","","","0.8","0.2","0.6","0.2","","","","","","","","72","H","0","img/none_selected.jpg","true","0","full_practice",""
"","bandit","64","254695","0.0-34.0-10.0","07827655","wem/bandit_either_3","A13PXTFOXDCKBF","either","1","359","","","","","","","1","0","0","0.8","","0.5","0.5","0.5","0.5","","","","","0.8","0.2","0.6","0.2","","","","","","","","72","H","0","img/none_selected.jpg","true","0","full_practice",""
"","bandit","65","256605","0.0-34.0-11.0","07827655","wem/bandit_either_3","A13PXTFOXDCKBF","either","1","383","","","","","","","0","0","1","0.8","","0.5","0.5","0.5","0.5","","","","","0.8","0.2","0.6","0.2","","","","","","","","72","H","0","img/none_selected.jpg","true","0","full_practice",""
"","bandit","66","258445","0.0-34.0-12.0","07827655","wem/bandit_either_3","A13PXTFOXDCKBF","either","1","322","","","","","","","0","1","0","","0.6","0.5","0.5","0.5","0.5","0.8","0.2","0.6","0.2","","","","","","","","","","","","75","K","2","","true","0","full_practice",""
"","bandit","67","260513","0.0-34.0-13.0","07827655","wem/bandit_either_3","A13PXTFOXDCKBF","either","1","541","","","","","","","0","0","1","0.6","","0.5","0.5","0.5","0.5","","","","","0.8","0.2","0.6","0.2","","","","","","","","75","K","2","","true","0","full_practice",""
"","bandit","68","262479","0.0-34.0-14.0","07827655","wem/bandit_either_3","A13PXTFOXDCKBF","either","1","451","","","","","","","0","0","1","0.6","","0.5","0.5","0.5","0.5","","","","","0.8","0.2","0.6","0.2","","","","","","","","75","K","2","","true","0","full_practice",""
"","bandit","69","264178","0.0-34.0-15.0","07827655","wem/bandit_either_3","A13PXTFOXDCKBF","either","1","166","","","","","","","0","0","1","","0.6","0.5","0.5","0.5","0.5","0.8","0.2","0.6","0.2","","","","","","","","","","","","75","K","2","","true","0","full_practice",""
"","bandit","70","265978","0.0-34.0-16.0","07827655","wem/bandit_either_3","A13PXTFOXDCKBF","either","1","271","","","","","","","0","0","1","","0.2","0.5","0.5","0.5","0.5","0.8","0.2","0.6","0.2","","","","","","","","","","","","74","J","1","","true","0","full_practice",""
"","bandit","71","267891","0.0-34.0-17.0","07827655","wem/bandit_either_3","A13PXTFOXDCKBF","either","1","377","","","","","","","1","0","0","0.8","","0.5","0.5","0.5","0.5","","","","","0.8","0.2","0.6","0.2","","","","","","","","72","H","0","img/none_selected.jpg","true","0","full_practice",""
"","bandit","72","270007","0.0-34.0-18.0","07827655","wem/bandit_either_3","A13PXTFOXDCKBF","either","1","587","","","","","","","0","0","1","","0.8","0.5","0.5","0.5","0.5","0.8","0.2","0.6","0.2","","","","","","","","","","","","72","H","0","img/none_selected.jpg","true","0","full_practice",""
"","bandit","73","271959","0.0-34.0-19.0","07827655","wem/bandit_either_3","A13PXTFOXDCKBF","either","1","423","","","","","","","1","0","0","0.8","","0.5","0.5","0.5","0.5","","","","","0.8","0.2","0.6","0.2","","","","","","","","72","H","0","img/none_selected.jpg","true","0","full_practice",""
"","text","74","274144","0.0-35.0","07827655","wem/bandit_either_3","A13PXTFOXDCKBF","either","1","2178","","32","","","","","","","","","","","","","","","","","","","","","","","","","","","","","","","","","","","",""
"","text","75","287081","0.0-36.0","07827655","wem/bandit_either_3","A13PXTFOXDCKBF","either","1","11923","","32","","","","","","","","","","","","","","","","","","","","","","","","","","","","","","","","","","","",""
"","text","76","291873","0.0-37.0","07827655","wem/bandit_either_3","A13PXTFOXDCKBF","either","1","4786","","32","","","","","","","","","","","","","","","","","","","","","","","","","","","","","","","","","","","",""
"","text","77","295696","0.0-38.0","07827655","wem/bandit_either_3","A13PXTFOXDCKBF","either","1","3819","","32","","","","","","","","","","","","","","","","","","","","","","","","","","","","","","","","","","","",""
"","text","78","305704","0.0-39.0","07827655","wem/bandit_either_3","A13PXTFOXDCKBF","either","1","10005","","32","","","","","","","","","","","","","","","","","","","","","","","","","","","","","","","","","","","",""
"","text","79","312769","0.0-40.0","07827655","wem/bandit_either_3","A13PXTFOXDCKBF","either","1","7061","","32","","","","","","","","","","","","","","","","","","","","","","","","","","","","","","","","","","","",""
"","bandit","80","315388","0.0-41.0-0.0","07827655","wem/bandit_either_3","A13PXTFOXDCKBF","either","1","1086","","","","","","","0","1","0","","0.4995060561","0.6","0.4","0.2","0.8","0.4995060561","0.7674833066","0.8101107889","0.5202783506","","","","","","","","","","","","72","H","0","img/none_selected.jpg","","1","main_expt",""
"","bandit","81","317299","0.0-42.0-0.0","07827655","wem/bandit_either_3","A13PXTFOXDCKBF","either","1","383","","","","","","","0","0","1","0.4452888422","","0.6","0.4","0.2","0.8","","","","","0.4452888422","0.7786696111","0.8827976921","0.4559554218","","","","","","","","72","H","0","img/none_selected.jpg","","2","main_expt",""
"","bandit","82","319045","0.0-43.0-0.0","07827655","wem/bandit_either_3","A13PXTFOXDCKBF","either","1","211","","","","","","","0","1","0","","0.7883912796","0.6","0.4","0.2","0.8","0.4956599627","0.7883912796","0.918633781","0.3791335739","","","","","","","","","","","","74","J","1","","","3","main_expt",""
"","bandit","83","321389","0.0-44.0-0.0","07827655","wem/bandit_either_3","A13PXTFOXDCKBF","either","1","820","","","","","","","1","0","0","0.8311681014","","0.6","0.4","0.2","0.8","","","","","0.3939226057","0.8311681014","0.8961075186","0.362446662","","","","","","","","74","J","1","","","4","main_expt",""
"","bandit","84","323267","0.0-45.0-0.0","07827655","wem/bandit_either_3","A13PXTFOXDCKBF","either","1","348","","","","","","","0","1","0","","0.706748425","0.6","0.4","0.2","0.8","0.4737796053","0.706748425","0.9065038385","0.4337427147","","","","","","","","","","","","74","J","1","","","5","main_expt",""
"","bandit","85","325038","0.0-46.0-0.0","07827655","wem/bandit_either_3","A13PXTFOXDCKBF","either","1","238","","","","","","","0","1","0","","0.7246132019","0.6","0.4","0.2","0.8","0.5798080576","0.7246132019","0.9628954729","0.4260566605","","","","","","","","","","","","74","J","1","","","6","main_expt",""
"","bandit","86","327395","0.0-47.0-0.0","07827655","wem/bandit_either_3","A13PXTFOXDCKBF","either","1","838","","","","","","","0","1","0","","0.822103072","0.6","0.4","0.2","0.8","0.6184433593","0.822103072","0.9244273404","0.5595739282","","","","","","","","","","","","74","J","1","","","7","main_expt",""
"","bandit","87","329769","0.0-48.0-0.0","07827655","wem/bandit_either_3","A13PXTFOXDCKBF","either","1","857","","","","","","","0","1","0","","0.8176183596","0.6","0.4","0.2","0.8","0.5380809204","0.8176183596","0.9214665689","0.5757792393","","","","","","","","","","","","74","J","1","","","8","main_expt",""
"","bandit","88","331988","0.0-49.0-0.0","07827655","wem/bandit_either_3","A13PXTFOXDCKBF","either","1","691","","","","","","","0","1","0","","0.7421782695","0.6","0.4","0.2","0.8","0.4884558296","0.7421782695","0.9604963414","0.5508288143","","","","","","","","","","","","74","J","1","","","9","main_expt",""
"","bandit","89","335061","0.0-50.0-0.0","07827655","wem/bandit_either_3","A13PXTFOXDCKBF","either","1","1551","","","","","","","1","0","0","0.7112185725","","0.6","0.4","0.2","0.8","","","","","0.6062827564","0.7112185725","0.973544224","0.4615344473","","","","","","","","74","J","1","","","10","main_expt",""
"","bandit","90","336970","0.0-51.0-0.0","07827655","wem/bandit_either_3","A13PXTFOXDCKBF","either","1","382","","","","","","","0","0","1","","0.6656122322","0.6","0.4","0.2","0.8","0.6618996933","0.6656122322","0.9756729976","0.4731032433","","","","","","","","","","","","74","J","1","","","11","main_expt",""
"","bandit","91","338858","0.0-52.0-0.0","07827655","wem/bandit_either_3","A13PXTFOXDCKBF","either","1","361","","","","","","","0","1","0","","0.9824084628","0.6","0.4","0.2","0.8","0.6589688621","0.632951522","0.9824084628","0.5028989732","","","","","","","","","","","","75","K","2","","","12","main_expt",""
"","bandit","92","340673","0.0-53.0-0.0","07827655","wem/bandit_either_3","A13PXTFOXDCKBF","either","1","289","","","","","","","1","0","0","0.9852841122","","0.6","0.4","0.2","0.8","","","","","0.7483501345","0.6428643634","0.9852841122","0.5252386458","","","","","","","","75","K","2","","","13","main_expt",""
"","bandit","93","342816","0.0-54.0-0.0","07827655","wem/bandit_either_3","A13PXTFOXDCKBF","either","1","625","","","","","","","0","1","0","","0.9844185579","0.6","0.4","0.2","0.8","0.7642220585","0.5693663763","0.9844185579","0.4883642101","","","","","","","","","","","","75","K","2","","","14","main_expt",""
"","bandit","94","345131","0.0-55.0-0.0","07827655","wem/bandit_either_3","A13PXTFOXDCKBF","either","1","795","","","","","","","1","0","0","0.9716790186","","0.6","0.4","0.2","0.8","","","","","0.8255663415","0.6354763258","0.9716790186","0.5125695872","","","","","","","","75","K","2","","","15","main_expt",""
"","bandit","95","347086","0.0-56.0-0.0","07827655","wem/bandit_either_3","A13PXTFOXDCKBF","either","1","440","","","","","","","0","1","0","","0.9724226268","0.6","0.4","0.2","0.8","0.8262734196","0.6074668868","0.9724226268","0.483313844","","","","","","","","","","","","75","K","2","","","16","main_expt",""
"","bandit","96","349164","0.0-57.0-0.0","07827655","wem/bandit_either_3","A13PXTFOXDCKBF","either","1","550","","","","","","","0","1","0","","0.969397438","0.6","0.4","0.2","0.8","0.8957105494","0.634379517","0.969397438","0.4764119597","","","","","","","","","","","","75","K","2","","","17","main_expt",""
"","bandit","97","351197","0.0-58.0-0.0","07827655","wem/bandit_either_3","A13PXTFOXDCKBF","either","1","503","","","","","","","0","1","0","","0.9487821198","0.6","0.4","0.2","0.8","0.8243017832","0.7399013172","0.9487821198","0.4742144938","","","","","","","","","","","","75","K","2","","","18","main_expt",""
"","bandit","98","353174","0.0-59.0-0.0","07827655","wem/bandit_either_3","A13PXTFOXDCKBF","either","1","447","","","","","","","1","0","0","0.8822386923","","0.6","0.4","0.2","0.8","","","","","0.8174393347","0.6892422428","0.8822386923","0.5445729057","","","","","","","","75","K","2","","","19","main_expt",""
"","bandit","99","354884","0.0-60.0-0.0","07827655","wem/bandit_either_3","A13PXTFOXDCKBF","either","1","190","","","","","","","1","0","0","0.8658452863","","0.6","0.4","0.2","0.8","","","","","0.8457625901","0.5544472153","0.8658452863","0.5114357523","","","","","","","","75","K","2","","","20","main_expt",""
"","bandit","100","356731","0.0-61.0-0.0","07827655","wem/bandit_either_3","A13PXTFOXDCKBF","either","1","326","","","","","","","1","0","0","0.8597265301","","0.6","0.4","0.2","0.8","","","","","0.8565453533","0.4705077418","0.8597265301","0.4948626968","","","","","","","","75","K","2","","","21","main_expt",""
"","bandit","101","358641","0.0-62.0-0.0","07827655","wem/bandit_either_3","A13PXTFOXDCKBF","either","1","391","","","","","","","0","1","0","","0.929530396","0.6","0.4","0.2","0.8","0.8821281293","0.5364913494","0.929530396","0.3750889156","","","","","","","","","","","","75","K","2","","","22","main_expt",""
"","bandit","102","360565","0.0-63.0-0.0","07827655","wem/bandit_either_3","A13PXTFOXDCKBF","either","1","403","","","","","","","0","1","0","","0.9149061772","0.6","0.4","0.2","0.8","0.8253896901","0.5450887529","0.9149061772","0.3874093852","","","","","","","","","","","","75","K","2","","","23","main_expt",""
"","bandit","103","362793","0.0-64.0-0.0","07827655","wem/bandit_either_3","A13PXTFOXDCKBF","either","1","709","","","","","","","0","1","0","","0.9389899916","0.6","0.4","0.2","0.8","0.8682133559","0.6013055931","0.9389899916","0.4126546177","","","","","","","","","","","","75","K","2","","","24","main_expt",""
"","bandit","104","364616","0.0-65.0-0.0","07827655","wem/bandit_either_3","A13PXTFOXDCKBF","either","1","305","","","","","","","1","0","0","0.9583062328","","0.6","0.4","0.2","0.8","","","","","0.8186134727","0.7116226269","0.9583062328","0.3871809826","","","","","","","","75","K","2","","","25","main_expt",""
"","bandit","105","366804","0.0-66.0-0.0","07827655","wem/bandit_either_3","A13PXTFOXDCKBF","either","1","658","","","","","","","0","1","0","","0.9349434311","0.6","0.4","0.2","0.8","0.841170918","0.7284905038","0.9349434311","0.4162773602","","","","","","","","","","","","75","K","2","","","26","main_expt",""
"","bandit","106","368588","0.0-67.0-0.0","07827655","wem/bandit_either_3","A13PXTFOXDCKBF","either","1","263","","","","","","","1","0","0","0.9147743466","","0.6","0.4","0.2","0.8","","","","","0.8332298301","0.7007901837","0.9147743466","0.4153433109","","","","","","","","75","K","2","","","27","main_expt",""
"","bandit","107","370483","0.0-68.0-0.0","07827655","wem/bandit_either_3","A13PXTFOXDCKBF","either","1","375","","","","","","","1","0","0","0.8913744663","","0.6","0.4","0.2","0.8","","","","","0.8340804883","0.7197690037","0.8913744663","0.3083156359","","","","","","","","75","K","2","","","28","main_expt",""
"","bandit","108","372314","0.0-69.0-0.0","07827655","wem/bandit_either_3","A13PXTFOXDCKBF","either","1","304","","","","","","","0","1","0","","0.9004815278","0.6","0.4","0.2","0.8","0.8800986549","0.7569205749","0.9004815278","0.4048150761","","","","","","","","","","","","75","K","2","","","29","main_expt",""
"","bandit","109","374339","0.0-70.0-0.0","07827655","wem/bandit_either_3","A13PXTFOXDCKBF","either","1","497","","","","","","","0","1","0","","0.8335499875","0.6","0.4","0.2","0.8","0.800988266","0.7007062976","0.8335499875","0.5604470694","","","","","","","","","","","","75","K","2","","","30","main_expt",""
"","bandit","110","376395","0.0-71.0-0.0","07827655","wem/bandit_either_3","A13PXTFOXDCKBF","either","1","519","","","","","","","0","0","1","","0.7904098286","0.6","0.4","0.2","0.8","0.8092707987","0.6218809145","0.7904098286","0.5114456598","","","","","","","","","","","","75","K","2","","","31","main_expt",""
"","bandit","111","377971","0.0-72.0-0.0","07827655","wem/bandit_either_3","A13PXTFOXDCKBF","either","1","42","","","","","","","0","1","0","","0.5448888872","0.6","0.4","0.2","0.8","0.7600689364","0.5448888872","0.8156470634","0.5195843055","","","","","","","","","","","","74","J","1","","","32","main_expt",""
"","bandit","112","379912","0.0-73.0-0.0","07827655","wem/bandit_either_3","A13PXTFOXDCKBF","either","1","371","","","","","","","0","0","1","0.4396040002","","0.6","0.4","0.2","0.8","","","","","0.7268405739","0.4396040002","0.7458483223","0.4278216128","","","","","","","","74","J","1","","","33","main_expt",""
"","bandit","113","381868","0.0-74.0-0.0","07827655","wem/bandit_either_3","A13PXTFOXDCKBF","either","1","425","","","","","","","0","0","1","","0.7867385379","0.6","0.4","0.2","0.8","0.7867385379","0.3418027302","0.8745519215","0.4581725564","","","","","","","","","","","","72","H","0","img/none_selected.jpg","","34","main_expt",""
"","bandit","114","383689","0.0-75.0-0.0","07827655","wem/bandit_either_3","A13PXTFOXDCKBF","either","1","294","","","","","","","0","0","1","0.5170179058","","0.6","0.4","0.2","0.8","","","","","0.7776722478","0.3770378826","0.8761773117","0.5170179058","","","","","","","","76","L","3","","","35","main_expt",""
"","bandit","115","385738","0.0-76.0-0.0","07827655","wem/bandit_either_3","A13PXTFOXDCKBF","either","1","508","","","","","","","0","0","1","0.5761285305","","0.6","0.4","0.2","0.8","","","","","0.8110731924","0.3264650107","0.8898579413","0.5761285305","","","","","","","","76","L","3","","","36","main_expt",""
"","bandit","116","387591","0.0-77.0-0.0","07827655","wem/bandit_either_3","A13PXTFOXDCKBF","either","1","287","","","","","","","0","1","0","","0.9189960073","0.6","0.4","0.2","0.8","0.8371501114","0.1696248696","0.9189960073","0.5824592389","","","","","","","","","","","","75","K","2","","","37","main_expt",""
"","bandit","117","389554","0.0-78.0-0.0","07827655","wem/bandit_either_3","A13PXTFOXDCKBF","either","1","440","","","","","","","0","1","0","","0.9429067042","0.6","0.4","0.2","0.8","0.801984358","0.3008725236","0.9429067042","0.5039158184","","","","","","","","","","","","75","K","2","","","38","main_expt",""
"","bandit","118","391510","0.0-79.0-0.0","07827655","wem/bandit_either_3","A13PXTFOXDCKBF","either","1","418","","","","","","","1","0","0","0.8860185862","","0.6","0.4","0.2","0.8","","","","","0.836760671","0.3612597963","0.8860185862","0.4906961915","","","","","","","","75","K","2","","","39","main_expt",""
"","bandit","119","393624","0.0-80.0-0.0","07827655","wem/bandit_either_3","A13PXTFOXDCKBF","either","1","592","","","","","","","0","1","0","","0.8958725565","0.6","0.4","0.2","0.8","0.7930168878","0.3316001813","0.8958725565","0.5118773476","","","","","","","","","","","","75","K","2","","","40","main_expt",""
"","bandit","120","395566","0.0-81.0-0.0","07827655","wem/bandit_either_3","A13PXTFOXDCKBF","either","1","409","","","","","","","1","0","0","0.8369757826","","0.6","0.4","0.2","0.8","","","","","0.6758505439","0.251761063","0.8369757826","0.5207000815","","","","","","","","75","K","2","","","41","main_expt",""
"","bandit","121","397446","0.0-82.0-0.0","07827655","wem/bandit_either_3","A13PXTFOXDCKBF","either","1","357","","","","","","","0","1","0","","0.8724413244","0.6","0.4","0.2","0.8","0.669091732","0.3764367217","0.8724413244","0.6208632684","","","","","","","","","","","","75","K","2","","","42","main_expt",""
"","bandit","122","399719","0.0-83.0-0.0","07827655","wem/bandit_either_3","A13PXTFOXDCKBF","either","1","743","","","","","","","1","0","0","0.8721156492","","0.6","0.4","0.2","0.8","","","","","0.5774386383","0.4280411123","0.8721156492","0.6736877605","","","","","","","","75","K","2","","","43","main_expt",""
"","bandit","123","402158","0.0-84.0-0.0","07827655","wem/bandit_either_3","A13PXTFOXDCKBF","either","1","905","","","","","","","0","1","0","","0.874486911","0.6","0.4","0.2","0.8","0.5402750746","0.4250007774","0.874486911","0.6770598463","","","","","","","","","","","","75","K","2","","","44","main_expt",""
"","bandit","124","404047","0.0-85.0-0.0","07827655","wem/bandit_either_3","A13PXTFOXDCKBF","either","1","359","","","","","","","1","0","0","0.7653026016","","0.6","0.4","0.2","0.8","","","","","0.4769525635","0.3964774122","0.7653026016","0.6811336834","","","","","","","","75","K","2","","","45","main_expt",""
"","bandit","125","405815","0.0-86.0-0.0","07827655","wem/bandit_either_3","A13PXTFOXDCKBF","either","1","237","","","","","","","0","0","1","","0.6884850605","0.6","0.4","0.2","0.8","0.460739512","0.3755541509","0.6884850605","0.7409040253","","","","","","","","","","","","75","K","2","","","46","main_expt",""
"","bandit","126","407531","0.0-87.0-0.0","07827655","wem/bandit_either_3","A13PXTFOXDCKBF","either","1","161","","","","","","","0","0","1","","0.3698766084","0.6","0.4","0.2","0.8","0.3953603582","0.3698766084","0.6869729855","0.8602274841","","","","","","","","","","","","74","J","1","","","47","main_expt",""
"","bandit","127","409277","0.0-88.0-0.0","07827655","wem/bandit_either_3","A13PXTFOXDCKBF","either","1","221","","","","","","","0","0","1","0.5194217752","","0.6","0.4","0.2","0.8","","","","","0.5194217752","0.2924141828","0.624749708","0.8947369126","","","","","","","","72","H","0","img/none_selected.jpg","","48","main_expt",""
"","bandit","128","411001","0.0-89.0-0.0","07827655","wem/bandit_either_3","A13PXTFOXDCKBF","either","1","198","","","","","","","0","1","0","","0.9071052574","0.6","0.4","0.2","0.8","0.5015721984","0.2506794134","0.6269608649","0.9071052574","","","","","","","","","","","","76","L","3","","","49","main_expt",""
"","bandit","129","413219","0.0-90.0-0.0","07827655","wem/bandit_either_3","A13PXTFOXDCKBF","either","1","682","","","","","","","0","1","0","","0.8569531155","0.6","0.4","0.2","0.8","0.4427204185","0.2200095001","0.5394470416","0.8569531155","","","","","","","","","","","","76","L","3","","","50","main_expt",""
"","bandit","130","415111","0.0-91.0-0.0","07827655","wem/bandit_either_3","A13PXTFOXDCKBF","either","1","372","","","","","","","0","0","1","0.8728609703","","0.6","0.4","0.2","0.8","","","","","0.5194544998","0.2703780474","0.4991806479","0.8728609703","","","","","","","","76","L","3","","","51","main_expt",""
"","bandit","131","416661","0.0-92.0-0.0","07827655","wem/bandit_either_3","A13PXTFOXDCKBF","either","1","25","","","","","","","0","1","0","","0.5431464126","0.6","0.4","0.2","0.8","0.4420680866","0.3215640211","0.5431464126","0.902184381","","","","","","","","","","","","75","K","2","","","52","main_expt",""
"","bandit","132","418444","0.0-93.0-0.0","07827655","wem/bandit_either_3","A13PXTFOXDCKBF","either","1","261","","","","","","","0","0","1","","0.4799783957","0.6","0.4","0.2","0.8","0.5541791803","0.2918797996","0.4799783957","0.8975054296","","","","","","","","","","","","75","K","2","","","53","main_expt",""
"","bandit","133","419983","0.0-94.0-0.0","07827655","wem/bandit_either_3","A13PXTFOXDCKBF","either","1","1","","","","","","","0","1","0","","0.2432815539","0.6","0.4","0.2","0.8","0.6187664305","0.2432815539","0.3946877269","0.9436546011","","","","","","","","","","","","74","J","1","","","54","main_expt",""
"","bandit","134","421876","0.0-95.0-0.0","07827655","wem/bandit_either_3","A13PXTFOXDCKBF","either","1","367","","","","","","","0","0","1","","0.1993500609","0.6","0.4","0.2","0.8","0.538030076","0.1993500609","0.3892466866","0.9411334538","","","","","","","","","","","","74","J","1","","","55","main_expt",""
"","bandit","135","423936","0.0-96.0-0.0","07827655","wem/bandit_either_3","A13PXTFOXDCKBF","either","1","540","","","","","","","1","0","0","0.5137881872","","0.6","0.4","0.2","0.8","","","","","0.5137881872","0.1832364248","0.347268188","0.862285227","","","","","","","","72","H","0","img/none_selected.jpg","","56","main_expt",""
"","bandit","136","425893","0.0-97.0-0.0","07827655","wem/bandit_either_3","A13PXTFOXDCKBF","either","1","435","","","","","","","1","0","0","0.6274604021","","0.6","0.4","0.2","0.8","","","","","0.6274604021","0.1703919496","0.3462231845","0.9034803314","","","","","","","","72","H","0","img/none_selected.jpg","","57","main_expt",""
"","bandit","137","427858","0.0-98.0-0.0","07827655","wem/bandit_either_3","A13PXTFOXDCKBF","either","1","438","","","","","","","0","0","1","0.5636132077","","0.6","0.4","0.2","0.8","","","","","0.5636132077","0.2146973212","0.3707442777","0.9062052911","","","","","","","","72","H","0","img/none_selected.jpg","","58","main_expt",""
"","bandit","138","429696","0.0-99.0-0.0","07827655","wem/bandit_either_3","A13PXTFOXDCKBF","either","1","309","","","","","","","1","0","0","0.9169546289","","0.6","0.4","0.2","0.8","","","","","0.6555757088","0.2118107272","0.4530366532","0.9169546289","","","","","","","","76","L","3","","","59","main_expt",""
"","bandit","139","431777","0.0-100.0-0.0","07827655","wem/bandit_either_3","A13PXTFOXDCKBF","either","1","560","","","","","","","0","0","1","","0.9048679239","0.6","0.4","0.2","0.8","0.6555481193","0.2096036334","0.4335409142","0.9048679239","","","","","","","","","","","","76","L","3","","","60","main_expt",""
"","bandit","140","433566","0.0-101.0-0.0","07827655","wem/bandit_either_3","A13PXTFOXDCKBF","either","1","259","","","","","","","0","1","0","","0.3601573371","0.6","0.4","0.2","0.8","0.6988977931","0.1985607356","0.3601573371","0.9346572725","","","","","","","","","","","","75","K","2","","","61","main_expt",""
"","bandit","141","435396","0.0-102.0-0.0","07827655","wem/bandit_either_3","A13PXTFOXDCKBF","either","1","303","","","","","","","0","1","0","","0.3187004912","0.6","0.4","0.2","0.8","0.6124712875","0.2352246004","0.3187004912","0.9332729597","","","","","","","","","","","","75","K","2","","","62","main_expt",""
"","bandit","142","437444","0.0-103.0-0.0","07827655","wem/bandit_either_3","A13PXTFOXDCKBF","either","1","515","","","","","","","0","0","1","","0.331276396","0.6","0.4","0.2","0.8","0.4881994696","0.1989126294","0.331276396","0.9300142507","","","","","","","","","","","","75","K","2","","","63","main_expt",""
"","bandit","143","439449","0.0-104.0-0.0","07827655","wem/bandit_either_3","A13PXTFOXDCKBF","either","1","470","","","","","","","0","0","1","","0.2231035509","0.6","0.4","0.2","0.8","0.5007509184","0.2231035509","0.3984677","0.8992917639","","","","","","","","","","","","74","J","1","","","64","main_expt",""
"","bandit","144","441467","0.0-105.0-0.0","07827655","wem/bandit_either_3","A13PXTFOXDCKBF","either","1","490","","","","","","","0","0","1","","0.6077525222","0.6","0.4","0.2","0.8","0.6077525222","0.174077904","0.3012021372","0.7939475476","","","","","","","","","","","","72","H","0","img/none_selected.jpg","","65","main_expt",""
"","bandit","145","443221","0.0-106.0-0.0","07827655","wem/bandit_either_3","A13PXTFOXDCKBF","either","1","228","","","","","","","1","0","0","0.7848839068","","0.6","0.4","0.2","0.8","","","","","0.4876759876","0.1505104035","0.2848395029","0.7848839068","","","","","","","","76","L","3","","","66","main_expt",""
"","bandit","146","445425","0.0-107.0-0.0","07827655","wem/bandit_either_3","A13PXTFOXDCKBF","either","1","671","","","","","","","1","0","0","0.7712869283","","0.6","0.4","0.2","0.8","","","","","0.4705728971","0.1706094741","0.2908363747","0.7712869283","","","","","","","","76","L","3","","","67","main_expt",""
"","bandit","147","447629","0.0-108.0-0.0","07827655","wem/bandit_either_3","A13PXTFOXDCKBF","either","1","677","","","","","","","0","1","0","","0.7426915226","0.6","0.4","0.2","0.8","0.5822594153","0.193375558","0.3226378352","0.7426915226","","","","","","","","","","","","76","L","3","","","68","main_expt",""
"","bandit","148","450453","0.0-109.0-0.0","07827655","wem/bandit_either_3","A13PXTFOXDCKBF","either","1","1293","","","","","","","0","1","0","","0.592712881","0.6","0.4","0.2","0.8","0.6189715015","0.226811003","0.4490581071","0.592712881","","","","","","","","","","","","76","L","3","","","69","main_expt",""
"","bandit","149","455612","0.0-110.0-0.0","07827655","wem/bandit_either_3","A13PXTFOXDCKBF","either","1","3636","","","","","","","0","0","1","","0.6587085967","0.6","0.4","0.2","0.8","0.5307799745","0.191142909","0.42365523","0.6587085967","","","","","","","","","","","","76","L","3","","","70","main_expt",""
"","bandit","150","457645","0.0-111.0-0.0","07827655","wem/bandit_either_3","A13PXTFOXDCKBF","either","1","504","","","","","","","0","0","1","","0.427101634","0.6","0.4","0.2","0.8","0.5205551237","0.2371486809","0.427101634","0.7562029562","","","","","","","","","","","","75","K","2","","","71","main_expt",""
"","bandit","151","459475","0.0-112.0-0.0","07827655","wem/bandit_either_3","A13PXTFOXDCKBF","either","1","299","","","","","","","0","0","1","","0.2602117984","0.6","0.4","0.2","0.8","0.5913901284","0.2602117984","0.5387899421","0.670676276","","","","","","","","","","","","74","J","1","","","72","main_expt",""
"","bandit","152","461247","0.0-113.0-0.0","07827655","wem/bandit_either_3","A13PXTFOXDCKBF","either","1","247","","","","","","","0","1","0","","0.7127465592","0.6","0.4","0.2","0.8","0.7127465592","0.1837165363","0.4931252492","0.6870219419","","","","","","","","","","","","72","H","0","img/none_selected.jpg","","73","main_expt",""
"","bandit","153","464511","0.0-114.0-0.0","07827655","wem/bandit_either_3","A13PXTFOXDCKBF","either","1","1725","","","","","","","0","0","1","","0.7804212289","0.6","0.4","0.2","0.8","0.7804212289","0.2032334464","0.3888626504","0.582898469","","","","","","","","","","","","72","H","0","img/none_selected.jpg","","74","main_expt",""
"","bandit","154","466215","0.0-115.0-0.0","07827655","wem/bandit_either_3","A13PXTFOXDCKBF","either","1","185","","","","","","","1","0","0","0.6452442043","","0.6","0.4","0.2","0.8","","","","","0.7966502287","0.2782751631","0.3866429177","0.6452442043","","","","","","","","76","L","3","","","75","main_expt",""
"","bandit","155","468942","0.0-116.0-0.0","07827655","wem/bandit_either_3","A13PXTFOXDCKBF","either","1","1203","","","","","","","1","0","0","0.7031137023","","0.6","0.4","0.2","0.8","","","","","0.7775959854","0.3318782676","0.3948468247","0.7031137023","","","","","","","","76","L","3","","","76","main_expt",""
"","bandit","156","472606","0.0-117.0-0.0","07827655","wem/bandit_either_3","A13PXTFOXDCKBF","either","1","2135","","","","","","","1","0","0","0.6096498107","","0.6","0.4","0.2","0.8","","","","","0.8523583745","0.312607664","0.4853082722","0.6096498107","","","","","","","","76","L","3","","","77","main_expt",""
"","bandit","157","474672","0.0-118.0-0.0","07827655","wem/bandit_either_3","A13PXTFOXDCKBF","either","1","530","","","","","","","1","0","0","0.532302087","","0.6","0.4","0.2","0.8","","","","","0.7707034136","0.3250695504","0.4971609959","0.532302087","","","","","","","","76","L","3","","","78","main_expt",""
"","bandit","158","477079","0.0-119.0-0.0","07827655","wem/bandit_either_3","A13PXTFOXDCKBF","either","1","867","","","","","","","0","0","1","0.4448734945","","0.6","0.4","0.2","0.8","","","","","0.7919080975","0.277144637","0.5349041547","0.4448734945","","","","","","","","76","L","3","","","79","main_expt",""
"","bandit","159","478658","0.0-120.0-0.0","07827655","wem/bandit_either_3","A13PXTFOXDCKBF","either","1","46","","","","","","","0","0","1","0.293018971","","0.6","0.4","0.2","0.8","","","","","0.8107458935","0.293018971","0.4713204996","0.34513516","","","","","","","","74","J","1","","","80","main_expt",""
"","bandit","160","480721","0.0-121.0-0.0","07827655","wem/bandit_either_3","A13PXTFOXDCKBF","either","1","543","","","","","","","0","0","1","","0.4132476049","0.6","0.4","0.2","0.8","0.7851591746","0.2730851157","0.4132476049","0.406584365","","","","","","","","","","","","75","K","2","","","81","main_expt",""
"","bandit","161","482336","0.0-122.0-0.0","07827655","wem/bandit_either_3","A13PXTFOXDCKBF","either","1","88","","","","","","","0","1","0","","0.8067558171","0.6","0.4","0.2","0.8","0.8067558171","0.2436011542","0.4640808921","0.5068312928","","","","","","","","","","","","72","H","0","img/none_selected.jpg","","82","main_expt",""
"","bandit","162","484620","0.0-123.0-0.0","07827655","wem/bandit_either_3","A13PXTFOXDCKBF","either","1","756","","","","","","","1","0","0","0.7777816444","","0.6","0.4","0.2","0.8","","","","","0.7777816444","0.2009218657","0.442115463","0.5209063211","","","","","","","","72","H","0","img/none_selected.jpg","","83","main_expt",""
"","bandit","163","486840","0.0-124.0-0.0","07827655","wem/bandit_either_3","A13PXTFOXDCKBF","either","1","690","","","","","","","0","0","1","","0.7801041195","0.6","0.4","0.2","0.8","0.7801041195","0.1550904625","0.5117806844","0.6221591745","","","","","","","","","","","","72","H","0","img/none_selected.jpg","","84","main_expt",""
"","bandit","164","488546","0.0-125.0-0.0","07827655","wem/bandit_either_3","A13PXTFOXDCKBF","either","1","185","","","","","","","0","0","1","0.6939346182","","0.6","0.4","0.2","0.8","","","","","0.7593249252","0.1193398435","0.5309627618","0.6939346182","","","","","","","","76","L","3","","","85","main_expt",""
"","bandit","165","490458","0.0-126.0-0.0","07827655","wem/bandit_either_3","A13PXTFOXDCKBF","either","1","391","","","","","","","0","1","0","","0.7911667705","0.6","0.4","0.2","0.8","0.7911667705","0.1398572341","0.5482659382","0.7533471596","","","","","","","","","","","","72","H","0","img/none_selected.jpg","","86","main_expt",""
"","bandit","166","493081","0.0-127.0-0.0","07827655","wem/bandit_either_3","A13PXTFOXDCKBF","either","1","1090","","","","","","","1","0","0","0.8480662183","","0.6","0.4","0.2","0.8","","","","","0.8480662183","0.1941505275","0.4772076429","0.8040573679","","","","","","","","72","H","0","img/none_selected.jpg","","87","main_expt",""
"","bandit","167","495599","0.0-128.0-0.0","07827655","wem/bandit_either_3","A13PXTFOXDCKBF","either","1","990","","","","","","","0","0","1","0.8110462569","","0.6","0.4","0.2","0.8","","","","","0.8110462569","0.09645570925","0.5202977678","0.7800800897","","","","","","","","72","H","0","img/none_selected.jpg","","88","main_expt",""
"","bandit","168","497526","0.0-129.0-0.0","07827655","wem/bandit_either_3","A13PXTFOXDCKBF","either","1","395","","","","","","","1","0","0","0.1304326216","","0.6","0.4","0.2","0.8","","","","","0.7924414871","0.1304326216","0.4970482359","0.7329239748","","","","","","","","74","J","1","","","89","main_expt",""
"","bandit","169","499850","0.0-130.0-0.0","07827655","wem/bandit_either_3","A13PXTFOXDCKBF","either","1","797","","","","","","","0","0","1","0.1410434261","","0.6","0.4","0.2","0.8","","","","","0.8190855249","0.1410434261","0.4671205494","0.7202813078","","","","","","","","74","J","1","","","90","main_expt",""
"","bandit","170","501541","0.0-131.0-0.0","07827655","wem/bandit_either_3","A13PXTFOXDCKBF","either","1","157","","","","","","","0","0","1","0.5518401665","","0.6","0.4","0.2","0.8","","","","","0.858270253","0.1277095213","0.5518401665","0.698586111","","","","","","","","75","K","2","","","91","main_expt",""
"","bandit","171","503292","0.0-132.0-0.0","07827655","wem/bandit_either_3","A13PXTFOXDCKBF","either","1","228","","","","","","","0","0","1","","0.6054304462","0.6","0.4","0.2","0.8","0.8583259383","0.08596821216","0.620788192","0.6054304462","","","","","","","","","","","","76","L","3","","","92","main_expt",""
"","bandit","172","504919","0.0-133.0-0.0","07827655","wem/bandit_either_3","A13PXTFOXDCKBF","either","1","95","","","","","","","0","1","0","","0.8335107661","0.6","0.4","0.2","0.8","0.8335107661","0.05652587691","0.679669404","0.6829204303","","","","","","","","","","","","72","H","0","img/none_selected.jpg","","93","main_expt",""
"","bandit","173","506981","0.0-134.0-0.0","07827655","wem/bandit_either_3","A13PXTFOXDCKBF","either","1","533","","","","","","","1","0","0","0.8849423118","","0.6","0.4","0.2","0.8","","","","","0.8849423118","0.07490457358","0.6726581754","0.6084783934","","","","","","","","72","H","0","img/none_selected.jpg","","94","main_expt",""
"","bandit","174","510458","0.0-135.0-0.0","07827655","wem/bandit_either_3","A13PXTFOXDCKBF","either","1","1948","","","","","","","1","0","0","0.9175662658","","0.6","0.4","0.2","0.8","","","","","0.9175662658","0.05201682933","0.5983950962","0.51962455","","","","","","","","72","H","0","img/none_selected.jpg","","95","main_expt",""
"","bandit","175","512493","0.0-136.0-0.0","07827655","wem/bandit_either_3","A13PXTFOXDCKBF","either","1","511","","","","","","","1","0","0","0.8726153548","","0.6","0.4","0.2","0.8","","","","","0.8726153548","0.0353667714","0.6316158747","0.453067158","","","","","","","","72","H","0","img/none_selected.jpg","","96","main_expt",""
"","bandit","176","515241","0.0-137.0-0.0","07827655","wem/bandit_either_3","A13PXTFOXDCKBF","either","1","1208","","","","","","","1","0","0","0.7260562137","","0.6","0.4","0.2","0.8","","","","","0.7260562137","0.04301306848","0.6660601513","0.4090095009","","","","","","","","72","H","0","img/none_selected.jpg","","97","main_expt",""
"","bandit","177","517443","0.0-138.0-0.0","07827655","wem/bandit_either_3","A13PXTFOXDCKBF","either","1","667","","","","","","","0","1","0","","0.6506148609","0.6","0.4","0.2","0.8","0.6506148609","0.03950067624","0.6185462561","0.360727585","","","","","","","","","","","","72","H","0","img/none_selected.jpg","","98","main_expt",""
"","bandit","178","519438","0.0-139.0-0.0","07827655","wem/bandit_either_3","A13PXTFOXDCKBF","either","1","460","","","","","","","0","0","1","0.5816342488","","0.6","0.4","0.2","0.8","","","","","0.5816342488","0.03156699585","0.581128502","0.3351327477","","","","","","","","72","H","0","img/none_selected.jpg","","99","main_expt",""
"","bandit","179","521037","0.0-140.0-0.0","07827655","wem/bandit_either_3","A13PXTFOXDCKBF","either","1","66","","","","","","","0","0","1","","0.0248161238","0.6","0.4","0.2","0.8","0.5521464449","0.0248161238","0.479775063","0.3491912274","","","","","","","","","","","","74","J","1","","","100","main_expt",""
"","bandit","180","523517","0.0-141.0-0.0","07827655","wem/bandit_either_3","A13PXTFOXDCKBF","either","1","958","","","","","","","1","0","0","0.5114647241","","0.6","0.4","0.2","0.8","","","","","0.6063232436","0.02218075004","0.5114647241","0.4105375765","","","","","","","","75","K","2","","","101","main_expt",""
"","bandit","181","526810","0.0-142.0-0.0","07827655","wem/bandit_either_3","A13PXTFOXDCKBF","either","1","1774","","","","","","","0","1","0","","0.4718740674","0.6","0.4","0.2","0.8","0.5636213764","0.01802152149","0.4718740674","0.438632671","","","","","","","","","","","","75","K","2","","","102","main_expt",""
"","bandit","182","528719","0.0-143.0-0.0","07827655","wem/bandit_either_3","A13PXTFOXDCKBF","either","1","371","","","","","","","0","1","0","","0.5245129891","0.6","0.4","0.2","0.8","0.5370473259","0.01877214671","0.5245129891","0.372838406","","","","","","","","","","","","75","K","2","","","103","main_expt",""
"","bandit","183","531049","0.0-144.0-0.0","07827655","wem/bandit_either_3","A13PXTFOXDCKBF","either","1","801","","","","","","","0","0","1","0.5170751474","","0.6","0.4","0.2","0.8","","","","","0.549647281","0.01556743346","0.5170751474","0.3057692375","","","","","","","","75","K","2","","","104","main_expt",""
"","bandit","184","532833","0.0-145.0-0.0","07827655","wem/bandit_either_3","A13PXTFOXDCKBF","either","1","250","","","","","","","1","0","0","0.37369274","","0.6","0.4","0.2","0.8","","","","","0.4225976111","0.03717147126","0.472330124","0.37369274","","","","","","","","76","L","3","","","105","main_expt",""
"","bandit","185","536093","0.0-146.0-0.0","07827655","wem/bandit_either_3","A13PXTFOXDCKBF","either","1","1725","","","","","","","0","0","1","0.3179799449","","0.6","0.4","0.2","0.8","","","","","0.5005163425","0.07687033395","0.568133852","0.3179799449","","","","","","","","76","L","3","","","106","main_expt",""
"","bandit","186","537677","0.0-147.0-0.0","07827655","wem/bandit_either_3","A13PXTFOXDCKBF","either","1","52","","","","","","","0","0","1","","0.3995396385","0.6","0.4","0.2","0.8","0.3995396385","0.07659049968","0.536018559","0.3053765494","","","","","","","","","","","","72","H","0","img/none_selected.jpg","","107","main_expt",""
"","bandit","187","539216","0.0-148.0-0.0","07827655","wem/bandit_either_3","A13PXTFOXDCKBF","either","1","13","","","","","","","0","0","1","0.07827602418","","0.6","0.4","0.2","0.8","","","","","0.3855926336","0.07827602418","0.3880888981","0.2732860947","","","","","","","","74","J","1","","","108","main_expt",""
"","bandit","188","541049","0.0-149.0-0.0","07827655","wem/bandit_either_3","A13PXTFOXDCKBF","either","1","291","","","","","","","0","0","1","","0.3675045314","0.6","0.4","0.2","0.8","0.3059937163","0.1352418701","0.3675045314","0.2624197952","","","","","","","","","","","","75","K","2","","","109","main_expt",""
"","bandit","189","542614","0.0-150.0-0.0","07827655","wem/bandit_either_3","A13PXTFOXDCKBF","either","1","38","","","","","","","0","0","1","0.3303210632","","0.6","0.4","0.2","0.8","","","","","0.2752892785","0.1705666919","0.4560700489","0.3303210632","","","","","","","","76","L","3","","","110","main_expt",""
"","bandit","190","544341","0.0-151.0-0.0","07827655","wem/bandit_either_3","A13PXTFOXDCKBF","either","1","204","","","","","","","0","0","1","0.3038626008","","0.6","0.4","0.2","0.8","","","","","0.3038626008","0.2202970635","0.5366389876","0.3541452024","","","","","","","","72","H","0","img/none_selected.jpg","","111","main_expt",""
"","bandit","191","546298","0.0-152.0-0.0","07827655","wem/bandit_either_3","A13PXTFOXDCKBF","either","1","431","","","","","","","0","0","1","","0.2368742277","0.6","0.4","0.2","0.8","0.2308866464","0.2368742277","0.5742054707","0.4468573219","","","","","","","","","","","","74","J","1","","","112","main_expt",""
"","bandit","192","547985","0.0-153.0-0.0","07827655","wem/bandit_either_3","A13PXTFOXDCKBF","either","1","154","","","","","","","0","0","1","","0.6014260319","0.6","0.4","0.2","0.8","0.2420052043","0.2487241586","0.6014260319","0.5163231944","","","","","","","","","","","","75","K","2","","","113","main_expt",""
"","bandit","193","550100","0.0-154.0-0.0","07827655","wem/bandit_either_3","A13PXTFOXDCKBF","either","1","590","","","","","","","0","0","1","0.4064640458","","0.6","0.4","0.2","0.8","","","","","0.3277817495","0.238824581","0.5398035654","0.4064640458","","","","","","","","76","L","3","","","114","main_expt",""
"","bandit","194","552057","0.0-155.0-0.0","07827655","wem/bandit_either_3","A13PXTFOXDCKBF","either","1","438","","","","","","","0","0","1","","0.3280884562","0.6","0.4","0.2","0.8","0.3280884562","0.1480638281","0.5008208772","0.4085425191","","","","","","","","","","","","72","H","0","img/none_selected.jpg","","115","main_expt",""
"","bandit","195","553933","0.0-156.0-0.0","07827655","wem/bandit_either_3","A13PXTFOXDCKBF","either","1","345","","","","","","","0","0","1","","0.1246447603","0.6","0.4","0.2","0.8","0.4137256642","0.1246447603","0.4200837231","0.4412864427","","","","","","","","","","","","74","J","1","","","116","main_expt",""
"","bandit","196","555797","0.0-157.0-0.0","07827655","wem/bandit_either_3","A13PXTFOXDCKBF","either","1","338","","","","","","","0","1","0","","0.4094987027","0.6","0.4","0.2","0.8","0.372751341","0.1308085784","0.4094987027","0.5188885271","","","","","","","","","","","","75","K","2","","","117","main_expt",""
"","bandit","197","557689","0.0-158.0-0.0","07827655","wem/bandit_either_3","A13PXTFOXDCKBF","either","1","364","","","","","","","0","0","1","0.3862907493","","0.6","0.4","0.2","0.8","","","","","0.4225631273","0.09076242324","0.3862907493","0.5728151575","","","","","","","","75","K","2","","","118","main_expt",""
"","bandit","198","559543","0.0-159.0-0.0","07827655","wem/bandit_either_3","A13PXTFOXDCKBF","either","1","321","","","","","","","0","0","1","","0.09057925276","0.6","0.4","0.2","0.8","0.4188482812","0.09057925276","0.4437318585","0.5065624602","","","","","","","","","","","","74","J","1","","","119","main_expt",""
"","bandit","199","561157","0.0-160.0-0.0","07827655","wem/bandit_either_3","A13PXTFOXDCKBF","either","1","83","","","","","","","1","0","0","0.3729077829","","0.6","0.4","0.2","0.8","","","","","0.3729077829","0.1288926122","0.293469011","0.4064427813","","","","","","","","72","H","0","img/none_selected.jpg","","120","main_expt",""
"","bandit","200","563090","0.0-161.0-0.0","07827655","wem/bandit_either_3","A13PXTFOXDCKBF","either","1","401","","","","","","","0","0","1","0.3817262037","","0.6","0.4","0.2","0.8","","","","","0.3817262037","0.1479701512","0.2141601759","0.3948988447","","","","","","","","72","H","0","img/none_selected.jpg","","121","main_expt",""
"","bandit","201","564900","0.0-162.0-0.0","07827655","wem/bandit_either_3","A13PXTFOXDCKBF","either","1","280","","","","","","","0","0","1","","0.3537210734","0.6","0.4","0.2","0.8","0.3537210734","0.1663524813","0.2594293103","0.316823658","","","","","","","","","","","","72","H","0","img/none_selected.jpg","","122","main_expt",""
"","bandit","202","566827","0.0-163.0-0.0","07827655","wem/bandit_either_3","A13PXTFOXDCKBF","either","1","390","","","","","","","1","0","0","0.3045978244","","0.6","0.4","0.2","0.8","","","","","0.3633727708","0.1993917655","0.1519240937","0.3045978244","","","","","","","","76","L","3","","","123","main_expt",""
"","bandit","203","569062","0.0-164.0-0.0","07827655","wem/bandit_either_3","A13PXTFOXDCKBF","either","1","703","","","","","","","0","0","1","0.2389028675","","0.6","0.4","0.2","0.8","","","","","0.4139908316","0.2948689786","0.2311656533","0.2389028675","","","","","","","","76","L","3","","","124","main_expt",""
"","bandit","204","571687","0.0-165.0-0.0","07827655","wem/bandit_either_3","A13PXTFOXDCKBF","either","1","1088","","","","","","","0","0","1","0.2166803268","","0.6","0.4","0.2","0.8","","","","","0.3619800754","0.4054398129","0.1956748967","0.2166803268","","","","","","","","76","L","3","","","125","main_expt",""
"","bandit","205","573248","0.0-166.0-0.0","07827655","wem/bandit_either_3","A13PXTFOXDCKBF","either","1","34","","","","","","","0","0","1","","0.1419383156","0.6","0.4","0.2","0.8","0.353362548","0.5337661481","0.1419383156","0.1613674106","","","","","","","","","","","","75","K","2","","","126","main_expt",""
"","bandit","206","575613","0.0-167.0-0.0","07827655","wem/bandit_either_3","A13PXTFOXDCKBF","either","1","842","","","","","","","0","0","1","","0.5510518781","0.6","0.4","0.2","0.8","0.2888217425","0.5510518781","0.1768105291","0.1682412955","","","","","","","","","","","","74","J","1","","","127","main_expt",""
"","bandit","207","577491","0.0-168.0-0.0","07827655","wem/bandit_either_3","A13PXTFOXDCKBF","either","1","342","","","","","","","0","0","1","0.1655910943","","0.6","0.4","0.2","0.8","","","","","0.3131893798","0.4746642732","0.1187699492","0.1655910943","","","","","","","","76","L","3","","","128","main_expt",""
"","bandit","208","579201","0.0-169.0-0.0","07827655","wem/bandit_either_3","A13PXTFOXDCKBF","either","1","187","","","","","","","0","0","1","0.2826861836","","0.6","0.4","0.2","0.8","","","","","0.2826861836","0.5345142674","0.1860330609","0.1845506081","","","","","","","","72","H","0","img/none_selected.jpg","","129","main_expt",""
"","bandit","209","581687","0.0-170.0-0.0","07827655","wem/bandit_either_3","A13PXTFOXDCKBF","either","1","952","","","","","","","1","0","0","0.3434973012","","0.6","0.4","0.2","0.8","","","","","0.3434973012","0.6617219445","0.09722607165","0.1548240476","","","","","","","","72","H","0","img/none_selected.jpg","","130","main_expt",""
"","bandit","210","583595","0.0-171.0-0.0","07827655","wem/bandit_either_3","A13PXTFOXDCKBF","either","1","379","","","","","","","0","0","1","0.3848082556","","0.6","0.4","0.2","0.8","","","","","0.3848082556","0.6183560712","0.05626421391","0.1503989","","","","","","","","72","H","0","img/none_selected.jpg","","131","main_expt",""
"","bandit","211","585389","0.0-172.0-0.0","07827655","wem/bandit_either_3","A13PXTFOXDCKBF","either","1","259","","","","","","","0","0","1","0.1199593994","","0.6","0.4","0.2","0.8","","","","","0.4140069858","0.7009512511","0.1149854728","0.1199593994","","","","","","","","76","L","3","","","132","main_expt",""
"","bandit","212","587641","0.0-173.0-0.0","07827655","wem/bandit_either_3","A13PXTFOXDCKBF","either","1","717","","","","","","","0","0","1","","0.1698175541","0.6","0.4","0.2","0.8","0.3745017877","0.5838974895","0.1698175541","0.1518383839","","","","","","","","","","","","75","K","2","","","133","main_expt",""
"","bandit","213","589589","0.0-174.0-0.0","07827655","wem/bandit_either_3","A13PXTFOXDCKBF","either","1","422","","","","","","","0","1","0","","0.6628563986","0.6","0.4","0.2","0.8","0.3918835711","0.6628563986","0.1925371395","0.1855528241","","","","","","","","","","","","74","J","1","","","134","main_expt",""
"","bandit","214","591699","0.0-175.0-0.0","07827655","wem/bandit_either_3","A13PXTFOXDCKBF","either","1","580","","","","","","","0","0","1","0.5610912218","","0.6","0.4","0.2","0.8","","","","","0.3405764209","0.5610912218","0.246136332","0.2187769305","","","","","","","","74","J","1","","","135","main_expt",""
"","bandit","215","593389","0.0-176.0-0.0","07827655","wem/bandit_either_3","A13PXTFOXDCKBF","either","1","165","","","","","","","0","0","1","","0.4155430462","0.6","0.4","0.2","0.8","0.4155430462","0.4834649218","0.2277518718","0.2001534018","","","","","","","","","","","","72","H","0","img/none_selected.jpg","","136","main_expt",""
"","bandit","216","595098","0.0-177.0-0.0","07827655","wem/bandit_either_3","A13PXTFOXDCKBF","either","1","189","","","","","","","0","0","1","0.176995917","","0.6","0.4","0.2","0.8","","","","","0.3389252929","0.513072369","0.252962458","0.176995917","","","","","","","","76","L","3","","","137","main_expt",""
"","bandit","217","596945","0.0-178.0-0.0","07827655","wem/bandit_either_3","A13PXTFOXDCKBF","either","1","320","","","","","","","0","0","1","","0.3018696236","0.6","0.4","0.2","0.8","0.2698753193","0.5502636267","0.3018696236","0.1460019238","","","","","","","","","","","","75","K","2","","","138","main_expt",""
"","bandit","218","598860","0.0-179.0-0.0","07827655","wem/bandit_either_3","A13PXTFOXDCKBF","either","1","386","","","","","","","1","0","0","0.06707115951","","0.6","0.4","0.2","0.8","","","","","0.2821570394","0.4564922144","0.347353107","0.06707115951","","","","","","","","76","L","3","","","139","main_expt",""
"","bandit","219","600877","0.0-180.0-0.0","07827655","wem/bandit_either_3","A13PXTFOXDCKBF","either","1","494","","","","","","","0","0","1","0.1071331831","","0.6","0.4","0.2","0.8","","","","","0.3577533322","0.4116013625","0.2477375586","0.1071331831","","","","","","","","76","L","3","","","140","main_expt",""
"","bandit","220","602616","0.0-181.0-0.0","07827655","wem/bandit_either_3","A13PXTFOXDCKBF","either","1","222","","","","","","","0","0","1","0.4250900652","","0.6","0.4","0.2","0.8","","","","","0.4250900652","0.4498847811","0.2880826197","0.1224459691","","","","","","","","72","H","0","img/none_selected.jpg","","141","main_expt",""
"","bandit","221","604425","0.0-182.0-0.0","07827655","wem/bandit_either_3","A13PXTFOXDCKBF","either","1","277","","","","","","","0","0","1","0.3451055681","","0.6","0.4","0.2","0.8","","","","","0.3451055681","0.4822150968","0.2287108423","0.1127900777","","","","","","","","72","H","0","img/none_selected.jpg","","142","main_expt",""
"","bandit","222","606164","0.0-183.0-0.0","07827655","wem/bandit_either_3","A13PXTFOXDCKBF","either","1","208","","","","","","","0","0","1","","0.513506041","0.6","0.4","0.2","0.8","0.4661026996","0.513506041","0.2096850542","0.1736101882","","","","","","","","","","","","74","J","1","","","143","main_expt",""
"","bandit","223","607949","0.0-184.0-0.0","07827655","wem/bandit_either_3","A13PXTFOXDCKBF","either","1","262","","","","","","","0","0","1","","0.2214165798","0.6","0.4","0.2","0.8","0.4683168179","0.556822441","0.2214165798","0.1231714597","","","","","","","","","","","","75","K","2","","","144","main_expt",""
"","bandit","224","609593","0.0-185.0-0.0","07827655","wem/bandit_either_3","A13PXTFOXDCKBF","either","1","117","","","","","","","1","0","0","0.5633269006","","0.6","0.4","0.2","0.8","","","","","0.448697065","0.5633269006","0.2412424024","0.10514291","","","","","","","","74","J","1","","","145","main_expt",""
"","bandit","225","611409","0.0-186.0-0.0","07827655","wem/bandit_either_3","A13PXTFOXDCKBF","either","1","289","","","","","","","0","1","0","","0.6482805244","0.6","0.4","0.2","0.8","0.4560677512","0.6482805244","0.1841611904","0.0972381369","","","","","","","","","","","","74","J","1","","","146","main_expt",""
"","bandit","226","612962","0.0-187.0-0.0","07827655","wem/bandit_either_3","A13PXTFOXDCKBF","either","1","25","","","","","","","0","0","1","","0.6036290043","0.6","0.4","0.2","0.8","0.513472809","0.6036290043","0.1577922033","0.1897119627","","","","","","","","","","","","74","J","1","","","147","main_expt",""
"","bandit","227","614780","0.0-188.0-0.0","07827655","wem/bandit_either_3","A13PXTFOXDCKBF","either","1","288","","","","","","","0","0","1","0.6110248825","","0.6","0.4","0.2","0.8","","","","","0.3820674583","0.6110248825","0.1663963597","0.1759094881","","","","","","","","74","J","1","","","148","main_expt",""
"","bandit","228","616332","0.0-189.0-0.0","07827655","wem/bandit_either_3","A13PXTFOXDCKBF","either","1","31","","","","","","","1","0","0","0.6453676348","","0.6","0.4","0.2","0.8","","","","","0.3116557105","0.6453676348","0.319747154","0.2204336569","","","","","","","","74","J","1","","","149","main_expt",""
"","bandit","229","618407","0.0-190.0-0.0","07827655","wem/bandit_either_3","A13PXTFOXDCKBF","either","1","550","","","","","","","0","1","0","","0.66235511","0.6","0.4","0.2","0.8","0.3039338698","0.66235511","0.5410110608","0.2328853871","","","","","","","","","","","","74","J","1","","","150","main_expt",""
"","bandit","230","620227","0.0-191.0-0.0","07827655","wem/bandit_either_3","A13PXTFOXDCKBF","either","1","291","","","","","","","1","0","0","0.5547575852","","0.6","0.4","0.2","0.8","","","","","0.3092958796","0.5547575852","0.5584745132","0.2652525627","","","","","","","","74","J","1","","","151","main_expt",""
"","bandit","231","622200","0.0-192.0-0.0","07827655","wem/bandit_either_3","A13PXTFOXDCKBF","either","1","446","","","","","","","1","0","0","0.5223098228","","0.6","0.4","0.2","0.8","","","","","0.3097370874","0.5223098228","0.5709378499","0.2654363334","","","","","","","","74","J","1","","","152","main_expt",""
"","bandit","232","624544","0.0-193.0-0.0","07827655","wem/bandit_either_3","A13PXTFOXDCKBF","either","1","817","","","","","","","0","0","1","0.5137303037","","0.6","0.4","0.2","0.8","","","","","0.2955649657","0.5137303037","0.6314515046","0.3505589273","","","","","","","","74","J","1","","","153","main_expt",""
"","bandit","233","626376","0.0-194.0-0.0","07827655","wem/bandit_either_3","A13PXTFOXDCKBF","either","1","307","","","","","","","0","0","1","","0.6734276465","0.6","0.4","0.2","0.8","0.221553637","0.5193194566","0.6734276465","0.39889796","","","","","","","","","","","","75","K","2","","","154","main_expt",""
"","bandit","234","628038","0.0-195.0-0.0","07827655","wem/bandit_either_3","A13PXTFOXDCKBF","either","1","146","","","","","","","0","0","1","0.4202606707","","0.6","0.4","0.2","0.8","","","","","0.2231547498","0.4736812385","0.7019144477","0.4202606707","","","","","","","","76","L","3","","","155","main_expt",""
"","bandit","235","629947","0.0-196.0-0.0","07827655","wem/bandit_either_3","A13PXTFOXDCKBF","either","1","387","","","","","","","0","0","1","0.2750957943","","0.6","0.4","0.2","0.8","","","","","0.2750957943","0.4616442501","0.6695455193","0.4814159609","","","","","","","","72","H","0","img/none_selected.jpg","","156","main_expt",""
"","bandit","236","631890","0.0-197.0-0.0","07827655","wem/bandit_either_3","A13PXTFOXDCKBF","either","1","423","","","","","","","0","1","0","","0.5025740222","0.6","0.4","0.2","0.8","0.2005793054","0.5025740222","0.6179864128","0.5316807058","","","","","","","","","","","","74","J","1","","","157","main_expt",""
"","bandit","237","633929","0.0-198.0-0.0","07827655","wem/bandit_either_3","A13PXTFOXDCKBF","either","1","505","","","","","","","0","0","1","","0.4548105643","0.6","0.4","0.2","0.8","0.2502080146","0.4548105643","0.7380689997","0.5429668589","","","","","","","","","","","","74","J","1","","","158","main_expt",""
"","bandit","238","635790","0.0-199.0-0.0","07827655","wem/bandit_either_3","A13PXTFOXDCKBF","either","1","325","","","","","","","0","1","0","","0.7632184112","0.6","0.4","0.2","0.8","0.2729805177","0.4622667215","0.7632184112","0.5991419929","","","","","","","","","","","","75","K","2","","","159","main_expt",""
"","bandit","239","637857","0.0-200.0-0.0","07827655","wem/bandit_either_3","A13PXTFOXDCKBF","either","1","539","","","","","","","1","0","0","0.6917664031","","0.6","0.4","0.2","0.8","","","","","0.2801697818","0.4600517474","0.6917664031","0.6480894682","","","","","","","","75","K","2","","","160","main_expt",""
"","bandit","240","639875","0.0-201.0-0.0","07827655","wem/bandit_either_3","A13PXTFOXDCKBF","either","1","480","","","","","","","0","1","0","","0.7106531984","0.6","0.4","0.2","0.8","0.2437938608","0.481388234","0.7106531984","0.6776161973","","","","","","","","","","","","75","K","2","","","161","main_expt",""
"","bandit","241","641768","0.0-202.0-0.0","07827655","wem/bandit_either_3","A13PXTFOXDCKBF","either","1","363","","","","","","","0","1","0","","0.809310282","0.6","0.4","0.2","0.8","0.2687553501","0.3850106192","0.809310282","0.7134031715","","","","","","","","","","","","75","K","2","","","162","main_expt",""
"","bandit","242","643781","0.0-203.0-0.0","07827655","wem/bandit_either_3","A13PXTFOXDCKBF","either","1","489","","","","","","","0","0","1","","0.7492875705","0.6","0.4","0.2","0.8","0.245991677","0.3498723973","0.7492875705","0.6215635068","","","","","","","","","","","","75","K","2","","","163","main_expt",""
"","bandit","243","645553","0.0-204.0-0.0","07827655","wem/bandit_either_3","A13PXTFOXDCKBF","either","1","244","","","","","","","0","0","1","0.4287417444","","0.6","0.4","0.2","0.8","","","","","0.270385563","0.4287417444","0.7561394707","0.5219240024","","","","","","","","74","J","1","","","164","main_expt",""
"","bandit","244","647448","0.0-205.0-0.0","07827655","wem/bandit_either_3","A13PXTFOXDCKBF","either","1","352","","","","","","","0","0","1","0.3037855967","","0.6","0.4","0.2","0.8","","","","","0.3037855967","0.3150145745","0.8111415702","0.4727302842","","","","","","","","72","H","0","img/none_selected.jpg","","165","main_expt",""
"","bandit","245","649015","0.0-206.0-0.0","07827655","wem/bandit_either_3","A13PXTFOXDCKBF","either","1","38","","","","","","","0","0","1","0.5181018645","","0.6","0.4","0.2","0.8","","","","","0.3395577104","0.2927018344","0.7759938205","0.5181018645","","","","","","","","76","L","3","","","166","main_expt",""
"","bandit","246","650924","0.0-207.0-0.0","07827655","wem/bandit_either_3","A13PXTFOXDCKBF","either","1","386","","","","","","","0","1","0","","0.8267633335","0.6","0.4","0.2","0.8","0.3443901906","0.3610256338","0.8267633335","0.5280433419","","","","","","","","","","","","75","K","2","","","167","main_expt",""
"","bandit","247","653233","0.0-208.0-0.0","07827655","wem/bandit_either_3","A13PXTFOXDCKBF","either","1","781","","","","","","","0","0","1","","0.8136073627","0.6","0.4","0.2","0.8","0.2552323567","0.3137127159","0.8136073627","0.5470010145","","","","","","","","","","","","75","K","2","","","168","main_expt",""
"","bandit","248","655520","0.0-209.0-0.0","07827655","wem/bandit_either_3","A13PXTFOXDCKBF","either","1","762","","","","","","","1","0","0","0.2292796242","","0.6","0.4","0.2","0.8","","","","","0.289352286","0.2292796242","0.7308533614","0.5558845962","","","","","","","","74","J","1","","","169","main_expt",""
"","bandit","249","657677","0.0-210.0-0.0","07827655","wem/bandit_either_3","A13PXTFOXDCKBF","either","1","629","","","","","","","0","0","1","0.221948569","","0.6","0.4","0.2","0.8","","","","","0.2262743404","0.221948569","0.7090730391","0.5799309324","","","","","","","","74","J","1","","","170","main_expt",""
"","bandit","250","659353","0.0-211.0-0.0","07827655","wem/bandit_either_3","A13PXTFOXDCKBF","either","1","156","","","","","","","0","1","0","","0.7229684446","0.6","0.4","0.2","0.8","0.2644351609","0.159615594","0.7229684446","0.6643953266","","","","","","","","","","","","75","K","2","","","171","main_expt",""
"","bandit","251","661403","0.0-212.0-0.0","07827655","wem/bandit_either_3","A13PXTFOXDCKBF","either","1","514","","","","","","","1","0","0","0.6612043244","","0.6","0.4","0.2","0.8","","","","","0.4136296373","0.1303854457","0.6612043244","0.7610666705","","","","","","","","75","K","2","","","172","main_expt",""
"","bandit","252","663306","0.0-213.0-0.0","07827655","wem/bandit_either_3","A13PXTFOXDCKBF","either","1","370","","","","","","","0","1","0","","0.7669021743","0.6","0.4","0.2","0.8","0.491318492","0.07729024622","0.7669021743","0.8006149786","","","","","","","","","","","","75","K","2","","","173","main_expt",""
"","bandit","253","665117","0.0-214.0-0.0","07827655","wem/bandit_either_3","A13PXTFOXDCKBF","either","1","275","","","","","","","1","0","0","0.8111867287","","0.6","0.4","0.2","0.8","","","","","0.4966763124","0.1227026474","0.8111867287","0.791095403","","","","","","","","75","K","2","","","174","main_expt",""
"","bandit","254","666981","0.0-215.0-0.0","07827655","wem/bandit_either_3","A13PXTFOXDCKBF","either","1","332","","","","","","","0","1","0","","0.8192498968","0.6","0.4","0.2","0.8","0.5109350621","0.09483306355","0.8192498968","0.8572088762","","","","","","","","","","","","75","K","2","","","175","main_expt",""
"","bandit","255","669033","0.0-216.0-0.0","07827655","wem/bandit_either_3","A13PXTFOXDCKBF","either","1","516","","","","","","","0","1","0","","0.8371283275","0.6","0.4","0.2","0.8","0.6321295754","0.143069758","0.8371283275","0.8576080684","","","","","","","","","","","","75","K","2","","","176","main_expt",""
"","bandit","256","670928","0.0-217.0-0.0","07827655","wem/bandit_either_3","A13PXTFOXDCKBF","either","1","365","","","","","","","0","0","1","0.8545140947","","0.6","0.4","0.2","0.8","","","","","0.5515755996","0.1741656422","0.8545140947","0.8678158231","","","","","","","","75","K","2","","","177","main_expt",""
"","bandit","257","672464","0.0-218.0-0.0","07827655","wem/bandit_either_3","A13PXTFOXDCKBF","either","1","9","","","","","","","0","0","1","","0.1904086474","0.6","0.4","0.2","0.8","0.5086275016","0.1904086474","0.8794893657","0.8820542777","","","","","","","","","","","","74","J","1","","","178","main_expt",""
"","bandit","258","674157","0.0-219.0-0.0","07827655","wem/bandit_either_3","A13PXTFOXDCKBF","either","1","177","","","","","","","0","0","1","0.5215192908","","0.6","0.4","0.2","0.8","","","","","0.5215192908","0.1778905233","0.8939587296","0.8907334788","","","","","","","","72","H","0","img/none_selected.jpg","","179","main_expt",""
"","bandit","259","675692","0.0-220.0-0.0","07827655","wem/bandit_either_3","A13PXTFOXDCKBF","either","1","0","","","","","","","0","1","0","","0.9161653667","0.6","0.4","0.2","0.8","0.5193414217","0.2112817454","0.868077767","0.9161653667","","","","","","","","","","","","76","L","3","","","180","main_expt",""
"","bandit","260","677663","0.0-221.0-0.0","07827655","wem/bandit_either_3","A13PXTFOXDCKBF","either","1","441","","","","","","","0","1","0","","0.9327112184","0.6","0.4","0.2","0.8","0.4613460131","0.2236312472","0.9295405476","0.9327112184","","","","","","","","","","","","76","L","3","","","181","main_expt",""
"","bandit","261","679524","0.0-222.0-0.0","07827655","wem/bandit_either_3","A13PXTFOXDCKBF","either","1","338","","","","","","","1","0","0","0.9284398706","","0.6","0.4","0.2","0.8","","","","","0.4468633868","0.264467441","0.9213574857","0.9284398706","","","","","","","","76","L","3","","","182","main_expt",""
"","bandit","262","681217","0.0-223.0-0.0","07827655","wem/bandit_either_3","A13PXTFOXDCKBF","either","1","151","","","","","","","1","0","0","0.89591471","","0.6","0.4","0.2","0.8","","","","","0.4985091709","0.2240632979","0.9374560388","0.89591471","","","","","","","","76","L","3","","","183","main_expt",""
"","bandit","263","683133","0.0-224.0-0.0","07827655","wem/bandit_either_3","A13PXTFOXDCKBF","either","1","395","","","","","","","1","0","0","0.9146434193","","0.6","0.4","0.2","0.8","","","","","0.6057575335","0.1671404848","0.9120054929","0.9146434193","","","","","","","","76","L","3","","","184","main_expt",""
"","bandit","264","684993","0.0-225.0-0.0","07827655","wem/bandit_either_3","A13PXTFOXDCKBF","either","1","328","","","","","","","1","0","0","0.8575823977","","0.6","0.4","0.2","0.8","","","","","0.4915456485","0.1932257563","0.8428471033","0.8575823977","","","","","","","","76","L","3","","","185","main_expt",""
"","bandit","265","686869","0.0-226.0-0.0","07827655","wem/bandit_either_3","A13PXTFOXDCKBF","either","1","351","","","","","","","0","1","0","","0.8487952361","0.6","0.4","0.2","0.8","0.5976273718","0.155472597","0.7734335662","0.8487952361","","","","","","","","","","","","76","L","3","","","186","main_expt",""
"","bandit","266","688751","0.0-227.0-0.0","07827655","wem/bandit_either_3","A13PXTFOXDCKBF","either","1","348","","","","","","","0","1","0","","0.8603972339","0.6","0.4","0.2","0.8","0.5743595779","0.1895871356","0.7667319261","0.8603972339","","","","","","","","","","","","76","L","3","","","187","main_expt",""
"","bandit","267","690706","0.0-228.0-0.0","07827655","wem/bandit_either_3","A13PXTFOXDCKBF","either","1","430","","","","","","","0","1","0","","0.8834510925","0.6","0.4","0.2","0.8","0.6833173747","0.2119556673","0.5945875292","0.8834510925","","","","","","","","","","","","76","L","3","","","188","main_expt",""
"","bandit","268","692633","0.0-229.0-0.0","07827655","wem/bandit_either_3","A13PXTFOXDCKBF","either","1","407","","","","","","","0","1","0","","0.8973947779","0.6","0.4","0.2","0.8","0.651089354","0.2255007403","0.7406569186","0.8973947779","","","","","","","","","","","","76","L","3","","","189","main_expt",""
"","bandit","269","694614","0.0-230.0-0.0","07827655","wem/bandit_either_3","A13PXTFOXDCKBF","either","1","435","","","","","","","1","0","0","0.8824587855","","0.6","0.4","0.2","0.8","","","","","0.6599652607","0.1754842532","0.7371931777","0.8824587855","","","","","","","","76","L","3","","","190","main_expt",""
"","bandit","270","696647","0.0-231.0-0.0","07827655","wem/bandit_either_3","A13PXTFOXDCKBF","either","1","503","","","","","","","0","0","1","0.9076431997","","0.6","0.4","0.2","0.8","","","","","0.6960236584","0.1936311571","0.7019705866","0.9076431997","","","","","","","","76","L","3","","","191","main_expt",""
"","bandit","271","698192","0.0-232.0-0.0","07827655","wem/bandit_either_3","A13PXTFOXDCKBF","either","1","26","","","","","","","0","1","0","","0.6198122665","0.6","0.4","0.2","0.8","0.6713911156","0.215612591","0.6198122665","0.8673165995","","","","","","","","","","","","75","K","2","","","192","main_expt",""
"","bandit","272","700055","0.0-233.0-0.0","07827655","wem/bandit_either_3","A13PXTFOXDCKBF","either","1","337","","","","","","","0","0","1","","0.6100930929","0.6","0.4","0.2","0.8","0.7244072205","0.2818734505","0.6100930929","0.8264401474","","","","","","","","","","","","75","K","2","","","193","main_expt",""
"","bandit","273","701702","0.0-234.0-0.0","07827655","wem/bandit_either_3","A13PXTFOXDCKBF","either","1","114","","","","","","","0","1","0","","0.3616108755","0.6","0.4","0.2","0.8","0.7397798508","0.3616108755","0.6332739585","0.8546086414","","","","","","","","","","","","74","J","1","","","194","main_expt",""
"","bandit","274","703683","0.0-235.0-0.0","07827655","wem/bandit_either_3","A13PXTFOXDCKBF","either","1","459","","","","","","","0","0","1","","0.3979961615","0.6","0.4","0.2","0.8","0.7602069811","0.3979961615","0.609207161","0.7914914872","","","","","","","","","","","","74","J","1","","","195","main_expt",""
"","bandit","275","705639","0.0-236.0-0.0","07827655","wem/bandit_either_3","A13PXTFOXDCKBF","either","1","427","","","","","","","1","0","0","0.7114092524","","0.6","0.4","0.2","0.8","","","","","0.7114092524","0.4366641927","0.6560649547","0.7608346536","","","","","","","","72","H","0","img/none_selected.jpg","","196","main_expt",""
"","bandit","276","707579","0.0-237.0-0.0","07827655","wem/bandit_either_3","A13PXTFOXDCKBF","either","1","419","","","","","","","1","0","0","0.6917424169","","0.6","0.4","0.2","0.8","","","","","0.6917424169","0.560782874","0.6656533059","0.7003784325","","","","","","","","72","H","0","img/none_selected.jpg","","197","main_expt",""
"","bandit","277","709760","0.0-238.0-0.0","07827655","wem/bandit_either_3","A13PXTFOXDCKBF","either","1","663","","","","","","","1","0","0","0.6561069913","","0.6","0.4","0.2","0.8","","","","","0.6561069913","0.5649388288","0.6841747727","0.6036075577","","","","","","","","72","H","0","img/none_selected.jpg","","198","main_expt",""
"","bandit","278","711716","0.0-239.0-0.0","07827655","wem/bandit_either_3","A13PXTFOXDCKBF","either","1","434","","","","","","","0","1","0","","0.6948346643","0.6","0.4","0.2","0.8","0.6948346643","0.5375892324","0.7105065455","0.5843314555","","","","","","","","","","","","72","H","0","img/none_selected.jpg","","199","main_expt",""
"","bandit","279","713775","0.0-240.0-0.0","07827655","wem/bandit_either_3","A13PXTFOXDCKBF","either","1","533","","","","","","","0","1","0","","0.7369743936","0.6","0.4","0.2","0.8","0.7369743936","0.5625167851","0.7380433654","0.539414212","","","","","","","","","","","","72","H","0","img/none_selected.jpg","","200","main_expt",""
"","bandit","280","715715","0.0-241.0-0.0","07827655","wem/bandit_either_3","A13PXTFOXDCKBF","either","1","411","","","","","","","1","0","0","0.8347268415","","0.6","0.4","0.2","0.8","","","","","0.8347268415","0.6266810217","0.6432951689","0.3774065742","","","","","","","","72","H","0","img/none_selected.jpg","","201","main_expt",""
"","bandit","281","717811","0.0-242.0-0.0","07827655","wem/bandit_either_3","A13PXTFOXDCKBF","either","1","567","","","","","","","1","0","0","0.7612264534","","0.6","0.4","0.2","0.8","","","","","0.7612264534","0.6661075828","0.4995879772","0.2824615609","","","","","","","","72","H","0","img/none_selected.jpg","","202","main_expt",""
"","bandit","282","719437","0.0-243.0-0.0","07827655","wem/bandit_either_3","A13PXTFOXDCKBF","either","1","101","","","","","","","0","1","0","","0.6904596671","0.6","0.4","0.2","0.8","0.6904596671","0.7534099026","0.4767352753","0.210170224","","","","","","","","","","","","72","H","0","img/none_selected.jpg","","203","main_expt",""
"","bandit","283","721160","0.0-244.0-0.0","07827655","wem/bandit_either_3","A13PXTFOXDCKBF","either","1","196","","","","","","","0","0","1","0.6855485072","","0.6","0.4","0.2","0.8","","","","","0.6855485072","0.7033522103","0.3680612217","0.2708138581","","","","","","","","72","H","0","img/none_selected.jpg","","204","main_expt",""
"","bandit","284","722898","0.0-245.0-0.0","07827655","wem/bandit_either_3","A13PXTFOXDCKBF","either","1","209","","","","","","","1","0","0","0.7006332368","","0.6","0.4","0.2","0.8","","","","","0.7006332368","0.6105989365","0.3404512965","0.3319820794","","","","","","","","72","H","0","img/none_selected.jpg","","205","main_expt",""
"","bandit","285","724730","0.0-246.0-0.0","07827655","wem/bandit_either_3","A13PXTFOXDCKBF","either","1","303","","","","","","","0","1","0","","0.7533130943","0.6","0.4","0.2","0.8","0.7533130943","0.725137222","0.2774568564","0.3517339603","","","","","","","","","","","","72","H","0","img/none_selected.jpg","","206","main_expt",""
"","bandit","286","726592","0.0-247.0-0.0","07827655","wem/bandit_either_3","A13PXTFOXDCKBF","either","1","335","","","","","","","1","0","0","0.7191760557","","0.6","0.4","0.2","0.8","","","","","0.7191760557","0.5888984072","0.2228883469","0.2871079035","","","","","","","","72","H","0","img/none_selected.jpg","","207","main_expt",""
"","bandit","287","728463","0.0-248.0-0.0","07827655","wem/bandit_either_3","A13PXTFOXDCKBF","either","1","353","","","","","","","0","0","1","0.6264293856","","0.6","0.4","0.2","0.8","","","","","0.6264293856","0.4650323514","0.2829247412","0.2642306377","","","","","","","","72","H","0","img/none_selected.jpg","","208","main_expt",""
"","bandit","288","730071","0.0-249.0-0.0","07827655","wem/bandit_either_3","A13PXTFOXDCKBF","either","1","90","","","","","","","0","0","1","","0.4100719568","0.6","0.4","0.2","0.8","0.6500478562","0.4100719568","0.3169104167","0.3587725811","","","","","","","","","","","","74","J","1","","","209","main_expt",""
"","bandit","289","731747","0.0-250.0-0.0","07827655","wem/bandit_either_3","A13PXTFOXDCKBF","either","1","143","","","","","","","0","0","1","0.2090062306","","0.6","0.4","0.2","0.8","","","","","0.6498865343","0.5177296744","0.2090062306","0.3103342645","","","","","","","","75","K","2","","","210","main_expt",""
"","bandit","290","733386","0.0-251.0-0.0","07827655","wem/bandit_either_3","A13PXTFOXDCKBF","either","1","119","","","","","","","1","0","0","0.3760595068","","0.6","0.4","0.2","0.8","","","","","0.6056301442","0.5950812693","0.1481662818","0.3760595068","","","","","","","","76","L","3","","","211","main_expt",""
"","bandit","291","736147","0.0-252.0-0.0","07827655","wem/bandit_either_3","A13PXTFOXDCKBF","either","1","1240","","","","","","","1","0","0","0.447023013","","0.6","0.4","0.2","0.8","","","","","0.5524844402","0.7169745983","0.2114888193","0.447023013","","","","","","","","76","L","3","","","212","main_expt",""
"","bandit","292","739218","0.0-253.0-0.0","07827655","wem/bandit_either_3","A13PXTFOXDCKBF","either","1","1558","","","","","","","0","0","1","","0.4529182837","0.6","0.4","0.2","0.8","0.6984249358","0.6766124197","0.2234642754","0.4529182837","","","","","","","","","","","","76","L","3","","","213","main_expt",""
"","bandit","293","743466","0.0-254.0-0.0","07827655","wem/bandit_either_3","A13PXTFOXDCKBF","either","1","2726","","","","","","","0","0","1","","0.8005648136","0.6","0.4","0.2","0.8","0.5996975418","0.8005648136","0.2315139555","0.4306534983","","","","","","","","","","","","74","J","1","","","214","main_expt",""
"","bandit","294","745646","0.0-255.0-0.0","07827655","wem/bandit_either_3","A13PXTFOXDCKBF","either","1","655","","","","","","","1","0","0","0.6067129047","","0.6","0.4","0.2","0.8","","","","","0.6067129047","0.8487964291","0.1949488974","0.4314469479","","","","","","","","72","H","0","img/none_selected.jpg","","215","main_expt",""
"","bandit","295","749604","0.0-256.0-0.0","07827655","wem/bandit_either_3","A13PXTFOXDCKBF","either","1","2427","","","","","","","1","0","0","0.6297976658","","0.6","0.4","0.2","0.8","","","","","0.6297976658","0.8674123454","0.2333303883","0.45439575","","","","","","","","72","H","0","img/none_selected.jpg","","216","main_expt",""
"","bandit","296","754699","0.0-257.0-0.0","07827655","wem/bandit_either_3","A13PXTFOXDCKBF","either","1","3573","","","","","","","1","0","0","0.6095272491","","0.6","0.4","0.2","0.8","","","","","0.6095272491","0.8774404243","0.2027763819","0.5228861726","","","","","","","","72","H","0","img/none_selected.jpg","","217","main_expt",""
"","bandit","297","756839","0.0-258.0-0.0","07827655","wem/bandit_either_3","A13PXTFOXDCKBF","either","1","615","","","","","","","0","1","0","","0.7058099393","0.6","0.4","0.2","0.8","0.7058099393","0.8836448068","0.1895874514","0.463703458","","","","","","","","","","","","72","H","0","img/none_selected.jpg","","218","main_expt",""
"","bandit","298","758939","0.0-259.0-0.0","07827655","wem/bandit_either_3","A13PXTFOXDCKBF","either","1","570","","","","","","","0","1","0","","0.7396246451","0.6","0.4","0.2","0.8","0.7396246451","0.880498508","0.1537120117","0.4522864467","","","","","","","","","","","","72","H","0","img/none_selected.jpg","","219","main_expt",""
"","bandit","299","760925","0.0-260.0-0.0","07827655","wem/bandit_either_3","A13PXTFOXDCKBF","either","1","471","","","","","","","1","0","0","0.7091968036","","0.6","0.4","0.2","0.8","","","","","0.7091968036","0.8740874997","0.2022747423","0.4561576612","","","","","","","","72","H","0","img/none_selected.jpg","","220","main_expt",""
"","bandit","300","762914","0.0-261.0-0.0","07827655","wem/bandit_either_3","A13PXTFOXDCKBF","either","1","452","","","","","","","1","0","0","0.7116308873","","0.6","0.4","0.2","0.8","","","","","0.7116308873","0.8527830905","0.3174413427","0.4264657168","","","","","","","","72","H","0","img/none_selected.jpg","","221","main_expt",""
"","bandit","301","764835","0.0-262.0-0.0","07827655","wem/bandit_either_3","A13PXTFOXDCKBF","either","1","385","","","","","","","0","1","0","","0.769465391","0.6","0.4","0.2","0.8","0.769465391","0.7717907476","0.2315667073","0.3055141729","","","","","","","","","","","","72","H","0","img/none_selected.jpg","","222","main_expt",""
"","bandit","302","766991","0.0-263.0-0.0","07827655","wem/bandit_either_3","A13PXTFOXDCKBF","either","1","633","","","","","","","0","1","0","","0.7509006974","0.6","0.4","0.2","0.8","0.7509006974","0.8359700354","0.2261006122","0.2868954791","","","","","","","","","","","","72","H","0","img/none_selected.jpg","","223","main_expt",""
"","bandit","303","770334","0.0-264.0-0.0","07827655","wem/bandit_either_3","A13PXTFOXDCKBF","either","1","1801","","","","","","","0","1","0","","0.7007688409","0.6","0.4","0.2","0.8","0.7007688409","0.819670806","0.2662378096","0.2698185242","","","","","","","","","","","","72","H","0","img/none_selected.jpg","","224","main_expt",""
"","bandit","304","773367","0.0-265.0-0.0","07827655","wem/bandit_either_3","A13PXTFOXDCKBF","either","1","1510","","","","","","","1","0","0","0.7409020096","","0.6","0.4","0.2","0.8","","","","","0.7409020096","0.8512382749","0.2163280173","0.213842325","","","","","","","","72","H","0","img/none_selected.jpg","","225","main_expt",""
"","bandit","305","775511","0.0-266.0-0.0","07827655","wem/bandit_either_3","A13PXTFOXDCKBF","either","1","621","","","","","","","0","0","1","","0.7052945704","0.6","0.4","0.2","0.8","0.7052945704","0.8342861847","0.2809353625","0.1616408491","","","","","","","","","","","","72","H","0","img/none_selected.jpg","","226","main_expt",""
"","bandit","306","777237","0.0-267.0-0.0","07827655","wem/bandit_either_3","A13PXTFOXDCKBF","either","1","193","","","","","","","0","0","1","","0.7736041865","0.6","0.4","0.2","0.8","0.606091252","0.7736041865","0.2396571279","0.1777599287","","","","","","","","","","","","74","J","1","","","227","main_expt",""
"","bandit","307","778957","0.0-268.0-0.0","07827655","wem/bandit_either_3","A13PXTFOXDCKBF","either","1","181","","","","","","","0","0","1","0.3430446928","","0.6","0.4","0.2","0.8","","","","","0.5834203199","0.8094350608","0.3430446928","0.2866543064","","","","","","","","75","K","2","","","228","main_expt",""
"","bandit","308","780756","0.0-269.0-0.0","07827655","wem/bandit_either_3","A13PXTFOXDCKBF","either","1","264","","","","","","","0","0","1","0.3948293382","","0.6","0.4","0.2","0.8","","","","","0.5466214007","0.8078722129","0.2886233194","0.3948293382","","","","","","","","76","L","3","","","229","main_expt",""
"","bandit","309","782697","0.0-270.0-0.0","07827655","wem/bandit_either_3","A13PXTFOXDCKBF","either","1","419","","","","","","","0","0","1","0.3291786684","","0.6","0.4","0.2","0.8","","","","","0.5519014059","0.7719043616","0.3213731463","0.3291786684","","","","","","","","76","L","3","","","230","main_expt",""
"","bandit","310","784328","0.0-271.0-0.0","07827655","wem/bandit_either_3","A13PXTFOXDCKBF","either","1","103","","","","","","","0","0","1","","0.2771614906","0.6","0.4","0.2","0.8","0.4527164215","0.8049264475","0.2771614906","0.2378236032","","","","","","","","","","","","75","K","2","","","231","main_expt",""
"","bandit","311","786003","0.0-272.0-0.0","07827655","wem/bandit_either_3","A13PXTFOXDCKBF","either","1","146","","","","","","","0","1","0","","0.5135082398","0.6","0.4","0.2","0.8","0.5135082398","0.8850589997","0.2249105956","0.246393804","","","","","","","","","","","","72","H","0","img/none_selected.jpg","","232","main_expt",""
"","bandit","312","787896","0.0-273.0-0.0","07827655","wem/bandit_either_3","A13PXTFOXDCKBF","either","1","370","","","","","","","0","1","0","","0.5502454751","0.6","0.4","0.2","0.8","0.5502454751","0.9183615156","0.2447973041","0.2141634692","","","","","","","","","","","","72","H","0","img/none_selected.jpg","","233","main_expt",""
"","bandit","313","789835","0.0-274.0-0.0","07827655","wem/bandit_either_3","A13PXTFOXDCKBF","either","1","409","","","","","","","0","0","1","","0.3783923662","0.6","0.4","0.2","0.8","0.3783923662","0.9639410842","0.24601643","0.2876436191","","","","","","","","","","","","72","H","0","img/none_selected.jpg","","234","main_expt",""
"","bandit","314","791637","0.0-275.0-0.0","07827655","wem/bandit_either_3","A13PXTFOXDCKBF","either","1","270","","","","","","","0","1","0","","0.9697187448","0.6","0.4","0.2","0.8","0.2814299379","0.9697187448","0.1629844561","0.2769077257","","","","","","","","","","","","74","J","1","","","235","main_expt",""
"","bandit","315","793761","0.0-276.0-0.0","07827655","wem/bandit_either_3","A13PXTFOXDCKBF","either","1","588","","","","","","","1","0","0","0.9571573523","","0.6","0.4","0.2","0.8","","","","","0.3106100538","0.9571573523","0.1929455839","0.136865198","","","","","","","","74","J","1","","","236","main_expt",""
"","bandit","316","795882","0.0-277.0-0.0","07827655","wem/bandit_either_3","A13PXTFOXDCKBF","either","1","586","","","","","","","1","0","0","0.9170696074","","0.6","0.4","0.2","0.8","","","","","0.3152445528","0.9170696074","0.1497712966","0.1123790732","","","","","","","","74","J","1","","","237","main_expt",""
"","bandit","317","798148","0.0-278.0-0.0","07827655","wem/bandit_either_3","A13PXTFOXDCKBF","either","1","743","","","","","","","1","0","0","0.9207491077","","0.6","0.4","0.2","0.8","","","","","0.2637175197","0.9207491077","0.1526491196","0.09027024906","","","","","","","","74","J","1","","","238","main_expt",""
"","bandit","318","800709","0.0-279.0-0.0","07827655","wem/bandit_either_3","A13PXTFOXDCKBF","either","1","1037","","","","","","","1","0","0","0.9211301165","","0.6","0.4","0.2","0.8","","","","","0.1889878372","0.9211301165","0.1745924244","0.08323179304","","","","","","","","74","J","1","","","239","main_expt",""
"","bandit","319","803005","0.0-280.0-0.0","07827655","wem/bandit_either_3","A13PXTFOXDCKBF","either","1","758","","","","","","","1","0","0","0.8992774771","","0.6","0.4","0.2","0.8","","","","","0.1710885746","0.8992774771","0.1159399908","0.08130265934","","","","","","","","74","J","1","","","240","main_expt",""
"","bandit","320","805877","0.0-281.0-0.0","07827655","wem/bandit_either_3","A13PXTFOXDCKBF","either","1","1344","","","","","","","1","0","0","0.8977441673","","0.6","0.4","0.2","0.8","","","","","0.1232632504","0.8977441673","0.1682101231","0.1424736114","","","","","","","","74","J","1","","","241","main_expt",""
"","bandit","321","808492","0.0-282.0-0.0","07827655","wem/bandit_either_3","A13PXTFOXDCKBF","either","1","1083","","","","","","","0","0","1","","0.853076495","0.6","0.4","0.2","0.8","0.210295675","0.853076495","0.1643169396","0.2433221762","","","","","","","","","","","","74","J","1","","","242","main_expt",""
"","bandit","322","810114","0.0-283.0-0.0","07827655","wem/bandit_either_3","A13PXTFOXDCKBF","either","1","87","","","","","","","0","0","1","","0.1355776028","0.6","0.4","0.2","0.8","0.289349801","0.8942427246","0.1355776028","0.3185073654","","","","","","","","","","","","75","K","2","","","243","main_expt",""
"","bandit","323","812193","0.0-284.0-0.0","07827655","wem/bandit_either_3","A13PXTFOXDCKBF","either","1","551","","","","","","","0","0","1","","0.3533170098","0.6","0.4","0.2","0.8","0.4071614743","0.8701402288","0.1311829495","0.3533170098","","","","","","","","","","","","76","L","3","","","244","main_expt",""
