"consent","trial_type","trial_index","time_elapsed","internal_node_id","subjID","study","MID","cond","drift","rt","responses","key_press","expt_phase","like","value","connected","gems","bombs","no_reward","GemPrChosen","BombPrChosen","GainOverPainPr_0","GainOverPainPr_1","GainOverPainPr_2","GainOverPainPr_3","LosePr_0","LosePr_1","LosePr_2","LosePr_3","WinPr_0","WinPr_1","WinPr_2","WinPr_3","Q0","Q1","Q2","gender","age","ethnicity","target","respCharCode","respKey","respChoiceNum","respChoice","practice","trial_counter","trial_label","button_pressed"
"INL_behavioral_consent_30min_online.html","consent","0","21264","0.0-0.0","08394486","wem/bandit_either_3","A1SLJKNSNHOJRN","either","7","","","","","","","","","","","","","","","","","","","","","","","","","","","","","","","","","","","","","","",""
"","survey-text","1","31732","0.0-1.0","08394486","wem/bandit_either_3","A1SLJKNSNHOJRN","either","7","9459","{""Q0"":""A1SLJKNSNHOJRN""}","","","","","","","","","","","","","","","","","","","","","","","","","","","","","","","","","","","","",""
"","text","2","47502","0.0-2.0","08394486","wem/bandit_either_3","A1SLJKNSNHOJRN","either","7","14768","","32","","","","","","","","","","","","","","","","","","","","","","","","","","","","","","","","","","","",""
"","text","3","57091","0.0-3.0","08394486","wem/bandit_either_3","A1SLJKNSNHOJRN","either","7","9587","","32","","","","","","","","","","","","","","","","","","","","","","","","","","","","","","","","","","","",""
"","text","4","83565","0.0-4.0","08394486","wem/bandit_either_3","A1SLJKNSNHOJRN","either","7","26472","","32","","","","","","","","","","","","","","","","","","","","","","","","","","","","","","","","","","","",""
"","text","5","99133","0.0-5.0","08394486","wem/bandit_either_3","A1SLJKNSNHOJRN","either","7","15565","","32","","","","","","","","","","","","","","","","","","","","","","","","","","","","","","","","","","","",""
"","text","6","125277","0.0-6.0","08394486","wem/bandit_either_3","A1SLJKNSNHOJRN","either","7","26142","","32","","","","","","","","","","","","","","","","","","","","","","","","","","","","","","","","","","","",""
"","text","7","131530","0.0-7.0","08394486","wem/bandit_either_3","A1SLJKNSNHOJRN","either","7","6251","","32","","","","","","","","","","","","","","","","","","","","","","","","","","","","","","","","","","","",""
"","text","8","137627","0.0-8.0","08394486","wem/bandit_either_3","A1SLJKNSNHOJRN","either","7","6094","","32","","","","","","","","","","","","","","","","","","","","","","","","","","","","","","","","","","","",""
"","identification","9","152381","0.0-9.0-0.0","08394486","wem/bandit_either_3","A1SLJKNSNHOJRN","either","7","14742","","","","5","5","4","","","","","","","","","","","","","","","","","","","","","","","","the village of Zur","","","","","","","",""
"","identification","10","166784","0.0-9.0-1.0","08394486","wem/bandit_either_3","A1SLJKNSNHOJRN","either","7","13395","","","","1","2","1","","","","","","","","","","","","","","","","","","","","","","","","the village of Nyx","","","","","","","",""
"","text","11","172642","0.0-10.0","08394486","wem/bandit_either_3","A1SLJKNSNHOJRN","either","7","4856","","32","","","","","","","","","","","","","","","","","","","","","","","","","","","","","","","","","","","",""
"","text","12","175947","0.0-11.0","08394486","wem/bandit_either_3","A1SLJKNSNHOJRN","either","7","3303","","32","","","","","","","","","","","","","","","","","","","","","","","","","","","","","","","","","","","",""
"","text","13","177769","0.0-12.0","08394486","wem/bandit_either_3","A1SLJKNSNHOJRN","either","7","1821","","32","","","","","","","","","","","","","","","","","","","","","","","","","","","","","","","","","","","",""
"","text","14","183493","0.0-13.0","08394486","wem/bandit_either_3","A1SLJKNSNHOJRN","either","7","5723","","32","","","","","","","","","","","","","","","","","","","","","","","","","","","","","","","","","","","",""
"","bandit","15","189634","0.0-14.0-0.0","08394486","wem/bandit_either_3","A1SLJKNSNHOJRN","either","7","4634","","","","","","","0","0","1","0","0","","","","","0","","","","0","","","","","","","","","","","74","J","0","img/none_selected_demo.jpg","true","0","",""
"","bandit","16","192272","0.0-15.0-0.0","08394486","wem/bandit_either_3","A1SLJKNSNHOJRN","either","7","1134","","","","","","","0","0","1","0","0","","","","","0","","","","0","","","","","","","","","","","75","K","0","img/none_selected_demo.jpg","true","0","",""
"","text","17","202099","0.0-16.0","08394486","wem/bandit_either_3","A1SLJKNSNHOJRN","either","7","9825","","32","","","","","","","","","","","","","","","","","","","","","","","","","","","","","","","","","","","",""
"","text","18","212211","0.0-17.0","08394486","wem/bandit_either_3","A1SLJKNSNHOJRN","either","7","10110","","32","","","","","","","","","","","","","","","","","","","","","","","","","","","","","","","","","","","",""
"","text","19","220035","0.0-18.0","08394486","wem/bandit_either_3","A1SLJKNSNHOJRN","either","7","7822","","32","","","","","","","","","","","","","","","","","","","","","","","","","","","","","","","","","","","",""
"","text","20","224861","0.0-19.0","08394486","wem/bandit_either_3","A1SLJKNSNHOJRN","either","7","4824","","32","","","","","","","","","","","","","","","","","","","","","","","","","","","","","","","","","","","",""
"","bandit","21","227264","0.0-20.0-0.0","08394486","wem/bandit_either_3","A1SLJKNSNHOJRN","either","7","894","","","","","","","1","0","0","0.8","","0.5","0.5","","","","","","","0.8","0.2","","","","","","","","","","74","J","0","img/none_selected_demo.jpg","true","0","80_20_practice",""
"","bandit","22","229130","0.0-20.0-1.0","08394486","wem/bandit_either_3","A1SLJKNSNHOJRN","either","7","360","","","","","","","0","1","0","","0.8","0.5","0.5","","","0.8","0.2","","","","","","","","","","","","","","74","J","0","img/none_selected_demo.jpg","true","0","80_20_practice",""
"","bandit","23","231115","0.0-20.0-2.0","08394486","wem/bandit_either_3","A1SLJKNSNHOJRN","either","7","479","","","","","","","0","0","1","","0.8","0.5","0.5","","","0.8","0.2","","","","","","","","","","","","","","74","J","0","img/none_selected_demo.jpg","true","0","80_20_practice",""
"","bandit","24","232994","0.0-20.0-3.0","08394486","wem/bandit_either_3","A1SLJKNSNHOJRN","either","7","373","","","","","","","1","0","0","0.8","","0.5","0.5","","","","","","","0.8","0.2","","","","","","","","","","74","J","0","img/none_selected_demo.jpg","true","0","80_20_practice",""
"","bandit","25","235073","0.0-20.0-4.0","08394486","wem/bandit_either_3","A1SLJKNSNHOJRN","either","7","570","","","","","","","0","0","1","0.8","","0.5","0.5","","","","","","","0.8","0.2","","","","","","","","","","74","J","0","img/none_selected_demo.jpg","true","0","80_20_practice",""
"","bandit","26","236912","0.0-20.0-5.0","08394486","wem/bandit_either_3","A1SLJKNSNHOJRN","either","7","333","","","","","","","1","0","0","0.8","","0.5","0.5","","","","","","","0.8","0.2","","","","","","","","","","74","J","0","img/none_selected_demo.jpg","true","0","80_20_practice",""
"","bandit","27","238800","0.0-20.0-6.0","08394486","wem/bandit_either_3","A1SLJKNSNHOJRN","either","7","384","","","","","","","0","1","0","","0.8","0.5","0.5","","","0.8","0.2","","","","","","","","","","","","","","74","J","0","img/none_selected_demo.jpg","true","0","80_20_practice",""
"","bandit","28","240713","0.0-20.0-7.0","08394486","wem/bandit_either_3","A1SLJKNSNHOJRN","either","7","409","","","","","","","1","0","0","0.8","","0.5","0.5","","","","","","","0.8","0.2","","","","","","","","","","74","J","0","img/none_selected_demo.jpg","true","0","80_20_practice",""
"","bandit","29","242649","0.0-20.0-8.0","08394486","wem/bandit_either_3","A1SLJKNSNHOJRN","either","7","429","","","","","","","1","0","0","0.8","","0.5","0.5","","","","","","","0.8","0.2","","","","","","","","","","74","J","0","img/none_selected_demo.jpg","true","0","80_20_practice",""
"","bandit","30","244497","0.0-20.0-9.0","08394486","wem/bandit_either_3","A1SLJKNSNHOJRN","either","7","340","","","","","","","1","0","0","0.8","","0.5","0.5","","","","","","","0.8","0.2","","","","","","","","","","74","J","0","img/none_selected_demo.jpg","true","0","80_20_practice",""
"","bandit","31","246339","0.0-20.0-10.0","08394486","wem/bandit_either_3","A1SLJKNSNHOJRN","either","7","335","","","","","","","1","0","0","0.8","","0.5","0.5","","","","","","","0.8","0.2","","","","","","","","","","74","J","0","img/none_selected_demo.jpg","true","0","80_20_practice",""
"","bandit","32","248083","0.0-20.0-11.0","08394486","wem/bandit_either_3","A1SLJKNSNHOJRN","either","7","235","","","","","","","0","1","0","","0.8","0.5","0.5","","","0.8","0.2","","","","","","","","","","","","","","74","J","0","img/none_selected_demo.jpg","true","0","80_20_practice",""
"","bandit","33","249992","0.0-20.0-12.0","08394486","wem/bandit_either_3","A1SLJKNSNHOJRN","either","7","402","","","","","","","1","0","0","0.8","","0.5","0.5","","","","","","","0.8","0.2","","","","","","","","","","74","J","0","img/none_selected_demo.jpg","true","0","80_20_practice",""
"","bandit","34","251928","0.0-20.0-13.0","08394486","wem/bandit_either_3","A1SLJKNSNHOJRN","either","7","429","","","","","","","0","0","1","","0.8","0.5","0.5","","","0.8","0.2","","","","","","","","","","","","","","74","J","0","img/none_selected_demo.jpg","true","0","80_20_practice",""
"","bandit","35","253769","0.0-20.0-14.0","08394486","wem/bandit_either_3","A1SLJKNSNHOJRN","either","7","333","","","","","","","0","0","1","0.8","","0.5","0.5","","","","","","","0.8","0.2","","","","","","","","","","74","J","0","img/none_selected_demo.jpg","true","0","80_20_practice",""
"","bandit","36","255562","0.0-20.0-15.0","08394486","wem/bandit_either_3","A1SLJKNSNHOJRN","either","7","284","","","","","","","1","0","0","0.2","","0.5","0.5","","","","","","","0.8","0.2","","","","","","","","","","75","K","1","","true","0","80_20_practice",""
"","bandit","37","257423","0.0-20.0-16.0","08394486","wem/bandit_either_3","A1SLJKNSNHOJRN","either","7","354","","","","","","","0","0","1","0.2","","0.5","0.5","","","","","","","0.8","0.2","","","","","","","","","","75","K","1","","true","0","80_20_practice",""
"","bandit","38","259297","0.0-20.0-17.0","08394486","wem/bandit_either_3","A1SLJKNSNHOJRN","either","7","367","","","","","","","0","0","1","","0.2","0.5","0.5","","","0.8","0.2","","","","","","","","","","","","","","75","K","1","","true","0","80_20_practice",""
"","bandit","39","261147","0.0-20.0-18.0","08394486","wem/bandit_either_3","A1SLJKNSNHOJRN","either","7","343","","","","","","","1","0","0","0.2","","0.5","0.5","","","","","","","0.8","0.2","","","","","","","","","","75","K","1","","true","0","80_20_practice",""
"","bandit","40","263081","0.0-20.0-19.0","08394486","wem/bandit_either_3","A1SLJKNSNHOJRN","either","7","425","","","","","","","0","0","1","","0.2","0.5","0.5","","","0.8","0.2","","","","","","","","","","","","","","75","K","1","","true","0","80_20_practice",""
"","text","41","268796","0.0-21.0","08394486","wem/bandit_either_3","A1SLJKNSNHOJRN","either","7","5713","","32","","","","","","","","","","","","","","","","","","","","","","","","","","","","","","","","","","","",""
"","bandit","42","271585","0.0-22.0-0.0","08394486","wem/bandit_either_3","A1SLJKNSNHOJRN","either","7","1279","","","","","","","1","0","0","1","0","","","","","0","1","","","1","0","","","","","","","","","","74","J","0","img/none_selected_demo.jpg","true","0","",""
"","text","43","280050","0.0-23.0","08394486","wem/bandit_either_3","A1SLJKNSNHOJRN","either","7","8462","","32","","","","","","","","","","","","","","","","","","","","","","","","","","","","","","","","","","","",""
"","text","44","284923","0.0-24.0","08394486","wem/bandit_either_3","A1SLJKNSNHOJRN","either","7","4871","","32","","","","","","","","","","","","","","","","","","","","","","","","","","","","","","","","","","","",""
"","text","45","287986","0.0-25.0","08394486","wem/bandit_either_3","A1SLJKNSNHOJRN","either","7","3060","","32","","","","","","","","","","","","","","","","","","","","","","","","","","","","","","","","","","","",""
"","text","46","291346","0.0-26.0","08394486","wem/bandit_either_3","A1SLJKNSNHOJRN","either","7","3360","","32","","","","","","","","","","","","","","","","","","","","","","","","","","","","","","","","","","","",""
"","text","47","302962","0.0-27.0","08394486","wem/bandit_either_3","A1SLJKNSNHOJRN","either","7","11615","","32","","","","","","","","","","","","","","","","","","","","","","","","","","","","","","","","","","","",""
"","text","48","306587","0.0-28.0","08394486","wem/bandit_either_3","A1SLJKNSNHOJRN","either","7","3623","","32","","","","","","","","","","","","","","","","","","","","","","","","","","","","","","","","","","","",""
"","text","49","312443","0.0-29.0","08394486","wem/bandit_either_3","A1SLJKNSNHOJRN","either","7","5853","","32","","","","","","","","","","","","","","","","","","","","","","","","","","","","","","","","","","","",""
"","text","50","316037","0.0-30.0","08394486","wem/bandit_either_3","A1SLJKNSNHOJRN","either","7","3591","","32","","","","","","","","","","","","","","","","","","","","","","","","","","","","","","","","","","","",""
"","text","51","328196","0.0-31.0","08394486","wem/bandit_either_3","A1SLJKNSNHOJRN","either","7","12157","","32","","","","","","","","","","","","","","","","","","","","","","","","","","","","","","","","","","","",""
"","text","52","330954","0.0-32.0","08394486","wem/bandit_either_3","A1SLJKNSNHOJRN","either","7","2755","","32","","","","","","","","","","","","","","","","","","","","","","","","","","","","","","","","","","","",""
"","text","53","332323","0.0-33.0","08394486","wem/bandit_either_3","A1SLJKNSNHOJRN","either","7","1367","","32","","","","","","","","","","","","","","","","","","","","","","","","","","","","","","","","","","","",""
"","bandit","54","334673","0.0-34.0-0.0","08394486","wem/bandit_either_3","A1SLJKNSNHOJRN","either","7","842","","","","","","","1","0","0","0.8","","0.5","0.5","0.5","0.5","","","","","0.8","0.2","0.6","0.2","","","","","","","","72","H","0","img/none_selected.jpg","true","0","full_practice",""
"","bandit","55","336499","0.0-34.0-1.0","08394486","wem/bandit_either_3","A1SLJKNSNHOJRN","either","7","320","","","","","","","1","0","0","0.8","","0.5","0.5","0.5","0.5","","","","","0.8","0.2","0.6","0.2","","","","","","","","72","H","0","img/none_selected.jpg","true","0","full_practice",""
"","bandit","56","338307","0.0-34.0-2.0","08394486","wem/bandit_either_3","A1SLJKNSNHOJRN","either","7","301","","","","","","","1","0","0","0.8","","0.5","0.5","0.5","0.5","","","","","0.8","0.2","0.6","0.2","","","","","","","","72","H","0","img/none_selected.jpg","true","0","full_practice",""
"","bandit","57","340129","0.0-34.0-3.0","08394486","wem/bandit_either_3","A1SLJKNSNHOJRN","either","7","314","","","","","","","0","0","1","","0.8","0.5","0.5","0.5","0.5","0.8","0.2","0.6","0.2","","","","","","","","","","","","72","H","0","img/none_selected.jpg","true","0","full_practice",""
"","bandit","58","341905","0.0-34.0-4.0","08394486","wem/bandit_either_3","A1SLJKNSNHOJRN","either","7","269","","","","","","","0","1","0","","0.8","0.5","0.5","0.5","0.5","0.8","0.2","0.6","0.2","","","","","","","","","","","","72","H","0","img/none_selected.jpg","true","0","full_practice",""
"","bandit","59","343736","0.0-34.0-5.0","08394486","wem/bandit_either_3","A1SLJKNSNHOJRN","either","7","321","","","","","","","0","0","1","0.8","","0.5","0.5","0.5","0.5","","","","","0.8","0.2","0.6","0.2","","","","","","","","72","H","0","img/none_selected.jpg","true","0","full_practice",""
"","bandit","60","345544","0.0-34.0-6.0","08394486","wem/bandit_either_3","A1SLJKNSNHOJRN","either","7","303","","","","","","","1","0","0","0.8","","0.5","0.5","0.5","0.5","","","","","0.8","0.2","0.6","0.2","","","","","","","","72","H","0","img/none_selected.jpg","true","0","full_practice",""
"","bandit","61","347546","0.0-34.0-7.0","08394486","wem/bandit_either_3","A1SLJKNSNHOJRN","either","7","494","","","","","","","0","0","1","","0.8","0.5","0.5","0.5","0.5","0.8","0.2","0.6","0.2","","","","","","","","","","","","72","H","0","img/none_selected.jpg","true","0","full_practice",""
"","bandit","62","349337","0.0-34.0-8.0","08394486","wem/bandit_either_3","A1SLJKNSNHOJRN","either","7","286","","","","","","","0","1","0","","0.8","0.5","0.5","0.5","0.5","0.8","0.2","0.6","0.2","","","","","","","","","","","","72","H","0","img/none_selected.jpg","true","0","full_practice",""
"","bandit","63","351371","0.0-34.0-9.0","08394486","wem/bandit_either_3","A1SLJKNSNHOJRN","either","7","523","","","","","","","0","0","1","0.8","","0.5","0.5","0.5","0.5","","","","","0.8","0.2","0.6","0.2","","","","","","","","72","H","0","img/none_selected.jpg","true","0","full_practice",""
"","bandit","64","353202","0.0-34.0-10.0","08394486","wem/bandit_either_3","A1SLJKNSNHOJRN","either","7","322","","","","","","","1","0","0","0.8","","0.5","0.5","0.5","0.5","","","","","0.8","0.2","0.6","0.2","","","","","","","","72","H","0","img/none_selected.jpg","true","0","full_practice",""
"","bandit","65","355161","0.0-34.0-11.0","08394486","wem/bandit_either_3","A1SLJKNSNHOJRN","either","7","451","","","","","","","0","1","0","","0.8","0.5","0.5","0.5","0.5","0.8","0.2","0.6","0.2","","","","","","","","","","","","72","H","0","img/none_selected.jpg","true","0","full_practice",""
"","bandit","66","356978","0.0-34.0-12.0","08394486","wem/bandit_either_3","A1SLJKNSNHOJRN","either","7","312","","","","","","","1","0","0","0.8","","0.5","0.5","0.5","0.5","","","","","0.8","0.2","0.6","0.2","","","","","","","","72","H","0","img/none_selected.jpg","true","0","full_practice",""
"","bandit","67","358840","0.0-34.0-13.0","08394486","wem/bandit_either_3","A1SLJKNSNHOJRN","either","7","354","","","","","","","0","0","1","0.8","","0.5","0.5","0.5","0.5","","","","","0.8","0.2","0.6","0.2","","","","","","","","72","H","0","img/none_selected.jpg","true","0","full_practice",""
"","bandit","68","360634","0.0-34.0-14.0","08394486","wem/bandit_either_3","A1SLJKNSNHOJRN","either","7","288","","","","","","","0","1","0","","0.8","0.5","0.5","0.5","0.5","0.8","0.2","0.6","0.2","","","","","","","","","","","","72","H","0","img/none_selected.jpg","true","0","full_practice",""
"","bandit","69","362404","0.0-34.0-15.0","08394486","wem/bandit_either_3","A1SLJKNSNHOJRN","either","7","260","","","","","","","0","0","1","","0.2","0.5","0.5","0.5","0.5","0.8","0.2","0.6","0.2","","","","","","","","","","","","74","J","1","","true","0","full_practice",""
"","bandit","70","364242","0.0-34.0-16.0","08394486","wem/bandit_either_3","A1SLJKNSNHOJRN","either","7","316","","","","","","","0","0","1","0.2","","0.5","0.5","0.5","0.5","","","","","0.8","0.2","0.6","0.2","","","","","","","","74","J","1","","true","0","full_practice",""
"","bandit","71","366010","0.0-34.0-17.0","08394486","wem/bandit_either_3","A1SLJKNSNHOJRN","either","7","262","","","","","","","0","1","0","","0.6","0.5","0.5","0.5","0.5","0.8","0.2","0.6","0.2","","","","","","","","","","","","75","K","2","","true","0","full_practice",""
"","bandit","72","367913","0.0-34.0-18.0","08394486","wem/bandit_either_3","A1SLJKNSNHOJRN","either","7","396","","","","","","","0","0","1","","0.6","0.5","0.5","0.5","0.5","0.8","0.2","0.6","0.2","","","","","","","","","","","","75","K","2","","true","0","full_practice",""
"","bandit","73","369914","0.0-34.0-19.0","08394486","wem/bandit_either_3","A1SLJKNSNHOJRN","either","7","492","","","","","","","1","0","0","0.6","","0.5","0.5","0.5","0.5","","","","","0.8","0.2","0.6","0.2","","","","","","","","75","K","2","","true","0","full_practice",""
"","text","74","372908","0.0-35.0","08394486","wem/bandit_either_3","A1SLJKNSNHOJRN","either","7","2982","","32","","","","","","","","","","","","","","","","","","","","","","","","","","","","","","","","","","","",""
"","text","75","387298","0.0-36.0","08394486","wem/bandit_either_3","A1SLJKNSNHOJRN","either","7","13384","","32","","","","","","","","","","","","","","","","","","","","","","","","","","","","","","","","","","","",""
"","text","76","400260","0.0-37.0","08394486","wem/bandit_either_3","A1SLJKNSNHOJRN","either","7","12960","","32","","","","","","","","","","","","","","","","","","","","","","","","","","","","","","","","","","","",""
"","text","77","407467","0.0-38.0","08394486","wem/bandit_either_3","A1SLJKNSNHOJRN","either","7","7203","","32","","","","","","","","","","","","","","","","","","","","","","","","","","","","","","","","","","","",""
"","text","78","414291","0.0-39.0","08394486","wem/bandit_either_3","A1SLJKNSNHOJRN","either","7","6819","","32","","","","","","","","","","","","","","","","","","","","","","","","","","","","","","","","","","","",""
"","text","79","420418","0.0-40.0","08394486","wem/bandit_either_3","A1SLJKNSNHOJRN","either","7","6124","","32","","","","","","","","","","","","","","","","","","","","","","","","","","","","","","","","","","","",""
"","bandit","80","422817","0.0-41.0-0.0","08394486","wem/bandit_either_3","A1SLJKNSNHOJRN","either","7","893","","","","","","","0","1","0","","0.5514722813","0.8","0.6","0.2","0.4","0.5514722813","0.7088318221","0.2888626749","0.1731741302","","","","","","","","","","","","72","H","0","img/none_selected.jpg","","1","main_expt",""
"","bandit","81","424624","0.0-42.0-0.0","08394486","wem/bandit_either_3","A1SLJKNSNHOJRN","either","7","297","","","","","","","0","0","1","0.5039303977","","0.8","0.6","0.2","0.4","","","","","0.5039303977","0.6292935488","0.3999538902","0.2874485847","","","","","","","","72","H","0","img/none_selected.jpg","","2","main_expt",""
"","bandit","82","426386","0.0-43.0-0.0","08394486","wem/bandit_either_3","A1SLJKNSNHOJRN","either","7","251","","","","","","","0","0","1","0.5527877924","","0.8","0.6","0.2","0.4","","","","","0.5527877924","0.5285482983","0.4126831114","0.2683250969","","","","","","","","72","H","0","img/none_selected.jpg","","3","main_expt",""
"","bandit","83","428321","0.0-44.0-0.0","08394486","wem/bandit_either_3","A1SLJKNSNHOJRN","either","7","426","","","","","","","1","0","0","0.6336700584","","0.8","0.6","0.2","0.4","","","","","0.6336700584","0.6744491701","0.3923803367","0.3988631097","","","","","","","","72","H","0","img/none_selected.jpg","","4","main_expt",""
"","bandit","84","430113","0.0-45.0-0.0","08394486","wem/bandit_either_3","A1SLJKNSNHOJRN","either","7","286","","","","","","","0","0","1","0.6340088104","","0.8","0.6","0.2","0.4","","","","","0.6340088104","0.7922285807","0.3803283439","0.3568799457","","","","","","","","72","H","0","img/none_selected.jpg","","5","main_expt",""
"","bandit","85","431865","0.0-46.0-0.0","08394486","wem/bandit_either_3","A1SLJKNSNHOJRN","either","7","241","","","","","","","1","0","0","0.7459441126","","0.8","0.6","0.2","0.4","","","","","0.5784181907","0.7459441126","0.4214296899","0.3188731731","","","","","","","","74","J","1","","","6","main_expt",""
"","bandit","86","433681","0.0-47.0-0.0","08394486","wem/bandit_either_3","A1SLJKNSNHOJRN","either","7","312","","","","","","","1","0","0","0.7681481668","","0.8","0.6","0.2","0.4","","","","","0.6727083857","0.7681481668","0.4755968838","0.4574196012","","","","","","","","74","J","1","","","7","main_expt",""
"","bandit","87","435554","0.0-48.0-0.0","08394486","wem/bandit_either_3","A1SLJKNSNHOJRN","either","7","360","","","","","","","1","0","0","0.7251609313","","0.8","0.6","0.2","0.4","","","","","0.7574508858","0.7251609313","0.5353568537","0.5037884951","","","","","","","","74","J","1","","","8","main_expt",""
"","bandit","88","437579","0.0-49.0-0.0","08394486","wem/bandit_either_3","A1SLJKNSNHOJRN","either","7","515","","","","","","","1","0","0","0.7403055102","","0.8","0.6","0.2","0.4","","","","","0.8280759311","0.7403055102","0.6246831942","0.5750013994","","","","","","","","74","J","1","","","9","main_expt",""
"","bandit","89","439495","0.0-50.0-0.0","08394486","wem/bandit_either_3","A1SLJKNSNHOJRN","either","7","408","","","","","","","1","0","0","0.722944265","","0.8","0.6","0.2","0.4","","","","","0.859726102","0.722944265","0.4475954046","0.5399040382","","","","","","","","74","J","1","","","10","main_expt",""
"","bandit","90","441370","0.0-51.0-0.0","08394486","wem/bandit_either_3","A1SLJKNSNHOJRN","either","7","363","","","","","","","0","0","1","","0.6833847698","0.8","0.6","0.2","0.4","0.877956501","0.6833847698","0.4514702697","0.5181098662","","","","","","","","","","","","74","J","1","","","11","main_expt",""
"","bandit","91","443192","0.0-52.0-0.0","08394486","wem/bandit_either_3","A1SLJKNSNHOJRN","either","7","312","","","","","","","0","1","0","","0.689227163","0.8","0.6","0.2","0.4","0.8883669707","0.689227163","0.4873058782","0.5489165229","","","","","","","","","","","","74","J","1","","","12","main_expt",""
"","bandit","92","445113","0.0-53.0-0.0","08394486","wem/bandit_either_3","A1SLJKNSNHOJRN","either","7","415","","","","","","","0","0","1","0.5178623456","","0.8","0.6","0.2","0.4","","","","","0.817149195","0.5178623456","0.4862469224","0.6186986429","","","","","","","","74","J","1","","","13","main_expt",""
"","bandit","93","446968","0.0-54.0-0.0","08394486","wem/bandit_either_3","A1SLJKNSNHOJRN","either","7","349","","","","","","","0","0","1","0.4768489018","","0.8","0.6","0.2","0.4","","","","","0.8589139609","0.4768489018","0.360908092","0.4944095791","","","","","","","","74","J","1","","","14","main_expt",""
"","bandit","94","448738","0.0-55.0-0.0","08394486","wem/bandit_either_3","A1SLJKNSNHOJRN","either","7","259","","","","","","","0","0","1","0.4126647893","","0.8","0.6","0.2","0.4","","","","","0.7955781648","0.5201849276","0.4126647893","0.4820951366","","","","","","","","75","K","2","","","15","main_expt",""
"","bandit","95","450481","0.0-56.0-0.0","08394486","wem/bandit_either_3","A1SLJKNSNHOJRN","either","7","236","","","","","","","0","0","1","","0.4888848296","0.8","0.6","0.2","0.4","0.8864445785","0.6862231469","0.4930686601","0.4888848296","","","","","","","","","","","","76","L","3","","","16","main_expt",""
"","bandit","96","452201","0.0-57.0-0.0","08394486","wem/bandit_either_3","A1SLJKNSNHOJRN","either","7","214","","","","","","","0","0","1","","0.5162343008","0.8","0.6","0.2","0.4","0.8746062981","0.7297328357","0.5162343008","0.381306026","","","","","","","","","","","","75","K","2","","","17","main_expt",""
"","bandit","97","454048","0.0-58.0-0.0","08394486","wem/bandit_either_3","A1SLJKNSNHOJRN","either","7","337","","","","","","","0","0","1","","0.3537135189","0.8","0.6","0.2","0.4","0.8910236512","0.6686287009","0.5627456494","0.3537135189","","","","","","","","","","","","76","L","3","","","18","main_expt",""
"","bandit","98","455817","0.0-59.0-0.0","08394486","wem/bandit_either_3","A1SLJKNSNHOJRN","either","7","259","","","","","","","1","0","0","0.7885428456","","0.8","0.6","0.2","0.4","","","","","0.8932054573","0.7885428456","0.4478227807","0.4891458502","","","","","","","","74","J","1","","","19","main_expt",""
"","bandit","99","457625","0.0-60.0-0.0","08394486","wem/bandit_either_3","A1SLJKNSNHOJRN","either","7","291","","","","","","","1","0","0","0.7442236049","","0.8","0.6","0.2","0.4","","","","","0.8900063933","0.7442236049","0.5306796692","0.5440957398","","","","","","","","74","J","1","","","20","main_expt",""
"","bandit","100","459540","0.0-61.0-0.0","08394486","wem/bandit_either_3","A1SLJKNSNHOJRN","either","7","398","","","","","","","0","1","0","","0.7908218503","0.8","0.6","0.2","0.4","0.8748704397","0.7908218503","0.5423611418","0.5621313733","","","","","","","","","","","","74","J","1","","","21","main_expt",""
"","bandit","101","461448","0.0-62.0-0.0","08394486","wem/bandit_either_3","A1SLJKNSNHOJRN","either","7","402","","","","","","","0","0","1","0.7163236006","","0.8","0.6","0.2","0.4","","","","","0.8498769136","0.7163236006","0.4190568807","0.5296345876","","","","","","","","74","J","1","","","22","main_expt",""
"","bandit","102","463362","0.0-63.0-0.0","08394486","wem/bandit_either_3","A1SLJKNSNHOJRN","either","7","402","","","","","","","1","0","0","0.7061190667","","0.8","0.6","0.2","0.4","","","","","0.8357449374","0.7061190667","0.4329937009","0.5187107172","","","","","","","","74","J","1","","","23","main_expt",""
"","bandit","103","465361","0.0-64.0-0.0","08394486","wem/bandit_either_3","A1SLJKNSNHOJRN","either","7","489","","","","","","","0","0","1","","0.7470556917","0.8","0.6","0.2","0.4","0.8431908073","0.7470556917","0.4298879426","0.6000521927","","","","","","","","","","","","74","J","1","","","24","main_expt",""
"","bandit","104","467193","0.0-65.0-0.0","08394486","wem/bandit_either_3","A1SLJKNSNHOJRN","either","7","318","","","","","","","1","0","0","0.8154180688","","0.8","0.6","0.2","0.4","","","","","0.8741885854","0.8154180688","0.2992323157","0.5443047256","","","","","","","","74","J","1","","","25","main_expt",""
"","bandit","105","469040","0.0-66.0-0.0","08394486","wem/bandit_either_3","A1SLJKNSNHOJRN","either","7","336","","","","","","","0","1","0","","0.8395379789","0.8","0.6","0.2","0.4","0.8940719671","0.8395379789","0.3857263224","0.592493964","","","","","","","","","","","","74","J","1","","","26","main_expt",""
"","bandit","106","470953","0.0-67.0-0.0","08394486","wem/bandit_either_3","A1SLJKNSNHOJRN","either","7","400","","","","","","","1","0","0","0.8733378856","","0.8","0.6","0.2","0.4","","","","","0.8733378856","0.8023078409","0.3715251318","0.5779569403","","","","","","","","72","H","0","img/none_selected.jpg","","27","main_expt",""
"","bandit","107","472752","0.0-68.0-0.0","08394486","wem/bandit_either_3","A1SLJKNSNHOJRN","either","7","290","","","","","","","0","0","1","0.8248968235","","0.8","0.6","0.2","0.4","","","","","0.8695586723","0.8248968235","0.3387808014","0.7077223562","","","","","","","","74","J","1","","","28","main_expt",""
"","bandit","108","474512","0.0-69.0-0.0","08394486","wem/bandit_either_3","A1SLJKNSNHOJRN","either","7","250","","","","","","","0","1","0","","0.7908290088","0.8","0.6","0.2","0.4","0.7908290088","0.8621011303","0.3737397218","0.7070353494","","","","","","","","","","","","72","H","0","img/none_selected.jpg","","29","main_expt",""
"","bandit","109","476488","0.0-70.0-0.0","08394486","wem/bandit_either_3","A1SLJKNSNHOJRN","either","7","466","","","","","","","1","0","0","0.8518997755","","0.8","0.6","0.2","0.4","","","","","0.8518997755","0.8873668535","0.3232047389","0.6585428656","","","","","","","","72","H","0","img/none_selected.jpg","","30","main_expt",""
"","bandit","110","478536","0.0-71.0-0.0","08394486","wem/bandit_either_3","A1SLJKNSNHOJRN","either","7","537","","","","","","","1","0","0","0.8509842625","","0.8","0.6","0.2","0.4","","","","","0.8509842625","0.9318975106","0.4130267239","0.6724088618","","","","","","","","72","H","0","img/none_selected.jpg","","31","main_expt",""
"","bandit","111","480402","0.0-72.0-0.0","08394486","wem/bandit_either_3","A1SLJKNSNHOJRN","either","7","355","","","","","","","1","0","0","0.872996121","","0.8","0.6","0.2","0.4","","","","","0.872996121","0.9013609786","0.4167758813","0.6416581209","","","","","","","","72","H","0","img/none_selected.jpg","","32","main_expt",""
"","bandit","112","482290","0.0-73.0-0.0","08394486","wem/bandit_either_3","A1SLJKNSNHOJRN","either","7","381","","","","","","","1","0","0","0.8571046391","","0.8","0.6","0.2","0.4","","","","","0.8571046391","0.9041531295","0.4546052232","0.7055802426","","","","","","","","72","H","0","img/none_selected.jpg","","33","main_expt",""
"","bandit","113","484310","0.0-74.0-0.0","08394486","wem/bandit_either_3","A1SLJKNSNHOJRN","either","7","515","","","","","","","0","1","0","","0.9175819521","0.8","0.6","0.2","0.4","0.9175819521","0.9386104272","0.5231803088","0.7554114371","","","","","","","","","","","","72","H","0","img/none_selected.jpg","","34","main_expt",""
"","bandit","114","486609","0.0-75.0-0.0","08394486","wem/bandit_either_3","A1SLJKNSNHOJRN","either","7","792","","","","","","","1","0","0","0.9503165686","","0.8","0.6","0.2","0.4","","","","","0.9503165686","0.9180645683","0.4661188593","0.8008095759","","","","","","","","72","H","0","img/none_selected.jpg","","35","main_expt",""
"","bandit","115","488482","0.0-76.0-0.0","08394486","wem/bandit_either_3","A1SLJKNSNHOJRN","either","7","361","","","","","","","0","1","0","","0.9327615424","0.8","0.6","0.2","0.4","0.9327615424","0.9095107155","0.4106027186","0.6925109639","","","","","","","","","","","","72","H","0","img/none_selected.jpg","","36","main_expt",""
"","bandit","116","490384","0.0-77.0-0.0","08394486","wem/bandit_either_3","A1SLJKNSNHOJRN","either","7","391","","","","","","","1","0","0","0.9196494001","","0.8","0.6","0.2","0.4","","","","","0.9196494001","0.9405648028","0.5021263718","0.7764255689","","","","","","","","72","H","0","img/none_selected.jpg","","37","main_expt",""
"","bandit","117","492473","0.0-78.0-0.0","08394486","wem/bandit_either_3","A1SLJKNSNHOJRN","either","7","577","","","","","","","1","0","0","0.928530414","","0.8","0.6","0.2","0.4","","","","","0.928530414","0.9058459248","0.5065313343","0.8392953971","","","","","","","","72","H","0","img/none_selected.jpg","","38","main_expt",""
"","bandit","118","494763","0.0-79.0-0.0","08394486","wem/bandit_either_3","A1SLJKNSNHOJRN","either","7","769","","","","","","","0","1","0","","0.9001545702","0.8","0.6","0.2","0.4","0.9001545702","0.8784462517","0.6098243774","0.7614495855","","","","","","","","","","","","72","H","0","img/none_selected.jpg","","39","main_expt",""
"","bandit","119","497186","0.0-80.0-0.0","08394486","wem/bandit_either_3","A1SLJKNSNHOJRN","either","7","913","","","","","","","1","0","0","0.8432481254","","0.8","0.6","0.2","0.4","","","","","0.8432481254","0.8408568766","0.679699592","0.8060705796","","","","","","","","72","H","0","img/none_selected.jpg","","40","main_expt",""
"","bandit","120","499186","0.0-81.0-0.0","08394486","wem/bandit_either_3","A1SLJKNSNHOJRN","either","7","487","","","","","","","0","1","0","","0.8326479564","0.8","0.6","0.2","0.4","0.8326479564","0.811342849","0.616488607","0.7539991053","","","","","","","","","","","","72","H","0","img/none_selected.jpg","","41","main_expt",""
"","bandit","121","501251","0.0-82.0-0.0","08394486","wem/bandit_either_3","A1SLJKNSNHOJRN","either","7","553","","","","","","","1","0","0","0.8602810298","","0.8","0.6","0.2","0.4","","","","","0.8602810298","0.8058808774","0.6307104111","0.7717369324","","","","","","","","72","H","0","img/none_selected.jpg","","42","main_expt",""
"","bandit","122","503444","0.0-83.0-0.0","08394486","wem/bandit_either_3","A1SLJKNSNHOJRN","either","7","686","","","","","","","1","0","0","0.894365654","","0.8","0.6","0.2","0.4","","","","","0.894365654","0.7899844578","0.554567591","0.7625968551","","","","","","","","72","H","0","img/none_selected.jpg","","43","main_expt",""
"","bandit","123","505841","0.0-84.0-0.0","08394486","wem/bandit_either_3","A1SLJKNSNHOJRN","either","7","886","","","","","","","1","0","0","0.9033664713","","0.8","0.6","0.2","0.4","","","","","0.9033664713","0.7654486741","0.5281861223","0.8488621298","","","","","","","","72","H","0","img/none_selected.jpg","","44","main_expt",""
"","bandit","124","507817","0.0-85.0-0.0","08394486","wem/bandit_either_3","A1SLJKNSNHOJRN","either","7","469","","","","","","","1","0","0","0.8829964613","","0.8","0.6","0.2","0.4","","","","","0.8829964613","0.7674111825","0.5043334007","0.8522077325","","","","","","","","72","H","0","img/none_selected.jpg","","45","main_expt",""
"","bandit","125","509641","0.0-86.0-0.0","08394486","wem/bandit_either_3","A1SLJKNSNHOJRN","either","7","315","","","","","","","1","0","0","0.8674694879","","0.8","0.6","0.2","0.4","","","","","0.8674694879","0.6301273516","0.5426256613","0.8618589195","","","","","","","","72","H","0","img/none_selected.jpg","","46","main_expt",""
"","bandit","126","511498","0.0-87.0-0.0","08394486","wem/bandit_either_3","A1SLJKNSNHOJRN","either","7","347","","","","","","","1","0","0","0.8886720039","","0.8","0.6","0.2","0.4","","","","","0.8886720039","0.7885969413","0.5024796093","0.905897833","","","","","","","","72","H","0","img/none_selected.jpg","","47","main_expt",""
"","bandit","127","513444","0.0-88.0-0.0","08394486","wem/bandit_either_3","A1SLJKNSNHOJRN","either","7","434","","","","","","","0","1","0","","0.9229902905","0.8","0.6","0.2","0.4","0.9229902905","0.7983786211","0.4689138593","0.8929468812","","","","","","","","","","","","72","H","0","img/none_selected.jpg","","48","main_expt",""
"","bandit","128","515267","0.0-89.0-0.0","08394486","wem/bandit_either_3","A1SLJKNSNHOJRN","either","7","315","","","","","","","1","0","0","0.9141434128","","0.8","0.6","0.2","0.4","","","","","0.9141434128","0.8249867574","0.4439560463","0.854905512","","","","","","","","72","H","0","img/none_selected.jpg","","49","main_expt",""
"","bandit","129","517153","0.0-90.0-0.0","08394486","wem/bandit_either_3","A1SLJKNSNHOJRN","either","7","376","","","","","","","1","0","0","0.9181160336","","0.8","0.6","0.2","0.4","","","","","0.9181160336","0.7532301684","0.4079842927","0.8363103738","","","","","","","","72","H","0","img/none_selected.jpg","","50","main_expt",""
"","bandit","130","519017","0.0-91.0-0.0","08394486","wem/bandit_either_3","A1SLJKNSNHOJRN","either","7","352","","","","","","","0","0","1","0.9266489825","","0.8","0.6","0.2","0.4","","","","","0.9266489825","0.6750909554","0.4675199832","0.7168506975","","","","","","","","72","H","0","img/none_selected.jpg","","51","main_expt",""
"","bandit","131","520825","0.0-92.0-0.0","08394486","wem/bandit_either_3","A1SLJKNSNHOJRN","either","7","297","","","","","","","1","0","0","0.9285581488","","0.8","0.6","0.2","0.4","","","","","0.9285581488","0.6762079337","0.4368052975","0.6507986152","","","","","","","","72","H","0","img/none_selected.jpg","","52","main_expt",""
"","bandit","132","522850","0.0-93.0-0.0","08394486","wem/bandit_either_3","A1SLJKNSNHOJRN","either","7","513","","","","","","","1","0","0","0.9171724481","","0.8","0.6","0.2","0.4","","","","","0.9171724481","0.7882030045","0.4967902672","0.6531867096","","","","","","","","72","H","0","img/none_selected.jpg","","53","main_expt",""
"","bandit","133","524921","0.0-94.0-0.0","08394486","wem/bandit_either_3","A1SLJKNSNHOJRN","either","7","561","","","","","","","0","0","1","0.8709862684","","0.8","0.6","0.2","0.4","","","","","0.8709862684","0.8759533557","0.5321533453","0.6178049746","","","","","","","","72","H","0","img/none_selected.jpg","","54","main_expt",""
"","bandit","134","526753","0.0-95.0-0.0","08394486","wem/bandit_either_3","A1SLJKNSNHOJRN","either","7","321","","","","","","","0","1","0","","0.9016108676","0.8","0.6","0.2","0.4","0.9016108676","0.9307112091","0.593251847","0.5501477499","","","","","","","","","","","","72","H","0","img/none_selected.jpg","","55","main_expt",""
"","bandit","135","528715","0.0-96.0-0.0","08394486","wem/bandit_either_3","A1SLJKNSNHOJRN","either","7","449","","","","","","","1","0","0","0.9123335035","","0.8","0.6","0.2","0.4","","","","","0.9123335035","0.9486344027","0.602347159","0.5181914202","","","","","","","","72","H","0","img/none_selected.jpg","","56","main_expt",""
"","bandit","136","530608","0.0-97.0-0.0","08394486","wem/bandit_either_3","A1SLJKNSNHOJRN","either","7","388","","","","","","","0","1","0","","0.9338523698","0.8","0.6","0.2","0.4","0.9338523698","0.9450559811","0.736851976","0.5052283364","","","","","","","","","","","","72","H","0","img/none_selected.jpg","","57","main_expt",""
"","bandit","137","532522","0.0-98.0-0.0","08394486","wem/bandit_either_3","A1SLJKNSNHOJRN","either","7","406","","","","","","","1","0","0","0.9023069914","","0.8","0.6","0.2","0.4","","","","","0.9023069914","0.960587128","0.7112026436","0.4494585665","","","","","","","","72","H","0","img/none_selected.jpg","","58","main_expt",""
"","bandit","138","534474","0.0-99.0-0.0","08394486","wem/bandit_either_3","A1SLJKNSNHOJRN","either","7","440","","","","","","","1","0","0","0.903153386","","0.8","0.6","0.2","0.4","","","","","0.903153386","0.9272570312","0.7605469626","0.4431029696","","","","","","","","72","H","0","img/none_selected.jpg","","59","main_expt",""
"","bandit","139","536851","0.0-100.0-0.0","08394486","wem/bandit_either_3","A1SLJKNSNHOJRN","either","7","864","","","","","","","1","0","0","0.8975643475","","0.8","0.6","0.2","0.4","","","","","0.8975643475","0.9075075979","0.6504737249","0.4213069188","","","","","","","","72","H","0","img/none_selected.jpg","","60","main_expt",""
"","bandit","140","538971","0.0-101.0-0.0","08394486","wem/bandit_either_3","A1SLJKNSNHOJRN","either","7","608","","","","","","","0","0","1","0.8455107238","","0.8","0.6","0.2","0.4","","","","","0.8455107238","0.9011961695","0.7417300409","0.4735464544","","","","","","","","72","H","0","img/none_selected.jpg","","61","main_expt",""
"","bandit","141","540858","0.0-102.0-0.0","08394486","wem/bandit_either_3","A1SLJKNSNHOJRN","either","7","374","","","","","","","1","0","0","0.8423106617","","0.8","0.6","0.2","0.4","","","","","0.8423106617","0.9025442902","0.6889655243","0.4260239588","","","","","","","","72","H","0","img/none_selected.jpg","","62","main_expt",""
"","bandit","142","542920","0.0-103.0-0.0","08394486","wem/bandit_either_3","A1SLJKNSNHOJRN","either","7","551","","","","","","","1","0","0","0.6997676278","","0.8","0.6","0.2","0.4","","","","","0.6997676278","0.900711875","0.7532165261","0.4048641732","","","","","","","","72","H","0","img/none_selected.jpg","","63","main_expt",""
"","bandit","143","544969","0.0-104.0-0.0","08394486","wem/bandit_either_3","A1SLJKNSNHOJRN","either","7","543","","","","","","","1","0","0","0.8033841581","","0.8","0.6","0.2","0.4","","","","","0.8033841581","0.8445511995","0.7614619666","0.261135461","","","","","","","","72","H","0","img/none_selected.jpg","","64","main_expt",""
"","bandit","144","546988","0.0-105.0-0.0","08394486","wem/bandit_either_3","A1SLJKNSNHOJRN","either","7","510","","","","","","","1","0","0","0.8458775523","","0.8","0.6","0.2","0.4","","","","","0.8458775523","0.7838665633","0.7474824059","0.4398785507","","","","","","","","72","H","0","img/none_selected.jpg","","65","main_expt",""
"","bandit","145","549129","0.0-106.0-0.0","08394486","wem/bandit_either_3","A1SLJKNSNHOJRN","either","7","629","","","","","","","1","0","0","0.8612648572","","0.8","0.6","0.2","0.4","","","","","0.8612648572","0.8399866527","0.7083026918","0.4549930047","","","","","","","","72","H","0","img/none_selected.jpg","","66","main_expt",""
"","bandit","146","550953","0.0-107.0-0.0","08394486","wem/bandit_either_3","A1SLJKNSNHOJRN","either","7","313","","","","","","","1","0","0","0.8686018104","","0.8","0.6","0.2","0.4","","","","","0.8686018104","0.9109535201","0.6535093674","0.5565794079","","","","","","","","72","H","0","img/none_selected.jpg","","67","main_expt",""
"","bandit","147","553008","0.0-108.0-0.0","08394486","wem/bandit_either_3","A1SLJKNSNHOJRN","either","7","547","","","","","","","1","0","0","0.8693437115","","0.8","0.6","0.2","0.4","","","","","0.8693437115","0.9064065477","0.4923739087","0.4211802827","","","","","","","","72","H","0","img/none_selected.jpg","","68","main_expt",""
"","bandit","148","554874","0.0-109.0-0.0","08394486","wem/bandit_either_3","A1SLJKNSNHOJRN","either","7","360","","","","","","","1","0","0","0.9168970181","","0.8","0.6","0.2","0.4","","","","","0.9168970181","0.9315833469","0.4898097669","0.3687693293","","","","","","","","72","H","0","img/none_selected.jpg","","69","main_expt",""
"","bandit","149","557117","0.0-110.0-0.0","08394486","wem/bandit_either_3","A1SLJKNSNHOJRN","either","7","726","","","","","","","1","0","0","0.9293527272","","0.8","0.6","0.2","0.4","","","","","0.9293527272","0.9393923483","0.4369614599","0.3460903474","","","","","","","","72","H","0","img/none_selected.jpg","","70","main_expt",""
"","bandit","150","559122","0.0-111.0-0.0","08394486","wem/bandit_either_3","A1SLJKNSNHOJRN","either","7","493","","","","","","","1","0","0","0.949087413","","0.8","0.6","0.2","0.4","","","","","0.949087413","0.9568343035","0.5031037484","0.3278112836","","","","","","","","72","H","0","img/none_selected.jpg","","71","main_expt",""
"","bandit","151","561130","0.0-112.0-0.0","08394486","wem/bandit_either_3","A1SLJKNSNHOJRN","either","7","495","","","","","","","1","0","0","0.906373323","","0.8","0.6","0.2","0.4","","","","","0.906373323","0.947758434","0.5397903688","0.2720469766","","","","","","","","72","H","0","img/none_selected.jpg","","72","main_expt",""
"","bandit","152","563265","0.0-113.0-0.0","08394486","wem/bandit_either_3","A1SLJKNSNHOJRN","either","7","626","","","","","","","1","0","0","0.93965919","","0.8","0.6","0.2","0.4","","","","","0.93965919","0.9052010222","0.5540652028","0.2451019773","","","","","","","","72","H","0","img/none_selected.jpg","","73","main_expt",""
"","bandit","153","565202","0.0-114.0-0.0","08394486","wem/bandit_either_3","A1SLJKNSNHOJRN","either","7","430","","","","","","","1","0","0","0.9416319858","","0.8","0.6","0.2","0.4","","","","","0.9416319858","0.927704936","0.61733434","0.2645862521","","","","","","","","72","H","0","img/none_selected.jpg","","74","main_expt",""
"","bandit","154","567114","0.0-115.0-0.0","08394486","wem/bandit_either_3","A1SLJKNSNHOJRN","either","7","400","","","","","","","0","1","0","","0.9535384208","0.8","0.6","0.2","0.4","0.9535384208","0.8769567517","0.6341908543","0.2298582","","","","","","","","","","","","72","H","0","img/none_selected.jpg","","75","main_expt",""
"","bandit","155","569077","0.0-116.0-0.0","08394486","wem/bandit_either_3","A1SLJKNSNHOJRN","either","7","456","","","","","","","1","0","0","0.9585479729","","0.8","0.6","0.2","0.4","","","","","0.9585479729","0.8456064169","0.6355577018","0.3460043445","","","","","","","","72","H","0","img/none_selected.jpg","","76","main_expt",""
"","bandit","156","571087","0.0-117.0-0.0","08394486","wem/bandit_either_3","A1SLJKNSNHOJRN","either","7","501","","","","","","","1","0","0","0.9610253773","","0.8","0.6","0.2","0.4","","","","","0.9610253773","0.8325595713","0.7055426269","0.2526488818","","","","","","","","72","H","0","img/none_selected.jpg","","77","main_expt",""
"","bandit","157","572887","0.0-118.0-0.0","08394486","wem/bandit_either_3","A1SLJKNSNHOJRN","either","7","291","","","","","","","1","0","0","0.9580320452","","0.8","0.6","0.2","0.4","","","","","0.9580320452","0.9128982172","0.6137882531","0.2625396382","","","","","","","","72","H","0","img/none_selected.jpg","","78","main_expt",""
"","bandit","158","574865","0.0-119.0-0.0","08394486","wem/bandit_either_3","A1SLJKNSNHOJRN","either","7","471","","","","","","","1","0","0","0.9403834825","","0.8","0.6","0.2","0.4","","","","","0.9403834825","0.9213349282","0.668392527","0.2957535945","","","","","","","","72","H","0","img/none_selected.jpg","","79","main_expt",""
"","bandit","159","576826","0.0-120.0-0.0","08394486","wem/bandit_either_3","A1SLJKNSNHOJRN","either","7","449","","","","","","","1","0","0","0.946171157","","0.8","0.6","0.2","0.4","","","","","0.946171157","0.8935563746","0.7457361895","0.1831261498","","","","","","","","72","H","0","img/none_selected.jpg","","80","main_expt",""
"","bandit","160","578658","0.0-121.0-0.0","08394486","wem/bandit_either_3","A1SLJKNSNHOJRN","either","7","325","","","","","","","0","1","0","","0.9800092583","0.8","0.6","0.2","0.4","0.9800092583","0.932831263","0.8028050151","0.1450659425","","","","","","","","","","","","72","H","0","img/none_selected.jpg","","81","main_expt",""
"","bandit","161","580442","0.0-122.0-0.0","08394486","wem/bandit_either_3","A1SLJKNSNHOJRN","either","7","271","","","","","","","0","1","0","","0.9666397243","0.8","0.6","0.2","0.4","0.9666397243","0.9403650082","0.8727424511","0.1486641529","","","","","","","","","","","","72","H","0","img/none_selected.jpg","","82","main_expt",""
"","bandit","162","582194","0.0-123.0-0.0","08394486","wem/bandit_either_3","A1SLJKNSNHOJRN","either","7","240","","","","","","","1","0","0","0.9637330664","","0.8","0.6","0.2","0.4","","","","","0.9637330664","0.9066396881","0.8283068274","0.1567811066","","","","","","","","72","H","0","img/none_selected.jpg","","83","main_expt",""
"","bandit","163","584025","0.0-124.0-0.0","08394486","wem/bandit_either_3","A1SLJKNSNHOJRN","either","7","323","","","","","","","1","0","0","0.9617949183","","0.8","0.6","0.2","0.4","","","","","0.9617949183","0.8962006295","0.8030064341","0.196091916","","","","","","","","72","H","0","img/none_selected.jpg","","84","main_expt",""
"","bandit","164","585944","0.0-125.0-0.0","08394486","wem/bandit_either_3","A1SLJKNSNHOJRN","either","7","413","","","","","","","1","0","0","0.9561985801","","0.8","0.6","0.2","0.4","","","","","0.9561985801","0.9093999993","0.8622567251","0.1512390112","","","","","","","","72","H","0","img/none_selected.jpg","","85","main_expt",""
"","bandit","165","587747","0.0-126.0-0.0","08394486","wem/bandit_either_3","A1SLJKNSNHOJRN","either","7","290","","","","","","","1","0","0","0.9422505668","","0.8","0.6","0.2","0.4","","","","","0.9422505668","0.9326862648","0.896584634","0.1486491559","","","","","","","","72","H","0","img/none_selected.jpg","","86","main_expt",""
"","bandit","166","589953","0.0-127.0-0.0","08394486","wem/bandit_either_3","A1SLJKNSNHOJRN","either","7","694","","","","","","","1","0","0","0.926711091","","0.8","0.6","0.2","0.4","","","","","0.926711091","0.9039434857","0.9208758521","0.1047878604","","","","","","","","72","H","0","img/none_selected.jpg","","87","main_expt",""
"","bandit","167","591850","0.0-128.0-0.0","08394486","wem/bandit_either_3","A1SLJKNSNHOJRN","either","7","391","","","","","","","1","0","0","0.9092576496","","0.8","0.6","0.2","0.4","","","","","0.9092576496","0.9195127861","0.9266301883","0.07038149384","","","","","","","","72","H","0","img/none_selected.jpg","","88","main_expt",""
"","bandit","168","593721","0.0-129.0-0.0","08394486","wem/bandit_either_3","A1SLJKNSNHOJRN","either","7","357","","","","","","","1","0","0","0.8948591238","","0.8","0.6","0.2","0.4","","","","","0.8948591238","0.9225053559","0.9259215542","0.1311535074","","","","","","","","72","H","0","img/none_selected.jpg","","89","main_expt",""
"","bandit","169","595731","0.0-130.0-0.0","08394486","wem/bandit_either_3","A1SLJKNSNHOJRN","either","7","502","","","","","","","0","0","1","","0.8716727139","0.8","0.6","0.2","0.4","0.8716727139","0.9014563988","0.9400480964","0.1241310956","","","","","","","","","","","","72","H","0","img/none_selected.jpg","","90","main_expt",""
"","bandit","170","597472","0.0-131.0-0.0","08394486","wem/bandit_either_3","A1SLJKNSNHOJRN","either","7","235","","","","","","","1","0","0","0.8969144331","","0.8","0.6","0.2","0.4","","","","","0.8969144331","0.9162570652","0.8961855863","0.09664170694","","","","","","","","72","H","0","img/none_selected.jpg","","91","main_expt",""
"","bandit","171","599386","0.0-132.0-0.0","08394486","wem/bandit_either_3","A1SLJKNSNHOJRN","either","7","407","","","","","","","1","0","0","0.9171199264","","0.8","0.6","0.2","0.4","","","","","0.9171199264","0.9171553871","0.9211437923","0.09586364307","","","","","","","","72","H","0","img/none_selected.jpg","","92","main_expt",""
"","bandit","172","601355","0.0-133.0-0.0","08394486","wem/bandit_either_3","A1SLJKNSNHOJRN","either","7","455","","","","","","","1","0","0","0.9593171332","","0.8","0.6","0.2","0.4","","","","","0.9593171332","0.9463284029","0.8947860396","0.08304118766","","","","","","","","72","H","0","img/none_selected.jpg","","93","main_expt",""
"","bandit","173","603310","0.0-134.0-0.0","08394486","wem/bandit_either_3","A1SLJKNSNHOJRN","either","7","440","","","","","","","1","0","0","0.959226596","","0.8","0.6","0.2","0.4","","","","","0.959226596","0.9477079066","0.822540961","0.1222865453","","","","","","","","72","H","0","img/none_selected.jpg","","94","main_expt",""
"","bandit","174","605223","0.0-135.0-0.0","08394486","wem/bandit_either_3","A1SLJKNSNHOJRN","either","7","409","","","","","","","1","0","0","0.947105423","","0.8","0.6","0.2","0.4","","","","","0.947105423","0.9474919074","0.8288041746","0.211460517","","","","","","","","72","H","0","img/none_selected.jpg","","95","main_expt",""
"","bandit","175","607088","0.0-136.0-0.0","08394486","wem/bandit_either_3","A1SLJKNSNHOJRN","either","7","359","","","","","","","1","0","0","0.937205139","","0.8","0.6","0.2","0.4","","","","","0.937205139","0.9722490369","0.8217366877","0.2757920232","","","","","","","","72","H","0","img/none_selected.jpg","","96","main_expt",""
"","bandit","176","609017","0.0-137.0-0.0","08394486","wem/bandit_either_3","A1SLJKNSNHOJRN","either","7","417","","","","","","","1","0","0","0.9472767204","","0.8","0.6","0.2","0.4","","","","","0.9472767204","0.980822097","0.725285089","0.2646876298","","","","","","","","72","H","0","img/none_selected.jpg","","97","main_expt",""
"","bandit","177","610851","0.0-138.0-0.0","08394486","wem/bandit_either_3","A1SLJKNSNHOJRN","either","7","319","","","","","","","1","0","0","0.962959595","","0.8","0.6","0.2","0.4","","","","","0.962959595","0.9761591307","0.7958966199","0.3278454636","","","","","","","","72","H","0","img/none_selected.jpg","","98","main_expt",""
"","bandit","178","612730","0.0-139.0-0.0","08394486","wem/bandit_either_3","A1SLJKNSNHOJRN","either","7","371","","","","","","","1","0","0","0.9720903607","","0.8","0.6","0.2","0.4","","","","","0.9720903607","0.9597391097","0.7741840332","0.4641870332","","","","","","","","72","H","0","img/none_selected.jpg","","99","main_expt",""
"","bandit","179","614677","0.0-140.0-0.0","08394486","wem/bandit_either_3","A1SLJKNSNHOJRN","either","7","432","","","","","","","1","0","0","0.9737169538","","0.8","0.6","0.2","0.4","","","","","0.9737169538","0.9557148533","0.7934767162","0.3972344865","","","","","","","","72","H","0","img/none_selected.jpg","","100","main_expt",""
"","bandit","180","616536","0.0-141.0-0.0","08394486","wem/bandit_either_3","A1SLJKNSNHOJRN","either","7","348","","","","","","","1","0","0","0.986468331","","0.8","0.6","0.2","0.4","","","","","0.986468331","0.9687934467","0.8307638242","0.4395304924","","","","","","","","72","H","0","img/none_selected.jpg","","101","main_expt",""
"","bandit","181","618323","0.0-142.0-0.0","08394486","wem/bandit_either_3","A1SLJKNSNHOJRN","either","7","272","","","","","","","1","0","0","0.9859557102","","0.8","0.6","0.2","0.4","","","","","0.9859557102","0.9713318577","0.7737236933","0.5248298482","","","","","","","","72","H","0","img/none_selected.jpg","","102","main_expt",""
"","bandit","182","620066","0.0-143.0-0.0","08394486","wem/bandit_either_3","A1SLJKNSNHOJRN","either","7","229","","","","","","","0","1","0","","0.9828698412","0.8","0.6","0.2","0.4","0.9828698412","0.9768128314","0.8168427084","0.6218364577","","","","","","","","","","","","72","H","0","img/none_selected.jpg","","103","main_expt",""
"","bandit","183","621866","0.0-144.0-0.0","08394486","wem/bandit_either_3","A1SLJKNSNHOJRN","either","7","284","","","","","","","0","1","0","","0.9655029871","0.8","0.6","0.2","0.4","0.9655029871","0.9566706727","0.7020104164","0.5528563194","","","","","","","","","","","","72","H","0","img/none_selected.jpg","","104","main_expt",""
"","bandit","184","623762","0.0-145.0-0.0","08394486","wem/bandit_either_3","A1SLJKNSNHOJRN","either","7","383","","","","","","","1","0","0","0.9587067199","","0.8","0.6","0.2","0.4","","","","","0.9587067199","0.9352711559","0.6750414237","0.515821512","","","","","","","","72","H","0","img/none_selected.jpg","","105","main_expt",""
"","bandit","185","625601","0.0-146.0-0.0","08394486","wem/bandit_either_3","A1SLJKNSNHOJRN","either","7","328","","","","","","","1","0","0","0.9358961366","","0.8","0.6","0.2","0.4","","","","","0.9358961366","0.8980036198","0.5886413089","0.5380341879","","","","","","","","72","H","0","img/none_selected.jpg","","106","main_expt",""
"","bandit","186","627674","0.0-147.0-0.0","08394486","wem/bandit_either_3","A1SLJKNSNHOJRN","either","7","552","","","","","","","1","0","0","0.8829949032","","0.8","0.6","0.2","0.4","","","","","0.8829949032","0.9175797088","0.5507707533","0.3291998873","","","","","","","","72","H","0","img/none_selected.jpg","","107","main_expt",""
"","bandit","187","629569","0.0-148.0-0.0","08394486","wem/bandit_either_3","A1SLJKNSNHOJRN","either","7","390","","","","","","","0","1","0","","0.7668100276","0.8","0.6","0.2","0.4","0.7668100276","0.8966825343","0.4325904974","0.3608627265","","","","","","","","","","","","72","H","0","img/none_selected.jpg","","108","main_expt",""
"","bandit","188","631610","0.0-149.0-0.0","08394486","wem/bandit_either_3","A1SLJKNSNHOJRN","either","7","533","","","","","","","1","0","0","0.7652463225","","0.8","0.6","0.2","0.4","","","","","0.7652463225","0.8883819791","0.3735159861","0.3837942066","","","","","","","","72","H","0","img/none_selected.jpg","","109","main_expt",""
"","bandit","189","633554","0.0-150.0-0.0","08394486","wem/bandit_either_3","A1SLJKNSNHOJRN","either","7","432","","","","","","","1","0","0","0.7974745759","","0.8","0.6","0.2","0.4","","","","","0.7974745759","0.9087011364","0.3704440872","0.3019365294","","","","","","","","72","H","0","img/none_selected.jpg","","110","main_expt",""
"","bandit","190","635811","0.0-151.0-0.0","08394486","wem/bandit_either_3","A1SLJKNSNHOJRN","either","7","742","","","","","","","1","0","0","0.812352323","","0.8","0.6","0.2","0.4","","","","","0.812352323","0.9337026812","0.2749067499","0.3483008865","","","","","","","","72","H","0","img/none_selected.jpg","","111","main_expt",""
"","bandit","191","637736","0.0-152.0-0.0","08394486","wem/bandit_either_3","A1SLJKNSNHOJRN","either","7","412","","","","","","","0","1","0","","0.7428975936","0.8","0.6","0.2","0.4","0.7428975936","0.9113388615","0.2734667401","0.4342302697","","","","","","","","","","","","72","H","0","img/none_selected.jpg","","112","main_expt",""
"","bandit","192","639562","0.0-153.0-0.0","08394486","wem/bandit_either_3","A1SLJKNSNHOJRN","either","7","319","","","","","","","0","1","0","","0.7139653514","0.8","0.6","0.2","0.4","0.7139653514","0.8980528729","0.2291946885","0.5187246657","","","","","","","","","","","","72","H","0","img/none_selected.jpg","","113","main_expt",""
"","bandit","193","641451","0.0-154.0-0.0","08394486","wem/bandit_either_3","A1SLJKNSNHOJRN","either","7","375","","","","","","","0","1","0","","0.7945657698","0.8","0.6","0.2","0.4","0.7945657698","0.8036326458","0.2413339081","0.5381742134","","","","","","","","","","","","72","H","0","img/none_selected.jpg","","114","main_expt",""
"","bandit","194","643337","0.0-155.0-0.0","08394486","wem/bandit_either_3","A1SLJKNSNHOJRN","either","7","376","","","","","","","0","1","0","","0.8405588069","0.8","0.6","0.2","0.4","0.8405588069","0.8700945717","0.3092826039","0.4785029821","","","","","","","","","","","","72","H","0","img/none_selected.jpg","","115","main_expt",""
"","bandit","195","645291","0.0-156.0-0.0","08394486","wem/bandit_either_3","A1SLJKNSNHOJRN","either","7","446","","","","","","","1","0","0","0.8641798474","","0.8","0.6","0.2","0.4","","","","","0.8641798474","0.8895114993","0.2361366225","0.4654757386","","","","","","","","72","H","0","img/none_selected.jpg","","116","main_expt",""
"","bandit","196","647379","0.0-157.0-0.0","08394486","wem/bandit_either_3","A1SLJKNSNHOJRN","either","7","574","","","","","","","0","0","1","0.8756768431","","0.8","0.6","0.2","0.4","","","","","0.8756768431","0.8936856952","0.218402711","0.4578633225","","","","","","","","72","H","0","img/none_selected.jpg","","117","main_expt",""
"","bandit","197","649129","0.0-158.0-0.0","08394486","wem/bandit_either_3","A1SLJKNSNHOJRN","either","7","243","","","","","","","1","0","0","0.9015269718","","0.8","0.6","0.2","0.4","","","","","0.9015269718","0.8077127093","0.2003641109","0.4773941538","","","","","","","","72","H","0","img/none_selected.jpg","","118","main_expt",""
"","bandit","198","650962","0.0-159.0-0.0","08394486","wem/bandit_either_3","A1SLJKNSNHOJRN","either","7","320","","","","","","","1","0","0","0.8709738884","","0.8","0.6","0.2","0.4","","","","","0.8709738884","0.8901108642","0.1375137305","0.508374463","","","","","","","","72","H","0","img/none_selected.jpg","","119","main_expt",""
"","bandit","199","652771","0.0-160.0-0.0","08394486","wem/bandit_either_3","A1SLJKNSNHOJRN","either","7","299","","","","","","","1","0","0","0.8268338002","","0.8","0.6","0.2","0.4","","","","","0.8268338002","0.8731124259","0.08656631556","0.4294310012","","","","","","","","72","H","0","img/none_selected.jpg","","120","main_expt",""
"","bandit","200","654837","0.0-161.0-0.0","08394486","wem/bandit_either_3","A1SLJKNSNHOJRN","either","7","551","","","","","","","1","0","0","0.8432616236","","0.8","0.6","0.2","0.4","","","","","0.8432616236","0.8509174952","0.07812634859","0.3933985885","","","","","","","","72","H","0","img/none_selected.jpg","","121","main_expt",""
"","bandit","201","656786","0.0-162.0-0.0","08394486","wem/bandit_either_3","A1SLJKNSNHOJRN","either","7","434","","","","","","","1","0","0","0.8128728295","","0.8","0.6","0.2","0.4","","","","","0.8128728295","0.8707856005","0.09046411854","0.2641409089","","","","","","","","72","H","0","img/none_selected.jpg","","122","main_expt",""
"","bandit","202","658554","0.0-163.0-0.0","08394486","wem/bandit_either_3","A1SLJKNSNHOJRN","either","7","256","","","","","","","0","1","0","","0.752198112","0.8","0.6","0.2","0.4","0.752198112","0.7592524618","0.1132512529","0.2491349268","","","","","","","","","","","","72","H","0","img/none_selected.jpg","","123","main_expt",""
"","bandit","203","660378","0.0-164.0-0.0","08394486","wem/bandit_either_3","A1SLJKNSNHOJRN","either","7","313","","","","","","","0","0","1","0.7117781612","","0.8","0.6","0.2","0.4","","","","","0.7117781612","0.7330206325","0.09419269712","0.2587226179","","","","","","","","72","H","0","img/none_selected.jpg","","124","main_expt",""
"","bandit","204","662073","0.0-165.0-0.0","08394486","wem/bandit_either_3","A1SLJKNSNHOJRN","either","7","174","","","","","","","1","0","0","0.7177409252","","0.8","0.6","0.2","0.4","","","","","0.7177409252","0.6903693331","0.110513045","0.2925679814","","","","","","","","72","H","0","img/none_selected.jpg","","125","main_expt",""
"","bandit","205","663898","0.0-166.0-0.0","08394486","wem/bandit_either_3","A1SLJKNSNHOJRN","either","7","310","","","","","","","0","1","0","","0.7240917845","0.8","0.6","0.2","0.4","0.7240917845","0.6370641568","0.07088043536","0.3997536411","","","","","","","","","","","","72","H","0","img/none_selected.jpg","","126","main_expt",""
"","bandit","206","665699","0.0-167.0-0.0","08394486","wem/bandit_either_3","A1SLJKNSNHOJRN","either","7","292","","","","","","","0","1","0","","0.6788578752","0.8","0.6","0.2","0.4","0.6788578752","0.6192694325","0.1041728595","0.4120812041","","","","","","","","","","","","72","H","0","img/none_selected.jpg","","127","main_expt",""
"","bandit","207","667465","0.0-168.0-0.0","08394486","wem/bandit_either_3","A1SLJKNSNHOJRN","either","7","253","","","","","","","0","0","1","0.6257789885","","0.8","0.6","0.2","0.4","","","","","0.6257789885","0.559348281","0.1006708935","0.3731276689","","","","","","","","72","H","0","img/none_selected.jpg","","128","main_expt",""
"","bandit","208","669075","0.0-169.0-0.0","08394486","wem/bandit_either_3","A1SLJKNSNHOJRN","either","7","94","","","","","","","1","0","0","0.4761868647","","0.8","0.6","0.2","0.4","","","","","0.4761868647","0.610360397","0.1336488566","0.3263017501","","","","","","","","72","H","0","img/none_selected.jpg","","129","main_expt",""
"","bandit","209","670825","0.0-170.0-0.0","08394486","wem/bandit_either_3","A1SLJKNSNHOJRN","either","7","242","","","","","","","1","0","0","0.4745188583","","0.8","0.6","0.2","0.4","","","","","0.4745188583","0.5737783772","0.1271550391","0.3226142564","","","","","","","","72","H","0","img/none_selected.jpg","","130","main_expt",""
"","bandit","210","672626","0.0-171.0-0.0","08394486","wem/bandit_either_3","A1SLJKNSNHOJRN","either","7","287","","","","","","","0","0","1","0.4674409752","","0.8","0.6","0.2","0.4","","","","","0.4674409752","0.6252154127","0.1594360192","0.3907136596","","","","","","","","72","H","0","img/none_selected.jpg","","131","main_expt",""
"","bandit","211","674252","0.0-172.0-0.0","08394486","wem/bandit_either_3","A1SLJKNSNHOJRN","either","7","115","","","","","","","1","0","0","0.368649462","","0.8","0.6","0.2","0.4","","","","","0.368649462","0.6473056352","0.1027658661","0.4983036492","","","","","","","","72","H","0","img/none_selected.jpg","","132","main_expt",""
"","bandit","212","676144","0.0-173.0-0.0","08394486","wem/bandit_either_3","A1SLJKNSNHOJRN","either","7","379","","","","","","","1","0","0","0.4313577514","","0.8","0.6","0.2","0.4","","","","","0.4313577514","0.4595123468","0.1223548883","0.6347393695","","","","","","","","72","H","0","img/none_selected.jpg","","133","main_expt",""
"","bandit","213","677946","0.0-174.0-0.0","08394486","wem/bandit_either_3","A1SLJKNSNHOJRN","either","7","294","","","","","","","0","0","1","","0.3692150919","0.8","0.6","0.2","0.4","0.3692150919","0.3043385566","0.1063029331","0.6037412299","","","","","","","","","","","","72","H","0","img/none_selected.jpg","","134","main_expt",""
"","bandit","214","679721","0.0-175.0-0.0","08394486","wem/bandit_either_3","A1SLJKNSNHOJRN","either","7","269","","","","","","","0","0","1","0.3077662431","","0.8","0.6","0.2","0.4","","","","","0.3077662431","0.340857567","0.080644856","0.5511090861","","","","","","","","72","H","0","img/none_selected.jpg","","135","main_expt",""
"","bandit","215","681250","0.0-176.0-0.0","08394486","wem/bandit_either_3","A1SLJKNSNHOJRN","either","7","22","","","","","","","1","0","0","0.2655810755","","0.8","0.6","0.2","0.4","","","","","0.314969588","0.2655810755","0.1359867045","0.585911414","","","","","","","","74","J","1","","","136","main_expt",""
"","bandit","216","682984","0.0-177.0-0.0","08394486","wem/bandit_either_3","A1SLJKNSNHOJRN","either","7","228","","","","","","","0","1","0","","0.3025530854","0.8","0.6","0.2","0.4","0.3590847215","0.3025530854","0.168344283","0.5805905743","","","","","","","","","","","","74","J","1","","","137","main_expt",""
"","bandit","217","684841","0.0-178.0-0.0","08394486","wem/bandit_either_3","A1SLJKNSNHOJRN","either","7","350","","","","","","","0","0","1","","0.2888348812","0.8","0.6","0.2","0.4","0.3588584756","0.2888348812","0.1867455324","0.6357737786","","","","","","","","","","","","74","J","1","","","138","main_expt",""
"","bandit","218","686545","0.0-179.0-0.0","08394486","wem/bandit_either_3","A1SLJKNSNHOJRN","either","7","199","","","","","","","0","0","1","0.2463208975","","0.8","0.6","0.2","0.4","","","","","0.4289761638","0.2463208975","0.2277874407","0.66639317","","","","","","","","74","J","1","","","139","main_expt",""
"","bandit","219","688337","0.0-180.0-0.0","08394486","wem/bandit_either_3","A1SLJKNSNHOJRN","either","7","283","","","","","","","0","0","1","","0.273109751","0.8","0.6","0.2","0.4","0.3801639999","0.273109751","0.2577820179","0.6365789307","","","","","","","","","","","","74","J","1","","","140","main_expt",""
"","bandit","220","689979","0.0-181.0-0.0","08394486","wem/bandit_either_3","A1SLJKNSNHOJRN","either","7","126","","","","","","","0","0","1","0.2445936549","","0.8","0.6","0.2","0.4","","","","","0.2445936549","0.3355442787","0.3674069736","0.6045632144","","","","","","","","72","H","0","img/none_selected.jpg","","141","main_expt",""
"","bandit","221","691841","0.0-182.0-0.0","08394486","wem/bandit_either_3","A1SLJKNSNHOJRN","either","7","348","","","","","","","0","1","0","","0.4345417514","0.8","0.6","0.2","0.4","0.3394066497","0.2781999234","0.4345417514","0.5148607161","","","","","","","","","","","","75","K","2","","","142","main_expt",""
"","bandit","222","693609","0.0-183.0-0.0","08394486","wem/bandit_either_3","A1SLJKNSNHOJRN","either","7","261","","","","","","","0","0","1","","0.3811672827","0.8","0.6","0.2","0.4","0.2899754881","0.2599467226","0.3811672827","0.4754154836","","","","","","","","","","","","75","K","2","","","143","main_expt",""
"","bandit","223","695482","0.0-184.0-0.0","08394486","wem/bandit_either_3","A1SLJKNSNHOJRN","either","7","357","","","","","","","1","0","0","0.2754059391","","0.8","0.6","0.2","0.4","","","","","0.3701332444","0.2353144144","0.2754059391","0.516029258","","","","","","","","75","K","2","","","144","main_expt",""
"","bandit","224","697354","0.0-185.0-0.0","08394486","wem/bandit_either_3","A1SLJKNSNHOJRN","either","7","358","","","","","","","0","0","1","","0.2773400324","0.8","0.6","0.2","0.4","0.3322753171","0.2120114759","0.2773400324","0.6646605279","","","","","","","","","","","","75","K","2","","","145","main_expt",""
"","bandit","225","699130","0.0-186.0-0.0","08394486","wem/bandit_either_3","A1SLJKNSNHOJRN","either","7","268","","","","","","","0","0","1","","0.2780426824","0.8","0.6","0.2","0.4","0.3203507811","0.176067728","0.2780426824","0.6331546467","","","","","","","","","","","","75","K","2","","","146","main_expt",""
"","bandit","226","700970","0.0-187.0-0.0","08394486","wem/bandit_either_3","A1SLJKNSNHOJRN","either","7","324","","","","","","","0","0","1","0.3373608721","","0.8","0.6","0.2","0.4","","","","","0.304761248","0.1329453439","0.3373608721","0.6356747602","","","","","","","","75","K","2","","","147","main_expt",""
"","bandit","227","702689","0.0-188.0-0.0","08394486","wem/bandit_either_3","A1SLJKNSNHOJRN","either","7","212","","","","","","","0","1","0","","0.6301772709","0.8","0.6","0.2","0.4","0.3809280674","0.1465103875","0.3529594122","0.6301772709","","","","","","","","","","","","76","L","3","","","148","main_expt",""
"","bandit","228","704451","0.0-189.0-0.0","08394486","wem/bandit_either_3","A1SLJKNSNHOJRN","either","7","252","","","","","","","1","0","0","0.6640591829","","0.8","0.6","0.2","0.4","","","","","0.3997986218","0.1190451538","0.3878328211","0.6640591829","","","","","","","","76","L","3","","","149","main_expt",""
"","bandit","229","706256","0.0-190.0-0.0","08394486","wem/bandit_either_3","A1SLJKNSNHOJRN","either","7","292","","","","","","","0","1","0","","0.6592717552","0.8","0.6","0.2","0.4","0.3159341416","0.1195570164","0.42943501","0.6592717552","","","","","","","","","","","","76","L","3","","","150","main_expt",""
"","bandit","230","708122","0.0-191.0-0.0","08394486","wem/bandit_either_3","A1SLJKNSNHOJRN","either","7","358","","","","","","","0","1","0","","0.5928743102","0.8","0.6","0.2","0.4","0.3052853957","0.100492686","0.5142681232","0.5928743102","","","","","","","","","","","","76","L","3","","","151","main_expt",""
"","bandit","231","709881","0.0-192.0-0.0","08394486","wem/bandit_either_3","A1SLJKNSNHOJRN","either","7","253","","","","","","","0","1","0","","0.6822187145","0.8","0.6","0.2","0.4","0.1896018403","0.1030367897","0.6321073962","0.6822187145","","","","","","","","","","","","76","L","3","","","152","main_expt",""
"","bandit","232","711698","0.0-193.0-0.0","08394486","wem/bandit_either_3","A1SLJKNSNHOJRN","either","7","302","","","","","","","0","1","0","","0.6832005509","0.8","0.6","0.2","0.4","0.2439656658","0.2059045691","0.6965670792","0.6832005509","","","","","","","","","","","","76","L","3","","","153","main_expt",""
"","bandit","233","713483","0.0-194.0-0.0","08394486","wem/bandit_either_3","A1SLJKNSNHOJRN","either","7","277","","","","","","","1","0","0","0.7109729062","","0.8","0.6","0.2","0.4","","","","","0.3068434149","0.2921647579","0.6516005735","0.7109729062","","","","","","","","76","L","3","","","154","main_expt",""
"","bandit","234","715354","0.0-195.0-0.0","08394486","wem/bandit_either_3","A1SLJKNSNHOJRN","either","7","363","","","","","","","1","0","0","0.6975465092","","0.8","0.6","0.2","0.4","","","","","0.2314644909","0.1789694193","0.7291318088","0.6975465092","","","","","","","","76","L","3","","","155","main_expt",""
"","bandit","235","717169","0.0-196.0-0.0","08394486","wem/bandit_either_3","A1SLJKNSNHOJRN","either","7","307","","","","","","","1","0","0","0.6580608271","","0.8","0.6","0.2","0.4","","","","","0.2154001061","0.2187195075","0.6273572288","0.6580608271","","","","","","","","76","L","3","","","156","main_expt",""
"","bandit","236","719065","0.0-197.0-0.0","08394486","wem/bandit_either_3","A1SLJKNSNHOJRN","either","7","383","","","","","","","1","0","0","0.5695802138","","0.8","0.6","0.2","0.4","","","","","0.1648135251","0.2669834713","0.566197257","0.5695802138","","","","","","","","76","L","3","","","157","main_expt",""
"","bandit","237","720802","0.0-198.0-0.0","08394486","wem/bandit_either_3","A1SLJKNSNHOJRN","either","7","221","","","","","","","0","1","0","","0.4733954301","0.8","0.6","0.2","0.4","0.2215973425","0.4240307821","0.4523642269","0.4733954301","","","","","","","","","","","","76","L","3","","","158","main_expt",""
"","bandit","238","722561","0.0-199.0-0.0","08394486","wem/bandit_either_3","A1SLJKNSNHOJRN","either","7","245","","","","","","","0","0","1","","0.5619817243","0.8","0.6","0.2","0.4","0.2243274726","0.3840951437","0.3991212054","0.5619817243","","","","","","","","","","","","76","L","3","","","159","main_expt",""
"","bandit","239","724337","0.0-200.0-0.0","08394486","wem/bandit_either_3","A1SLJKNSNHOJRN","either","7","261","","","","","","","1","0","0","0.4701658979","","0.8","0.6","0.2","0.4","","","","","0.2061161075","0.4098147986","0.3566558104","0.4701658979","","","","","","","","76","L","3","","","160","main_expt",""
"","bandit","240","726091","0.0-201.0-0.0","08394486","wem/bandit_either_3","A1SLJKNSNHOJRN","either","7","238","","","","","","","0","0","1","0.5673671472","","0.8","0.6","0.2","0.4","","","","","0.209200141","0.4027252302","0.4430908041","0.5673671472","","","","","","","","76","L","3","","","161","main_expt",""
"","bandit","241","727858","0.0-202.0-0.0","08394486","wem/bandit_either_3","A1SLJKNSNHOJRN","either","7","251","","","","","","","1","0","0","0.4921809208","","0.8","0.6","0.2","0.4","","","","","0.1477343718","0.3824170733","0.3966098285","0.4921809208","","","","","","","","76","L","3","","","162","main_expt",""
"","bandit","242","729640","0.0-203.0-0.0","08394486","wem/bandit_either_3","A1SLJKNSNHOJRN","either","7","275","","","","","","","0","0","1","0.4204505308","","0.8","0.6","0.2","0.4","","","","","0.1525050104","0.3352280924","0.3455868331","0.4204505308","","","","","","","","76","L","3","","","163","main_expt",""
"","bandit","243","731474","0.0-204.0-0.0","08394486","wem/bandit_either_3","A1SLJKNSNHOJRN","either","7","323","","","","","","","0","0","1","0.534748173","","0.8","0.6","0.2","0.4","","","","","0.08831047354","0.3379187571","0.3368969945","0.534748173","","","","","","","","76","L","3","","","164","main_expt",""
"","bandit","244","733409","0.0-205.0-0.0","08394486","wem/bandit_either_3","A1SLJKNSNHOJRN","either","7","420","","","","","","","0","0","1","","0.4724966102","0.8","0.6","0.2","0.4","0.1035482763","0.3160546663","0.3767562303","0.4724966102","","","","","","","","","","","","76","L","3","","","165","main_expt",""
"","bandit","245","735034","0.0-206.0-0.0","08394486","wem/bandit_either_3","A1SLJKNSNHOJRN","either","7","109","","","","","","","0","0","1","0.06888190676","","0.8","0.6","0.2","0.4","","","","","0.06888190676","0.3058359067","0.4727650462","0.5280505203","","","","","","","","72","H","0","img/none_selected.jpg","","166","main_expt",""
"","bandit","246","736881","0.0-207.0-0.0","08394486","wem/bandit_either_3","A1SLJKNSNHOJRN","either","7","340","","","","","","","0","0","1","0.06051452263","","0.8","0.6","0.2","0.4","","","","","0.06051452263","0.2561334246","0.6140635231","0.589670135","","","","","","","","72","H","0","img/none_selected.jpg","","167","main_expt",""
"","bandit","247","738689","0.0-208.0-0.0","08394486","wem/bandit_either_3","A1SLJKNSNHOJRN","either","7","292","","","","","","","0","0","1","","0.2459084815","0.8","0.6","0.2","0.4","0.07905307949","0.2459084815","0.5629225295","0.5058201204","","","","","","","","","","","","74","J","1","","","168","main_expt",""
"","bandit","248","740513","0.0-209.0-0.0","08394486","wem/bandit_either_3","A1SLJKNSNHOJRN","either","7","317","","","","","","","0","0","1","","0.6456076899","0.8","0.6","0.2","0.4","0.07051596905","0.2138460752","0.6456076899","0.4102709571","","","","","","","","","","","","75","K","2","","","169","main_expt",""
"","bandit","249","742305","0.0-210.0-0.0","08394486","wem/bandit_either_3","A1SLJKNSNHOJRN","either","7","278","","","","","","","0","0","1","0.5061826445","","0.8","0.6","0.2","0.4","","","","","0.1056762318","0.1642406351","0.719827795","0.5061826445","","","","","","","","76","L","3","","","170","main_expt",""
"","bandit","250","744126","0.0-211.0-0.0","08394486","wem/bandit_either_3","A1SLJKNSNHOJRN","either","7","299","","","","","","","0","0","1","","0.6092158501","0.8","0.6","0.2","0.4","0.1513980822","0.2337150112","0.6716280274","0.6092158501","","","","","","","","","","","","76","L","3","","","171","main_expt",""
"","bandit","251","745945","0.0-212.0-0.0","08394486","wem/bandit_either_3","A1SLJKNSNHOJRN","either","7","304","","","","","","","0","1","0","","0.691496366","0.8","0.6","0.2","0.4","0.1552293495","0.3128682212","0.5683226388","0.691496366","","","","","","","","","","","","76","L","3","","","172","main_expt",""
"","bandit","252","747754","0.0-213.0-0.0","08394486","wem/bandit_either_3","A1SLJKNSNHOJRN","either","7","299","","","","","","","0","0","1","0.7402253768","","0.8","0.6","0.2","0.4","","","","","0.1325975083","0.2775517843","0.4581357746","0.7402253768","","","","","","","","76","L","3","","","173","main_expt",""
"","bandit","253","749521","0.0-214.0-0.0","08394486","wem/bandit_either_3","A1SLJKNSNHOJRN","either","7","260","","","","","","","0","0","1","0.09024892351","","0.8","0.6","0.2","0.4","","","","","0.09024892351","0.4159305855","0.5903479164","0.6601004511","","","","","","","","72","H","0","img/none_selected.jpg","","174","main_expt",""
"","bandit","254","751243","0.0-215.0-0.0","08394486","wem/bandit_either_3","A1SLJKNSNHOJRN","either","7","214","","","","","","","1","0","0","0.06963745108","","0.8","0.6","0.2","0.4","","","","","0.06963745108","0.4471770837","0.5658285383","0.6781732273","","","","","","","","72","H","0","img/none_selected.jpg","","175","main_expt",""
"","bandit","255","753153","0.0-216.0-0.0","08394486","wem/bandit_either_3","A1SLJKNSNHOJRN","either","7","404","","","","","","","0","0","1","","0.07897043431","0.8","0.6","0.2","0.4","0.07897043431","0.5162211083","0.5313506173","0.6932650799","","","","","","","","","","","","72","H","0","img/none_selected.jpg","","176","main_expt",""
"","bandit","256","754956","0.0-217.0-0.0","08394486","wem/bandit_either_3","A1SLJKNSNHOJRN","either","7","295","","","","","","","0","0","1","0.09469685393","","0.8","0.6","0.2","0.4","","","","","0.09469685393","0.6372676231","0.4231289234","0.6803850572","","","","","","","","72","H","0","img/none_selected.jpg","","177","main_expt",""
"","bandit","257","756720","0.0-218.0-0.0","08394486","wem/bandit_either_3","A1SLJKNSNHOJRN","either","7","245","","","","","","","0","0","1","","0.6295749113","0.8","0.6","0.2","0.4","0.1486386852","0.6295749113","0.580807006","0.5407017663","","","","","","","","","","","","74","J","1","","","178","main_expt",""
"","bandit","258","758514","0.0-219.0-0.0","08394486","wem/bandit_either_3","A1SLJKNSNHOJRN","either","7","286","","","","","","","0","0","1","0.4126066341","","0.8","0.6","0.2","0.4","","","","","0.1965095934","0.4126066341","0.5499948007","0.5931576708","","","","","","","","74","J","1","","","179","main_expt",""
"","bandit","259","760289","0.0-220.0-0.0","08394486","wem/bandit_either_3","A1SLJKNSNHOJRN","either","7","268","","","","","","","0","1","0","","0.516991344","0.8","0.6","0.2","0.4","0.1749048096","0.516991344","0.4918200669","0.5390819372","","","","","","","","","","","","74","J","1","","","180","main_expt",""
"","bandit","260","762081","0.0-221.0-0.0","08394486","wem/bandit_either_3","A1SLJKNSNHOJRN","either","7","276","","","","","","","0","0","1","0.4239603033","","0.8","0.6","0.2","0.4","","","","","0.232896561","0.4239603033","0.5428702931","0.4929910299","","","","","","","","74","J","1","","","181","main_expt",""
"","bandit","261","763840","0.0-222.0-0.0","08394486","wem/bandit_either_3","A1SLJKNSNHOJRN","either","7","253","","","","","","","0","1","0","","0.5870547156","0.8","0.6","0.2","0.4","0.2561822725","0.3961891141","0.5870547156","0.458433212","","","","","","","","","","","","75","K","2","","","182","main_expt",""
"","bandit","262","765739","0.0-223.0-0.0","08394486","wem/bandit_either_3","A1SLJKNSNHOJRN","either","7","388","","","","","","","0","0","1","","0.5031908535","0.8","0.6","0.2","0.4","0.2713883962","0.4364601233","0.5031908535","0.5725449786","","","","","","","","","","","","75","K","2","","","183","main_expt",""
"","bandit","263","767688","0.0-224.0-0.0","08394486","wem/bandit_either_3","A1SLJKNSNHOJRN","either","7","442","","","","","","","0","0","1","","0.4239978994","0.8","0.6","0.2","0.4","0.3543557679","0.4826964198","0.4239978994","0.4878383732","","","","","","","","","","","","75","K","2","","","184","main_expt",""
"","bandit","264","769362","0.0-225.0-0.0","08394486","wem/bandit_either_3","A1SLJKNSNHOJRN","either","7","166","","","","","","","0","0","1","0.5189350158","","0.8","0.6","0.2","0.4","","","","","0.2974533566","0.4448789548","0.3425545299","0.5189350158","","","","","","","","76","L","3","","","185","main_expt",""
"","bandit","265","771162","0.0-226.0-0.0","08394486","wem/bandit_either_3","A1SLJKNSNHOJRN","either","7","283","","","","","","","0","0","1","0.3295130888","","0.8","0.6","0.2","0.4","","","","","0.3295130888","0.4585835861","0.2594221554","0.4310300585","","","","","","","","72","H","0","img/none_selected.jpg","","186","main_expt",""
"","bandit","266","772961","0.0-227.0-0.0","08394486","wem/bandit_either_3","A1SLJKNSNHOJRN","either","7","285","","","","","","","1","0","0","0.5470412386","","0.8","0.6","0.2","0.4","","","","","0.3440574025","0.5470412386","0.350747246","0.4005994516","","","","","","","","74","J","1","","","187","main_expt",""
"","bandit","267","774731","0.0-228.0-0.0","08394486","wem/bandit_either_3","A1SLJKNSNHOJRN","either","7","252","","","","","","","0","0","1","","0.5485419855","0.8","0.6","0.2","0.4","0.3176863717","0.5485419855","0.3667816541","0.5684333967","","","","","","","","","","","","74","J","1","","","188","main_expt",""
"","bandit","268","776540","0.0-229.0-0.0","08394486","wem/bandit_either_3","A1SLJKNSNHOJRN","either","7","292","","","","","","","1","0","0","0.6161015427","","0.8","0.6","0.2","0.4","","","","","0.3194332301","0.6161015427","0.3129240978","0.5768443477","","","","","","","","74","J","1","","","189","main_expt",""
"","bandit","269","778474","0.0-230.0-0.0","08394486","wem/bandit_either_3","A1SLJKNSNHOJRN","either","7","417","","","","","","","0","0","1","0.5145576236","","0.8","0.6","0.2","0.4","","","","","0.3585260795","0.5145576236","0.3681084497","0.6091254975","","","","","","","","74","J","1","","","190","main_expt",""
"","bandit","270","780169","0.0-231.0-0.0","08394486","wem/bandit_either_3","A1SLJKNSNHOJRN","either","7","188","","","","","","","0","0","1","","0.4447609651","0.8","0.6","0.2","0.4","0.4438822556","0.4447609651","0.3284994938","0.6355225437","","","","","","","","","","","","74","J","1","","","191","main_expt",""
"","bandit","271","781946","0.0-232.0-0.0","08394486","wem/bandit_either_3","A1SLJKNSNHOJRN","either","7","260","","","","","","","0","0","1","0.4273979598","","0.8","0.6","0.2","0.4","","","","","0.6336907385","0.4273979598","0.2913335268","0.7449996868","","","","","","","","74","J","1","","","192","main_expt",""
"","bandit","272","783608","0.0-233.0-0.0","08394486","wem/bandit_either_3","A1SLJKNSNHOJRN","either","7","145","","","","","","","0","1","0","","0.5871300795","0.8","0.6","0.2","0.4","0.5871300795","0.4382354048","0.3614904019","0.7645281636","","","","","","","","","","","","72","H","0","img/none_selected.jpg","","193","main_expt",""
"","bandit","273","785387","0.0-234.0-0.0","08394486","wem/bandit_either_3","A1SLJKNSNHOJRN","either","7","271","","","","","","","0","1","0","","0.5919999684","0.8","0.6","0.2","0.4","0.5919999684","0.4367950698","0.4180963095","0.7417458559","","","","","","","","","","","","72","H","0","img/none_selected.jpg","","194","main_expt",""
"","bandit","274","787385","0.0-235.0-0.0","08394486","wem/bandit_either_3","A1SLJKNSNHOJRN","either","7","479","","","","","","","0","0","1","","0.5599221581","0.8","0.6","0.2","0.4","0.5599221581","0.4306922929","0.4129416526","0.7102393491","","","","","","","","","","","","72","H","0","img/none_selected.jpg","","195","main_expt",""
"","bandit","275","789210","0.0-236.0-0.0","08394486","wem/bandit_either_3","A1SLJKNSNHOJRN","either","7","307","","","","","","","0","1","0","","0.4552797342","0.8","0.6","0.2","0.4","0.4552797342","0.4436260943","0.6027995291","0.6846894693","","","","","","","","","","","","72","H","0","img/none_selected.jpg","","196","main_expt",""
"","bandit","276","791171","0.0-237.0-0.0","08394486","wem/bandit_either_3","A1SLJKNSNHOJRN","either","7","452","","","","","","","0","0","1","0.3045440077","","0.8","0.6","0.2","0.4","","","","","0.3045440077","0.4547077395","0.6174547511","0.6573901597","","","","","","","","72","H","0","img/none_selected.jpg","","197","main_expt",""
"","bandit","277","792970","0.0-238.0-0.0","08394486","wem/bandit_either_3","A1SLJKNSNHOJRN","either","7","291","","","","","","","0","0","1","0.4061180554","","0.8","0.6","0.2","0.4","","","","","0.4061180554","0.545148617","0.5727893511","0.7020762336","","","","","","","","72","H","0","img/none_selected.jpg","","198","main_expt",""
"","bandit","278","794896","0.0-239.0-0.0","08394486","wem/bandit_either_3","A1SLJKNSNHOJRN","either","7","421","","","","","","","0","0","1","0.3406873398","","0.8","0.6","0.2","0.4","","","","","0.3406873398","0.5838562778","0.5803616598","0.7749867965","","","","","","","","72","H","0","img/none_selected.jpg","","199","main_expt",""
"","bandit","279","796536","0.0-240.0-0.0","08394486","wem/bandit_either_3","A1SLJKNSNHOJRN","either","7","131","","","","","","","0","0","1","0.5109940584","","0.8","0.6","0.2","0.4","","","","","0.2810551981","0.6569131065","0.5109940584","0.7971262248","","","","","","","","75","K","2","","","200","main_expt",""
"","bandit","280","798274","0.0-241.0-0.0","08394486","wem/bandit_either_3","A1SLJKNSNHOJRN","either","7","220","","","","","","","0","0","1","","0.6431063495","0.8","0.6","0.2","0.4","0.2295892347","0.6559739125","0.444158281","0.6431063495","","","","","","","","","","","","76","L","3","","","201","main_expt",""
"","bandit","281","800033","0.0-242.0-0.0","08394486","wem/bandit_either_3","A1SLJKNSNHOJRN","either","7","252","","","","","","","0","1","0","","0.6153479028","0.8","0.6","0.2","0.4","0.2134833186","0.5940698896","0.3774362348","0.6153479028","","","","","","","","","","","","76","L","3","","","202","main_expt",""
"","bandit","282","801809","0.0-243.0-0.0","08394486","wem/bandit_either_3","A1SLJKNSNHOJRN","either","7","258","","","","","","","0","0","1","0.6107921693","","0.8","0.6","0.2","0.4","","","","","0.1538434825","0.6288005559","0.2852638898","0.6107921693","","","","","","","","76","L","3","","","203","main_expt",""
"","bandit","283","803601","0.0-244.0-0.0","08394486","wem/bandit_either_3","A1SLJKNSNHOJRN","either","7","275","","","","","","","0","0","1","","0.6364312764","0.8","0.6","0.2","0.4","0.08629221539","0.7483345684","0.3900316507","0.6364312764","","","","","","","","","","","","76","L","3","","","204","main_expt",""
"","bandit","284","805396","0.0-245.0-0.0","08394486","wem/bandit_either_3","A1SLJKNSNHOJRN","either","7","285","","","","","","","0","1","0","","0.7098325313","0.8","0.6","0.2","0.4","0.1303029892","0.7823609999","0.3334674042","0.7098325313","","","","","","","","","","","","76","L","3","","","205","main_expt",""
"","bandit","285","807145","0.0-246.0-0.0","08394486","wem/bandit_either_3","A1SLJKNSNHOJRN","either","7","235","","","","","","","0","0","1","","0.6423198407","0.8","0.6","0.2","0.4","0.1290793888","0.7053347691","0.3997779834","0.6423198407","","","","","","","","","","","","76","L","3","","","206","main_expt",""
"","bandit","286","808914","0.0-247.0-0.0","08394486","wem/bandit_either_3","A1SLJKNSNHOJRN","either","7","261","","","","","","","0","0","1","","0.7196337679","0.8","0.6","0.2","0.4","0.1471003053","0.692958529","0.2791746034","0.7196337679","","","","","","","","","","","","76","L","3","","","207","main_expt",""
"","bandit","287","810761","0.0-248.0-0.0","08394486","wem/bandit_either_3","A1SLJKNSNHOJRN","either","7","338","","","","","","","0","0","1","","0.3447420344","0.8","0.6","0.2","0.4","0.1204476287","0.5726600787","0.3447420344","0.7273253538","","","","","","","","","","","","75","K","2","","","208","main_expt",""
"","bandit","288","812657","0.0-249.0-0.0","08394486","wem/bandit_either_3","A1SLJKNSNHOJRN","either","7","388","","","","","","","0","0","1","","0.2106944101","0.8","0.6","0.2","0.4","0.1752658923","0.7193759884","0.2106944101","0.7701678217","","","","","","","","","","","","75","K","2","","","209","main_expt",""
"","bandit","289","814496","0.0-250.0-0.0","08394486","wem/bandit_either_3","A1SLJKNSNHOJRN","either","7","321","","","","","","","1","0","0","0.5469619257","","0.8","0.6","0.2","0.4","","","","","0.2071456167","0.5469619257","0.2609791638","0.7673062315","","","","","","","","74","J","1","","","210","main_expt",""
"","bandit","290","816319","0.0-251.0-0.0","08394486","wem/bandit_either_3","A1SLJKNSNHOJRN","either","7","307","","","","","","","1","0","0","0.5432746348","","0.8","0.6","0.2","0.4","","","","","0.1982577311","0.5432746348","0.3702243554","0.7733207599","","","","","","","","74","J","1","","","211","main_expt",""
"","bandit","291","818219","0.0-252.0-0.0","08394486","wem/bandit_either_3","A1SLJKNSNHOJRN","either","7","391","","","","","","","0","0","1","","0.4857525371","0.8","0.6","0.2","0.4","0.2837026457","0.4857525371","0.4070014152","0.7176010575","","","","","","","","","","","","74","J","1","","","212","main_expt",""
"","bandit","292","819972","0.0-253.0-0.0","08394486","wem/bandit_either_3","A1SLJKNSNHOJRN","either","7","241","","","","","","","0","0","1","0.4416723402","","0.8","0.6","0.2","0.4","","","","","0.2192955177","0.4416723402","0.5001351259","0.7241732444","","","","","","","","74","J","1","","","213","main_expt",""
"","bandit","293","821835","0.0-254.0-0.0","08394486","wem/bandit_either_3","A1SLJKNSNHOJRN","either","7","355","","","","","","","0","0","1","0.4231083207","","0.8","0.6","0.2","0.4","","","","","0.2885853396","0.4231083207","0.5667049056","0.6696022014","","","","","","","","74","J","1","","","214","main_expt",""
"","bandit","294","823762","0.0-255.0-0.0","08394486","wem/bandit_either_3","A1SLJKNSNHOJRN","either","7","420","","","","","","","0","0","1","0.329019478","","0.8","0.6","0.2","0.4","","","","","0.2451296471","0.329019478","0.5259574602","0.6255990046","","","","","","","","74","J","1","","","215","main_expt",""
"","bandit","295","825441","0.0-256.0-0.0","08394486","wem/bandit_either_3","A1SLJKNSNHOJRN","either","7","165","","","","","","","0","0","1","0.1946790852","","0.8","0.6","0.2","0.4","","","","","0.1946790852","0.3469743373","0.5468860011","0.6771362935","","","","","","","","72","H","0","img/none_selected.jpg","","216","main_expt",""
"","bandit","296","827209","0.0-257.0-0.0","08394486","wem/bandit_either_3","A1SLJKNSNHOJRN","either","7","250","","","","","","","1","0","0","0.2497229096","","0.8","0.6","0.2","0.4","","","","","0.2497229096","0.3618740044","0.6182745027","0.6918953154","","","","","","","","72","H","0","img/none_selected.jpg","","217","main_expt",""
"","bandit","297","828954","0.0-258.0-0.0","08394486","wem/bandit_either_3","A1SLJKNSNHOJRN","either","7","237","","","","","","","0","0","1","0.3076421025","","0.8","0.6","0.2","0.4","","","","","0.3076421025","0.3574217595","0.5979125128","0.5726390237","","","","","","","","72","H","0","img/none_selected.jpg","","218","main_expt",""
"","bandit","298","830730","0.0-259.0-0.0","08394486","wem/bandit_either_3","A1SLJKNSNHOJRN","either","7","269","","","","","","","0","1","0","","0.3862686792","0.8","0.6","0.2","0.4","0.3488941347","0.3862686792","0.5321687475","0.5179196303","","","","","","","","","","","","74","J","1","","","219","main_expt",""
"","bandit","299","832568","0.0-260.0-0.0","08394486","wem/bandit_either_3","A1SLJKNSNHOJRN","either","7","320","","","","","","","0","0","1","0.4432846828","","0.8","0.6","0.2","0.4","","","","","0.306784001","0.4432846828","0.6053830099","0.5578222379","","","","","","","","74","J","1","","","220","main_expt",""
"","bandit","300","834337","0.0-261.0-0.0","08394486","wem/bandit_either_3","A1SLJKNSNHOJRN","either","7","253","","","","","","","0","1","0","","0.6640911266","0.8","0.6","0.2","0.4","0.3786925452","0.432499938","0.69383498","0.6640911266","","","","","","","","","","","","76","L","3","","","221","main_expt",""
"","bandit","301","836088","0.0-262.0-0.0","08394486","wem/bandit_either_3","A1SLJKNSNHOJRN","either","7","233","","","","","","","1","0","0","0.4050903391","","0.8","0.6","0.2","0.4","","","","","0.5014801557","0.4050903391","0.783375317","0.7340686256","","","","","","","","74","J","1","","","222","main_expt",""
"","bandit","302","838129","0.0-263.0-0.0","08394486","wem/bandit_either_3","A1SLJKNSNHOJRN","either","7","524","","","","","","","0","0","1","0.3282593462","","0.8","0.6","0.2","0.4","","","","","0.4081704387","0.3282593462","0.8374489269","0.852862777","","","","","","","","74","J","1","","","223","main_expt",""
"","bandit","303","839881","0.0-264.0-0.0","08394486","wem/bandit_either_3","A1SLJKNSNHOJRN","either","7","231","","","","","","","0","1","0","","0.7830506485","0.8","0.6","0.2","0.4","0.422296693","0.2465370002","0.7801262993","0.7830506485","","","","","","","","","","","","76","L","3","","","224","main_expt",""
"","bandit","304","841737","0.0-265.0-0.0","08394486","wem/bandit_either_3","A1SLJKNSNHOJRN","either","7","338","","","","","","","0","0","1","0.2260872052","","0.8","0.6","0.2","0.4","","","","","0.3998144739","0.2260872052","0.7438235551","0.7447555501","","","","","","","","74","J","1","","","225","main_expt",""
"","bandit","305","843545","0.0-266.0-0.0","08394486","wem/bandit_either_3","A1SLJKNSNHOJRN","either","7","290","","","","","","","0","1","0","","0.7331719472","0.8","0.6","0.2","0.4","0.2692780115","0.2573895518","0.7561714458","0.7331719472","","","","","","","","","","","","76","L","3","","","226","main_expt",""
"","bandit","306","845433","0.0-267.0-0.0","08394486","wem/bandit_either_3","A1SLJKNSNHOJRN","either","7","380","","","","","","","0","0","1","0.2134597582","","0.8","0.6","0.2","0.4","","","","","0.268728261","0.2134597582","0.7527106072","0.6417259928","","","","","","","","74","J","1","","","227","main_expt",""
"","bandit","307","847281","0.0-268.0-0.0","08394486","wem/bandit_either_3","A1SLJKNSNHOJRN","either","7","331","","","","","","","1","0","0","0.6050549784","","0.8","0.6","0.2","0.4","","","","","0.2211951924","0.348479141","0.6315627418","0.6050549784","","","","","","","","76","L","3","","","228","main_expt",""
"","bandit","308","849028","0.0-269.0-0.0","08394486","wem/bandit_either_3","A1SLJKNSNHOJRN","either","7","237","","","","","","","1","0","0","0.219241791","","0.8","0.6","0.2","0.4","","","","","0.219241791","0.3250735223","0.5564086662","0.5962230341","","","","","","","","72","H","0","img/none_selected.jpg","","229","main_expt",""
"","bandit","309","850674","0.0-270.0-0.0","08394486","wem/bandit_either_3","A1SLJKNSNHOJRN","either","7","128","","","","","","","0","0","1","0.5594933722","","0.8","0.6","0.2","0.4","","","","","0.291585141","0.3395219718","0.5895813861","0.5594933722","","","","","","","","76","L","3","","","230","main_expt",""
"","bandit","310","852482","0.0-271.0-0.0","08394486","wem/bandit_either_3","A1SLJKNSNHOJRN","either","7","290","","","","","","","0","0","1","0.2754541949","","0.8","0.6","0.2","0.4","","","","","0.2754541949","0.3315483329","0.6148213975","0.6411036761","","","","","","","","72","H","0","img/none_selected.jpg","","231","main_expt",""
"","bandit","311","854257","0.0-272.0-0.0","08394486","wem/bandit_either_3","A1SLJKNSNHOJRN","either","7","258","","","","","","","0","1","0","","0.6653930637","0.8","0.6","0.2","0.4","0.3055336503","0.3876030756","0.5176988489","0.6653930637","","","","","","","","","","","","76","L","3","","","232","main_expt",""
"","bandit","312","856035","0.0-273.0-0.0","08394486","wem/bandit_either_3","A1SLJKNSNHOJRN","either","7","257","","","","","","","0","0","1","0.3696248546","","0.8","0.6","0.2","0.4","","","","","0.3390100853","0.3696248546","0.4505666118","0.5426719569","","","","","","","","74","J","1","","","233","main_expt",""
"","bandit","313","857817","0.0-274.0-0.0","08394486","wem/bandit_either_3","A1SLJKNSNHOJRN","either","7","271","","","","","","","0","0","1","0.3165323161","","0.8","0.6","0.2","0.4","","","","","0.3165323161","0.3927474605","0.4393496879","0.5581360181","","","","","","","","72","H","0","img/none_selected.jpg","","234","main_expt",""
"","bandit","314","859759","0.0-275.0-0.0","08394486","wem/bandit_either_3","A1SLJKNSNHOJRN","either","7","421","","","","","","","0","1","0","","0.5299247183","0.8","0.6","0.2","0.4","0.2944333127","0.4734072524","0.3542725407","0.5299247183","","","","","","","","","","","","76","L","3","","","235","main_expt",""
"","bandit","315","861512","0.0-276.0-0.0","08394486","wem/bandit_either_3","A1SLJKNSNHOJRN","either","7","246","","","","","","","1","0","0","0.4127469632","","0.8","0.6","0.2","0.4","","","","","0.4127469632","0.5857320117","0.452511288","0.4709954077","","","","","","","","72","H","0","img/none_selected.jpg","","236","main_expt",""
"","bandit","316","863292","0.0-277.0-0.0","08394486","wem/bandit_either_3","A1SLJKNSNHOJRN","either","7","259","","","","","","","0","0","1","","0.5208556897","0.8","0.6","0.2","0.4","0.4353664578","0.5208556897","0.4743784035","0.4171051322","","","","","","","","","","","","74","J","1","","","237","main_expt",""
"","bandit","317","865209","0.0-278.0-0.0","08394486","wem/bandit_either_3","A1SLJKNSNHOJRN","either","7","398","","","","","","","0","1","0","","0.40722148","0.8","0.6","0.2","0.4","0.3871798792","0.4551370454","0.4666998134","0.40722148","","","","","","","","","","","","76","L","3","","","238","main_expt",""
"","bandit","318","866969","0.0-279.0-0.0","08394486","wem/bandit_either_3","A1SLJKNSNHOJRN","either","7","242","","","","","","","0","0","1","","0.3244704863","0.8","0.6","0.2","0.4","0.3244704863","0.2979137516","0.4916456171","0.3113271407","","","","","","","","","","","","72","H","0","img/none_selected.jpg","","239","main_expt",""
