"consent","trial_type","trial_index","time_elapsed","internal_node_id","subjID","study","MID","cond","drift","rt","responses","key_press","expt_phase","like","value","connected","gems","bombs","no_reward","GemPrChosen","BombPrChosen","GainOverPainPr_0","GainOverPainPr_1","GainOverPainPr_2","GainOverPainPr_3","LosePr_0","LosePr_1","LosePr_2","LosePr_3","WinPr_0","WinPr_1","WinPr_2","WinPr_3","Q0","Q1","Q2","gender","age","ethnicity","target","respCharCode","respKey","respChoiceNum","respChoice","practice","trial_counter","trial_label","button_pressed"
"INL_behavioral_consent_30min_online.html","consent","0","40133","0.0-0.0","11439204","wem/bandit_either_3","A2FLOH4DM8A4ZS","either","7","","","","","","","","","","","","","","","","","","","","","","","","","","","","","","","","","","","","","","",""
"","survey-text","1","54843","0.0-1.0","11439204","wem/bandit_either_3","A2FLOH4DM8A4ZS","either","7","13695","{""Q0"":""A2FLOH4DM8A4ZS""}","","","","","","","","","","","","","","","","","","","","","","","","","","","","","","","","","","","","",""
"","text","2","93124","0.0-2.0","11439204","wem/bandit_either_3","A2FLOH4DM8A4ZS","either","7","37272","","32","","","","","","","","","","","","","","","","","","","","","","","","","","","","","","","","","","","",""
"","text","3","103770","0.0-3.0","11439204","wem/bandit_either_3","A2FLOH4DM8A4ZS","either","7","10642","","32","","","","","","","","","","","","","","","","","","","","","","","","","","","","","","","","","","","",""
"","text","4","158716","0.0-4.0","11439204","wem/bandit_either_3","A2FLOH4DM8A4ZS","either","7","54939","","32","","","","","","","","","","","","","","","","","","","","","","","","","","","","","","","","","","","",""
"","text","5","175955","0.0-5.0","11439204","wem/bandit_either_3","A2FLOH4DM8A4ZS","either","7","17232","","32","","","","","","","","","","","","","","","","","","","","","","","","","","","","","","","","","","","",""
"","text","6","237145","0.0-6.0","11439204","wem/bandit_either_3","A2FLOH4DM8A4ZS","either","7","61185","","32","","","","","","","","","","","","","","","","","","","","","","","","","","","","","","","","","","","",""
"","text","7","249842","0.0-7.0","11439204","wem/bandit_either_3","A2FLOH4DM8A4ZS","either","7","12689","","32","","","","","","","","","","","","","","","","","","","","","","","","","","","","","","","","","","","",""
"","text","8","254976","0.0-8.0","11439204","wem/bandit_either_3","A2FLOH4DM8A4ZS","either","7","5129","","32","","","","","","","","","","","","","","","","","","","","","","","","","","","","","","","","","","","",""
"","identification","9","270086","0.0-9.0-0.0","11439204","wem/bandit_either_3","A2FLOH4DM8A4ZS","either","7","15060","","","","0","0","0","","","","","","","","","","","","","","","","","","","","","","","","the village of Zur","","","","","","","",""
"","identification","10","286100","0.0-9.0-1.0","11439204","wem/bandit_either_3","A2FLOH4DM8A4ZS","either","7","14972","","","","1","1","1","","","","","","","","","","","","","","","","","","","","","","","","the village of Nyx","","","","","","","",""
"","text","11","295278","0.0-10.0","11439204","wem/bandit_either_3","A2FLOH4DM8A4ZS","either","7","8159","","32","","","","","","","","","","","","","","","","","","","","","","","","","","","","","","","","","","","",""
"","text","12","300445","0.0-11.0","11439204","wem/bandit_either_3","A2FLOH4DM8A4ZS","either","7","5165","","32","","","","","","","","","","","","","","","","","","","","","","","","","","","","","","","","","","","",""
"","text","13","302302","0.0-12.0","11439204","wem/bandit_either_3","A2FLOH4DM8A4ZS","either","7","1854","","32","","","","","","","","","","","","","","","","","","","","","","","","","","","","","","","","","","","",""
"","text","14","309886","0.0-13.0","11439204","wem/bandit_either_3","A2FLOH4DM8A4ZS","either","7","7581","","32","","","","","","","","","","","","","","","","","","","","","","","","","","","","","","","","","","","",""
"","bandit","15","313126","0.0-14.0-0.0","11439204","wem/bandit_either_3","A2FLOH4DM8A4ZS","either","7","1698","","","","","","","0","0","1","0","0","","","","","0","","","","0","","","","","","","","","","","74","J","0","img/none_selected_demo.jpg","true","0","",""
"","bandit","16","315995","0.0-15.0-0.0","11439204","wem/bandit_either_3","A2FLOH4DM8A4ZS","either","7","1333","","","","","","","0","0","1","0","0","","","","","0","","","","0","","","","","","","","","","","75","K","0","img/none_selected_demo.jpg","true","0","",""
"","text","17","325559","0.0-16.0","11439204","wem/bandit_either_3","A2FLOH4DM8A4ZS","either","7","9560","","32","","","","","","","","","","","","","","","","","","","","","","","","","","","","","","","","","","","",""
"","text","18","342151","0.0-17.0","11439204","wem/bandit_either_3","A2FLOH4DM8A4ZS","either","7","16590","","32","","","","","","","","","","","","","","","","","","","","","","","","","","","","","","","","","","","",""
"","text","19","348397","0.0-18.0","11439204","wem/bandit_either_3","A2FLOH4DM8A4ZS","either","7","6244","","32","","","","","","","","","","","","","","","","","","","","","","","","","","","","","","","","","","","",""
"","text","20","354389","0.0-19.0","11439204","wem/bandit_either_3","A2FLOH4DM8A4ZS","either","7","5989","","32","","","","","","","","","","","","","","","","","","","","","","","","","","","","","","","","","","","",""
"","bandit","21","357584","0.0-20.0-0.0","11439204","wem/bandit_either_3","A2FLOH4DM8A4ZS","either","7","1656","","","","","","","0","1","0","","0.8","0.5","0.5","","","0.8","0.2","","","","","","","","","","","","","","74","J","0","img/none_selected_demo.jpg","true","0","80_20_practice",""
"","bandit","22","359550","0.0-20.0-1.0","11439204","wem/bandit_either_3","A2FLOH4DM8A4ZS","either","7","418","","","","","","","1","0","0","0.8","","0.5","0.5","","","","","","","0.8","0.2","","","","","","","","","","74","J","0","img/none_selected_demo.jpg","true","0","80_20_practice",""
"","bandit","23","361421","0.0-20.0-2.0","11439204","wem/bandit_either_3","A2FLOH4DM8A4ZS","either","7","333","","","","","","","0","0","1","","0.8","0.5","0.5","","","0.8","0.2","","","","","","","","","","","","","","74","J","0","img/none_selected_demo.jpg","true","0","80_20_practice",""
"","bandit","24","363404","0.0-20.0-3.0","11439204","wem/bandit_either_3","A2FLOH4DM8A4ZS","either","7","438","","","","","","","1","0","0","0.8","","0.5","0.5","","","","","","","0.8","0.2","","","","","","","","","","74","J","0","img/none_selected_demo.jpg","true","0","80_20_practice",""
"","bandit","25","365339","0.0-20.0-4.0","11439204","wem/bandit_either_3","A2FLOH4DM8A4ZS","either","7","392","","","","","","","1","0","0","0.8","","0.5","0.5","","","","","","","0.8","0.2","","","","","","","","","","74","J","0","img/none_selected_demo.jpg","true","0","80_20_practice",""
"","bandit","26","367224","0.0-20.0-5.0","11439204","wem/bandit_either_3","A2FLOH4DM8A4ZS","either","7","339","","","","","","","0","1","0","","0.8","0.5","0.5","","","0.8","0.2","","","","","","","","","","","","","","74","J","0","img/none_selected_demo.jpg","true","0","80_20_practice",""
"","bandit","27","369144","0.0-20.0-6.0","11439204","wem/bandit_either_3","A2FLOH4DM8A4ZS","either","7","379","","","","","","","0","0","1","0.8","","0.5","0.5","","","","","","","0.8","0.2","","","","","","","","","","74","J","0","img/none_selected_demo.jpg","true","0","80_20_practice",""
"","bandit","28","371048","0.0-20.0-7.0","11439204","wem/bandit_either_3","A2FLOH4DM8A4ZS","either","7","364","","","","","","","0","1","0","","0.8","0.5","0.5","","","0.8","0.2","","","","","","","","","","","","","","74","J","0","img/none_selected_demo.jpg","true","0","80_20_practice",""
"","bandit","29","373076","0.0-20.0-8.0","11439204","wem/bandit_either_3","A2FLOH4DM8A4ZS","either","7","489","","","","","","","1","0","0","0.8","","0.5","0.5","","","","","","","0.8","0.2","","","","","","","","","","74","J","0","img/none_selected_demo.jpg","true","0","80_20_practice",""
"","bandit","30","375161","0.0-20.0-9.0","11439204","wem/bandit_either_3","A2FLOH4DM8A4ZS","either","7","527","","","","","","","0","1","0","","0.8","0.5","0.5","","","0.8","0.2","","","","","","","","","","","","","","74","J","0","img/none_selected_demo.jpg","true","0","80_20_practice",""
"","bandit","31","377240","0.0-20.0-10.0","11439204","wem/bandit_either_3","A2FLOH4DM8A4ZS","either","7","539","","","","","","","0","1","0","","0.8","0.5","0.5","","","0.8","0.2","","","","","","","","","","","","","","74","J","0","img/none_selected_demo.jpg","true","0","80_20_practice",""
"","bandit","32","379175","0.0-20.0-11.0","11439204","wem/bandit_either_3","A2FLOH4DM8A4ZS","either","7","397","","","","","","","0","0","1","0.8","","0.5","0.5","","","","","","","0.8","0.2","","","","","","","","","","74","J","0","img/none_selected_demo.jpg","true","0","80_20_practice",""
"","bandit","33","380999","0.0-20.0-12.0","11439204","wem/bandit_either_3","A2FLOH4DM8A4ZS","either","7","284","","","","","","","1","0","0","0.8","","0.5","0.5","","","","","","","0.8","0.2","","","","","","","","","","74","J","0","img/none_selected_demo.jpg","true","0","80_20_practice",""
"","bandit","34","382716","0.0-20.0-13.0","11439204","wem/bandit_either_3","A2FLOH4DM8A4ZS","either","7","188","","","","","","","1","0","0","0.8","","0.5","0.5","","","","","","","0.8","0.2","","","","","","","","","","74","J","0","img/none_selected_demo.jpg","true","0","80_20_practice",""
"","bandit","35","384493","0.0-20.0-14.0","11439204","wem/bandit_either_3","A2FLOH4DM8A4ZS","either","7","237","","","","","","","0","1","0","","0.8","0.5","0.5","","","0.8","0.2","","","","","","","","","","","","","","74","J","0","img/none_selected_demo.jpg","true","0","80_20_practice",""
"","bandit","36","386273","0.0-20.0-15.0","11439204","wem/bandit_either_3","A2FLOH4DM8A4ZS","either","7","238","","","","","","","0","1","0","","0.8","0.5","0.5","","","0.8","0.2","","","","","","","","","","","","","","74","J","0","img/none_selected_demo.jpg","true","0","80_20_practice",""
"","bandit","37","388024","0.0-20.0-16.0","11439204","wem/bandit_either_3","A2FLOH4DM8A4ZS","either","7","219","","","","","","","0","1","0","","0.8","0.5","0.5","","","0.8","0.2","","","","","","","","","","","","","","74","J","0","img/none_selected_demo.jpg","true","0","80_20_practice",""
"","bandit","38","389798","0.0-20.0-17.0","11439204","wem/bandit_either_3","A2FLOH4DM8A4ZS","either","7","224","","","","","","","0","1","0","","0.8","0.5","0.5","","","0.8","0.2","","","","","","","","","","","","","","74","J","0","img/none_selected_demo.jpg","true","0","80_20_practice",""
"","bandit","39","391451","0.0-20.0-18.0","11439204","wem/bandit_either_3","A2FLOH4DM8A4ZS","either","7","131","","","","","","","0","1","0","","0.8","0.5","0.5","","","0.8","0.2","","","","","","","","","","","","","","74","J","0","img/none_selected_demo.jpg","true","0","80_20_practice",""
"","bandit","40","393169","0.0-20.0-19.0","11439204","wem/bandit_either_3","A2FLOH4DM8A4ZS","either","7","190","","","","","","","0","0","1","0.8","","0.5","0.5","","","","","","","0.8","0.2","","","","","","","","","","74","J","0","img/none_selected_demo.jpg","true","0","80_20_practice",""
"","text","41","400889","0.0-21.0","11439204","wem/bandit_either_3","A2FLOH4DM8A4ZS","either","7","7717","","32","","","","","","","","","","","","","","","","","","","","","","","","","","","","","","","","","","","",""
"","bandit","42","404618","0.0-22.0-0.0","11439204","wem/bandit_either_3","A2FLOH4DM8A4ZS","either","7","2177","","","","","","","1","0","0","1","0","","","","","0","1","","","1","0","","","","","","","","","","74","J","0","img/none_selected_demo.jpg","true","0","",""
"","text","43","410468","0.0-23.0","11439204","wem/bandit_either_3","A2FLOH4DM8A4ZS","either","7","5846","","32","","","","","","","","","","","","","","","","","","","","","","","","","","","","","","","","","","","",""
"","text","44","413324","0.0-24.0","11439204","wem/bandit_either_3","A2FLOH4DM8A4ZS","either","7","2853","","32","","","","","","","","","","","","","","","","","","","","","","","","","","","","","","","","","","","",""
"","text","45","416308","0.0-25.0","11439204","wem/bandit_either_3","A2FLOH4DM8A4ZS","either","7","2981","","32","","","","","","","","","","","","","","","","","","","","","","","","","","","","","","","","","","","",""
"","text","46","420076","0.0-26.0","11439204","wem/bandit_either_3","A2FLOH4DM8A4ZS","either","7","3765","","32","","","","","","","","","","","","","","","","","","","","","","","","","","","","","","","","","","","",""
"","text","47","432316","0.0-27.0","11439204","wem/bandit_either_3","A2FLOH4DM8A4ZS","either","7","12233","","32","","","","","","","","","","","","","","","","","","","","","","","","","","","","","","","","","","","",""
"","text","48","435268","0.0-28.0","11439204","wem/bandit_either_3","A2FLOH4DM8A4ZS","either","7","2947","","32","","","","","","","","","","","","","","","","","","","","","","","","","","","","","","","","","","","",""
"","text","49","441876","0.0-29.0","11439204","wem/bandit_either_3","A2FLOH4DM8A4ZS","either","7","6606","","32","","","","","","","","","","","","","","","","","","","","","","","","","","","","","","","","","","","",""
"","text","50","446644","0.0-30.0","11439204","wem/bandit_either_3","A2FLOH4DM8A4ZS","either","7","4766","","32","","","","","","","","","","","","","","","","","","","","","","","","","","","","","","","","","","","",""
"","text","51","451516","0.0-31.0","11439204","wem/bandit_either_3","A2FLOH4DM8A4ZS","either","7","4869","","32","","","","","","","","","","","","","","","","","","","","","","","","","","","","","","","","","","","",""
"","text","52","455372","0.0-32.0","11439204","wem/bandit_either_3","A2FLOH4DM8A4ZS","either","7","3853","","32","","","","","","","","","","","","","","","","","","","","","","","","","","","","","","","","","","","",""
"","text","53","458379","0.0-33.0","11439204","wem/bandit_either_3","A2FLOH4DM8A4ZS","either","7","3005","","32","","","","","","","","","","","","","","","","","","","","","","","","","","","","","","","","","","","",""
"","bandit","54","460345","0.0-34.0-0.0","11439204","wem/bandit_either_3","A2FLOH4DM8A4ZS","either","7","429","","","","","","","0","1","0","","0.8","0.5","0.5","0.5","0.5","0.8","0.2","0.6","0.2","","","","","","","","","","","","72","H","0","img/none_selected.jpg","true","0","full_practice",""
"","bandit","55","462166","0.0-34.0-1.0","11439204","wem/bandit_either_3","A2FLOH4DM8A4ZS","either","7","281","","","","","","","1","0","0","0.8","","0.5","0.5","0.5","0.5","","","","","0.8","0.2","0.6","0.2","","","","","","","","72","H","0","img/none_selected.jpg","true","0","full_practice",""
"","bandit","56","463899","0.0-34.0-2.0","11439204","wem/bandit_either_3","A2FLOH4DM8A4ZS","either","7","186","","","","","","","0","0","1","0.8","","0.5","0.5","0.5","0.5","","","","","0.8","0.2","0.6","0.2","","","","","","","","72","H","0","img/none_selected.jpg","true","0","full_practice",""
"","bandit","57","465629","0.0-34.0-3.0","11439204","wem/bandit_either_3","A2FLOH4DM8A4ZS","either","7","192","","","","","","","0","1","0","","0.8","0.5","0.5","0.5","0.5","0.8","0.2","0.6","0.2","","","","","","","","","","","","72","H","0","img/none_selected.jpg","true","0","full_practice",""
"","bandit","58","467477","0.0-34.0-4.0","11439204","wem/bandit_either_3","A2FLOH4DM8A4ZS","either","7","286","","","","","","","0","1","0","","0.8","0.5","0.5","0.5","0.5","0.8","0.2","0.6","0.2","","","","","","","","","","","","72","H","0","img/none_selected.jpg","true","0","full_practice",""
"","bandit","59","469157","0.0-34.0-5.0","11439204","wem/bandit_either_3","A2FLOH4DM8A4ZS","either","7","148","","","","","","","1","0","0","0.8","","0.5","0.5","0.5","0.5","","","","","0.8","0.2","0.6","0.2","","","","","","","","72","H","0","img/none_selected.jpg","true","0","full_practice",""
"","bandit","60","470839","0.0-34.0-6.0","11439204","wem/bandit_either_3","A2FLOH4DM8A4ZS","either","7","142","","","","","","","0","1","0","","0.8","0.5","0.5","0.5","0.5","0.8","0.2","0.6","0.2","","","","","","","","","","","","72","H","0","img/none_selected.jpg","true","0","full_practice",""
"","bandit","61","472540","0.0-34.0-7.0","11439204","wem/bandit_either_3","A2FLOH4DM8A4ZS","either","7","154","","","","","","","1","0","0","0.8","","0.5","0.5","0.5","0.5","","","","","0.8","0.2","0.6","0.2","","","","","","","","72","H","0","img/none_selected.jpg","true","0","full_practice",""
"","bandit","62","474193","0.0-34.0-8.0","11439204","wem/bandit_either_3","A2FLOH4DM8A4ZS","either","7","125","","","","","","","0","1","0","","0.8","0.5","0.5","0.5","0.5","0.8","0.2","0.6","0.2","","","","","","","","","","","","72","H","0","img/none_selected.jpg","true","0","full_practice",""
"","bandit","63","475863","0.0-34.0-9.0","11439204","wem/bandit_either_3","A2FLOH4DM8A4ZS","either","7","121","","","","","","","0","1","0","","0.8","0.5","0.5","0.5","0.5","0.8","0.2","0.6","0.2","","","","","","","","","","","","72","H","0","img/none_selected.jpg","true","0","full_practice",""
"","bandit","64","477594","0.0-34.0-10.0","11439204","wem/bandit_either_3","A2FLOH4DM8A4ZS","either","7","188","","","","","","","1","0","0","0.8","","0.5","0.5","0.5","0.5","","","","","0.8","0.2","0.6","0.2","","","","","","","","72","H","0","img/none_selected.jpg","true","0","full_practice",""
"","bandit","65","479264","0.0-34.0-11.0","11439204","wem/bandit_either_3","A2FLOH4DM8A4ZS","either","7","151","","","","","","","0","0","1","","0.8","0.5","0.5","0.5","0.5","0.8","0.2","0.6","0.2","","","","","","","","","","","","72","H","0","img/none_selected.jpg","true","0","full_practice",""
"","bandit","66","480982","0.0-34.0-12.0","11439204","wem/bandit_either_3","A2FLOH4DM8A4ZS","either","7","179","","","","","","","1","0","0","0.8","","0.5","0.5","0.5","0.5","","","","","0.8","0.2","0.6","0.2","","","","","","","","72","H","0","img/none_selected.jpg","true","0","full_practice",""
"","bandit","67","482540","0.0-34.0-13.0","11439204","wem/bandit_either_3","A2FLOH4DM8A4ZS","either","7","20","","","","","","","0","1","0","","0.8","0.5","0.5","0.5","0.5","0.8","0.2","0.6","0.2","","","","","","","","","","","","72","H","0","img/none_selected.jpg","true","0","full_practice",""
"","bandit","68","484179","0.0-34.0-14.0","11439204","wem/bandit_either_3","A2FLOH4DM8A4ZS","either","7","91","","","","","","","0","0","1","0.8","","0.5","0.5","0.5","0.5","","","","","0.8","0.2","0.6","0.2","","","","","","","","72","H","0","img/none_selected.jpg","true","0","full_practice",""
"","bandit","69","485884","0.0-34.0-15.0","11439204","wem/bandit_either_3","A2FLOH4DM8A4ZS","either","7","130","","","","","","","1","0","0","0.8","","0.5","0.5","0.5","0.5","","","","","0.8","0.2","0.6","0.2","","","","","","","","72","H","0","img/none_selected.jpg","true","0","full_practice",""
"","bandit","70","487797","0.0-34.0-16.0","11439204","wem/bandit_either_3","A2FLOH4DM8A4ZS","either","7","366","","","","","","","1","0","0","0.8","","0.5","0.5","0.5","0.5","","","","","0.8","0.2","0.6","0.2","","","","","","","","72","H","0","img/none_selected.jpg","true","0","full_practice",""
"","bandit","71","489435","0.0-34.0-17.0","11439204","wem/bandit_either_3","A2FLOH4DM8A4ZS","either","7","92","","","","","","","0","1","0","","0.8","0.5","0.5","0.5","0.5","0.8","0.2","0.6","0.2","","","","","","","","","","","","72","H","0","img/none_selected.jpg","true","0","full_practice",""
"","bandit","72","491151","0.0-34.0-18.0","11439204","wem/bandit_either_3","A2FLOH4DM8A4ZS","either","7","174","","","","","","","0","1","0","","0.8","0.5","0.5","0.5","0.5","0.8","0.2","0.6","0.2","","","","","","","","","","","","72","H","0","img/none_selected.jpg","true","0","full_practice",""
"","bandit","73","492757","0.0-34.0-19.0","11439204","wem/bandit_either_3","A2FLOH4DM8A4ZS","either","7","75","","","","","","","1","0","0","0.8","","0.5","0.5","0.5","0.5","","","","","0.8","0.2","0.6","0.2","","","","","","","","72","H","0","img/none_selected.jpg","true","0","full_practice",""
"","text","74","529243","0.0-35.0","11439204","wem/bandit_either_3","A2FLOH4DM8A4ZS","either","7","36478","","32","","","","","","","","","","","","","","","","","","","","","","","","","","","","","","","","","","","",""
"","text","75","546450","0.0-36.0","11439204","wem/bandit_either_3","A2FLOH4DM8A4ZS","either","7","16195","","32","","","","","","","","","","","","","","","","","","","","","","","","","","","","","","","","","","","",""
"","text","76","558522","0.0-37.0","11439204","wem/bandit_either_3","A2FLOH4DM8A4ZS","either","7","12068","","32","","","","","","","","","","","","","","","","","","","","","","","","","","","","","","","","","","","",""
"","text","77","564545","0.0-38.0","11439204","wem/bandit_either_3","A2FLOH4DM8A4ZS","either","7","6020","","32","","","","","","","","","","","","","","","","","","","","","","","","","","","","","","","","","","","",""
"","text","78","571137","0.0-39.0","11439204","wem/bandit_either_3","A2FLOH4DM8A4ZS","either","7","6588","","32","","","","","","","","","","","","","","","","","","","","","","","","","","","","","","","","","","","",""
"","text","79","576761","0.0-40.0","11439204","wem/bandit_either_3","A2FLOH4DM8A4ZS","either","7","5620","","32","","","","","","","","","","","","","","","","","","","","","","","","","","","","","","","","","","","",""
"","bandit","80","579617","0.0-41.0-0.0","11439204","wem/bandit_either_3","A2FLOH4DM8A4ZS","either","7","1308","","","","","","","0","0","1","0.2888626749","","0.6","0.4","0.8","0.2","","","","","0.2888626749","0.1731741302","0.7088318221","0.5514722813","","","","","","","","72","H","0","img/none_selected.jpg","","1","main_expt",""
"","bandit","81","581411","0.0-42.0-0.0","11439204","wem/bandit_either_3","A2FLOH4DM8A4ZS","either","7","246","","","","","","","0","0","1","0.3999538902","","0.6","0.4","0.8","0.2","","","","","0.3999538902","0.2874485847","0.6292935488","0.5039303977","","","","","","","","72","H","0","img/none_selected.jpg","","2","main_expt",""
"","bandit","82","583237","0.0-43.0-0.0","11439204","wem/bandit_either_3","A2FLOH4DM8A4ZS","either","7","272","","","","","","","0","1","0","","0.2683250969","0.6","0.4","0.8","0.2","0.4126831114","0.2683250969","0.5285482983","0.5527877924","","","","","","","","","","","","74","J","1","","","3","main_expt",""
"","bandit","83","584922","0.0-44.0-0.0","11439204","wem/bandit_either_3","A2FLOH4DM8A4ZS","either","7","137","","","","","","","0","0","1","","0.3988631097","0.6","0.4","0.8","0.2","0.3923803367","0.3988631097","0.6744491701","0.6336700584","","","","","","","","","","","","74","J","1","","","4","main_expt",""
"","bandit","84","586496","0.0-45.0-0.0","11439204","wem/bandit_either_3","A2FLOH4DM8A4ZS","either","7","38","","","","","","","0","1","0","","0.3568799457","0.6","0.4","0.8","0.2","0.3803283439","0.3568799457","0.7922285807","0.6340088104","","","","","","","","","","","","74","J","1","","","5","main_expt",""
"","bandit","85","588041","0.0-46.0-0.0","11439204","wem/bandit_either_3","A2FLOH4DM8A4ZS","either","7","5","","","","","","","0","1","0","","0.3188731731","0.6","0.4","0.8","0.2","0.4214296899","0.3188731731","0.7459441126","0.5784181907","","","","","","","","","","","","74","J","1","","","6","main_expt",""
"","bandit","86","589618","0.0-47.0-0.0","11439204","wem/bandit_either_3","A2FLOH4DM8A4ZS","either","7","40","","","","","","","1","0","0","0.4574196012","","0.6","0.4","0.8","0.2","","","","","0.4755968838","0.4574196012","0.7681481668","0.6727083857","","","","","","","","74","J","1","","","7","main_expt",""
"","bandit","87","591318","0.0-48.0-0.0","11439204","wem/bandit_either_3","A2FLOH4DM8A4ZS","either","7","156","","","","","","","0","0","1","","0.5037884951","0.6","0.4","0.8","0.2","0.5353568537","0.5037884951","0.7251609313","0.7574508858","","","","","","","","","","","","74","J","1","","","8","main_expt",""
"","bandit","88","592973","0.0-49.0-0.0","11439204","wem/bandit_either_3","A2FLOH4DM8A4ZS","either","7","116","","","","","","","0","0","1","","0.5750013994","0.6","0.4","0.8","0.2","0.6246831942","0.5750013994","0.7403055102","0.8280759311","","","","","","","","","","","","74","J","1","","","9","main_expt",""
"","bandit","89","594608","0.0-50.0-0.0","11439204","wem/bandit_either_3","A2FLOH4DM8A4ZS","either","7","114","","","","","","","0","0","1","0.722944265","","0.6","0.4","0.8","0.2","","","","","0.4475954046","0.5399040382","0.722944265","0.859726102","","","","","","","","75","K","2","","","10","main_expt",""
"","bandit","90","596200","0.0-51.0-0.0","11439204","wem/bandit_either_3","A2FLOH4DM8A4ZS","either","7","46","","","","","","","0","1","0","","0.6833847698","0.6","0.4","0.8","0.2","0.4514702697","0.5181098662","0.6833847698","0.877956501","","","","","","","","","","","","75","K","2","","","11","main_expt",""
"","bandit","91","597791","0.0-52.0-0.0","11439204","wem/bandit_either_3","A2FLOH4DM8A4ZS","either","7","47","","","","","","","0","0","1","0.689227163","","0.6","0.4","0.8","0.2","","","","","0.4873058782","0.5489165229","0.689227163","0.8883669707","","","","","","","","75","K","2","","","12","main_expt",""
"","bandit","92","599337","0.0-53.0-0.0","11439204","wem/bandit_either_3","A2FLOH4DM8A4ZS","either","7","6","","","","","","","0","1","0","","0.817149195","0.6","0.4","0.8","0.2","0.4862469224","0.6186986429","0.5178623456","0.817149195","","","","","","","","","","","","76","L","3","","","13","main_expt",""
"","bandit","93","600929","0.0-54.0-0.0","11439204","wem/bandit_either_3","A2FLOH4DM8A4ZS","either","7","56","","","","","","","0","1","0","","0.8589139609","0.6","0.4","0.8","0.2","0.360908092","0.4944095791","0.4768489018","0.8589139609","","","","","","","","","","","","76","L","3","","","14","main_expt",""
"","bandit","94","602647","0.0-55.0-0.0","11439204","wem/bandit_either_3","A2FLOH4DM8A4ZS","either","7","127","","","","","","","0","1","0","","0.7955781648","0.6","0.4","0.8","0.2","0.4126647893","0.4820951366","0.5201849276","0.7955781648","","","","","","","","","","","","76","L","3","","","15","main_expt",""
"","bandit","95","604983","0.0-56.0-0.0","11439204","wem/bandit_either_3","A2FLOH4DM8A4ZS","either","7","788","","","","","","","0","1","0","","0.8864445785","0.6","0.4","0.8","0.2","0.4930686601","0.4888848296","0.6862231469","0.8864445785","","","","","","","","","","","","76","L","3","","","16","main_expt",""
"","bandit","96","606886","0.0-57.0-0.0","11439204","wem/bandit_either_3","A2FLOH4DM8A4ZS","either","7","360","","","","","","","0","1","0","","0.8746062981","0.6","0.4","0.8","0.2","0.5162343008","0.381306026","0.7297328357","0.8746062981","","","","","","","","","","","","76","L","3","","","17","main_expt",""
"","bandit","97","608462","0.0-58.0-0.0","11439204","wem/bandit_either_3","A2FLOH4DM8A4ZS","either","7","35","","","","","","","0","1","0","","0.8910236512","0.6","0.4","0.8","0.2","0.5627456494","0.3537135189","0.6686287009","0.8910236512","","","","","","","","","","","","76","L","3","","","18","main_expt",""
"","bandit","98","610365","0.0-59.0-0.0","11439204","wem/bandit_either_3","A2FLOH4DM8A4ZS","either","7","369","","","","","","","0","1","0","","0.8932054573","0.6","0.4","0.8","0.2","0.4478227807","0.4891458502","0.7885428456","0.8932054573","","","","","","","","","","","","76","L","3","","","19","main_expt",""
"","bandit","99","612112","0.0-60.0-0.0","11439204","wem/bandit_either_3","A2FLOH4DM8A4ZS","either","7","210","","","","","","","0","1","0","","0.8900063933","0.6","0.4","0.8","0.2","0.5306796692","0.5440957398","0.7442236049","0.8900063933","","","","","","","","","","","","76","L","3","","","20","main_expt",""
"","bandit","100","613938","0.0-61.0-0.0","11439204","wem/bandit_either_3","A2FLOH4DM8A4ZS","either","7","279","","","","","","","0","1","0","","0.8748704397","0.6","0.4","0.8","0.2","0.5423611418","0.5621313733","0.7908218503","0.8748704397","","","","","","","","","","","","76","L","3","","","21","main_expt",""
"","bandit","101","615592","0.0-62.0-0.0","11439204","wem/bandit_either_3","A2FLOH4DM8A4ZS","either","7","118","","","","","","","1","0","0","0.8498769136","","0.6","0.4","0.8","0.2","","","","","0.4190568807","0.5296345876","0.7163236006","0.8498769136","","","","","","","","76","L","3","","","22","main_expt",""
"","bandit","102","617385","0.0-63.0-0.0","11439204","wem/bandit_either_3","A2FLOH4DM8A4ZS","either","7","249","","","","","","","0","1","0","","0.8357449374","0.6","0.4","0.8","0.2","0.4329937009","0.5187107172","0.7061190667","0.8357449374","","","","","","","","","","","","76","L","3","","","23","main_expt",""
"","bandit","103","619008","0.0-64.0-0.0","11439204","wem/bandit_either_3","A2FLOH4DM8A4ZS","either","7","47","","","","","","","1","0","0","0.8431908073","","0.6","0.4","0.8","0.2","","","","","0.4298879426","0.6000521927","0.7470556917","0.8431908073","","","","","","","","76","L","3","","","24","main_expt",""
"","bandit","104","620724","0.0-65.0-0.0","11439204","wem/bandit_either_3","A2FLOH4DM8A4ZS","either","7","174","","","","","","","0","1","0","","0.8741885854","0.6","0.4","0.8","0.2","0.2992323157","0.5443047256","0.8154180688","0.8741885854","","","","","","","","","","","","76","L","3","","","25","main_expt",""
"","bandit","105","622423","0.0-66.0-0.0","11439204","wem/bandit_either_3","A2FLOH4DM8A4ZS","either","7","163","","","","","","","0","1","0","","0.8940719671","0.6","0.4","0.8","0.2","0.3857263224","0.592493964","0.8395379789","0.8940719671","","","","","","","","","","","","76","L","3","","","26","main_expt",""
"","bandit","106","624061","0.0-67.0-0.0","11439204","wem/bandit_either_3","A2FLOH4DM8A4ZS","either","7","97","","","","","","","0","1","0","","0.8733378856","0.6","0.4","0.8","0.2","0.3715251318","0.5779569403","0.8023078409","0.8733378856","","","","","","","","","","","","76","L","3","","","27","main_expt",""
"","bandit","107","625777","0.0-68.0-0.0","11439204","wem/bandit_either_3","A2FLOH4DM8A4ZS","either","7","154","","","","","","","0","1","0","","0.8695586723","0.6","0.4","0.8","0.2","0.3387808014","0.7077223562","0.8248968235","0.8695586723","","","","","","","","","","","","76","L","3","","","28","main_expt",""
"","bandit","108","627417","0.0-69.0-0.0","11439204","wem/bandit_either_3","A2FLOH4DM8A4ZS","either","7","93","","","","","","","1","0","0","0.7908290088","","0.6","0.4","0.8","0.2","","","","","0.3737397218","0.7070353494","0.8621011303","0.7908290088","","","","","","","","76","L","3","","","29","main_expt",""
"","bandit","109","629133","0.0-70.0-0.0","11439204","wem/bandit_either_3","A2FLOH4DM8A4ZS","either","7","189","","","","","","","0","1","0","","0.8518997755","0.6","0.4","0.8","0.2","0.3232047389","0.6585428656","0.8873668535","0.8518997755","","","","","","","","","","","","76","L","3","","","30","main_expt",""
"","bandit","110","630909","0.0-71.0-0.0","11439204","wem/bandit_either_3","A2FLOH4DM8A4ZS","either","7","234","","","","","","","0","1","0","","0.8509842625","0.6","0.4","0.8","0.2","0.4130267239","0.6724088618","0.9318975106","0.8509842625","","","","","","","","","","","","76","L","3","","","31","main_expt",""
"","bandit","111","632672","0.0-72.0-0.0","11439204","wem/bandit_either_3","A2FLOH4DM8A4ZS","either","7","226","","","","","","","0","1","0","","0.872996121","0.6","0.4","0.8","0.2","0.4167758813","0.6416581209","0.9013609786","0.872996121","","","","","","","","","","","","76","L","3","","","32","main_expt",""
"","bandit","112","634334","0.0-73.0-0.0","11439204","wem/bandit_either_3","A2FLOH4DM8A4ZS","either","7","110","","","","","","","0","1","0","","0.8571046391","0.6","0.4","0.8","0.2","0.4546052232","0.7055802426","0.9041531295","0.8571046391","","","","","","","","","","","","76","L","3","","","33","main_expt",""
"","bandit","113","636167","0.0-74.0-0.0","11439204","wem/bandit_either_3","A2FLOH4DM8A4ZS","either","7","272","","","","","","","0","1","0","","0.9175819521","0.6","0.4","0.8","0.2","0.5231803088","0.7554114371","0.9386104272","0.9175819521","","","","","","","","","","","","76","L","3","","","34","main_expt",""
"","bandit","114","637776","0.0-75.0-0.0","11439204","wem/bandit_either_3","A2FLOH4DM8A4ZS","either","7","66","","","","","","","0","1","0","","0.9503165686","0.6","0.4","0.8","0.2","0.4661188593","0.8008095759","0.9180645683","0.9503165686","","","","","","","","","","","","76","L","3","","","35","main_expt",""
"","bandit","115","639538","0.0-76.0-0.0","11439204","wem/bandit_either_3","A2FLOH4DM8A4ZS","either","7","214","","","","","","","0","0","1","","0.9327615424","0.6","0.4","0.8","0.2","0.4106027186","0.6925109639","0.9095107155","0.9327615424","","","","","","","","","","","","76","L","3","","","36","main_expt",""
"","bandit","116","641346","0.0-77.0-0.0","11439204","wem/bandit_either_3","A2FLOH4DM8A4ZS","either","7","261","","","","","","","0","1","0","","0.9196494001","0.6","0.4","0.8","0.2","0.5021263718","0.7764255689","0.9405648028","0.9196494001","","","","","","","","","","","","76","L","3","","","37","main_expt",""
"","bandit","117","643015","0.0-78.0-0.0","11439204","wem/bandit_either_3","A2FLOH4DM8A4ZS","either","7","147","","","","","","","1","0","0","0.928530414","","0.6","0.4","0.8","0.2","","","","","0.5065313343","0.8392953971","0.9058459248","0.928530414","","","","","","","","76","L","3","","","38","main_expt",""
"","bandit","118","644653","0.0-79.0-0.0","11439204","wem/bandit_either_3","A2FLOH4DM8A4ZS","either","7","121","","","","","","","0","1","0","","0.9001545702","0.6","0.4","0.8","0.2","0.6098243774","0.7614495855","0.8784462517","0.9001545702","","","","","","","","","","","","76","L","3","","","39","main_expt",""
"","bandit","119","646260","0.0-80.0-0.0","11439204","wem/bandit_either_3","A2FLOH4DM8A4ZS","either","7","71","","","","","","","0","1","0","","0.8432481254","0.6","0.4","0.8","0.2","0.679699592","0.8060705796","0.8408568766","0.8432481254","","","","","","","","","","","","76","L","3","","","40","main_expt",""
"","bandit","120","647838","0.0-81.0-0.0","11439204","wem/bandit_either_3","A2FLOH4DM8A4ZS","either","7","27","","","","","","","0","0","1","","0.8326479564","0.6","0.4","0.8","0.2","0.616488607","0.7539991053","0.811342849","0.8326479564","","","","","","","","","","","","76","L","3","","","41","main_expt",""
"","bandit","121","649458","0.0-82.0-0.0","11439204","wem/bandit_either_3","A2FLOH4DM8A4ZS","either","7","81","","","","","","","0","1","0","","0.8602810298","0.6","0.4","0.8","0.2","0.6307104111","0.7717369324","0.8058808774","0.8602810298","","","","","","","","","","","","76","L","3","","","42","main_expt",""
"","bandit","122","651128","0.0-83.0-0.0","11439204","wem/bandit_either_3","A2FLOH4DM8A4ZS","either","7","147","","","","","","","0","1","0","","0.894365654","0.6","0.4","0.8","0.2","0.554567591","0.7625968551","0.7899844578","0.894365654","","","","","","","","","","","","76","L","3","","","43","main_expt",""
"","bandit","123","652799","0.0-84.0-0.0","11439204","wem/bandit_either_3","A2FLOH4DM8A4ZS","either","7","93","","","","","","","0","1","0","","0.9033664713","0.6","0.4","0.8","0.2","0.5281861223","0.8488621298","0.7654486741","0.9033664713","","","","","","","","","","","","76","L","3","","","44","main_expt",""
"","bandit","124","654501","0.0-85.0-0.0","11439204","wem/bandit_either_3","A2FLOH4DM8A4ZS","either","7","113","","","","","","","1","0","0","0.8829964613","","0.6","0.4","0.8","0.2","","","","","0.5043334007","0.8522077325","0.7674111825","0.8829964613","","","","","","","","76","L","3","","","45","main_expt",""
"","bandit","125","656444","0.0-86.0-0.0","11439204","wem/bandit_either_3","A2FLOH4DM8A4ZS","either","7","75","","","","","","","0","1","0","","0.8674694879","0.6","0.4","0.8","0.2","0.5426256613","0.8618589195","0.6301273516","0.8674694879","","","","","","","","","","","","76","L","3","","","46","main_expt",""
"","bandit","126","658040","0.0-87.0-0.0","11439204","wem/bandit_either_3","A2FLOH4DM8A4ZS","either","7","4","","","","","","","1","0","0","0.8886720039","","0.6","0.4","0.8","0.2","","","","","0.5024796093","0.905897833","0.7885969413","0.8886720039","","","","","","","","76","L","3","","","47","main_expt",""
"","bandit","127","660523","0.0-88.0-0.0","11439204","wem/bandit_either_3","A2FLOH4DM8A4ZS","either","7","921","","","","","","","0","1","0","","0.9229902905","0.6","0.4","0.8","0.2","0.4689138593","0.8929468812","0.7983786211","0.9229902905","","","","","","","","","","","","76","L","3","","","48","main_expt",""
"","bandit","128","662390","0.0-89.0-0.0","11439204","wem/bandit_either_3","A2FLOH4DM8A4ZS","either","7","285","","","","","","","0","1","0","","0.9141434128","0.6","0.4","0.8","0.2","0.4439560463","0.854905512","0.8249867574","0.9141434128","","","","","","","","","","","","76","L","3","","","49","main_expt",""
"","bandit","129","664171","0.0-90.0-0.0","11439204","wem/bandit_either_3","A2FLOH4DM8A4ZS","either","7","188","","","","","","","0","1","0","","0.9181160336","0.6","0.4","0.8","0.2","0.4079842927","0.8363103738","0.7532301684","0.9181160336","","","","","","","","","","","","76","L","3","","","50","main_expt",""
"","bandit","130","665913","0.0-91.0-0.0","11439204","wem/bandit_either_3","A2FLOH4DM8A4ZS","either","7","149","","","","","","","0","1","0","","0.9266489825","0.6","0.4","0.8","0.2","0.4675199832","0.7168506975","0.6750909554","0.9266489825","","","","","","","","","","","","76","L","3","","","51","main_expt",""
"","bandit","131","667544","0.0-92.0-0.0","11439204","wem/bandit_either_3","A2FLOH4DM8A4ZS","either","7","69","","","","","","","1","0","0","0.9285581488","","0.6","0.4","0.8","0.2","","","","","0.4368052975","0.6507986152","0.6762079337","0.9285581488","","","","","","","","76","L","3","","","52","main_expt",""
"","bandit","132","669163","0.0-93.0-0.0","11439204","wem/bandit_either_3","A2FLOH4DM8A4ZS","either","7","73","","","","","","","0","0","1","","0.9171724481","0.6","0.4","0.8","0.2","0.4967902672","0.6531867096","0.7882030045","0.9171724481","","","","","","","","","","","","76","L","3","","","53","main_expt",""
"","bandit","133","670832","0.0-94.0-0.0","11439204","wem/bandit_either_3","A2FLOH4DM8A4ZS","either","7","143","","","","","","","0","1","0","","0.8709862684","0.6","0.4","0.8","0.2","0.5321533453","0.6178049746","0.8759533557","0.8709862684","","","","","","","","","","","","76","L","3","","","54","main_expt",""
"","bandit","134","672396","0.0-95.0-0.0","11439204","wem/bandit_either_3","A2FLOH4DM8A4ZS","either","7","4","","","","","","","0","1","0","","0.9016108676","0.6","0.4","0.8","0.2","0.593251847","0.5501477499","0.9307112091","0.9016108676","","","","","","","","","","","","76","L","3","","","55","main_expt",""
"","bandit","135","674031","0.0-96.0-0.0","11439204","wem/bandit_either_3","A2FLOH4DM8A4ZS","either","7","71","","","","","","","1","0","0","0.9123335035","","0.6","0.4","0.8","0.2","","","","","0.602347159","0.5181914202","0.9486344027","0.9123335035","","","","","","","","76","L","3","","","56","main_expt",""
"","bandit","136","675730","0.0-97.0-0.0","11439204","wem/bandit_either_3","A2FLOH4DM8A4ZS","either","7","142","","","","","","","0","1","0","","0.9338523698","0.6","0.4","0.8","0.2","0.736851976","0.5052283364","0.9450559811","0.9338523698","","","","","","","","","","","","76","L","3","","","57","main_expt",""
"","bandit","137","677290","0.0-98.0-0.0","11439204","wem/bandit_either_3","A2FLOH4DM8A4ZS","either","7","15","","","","","","","1","0","0","0.9023069914","","0.6","0.4","0.8","0.2","","","","","0.7112026436","0.4494585665","0.960587128","0.9023069914","","","","","","","","76","L","3","","","58","main_expt",""
"","bandit","138","678946","0.0-99.0-0.0","11439204","wem/bandit_either_3","A2FLOH4DM8A4ZS","either","7","112","","","","","","","1","0","0","0.903153386","","0.6","0.4","0.8","0.2","","","","","0.7605469626","0.4431029696","0.9272570312","0.903153386","","","","","","","","76","L","3","","","59","main_expt",""
"","bandit","139","680552","0.0-100.0-0.0","11439204","wem/bandit_either_3","A2FLOH4DM8A4ZS","either","7","44","","","","","","","0","1","0","","0.8975643475","0.6","0.4","0.8","0.2","0.6504737249","0.4213069188","0.9075075979","0.8975643475","","","","","","","","","","","","76","L","3","","","60","main_expt",""
"","bandit","140","682142","0.0-101.0-0.0","11439204","wem/bandit_either_3","A2FLOH4DM8A4ZS","either","7","44","","","","","","","0","1","0","","0.8455107238","0.6","0.4","0.8","0.2","0.7417300409","0.4735464544","0.9011961695","0.8455107238","","","","","","","","","","","","76","L","3","","","61","main_expt",""
"","bandit","141","683703","0.0-102.0-0.0","11439204","wem/bandit_either_3","A2FLOH4DM8A4ZS","either","7","5","","","","","","","0","1","0","","0.8423106617","0.6","0.4","0.8","0.2","0.6889655243","0.4260239588","0.9025442902","0.8423106617","","","","","","","","","","","","76","L","3","","","62","main_expt",""
"","bandit","142","685470","0.0-103.0-0.0","11439204","wem/bandit_either_3","A2FLOH4DM8A4ZS","either","7","213","","","","","","","0","1","0","","0.6997676278","0.6","0.4","0.8","0.2","0.7532165261","0.4048641732","0.900711875","0.6997676278","","","","","","","","","","","","76","L","3","","","63","main_expt",""
"","bandit","143","688120","0.0-104.0-0.0","11439204","wem/bandit_either_3","A2FLOH4DM8A4ZS","either","7","1077","","","","","","","0","1","0","","0.8033841581","0.6","0.4","0.8","0.2","0.7614619666","0.261135461","0.8445511995","0.8033841581","","","","","","","","","","","","76","L","3","","","64","main_expt",""
"","bandit","144","689737","0.0-105.0-0.0","11439204","wem/bandit_either_3","A2FLOH4DM8A4ZS","either","7","59","","","","","","","0","1","0","","0.8458775523","0.6","0.4","0.8","0.2","0.7474824059","0.4398785507","0.7838665633","0.8458775523","","","","","","","","","","","","76","L","3","","","65","main_expt",""
"","bandit","145","691282","0.0-106.0-0.0","11439204","wem/bandit_either_3","A2FLOH4DM8A4ZS","either","7","3","","","","","","","0","1","0","","0.8612648572","0.6","0.4","0.8","0.2","0.7083026918","0.4549930047","0.8399866527","0.8612648572","","","","","","","","","","","","76","L","3","","","66","main_expt",""
"","bandit","146","731391","0.0-107.0-0.0","11439204","wem/bandit_either_3","A2FLOH4DM8A4ZS","either","7","38549","","","","","","","0","1","0","","0.8686018104","0.6","0.4","0.8","0.2","0.6535093674","0.5565794079","0.9109535201","0.8686018104","","","","","","","","","","","","76","L","3","","","67","main_expt",""
"","bandit","147","733249","0.0-108.0-0.0","11439204","wem/bandit_either_3","A2FLOH4DM8A4ZS","either","7","301","","","","","","","0","0","1","0.8693437115","","0.6","0.4","0.8","0.2","","","","","0.4923739087","0.4211802827","0.9064065477","0.8693437115","","","","","","","","76","L","3","","","68","main_expt",""
"","bandit","148","735040","0.0-109.0-0.0","11439204","wem/bandit_either_3","A2FLOH4DM8A4ZS","either","7","250","","","","","","","0","1","0","","0.9168970181","0.6","0.4","0.8","0.2","0.4898097669","0.3687693293","0.9315833469","0.9168970181","","","","","","","","","","","","76","L","3","","","69","main_expt",""
"","bandit","149","736915","0.0-110.0-0.0","11439204","wem/bandit_either_3","A2FLOH4DM8A4ZS","either","7","324","","","","","","","0","1","0","","0.9293527272","0.6","0.4","0.8","0.2","0.4369614599","0.3460903474","0.9393923483","0.9293527272","","","","","","","","","","","","76","L","3","","","70","main_expt",""
"","bandit","150","738723","0.0-111.0-0.0","11439204","wem/bandit_either_3","A2FLOH4DM8A4ZS","either","7","196","","","","","","","0","1","0","","0.949087413","0.6","0.4","0.8","0.2","0.5031037484","0.3278112836","0.9568343035","0.949087413","","","","","","","","","","","","76","L","3","","","71","main_expt",""
"","bandit","151","740392","0.0-112.0-0.0","11439204","wem/bandit_either_3","A2FLOH4DM8A4ZS","either","7","127","","","","","","","0","0","1","","0.906373323","0.6","0.4","0.8","0.2","0.5397903688","0.2720469766","0.947758434","0.906373323","","","","","","","","","","","","76","L","3","","","72","main_expt",""
"","bandit","152","742185","0.0-113.0-0.0","11439204","wem/bandit_either_3","A2FLOH4DM8A4ZS","either","7","242","","","","","","","0","1","0","","0.93965919","0.6","0.4","0.8","0.2","0.5540652028","0.2451019773","0.9052010222","0.93965919","","","","","","","","","","","","76","L","3","","","73","main_expt",""
"","bandit","153","743901","0.0-114.0-0.0","11439204","wem/bandit_either_3","A2FLOH4DM8A4ZS","either","7","171","","","","","","","0","1","0","","0.9416319858","0.6","0.4","0.8","0.2","0.61733434","0.2645862521","0.927704936","0.9416319858","","","","","","","","","","","","76","L","3","","","74","main_expt",""
"","bandit","154","745648","0.0-115.0-0.0","11439204","wem/bandit_either_3","A2FLOH4DM8A4ZS","either","7","210","","","","","","","0","0","1","","0.9535384208","0.6","0.4","0.8","0.2","0.6341908543","0.2298582","0.8769567517","0.9535384208","","","","","","","","","","","","76","L","3","","","75","main_expt",""
"","bandit","155","747318","0.0-116.0-0.0","11439204","wem/bandit_either_3","A2FLOH4DM8A4ZS","either","7","124","","","","","","","1","0","0","0.8456064169","","0.6","0.4","0.8","0.2","","","","","0.6355577018","0.3460043445","0.8456064169","0.9585479729","","","","","","","","75","K","2","","","76","main_expt",""
"","bandit","156","749002","0.0-117.0-0.0","11439204","wem/bandit_either_3","A2FLOH4DM8A4ZS","either","7","130","","","","","","","1","0","0","0.8325595713","","0.6","0.4","0.8","0.2","","","","","0.7055426269","0.2526488818","0.8325595713","0.9610253773","","","","","","","","75","K","2","","","77","main_expt",""
"","bandit","157","750703","0.0-118.0-0.0","11439204","wem/bandit_either_3","A2FLOH4DM8A4ZS","either","7","142","","","","","","","0","0","1","0.9128982172","","0.6","0.4","0.8","0.2","","","","","0.6137882531","0.2625396382","0.9128982172","0.9580320452","","","","","","","","75","K","2","","","78","main_expt",""
"","bandit","158","752324","0.0-119.0-0.0","11439204","wem/bandit_either_3","A2FLOH4DM8A4ZS","either","7","83","","","","","","","1","0","0","0.9213349282","","0.6","0.4","0.8","0.2","","","","","0.668392527","0.2957535945","0.9213349282","0.9403834825","","","","","","","","75","K","2","","","79","main_expt",""
"","bandit","159","753962","0.0-120.0-0.0","11439204","wem/bandit_either_3","A2FLOH4DM8A4ZS","either","7","111","","","","","","","0","1","0","","0.8935563746","0.6","0.4","0.8","0.2","0.7457361895","0.1831261498","0.8935563746","0.946171157","","","","","","","","","","","","75","K","2","","","80","main_expt",""
"","bandit","160","755757","0.0-121.0-0.0","11439204","wem/bandit_either_3","A2FLOH4DM8A4ZS","either","7","248","","","","","","","1","0","0","0.932831263","","0.6","0.4","0.8","0.2","","","","","0.8028050151","0.1450659425","0.932831263","0.9800092583","","","","","","","","75","K","2","","","81","main_expt",""
"","bandit","161","757425","0.0-122.0-0.0","11439204","wem/bandit_either_3","A2FLOH4DM8A4ZS","either","7","117","","","","","","","1","0","0","0.9403650082","","0.6","0.4","0.8","0.2","","","","","0.8727424511","0.1486641529","0.9403650082","0.9666397243","","","","","","","","75","K","2","","","82","main_expt",""
"","bandit","162","759094","0.0-123.0-0.0","11439204","wem/bandit_either_3","A2FLOH4DM8A4ZS","either","7","122","","","","","","","1","0","0","0.9066396881","","0.6","0.4","0.8","0.2","","","","","0.8283068274","0.1567811066","0.9066396881","0.9637330664","","","","","","","","75","K","2","","","83","main_expt",""
"","bandit","163","760826","0.0-124.0-0.0","11439204","wem/bandit_either_3","A2FLOH4DM8A4ZS","either","7","187","","","","","","","1","0","0","0.8962006295","","0.6","0.4","0.8","0.2","","","","","0.8030064341","0.196091916","0.8962006295","0.9617949183","","","","","","","","75","K","2","","","84","main_expt",""
"","bandit","164","762465","0.0-125.0-0.0","11439204","wem/bandit_either_3","A2FLOH4DM8A4ZS","either","7","91","","","","","","","1","0","0","0.9093999993","","0.6","0.4","0.8","0.2","","","","","0.8622567251","0.1512390112","0.9093999993","0.9561985801","","","","","","","","75","K","2","","","85","main_expt",""
"","bandit","165","764055","0.0-126.0-0.0","11439204","wem/bandit_either_3","A2FLOH4DM8A4ZS","either","7","49","","","","","","","0","1","0","","0.9326862648","0.6","0.4","0.8","0.2","0.896584634","0.1486491559","0.9326862648","0.9422505668","","","","","","","","","","","","75","K","2","","","86","main_expt",""
"","bandit","166","765729","0.0-127.0-0.0","11439204","wem/bandit_either_3","A2FLOH4DM8A4ZS","either","7","121","","","","","","","1","0","0","0.9039434857","","0.6","0.4","0.8","0.2","","","","","0.9208758521","0.1047878604","0.9039434857","0.926711091","","","","","","","","75","K","2","","","87","main_expt",""
"","bandit","167","767285","0.0-128.0-0.0","11439204","wem/bandit_either_3","A2FLOH4DM8A4ZS","either","7","4","","","","","","","1","0","0","0.9195127861","","0.6","0.4","0.8","0.2","","","","","0.9266301883","0.07038149384","0.9195127861","0.9092576496","","","","","","","","75","K","2","","","88","main_expt",""
"","bandit","168","768985","0.0-129.0-0.0","11439204","wem/bandit_either_3","A2FLOH4DM8A4ZS","either","7","157","","","","","","","0","0","1","","0.9225053559","0.6","0.4","0.8","0.2","0.9259215542","0.1311535074","0.9225053559","0.8948591238","","","","","","","","","","","","75","K","2","","","89","main_expt",""
"","bandit","169","770528","0.0-130.0-0.0","11439204","wem/bandit_either_3","A2FLOH4DM8A4ZS","either","7","4","","","","","","","1","0","0","0.9014563988","","0.6","0.4","0.8","0.2","","","","","0.9400480964","0.1241310956","0.9014563988","0.8716727139","","","","","","","","75","K","2","","","90","main_expt",""
"","bandit","170","772217","0.0-131.0-0.0","11439204","wem/bandit_either_3","A2FLOH4DM8A4ZS","either","7","135","","","","","","","0","0","1","0.9162570652","","0.6","0.4","0.8","0.2","","","","","0.8961855863","0.09664170694","0.9162570652","0.8969144331","","","","","","","","75","K","2","","","91","main_expt",""
"","bandit","171","773810","0.0-132.0-0.0","11439204","wem/bandit_either_3","A2FLOH4DM8A4ZS","either","7","41","","","","","","","1","0","0","0.9171553871","","0.6","0.4","0.8","0.2","","","","","0.9211437923","0.09586364307","0.9171553871","0.9171199264","","","","","","","","75","K","2","","","92","main_expt",""
"","bandit","172","775397","0.0-133.0-0.0","11439204","wem/bandit_either_3","A2FLOH4DM8A4ZS","either","7","40","","","","","","","1","0","0","0.9463284029","","0.6","0.4","0.8","0.2","","","","","0.8947860396","0.08304118766","0.9463284029","0.9593171332","","","","","","","","75","K","2","","","93","main_expt",""
"","bandit","173","776955","0.0-134.0-0.0","11439204","wem/bandit_either_3","A2FLOH4DM8A4ZS","either","7","21","","","","","","","1","0","0","0.9477079066","","0.6","0.4","0.8","0.2","","","","","0.822540961","0.1222865453","0.9477079066","0.959226596","","","","","","","","75","K","2","","","94","main_expt",""
"","bandit","174","778719","0.0-135.0-0.0","11439204","wem/bandit_either_3","A2FLOH4DM8A4ZS","either","7","223","","","","","","","1","0","0","0.9474919074","","0.6","0.4","0.8","0.2","","","","","0.8288041746","0.211460517","0.9474919074","0.947105423","","","","","","","","75","K","2","","","95","main_expt",""
"","bandit","175","780466","0.0-136.0-0.0","11439204","wem/bandit_either_3","A2FLOH4DM8A4ZS","either","7","201","","","","","","","1","0","0","0.9722490369","","0.6","0.4","0.8","0.2","","","","","0.8217366877","0.2757920232","0.9722490369","0.937205139","","","","","","","","75","K","2","","","96","main_expt",""
"","bandit","176","782042","0.0-137.0-0.0","11439204","wem/bandit_either_3","A2FLOH4DM8A4ZS","either","7","25","","","","","","","1","0","0","0.980822097","","0.6","0.4","0.8","0.2","","","","","0.725285089","0.2646876298","0.980822097","0.9472767204","","","","","","","","75","K","2","","","97","main_expt",""
"","bandit","177","783789","0.0-138.0-0.0","11439204","wem/bandit_either_3","A2FLOH4DM8A4ZS","either","7","209","","","","","","","0","1","0","","0.9761591307","0.6","0.4","0.8","0.2","0.7958966199","0.3278454636","0.9761591307","0.962959595","","","","","","","","","","","","75","K","2","","","98","main_expt",""
"","bandit","178","785583","0.0-139.0-0.0","11439204","wem/bandit_either_3","A2FLOH4DM8A4ZS","either","7","245","","","","","","","1","0","0","0.9597391097","","0.6","0.4","0.8","0.2","","","","","0.7741840332","0.4641870332","0.9597391097","0.9720903607","","","","","","","","75","K","2","","","99","main_expt",""
"","bandit","179","787238","0.0-140.0-0.0","11439204","wem/bandit_either_3","A2FLOH4DM8A4ZS","either","7","131","","","","","","","1","0","0","0.9557148533","","0.6","0.4","0.8","0.2","","","","","0.7934767162","0.3972344865","0.9557148533","0.9737169538","","","","","","","","75","K","2","","","100","main_expt",""
"","bandit","180","788844","0.0-141.0-0.0","11439204","wem/bandit_either_3","A2FLOH4DM8A4ZS","either","7","59","","","","","","","1","0","0","0.9687934467","","0.6","0.4","0.8","0.2","","","","","0.8307638242","0.4395304924","0.9687934467","0.986468331","","","","","","","","75","K","2","","","101","main_expt",""
"","bandit","181","790521","0.0-142.0-0.0","11439204","wem/bandit_either_3","A2FLOH4DM8A4ZS","either","7","133","","","","","","","0","1","0","","0.9713318577","0.6","0.4","0.8","0.2","0.7737236933","0.5248298482","0.9713318577","0.9859557102","","","","","","","","","","","","75","K","2","","","102","main_expt",""
"","bandit","182","792309","0.0-143.0-0.0","11439204","wem/bandit_either_3","A2FLOH4DM8A4ZS","either","7","256","","","","","","","1","0","0","0.9768128314","","0.6","0.4","0.8","0.2","","","","","0.8168427084","0.6218364577","0.9768128314","0.9828698412","","","","","","","","75","K","2","","","103","main_expt",""
"","bandit","183","794055","0.0-144.0-0.0","11439204","wem/bandit_either_3","A2FLOH4DM8A4ZS","either","7","172","","","","","","","1","0","0","0.9566706727","","0.6","0.4","0.8","0.2","","","","","0.7020104164","0.5528563194","0.9566706727","0.9655029871","","","","","","","","75","K","2","","","104","main_expt",""
"","bandit","184","796144","0.0-145.0-0.0","11439204","wem/bandit_either_3","A2FLOH4DM8A4ZS","either","7","546","","","","","","","1","0","0","0.9352711559","","0.6","0.4","0.8","0.2","","","","","0.6750414237","0.515821512","0.9352711559","0.9587067199","","","","","","","","75","K","2","","","105","main_expt",""
"","bandit","185","798194","0.0-146.0-0.0","11439204","wem/bandit_either_3","A2FLOH4DM8A4ZS","either","7","337","","","","","","","1","0","0","0.8980036198","","0.6","0.4","0.8","0.2","","","","","0.5886413089","0.5380341879","0.8980036198","0.9358961366","","","","","","","","75","K","2","","","106","main_expt",""
"","bandit","186","800031","0.0-147.0-0.0","11439204","wem/bandit_either_3","A2FLOH4DM8A4ZS","either","7","282","","","","","","","1","0","0","0.9175797088","","0.6","0.4","0.8","0.2","","","","","0.5507707533","0.3291998873","0.9175797088","0.8829949032","","","","","","","","75","K","2","","","107","main_expt",""
"","bandit","187","801902","0.0-148.0-0.0","11439204","wem/bandit_either_3","A2FLOH4DM8A4ZS","either","7","319","","","","","","","1","0","0","0.8966825343","","0.6","0.4","0.8","0.2","","","","","0.4325904974","0.3608627265","0.8966825343","0.7668100276","","","","","","","","75","K","2","","","108","main_expt",""
"","bandit","188","803758","0.0-149.0-0.0","11439204","wem/bandit_either_3","A2FLOH4DM8A4ZS","either","7","302","","","","","","","0","1","0","","0.8883819791","0.6","0.4","0.8","0.2","0.3735159861","0.3837942066","0.8883819791","0.7652463225","","","","","","","","","","","","75","K","2","","","109","main_expt",""
"","bandit","189","805585","0.0-150.0-0.0","11439204","wem/bandit_either_3","A2FLOH4DM8A4ZS","either","7","282","","","","","","","1","0","0","0.9087011364","","0.6","0.4","0.8","0.2","","","","","0.3704440872","0.3019365294","0.9087011364","0.7974745759","","","","","","","","75","K","2","","","110","main_expt",""
"","bandit","190","807363","0.0-151.0-0.0","11439204","wem/bandit_either_3","A2FLOH4DM8A4ZS","either","7","220","","","","","","","1","0","0","0.9337026812","","0.6","0.4","0.8","0.2","","","","","0.2749067499","0.3483008865","0.9337026812","0.812352323","","","","","","","","75","K","2","","","111","main_expt",""
"","bandit","191","809250","0.0-152.0-0.0","11439204","wem/bandit_either_3","A2FLOH4DM8A4ZS","either","7","316","","","","","","","1","0","0","0.9113388615","","0.6","0.4","0.8","0.2","","","","","0.2734667401","0.4342302697","0.9113388615","0.7428975936","","","","","","","","75","K","2","","","112","main_expt",""
"","bandit","192","811057","0.0-153.0-0.0","11439204","wem/bandit_either_3","A2FLOH4DM8A4ZS","either","7","258","","","","","","","1","0","0","0.8980528729","","0.6","0.4","0.8","0.2","","","","","0.2291946885","0.5187246657","0.8980528729","0.7139653514","","","","","","","","75","K","2","","","113","main_expt",""
"","bandit","193","812902","0.0-154.0-0.0","11439204","wem/bandit_either_3","A2FLOH4DM8A4ZS","either","7","293","","","","","","","0","0","1","0.8036326458","","0.6","0.4","0.8","0.2","","","","","0.2413339081","0.5381742134","0.8036326458","0.7945657698","","","","","","","","75","K","2","","","114","main_expt",""
"","bandit","194","814701","0.0-155.0-0.0","11439204","wem/bandit_either_3","A2FLOH4DM8A4ZS","either","7","210","","","","","","","1","0","0","0.8700945717","","0.6","0.4","0.8","0.2","","","","","0.3092826039","0.4785029821","0.8700945717","0.8405588069","","","","","","","","75","K","2","","","115","main_expt",""
"","bandit","195","816442","0.0-156.0-0.0","11439204","wem/bandit_either_3","A2FLOH4DM8A4ZS","either","7","174","","","","","","","1","0","0","0.8895114993","","0.6","0.4","0.8","0.2","","","","","0.2361366225","0.4654757386","0.8895114993","0.8641798474","","","","","","","","75","K","2","","","116","main_expt",""
"","bandit","196","818283","0.0-157.0-0.0","11439204","wem/bandit_either_3","A2FLOH4DM8A4ZS","either","7","285","","","","","","","1","0","0","0.8936856952","","0.6","0.4","0.8","0.2","","","","","0.218402711","0.4578633225","0.8936856952","0.8756768431","","","","","","","","75","K","2","","","117","main_expt",""
"","bandit","197","820118","0.0-158.0-0.0","11439204","wem/bandit_either_3","A2FLOH4DM8A4ZS","either","7","266","","","","","","","1","0","0","0.8077127093","","0.6","0.4","0.8","0.2","","","","","0.2003641109","0.4773941538","0.8077127093","0.9015269718","","","","","","","","75","K","2","","","118","main_expt",""
"","bandit","198","822040","0.0-159.0-0.0","11439204","wem/bandit_either_3","A2FLOH4DM8A4ZS","either","7","289","","","","","","","0","0","1","0.8901108642","","0.6","0.4","0.8","0.2","","","","","0.1375137305","0.508374463","0.8901108642","0.8709738884","","","","","","","","75","K","2","","","119","main_expt",""
"","bandit","199","823742","0.0-160.0-0.0","11439204","wem/bandit_either_3","A2FLOH4DM8A4ZS","either","7","144","","","","","","","0","0","1","0.8731124259","","0.6","0.4","0.8","0.2","","","","","0.08656631556","0.4294310012","0.8731124259","0.8268338002","","","","","","","","75","K","2","","","120","main_expt",""
"","bandit","200","825660","0.0-161.0-0.0","11439204","wem/bandit_either_3","A2FLOH4DM8A4ZS","either","7","366","","","","","","","0","1","0","","0.3933985885","0.6","0.4","0.8","0.2","0.07812634859","0.3933985885","0.8509174952","0.8432616236","","","","","","","","","","","","74","J","1","","","121","main_expt",""
"","bandit","201","827363","0.0-162.0-0.0","11439204","wem/bandit_either_3","A2FLOH4DM8A4ZS","either","7","151","","","","","","","0","0","1","","0.2641409089","0.6","0.4","0.8","0.2","0.09046411854","0.2641409089","0.8707856005","0.8128728295","","","","","","","","","","","","74","J","1","","","122","main_expt",""
"","bandit","202","829142","0.0-163.0-0.0","11439204","wem/bandit_either_3","A2FLOH4DM8A4ZS","either","7","216","","","","","","","0","0","1","0.2491349268","","0.6","0.4","0.8","0.2","","","","","0.1132512529","0.2491349268","0.7592524618","0.752198112","","","","","","","","74","J","1","","","123","main_expt",""
"","bandit","203","831017","0.0-164.0-0.0","11439204","wem/bandit_either_3","A2FLOH4DM8A4ZS","either","7","259","","","","","","","0","0","1","0.09419269712","","0.6","0.4","0.8","0.2","","","","","0.09419269712","0.2587226179","0.7330206325","0.7117781612","","","","","","","","72","H","0","img/none_selected.jpg","","124","main_expt",""
"","bandit","204","832960","0.0-165.0-0.0","11439204","wem/bandit_either_3","A2FLOH4DM8A4ZS","either","7","387","","","","","","","0","0","1","0.110513045","","0.6","0.4","0.8","0.2","","","","","0.110513045","0.2925679814","0.6903693331","0.7177409252","","","","","","","","72","H","0","img/none_selected.jpg","","125","main_expt",""
"","bandit","205","834616","0.0-166.0-0.0","11439204","wem/bandit_either_3","A2FLOH4DM8A4ZS","either","7","96","","","","","","","0","0","1","0.7240917845","","0.6","0.4","0.8","0.2","","","","","0.07088043536","0.3997536411","0.6370641568","0.7240917845","","","","","","","","76","L","3","","","126","main_expt",""
"","bandit","206","836459","0.0-167.0-0.0","11439204","wem/bandit_either_3","A2FLOH4DM8A4ZS","either","7","257","","","","","","","0","0","1","0.6788578752","","0.6","0.4","0.8","0.2","","","","","0.1041728595","0.4120812041","0.6192694325","0.6788578752","","","","","","","","76","L","3","","","127","main_expt",""
"","bandit","207","838126","0.0-168.0-0.0","11439204","wem/bandit_either_3","A2FLOH4DM8A4ZS","either","7","114","","","","","","","1","0","0","0.559348281","","0.6","0.4","0.8","0.2","","","","","0.1006708935","0.3731276689","0.559348281","0.6257789885","","","","","","","","75","K","2","","","128","main_expt",""
"","bandit","208","839778","0.0-169.0-0.0","11439204","wem/bandit_either_3","A2FLOH4DM8A4ZS","either","7","96","","","","","","","0","0","1","0.610360397","","0.6","0.4","0.8","0.2","","","","","0.1336488566","0.3263017501","0.610360397","0.4761868647","","","","","","","","75","K","2","","","129","main_expt",""
"","bandit","209","841573","0.0-170.0-0.0","11439204","wem/bandit_either_3","A2FLOH4DM8A4ZS","either","7","243","","","","","","","0","1","0","","0.5737783772","0.6","0.4","0.8","0.2","0.1271550391","0.3226142564","0.5737783772","0.4745188583","","","","","","","","","","","","75","K","2","","","130","main_expt",""
"","bandit","210","843322","0.0-171.0-0.0","11439204","wem/bandit_either_3","A2FLOH4DM8A4ZS","either","7","201","","","","","","","0","0","1","0.6252154127","","0.6","0.4","0.8","0.2","","","","","0.1594360192","0.3907136596","0.6252154127","0.4674409752","","","","","","","","75","K","2","","","131","main_expt",""
"","bandit","211","844928","0.0-172.0-0.0","11439204","wem/bandit_either_3","A2FLOH4DM8A4ZS","either","7","37","","","","","","","0","0","1","","0.6473056352","0.6","0.4","0.8","0.2","0.1027658661","0.4983036492","0.6473056352","0.368649462","","","","","","","","","","","","75","K","2","","","132","main_expt",""
"","bandit","212","846611","0.0-173.0-0.0","11439204","wem/bandit_either_3","A2FLOH4DM8A4ZS","either","7","143","","","","","","","0","1","0","","0.6347393695","0.6","0.4","0.8","0.2","0.1223548883","0.6347393695","0.4595123468","0.4313577514","","","","","","","","","","","","74","J","1","","","133","main_expt",""
"","bandit","213","848328","0.0-174.0-0.0","11439204","wem/bandit_either_3","A2FLOH4DM8A4ZS","either","7","188","","","","","","","0","0","1","","0.6037412299","0.6","0.4","0.8","0.2","0.1063029331","0.6037412299","0.3043385566","0.3692150919","","","","","","","","","","","","74","J","1","","","134","main_expt",""
"","bandit","214","850060","0.0-175.0-0.0","11439204","wem/bandit_either_3","A2FLOH4DM8A4ZS","either","7","170","","","","","","","0","1","0","","0.5511090861","0.6","0.4","0.8","0.2","0.080644856","0.5511090861","0.340857567","0.3077662431","","","","","","","","","","","","74","J","1","","","135","main_expt",""
"","bandit","215","851687","0.0-176.0-0.0","11439204","wem/bandit_either_3","A2FLOH4DM8A4ZS","either","7","59","","","","","","","0","0","1","0.585911414","","0.6","0.4","0.8","0.2","","","","","0.1359867045","0.585911414","0.2655810755","0.314969588","","","","","","","","74","J","1","","","136","main_expt",""
"","bandit","216","853429","0.0-177.0-0.0","11439204","wem/bandit_either_3","A2FLOH4DM8A4ZS","either","7","183","","","","","","","0","0","1","","0.5805905743","0.6","0.4","0.8","0.2","0.168344283","0.5805905743","0.3025530854","0.3590847215","","","","","","","","","","","","74","J","1","","","137","main_expt",""
"","bandit","217","855112","0.0-178.0-0.0","11439204","wem/bandit_either_3","A2FLOH4DM8A4ZS","either","7","146","","","","","","","0","0","1","0.1867455324","","0.6","0.4","0.8","0.2","","","","","0.1867455324","0.6357737786","0.2888348812","0.3588584756","","","","","","","","72","H","0","img/none_selected.jpg","","138","main_expt",""
"","bandit","218","856738","0.0-179.0-0.0","11439204","wem/bandit_either_3","A2FLOH4DM8A4ZS","either","7","75","","","","","","","0","1","0","","0.2277874407","0.6","0.4","0.8","0.2","0.2277874407","0.66639317","0.2463208975","0.4289761638","","","","","","","","","","","","72","H","0","img/none_selected.jpg","","139","main_expt",""
"","bandit","219","858344","0.0-180.0-0.0","11439204","wem/bandit_either_3","A2FLOH4DM8A4ZS","either","7","38","","","","","","","0","0","1","0.2577820179","","0.6","0.4","0.8","0.2","","","","","0.2577820179","0.6365789307","0.273109751","0.3801639999","","","","","","","","72","H","0","img/none_selected.jpg","","140","main_expt",""
"","bandit","220","860072","0.0-181.0-0.0","11439204","wem/bandit_either_3","A2FLOH4DM8A4ZS","either","7","160","","","","","","","0","0","1","","0.3674069736","0.6","0.4","0.8","0.2","0.3674069736","0.6045632144","0.3355442787","0.2445936549","","","","","","","","","","","","72","H","0","img/none_selected.jpg","","141","main_expt",""
"","bandit","221","862243","0.0-182.0-0.0","11439204","wem/bandit_either_3","A2FLOH4DM8A4ZS","either","7","612","","","","","","","0","0","1","","0.4345417514","0.6","0.4","0.8","0.2","0.4345417514","0.5148607161","0.2781999234","0.3394066497","","","","","","","","","","","","72","H","0","img/none_selected.jpg","","142","main_expt",""
"","bandit","222","864069","0.0-183.0-0.0","11439204","wem/bandit_either_3","A2FLOH4DM8A4ZS","either","7","266","","","","","","","0","0","1","","0.2899754881","0.6","0.4","0.8","0.2","0.3811672827","0.4754154836","0.2599467226","0.2899754881","","","","","","","","","","","","76","L","3","","","143","main_expt",""
"","bandit","223","865760","0.0-184.0-0.0","11439204","wem/bandit_either_3","A2FLOH4DM8A4ZS","either","7","118","","","","","","","0","0","1","","0.3701332444","0.6","0.4","0.8","0.2","0.2754059391","0.516029258","0.2353144144","0.3701332444","","","","","","","","","","","","76","L","3","","","144","main_expt",""
"","bandit","224","867585","0.0-185.0-0.0","11439204","wem/bandit_either_3","A2FLOH4DM8A4ZS","either","7","260","","","","","","","1","0","0","0.2120114759","","0.6","0.4","0.8","0.2","","","","","0.2773400324","0.6646605279","0.2120114759","0.3322753171","","","","","","","","75","K","2","","","145","main_expt",""
"","bandit","225","869357","0.0-186.0-0.0","11439204","wem/bandit_either_3","A2FLOH4DM8A4ZS","either","7","187","","","","","","","0","0","1","0.176067728","","0.6","0.4","0.8","0.2","","","","","0.2780426824","0.6331546467","0.176067728","0.3203507811","","","","","","","","75","K","2","","","146","main_expt",""
"","bandit","226","871086","0.0-187.0-0.0","11439204","wem/bandit_either_3","A2FLOH4DM8A4ZS","either","7","182","","","","","","","0","0","1","0.1329453439","","0.6","0.4","0.8","0.2","","","","","0.3373608721","0.6356747602","0.1329453439","0.304761248","","","","","","","","75","K","2","","","147","main_expt",""
"","bandit","227","872710","0.0-188.0-0.0","11439204","wem/bandit_either_3","A2FLOH4DM8A4ZS","either","7","57","","","","","","","0","0","1","0.1465103875","","0.6","0.4","0.8","0.2","","","","","0.3529594122","0.6301772709","0.1465103875","0.3809280674","","","","","","","","75","K","2","","","148","main_expt",""
"","bandit","228","874301","0.0-189.0-0.0","11439204","wem/bandit_either_3","A2FLOH4DM8A4ZS","either","7","65","","","","","","","0","0","1","0.1190451538","","0.6","0.4","0.8","0.2","","","","","0.3878328211","0.6640591829","0.1190451538","0.3997986218","","","","","","","","75","K","2","","","149","main_expt",""
"","bandit","229","875987","0.0-190.0-0.0","11439204","wem/bandit_either_3","A2FLOH4DM8A4ZS","either","7","131","","","","","","","0","0","1","0.6592717552","","0.6","0.4","0.8","0.2","","","","","0.42943501","0.6592717552","0.1195570164","0.3159341416","","","","","","","","74","J","1","","","150","main_expt",""
"","bandit","230","877701","0.0-191.0-0.0","11439204","wem/bandit_either_3","A2FLOH4DM8A4ZS","either","7","165","","","","","","","0","1","0","","0.5928743102","0.6","0.4","0.8","0.2","0.5142681232","0.5928743102","0.100492686","0.3052853957","","","","","","","","","","","","74","J","1","","","151","main_expt",""
"","bandit","231","879510","0.0-192.0-0.0","11439204","wem/bandit_either_3","A2FLOH4DM8A4ZS","either","7","243","","","","","","","0","0","1","0.6822187145","","0.6","0.4","0.8","0.2","","","","","0.6321073962","0.6822187145","0.1030367897","0.1896018403","","","","","","","","74","J","1","","","152","main_expt",""
"","bandit","232","881226","0.0-193.0-0.0","11439204","wem/bandit_either_3","A2FLOH4DM8A4ZS","either","7","180","","","","","","","0","1","0","","0.6832005509","0.6","0.4","0.8","0.2","0.6965670792","0.6832005509","0.2059045691","0.2439656658","","","","","","","","","","","","74","J","1","","","153","main_expt",""
"","bandit","233","882898","0.0-194.0-0.0","11439204","wem/bandit_either_3","A2FLOH4DM8A4ZS","either","7","118","","","","","","","0","1","0","","0.7109729062","0.6","0.4","0.8","0.2","0.6516005735","0.7109729062","0.2921647579","0.3068434149","","","","","","","","","","","","74","J","1","","","154","main_expt",""
"","bandit","234","884552","0.0-195.0-0.0","11439204","wem/bandit_either_3","A2FLOH4DM8A4ZS","either","7","100","","","","","","","0","1","0","","0.6975465092","0.6","0.4","0.8","0.2","0.7291318088","0.6975465092","0.1789694193","0.2314644909","","","","","","","","","","","","74","J","1","","","155","main_expt",""
"","bandit","235","886328","0.0-196.0-0.0","11439204","wem/bandit_either_3","A2FLOH4DM8A4ZS","either","7","231","","","","","","","0","1","0","","0.6580608271","0.6","0.4","0.8","0.2","0.6273572288","0.6580608271","0.2187195075","0.2154001061","","","","","","","","","","","","74","J","1","","","156","main_expt",""
"","bandit","236","887982","0.0-197.0-0.0","11439204","wem/bandit_either_3","A2FLOH4DM8A4ZS","either","7","111","","","","","","","0","0","1","","0.5695802138","0.6","0.4","0.8","0.2","0.566197257","0.5695802138","0.2669834713","0.1648135251","","","","","","","","","","","","74","J","1","","","157","main_expt",""
"","bandit","237","889714","0.0-198.0-0.0","11439204","wem/bandit_either_3","A2FLOH4DM8A4ZS","either","7","186","","","","","","","0","0","1","","0.4733954301","0.6","0.4","0.8","0.2","0.4523642269","0.4733954301","0.4240307821","0.2215973425","","","","","","","","","","","","74","J","1","","","158","main_expt",""
"","bandit","238","891366","0.0-199.0-0.0","11439204","wem/bandit_either_3","A2FLOH4DM8A4ZS","either","7","110","","","","","","","1","0","0","0.5619817243","","0.6","0.4","0.8","0.2","","","","","0.3991212054","0.5619817243","0.3840951437","0.2243274726","","","","","","","","74","J","1","","","159","main_expt",""
"","bandit","239","893067","0.0-200.0-0.0","11439204","wem/bandit_either_3","A2FLOH4DM8A4ZS","either","7","151","","","","","","","0","1","0","","0.4701658979","0.6","0.4","0.8","0.2","0.3566558104","0.4701658979","0.4098147986","0.2061161075","","","","","","","","","","","","74","J","1","","","160","main_expt",""
"","bandit","240","894735","0.0-201.0-0.0","11439204","wem/bandit_either_3","A2FLOH4DM8A4ZS","either","7","124","","","","","","","0","0","1","","0.5673671472","0.6","0.4","0.8","0.2","0.4430908041","0.5673671472","0.4027252302","0.209200141","","","","","","","","","","","","74","J","1","","","161","main_expt",""
"","bandit","241","896670","0.0-202.0-0.0","11439204","wem/bandit_either_3","A2FLOH4DM8A4ZS","either","7","385","","","","","","","0","1","0","","0.3966098285","0.6","0.4","0.8","0.2","0.3966098285","0.4921809208","0.3824170733","0.1477343718","","","","","","","","","","","","72","H","0","img/none_selected.jpg","","162","main_expt",""
"","bandit","242","898292","0.0-203.0-0.0","11439204","wem/bandit_either_3","A2FLOH4DM8A4ZS","either","7","81","","","","","","","0","0","1","0.3455868331","","0.6","0.4","0.8","0.2","","","","","0.3455868331","0.4204505308","0.3352280924","0.1525050104","","","","","","","","72","H","0","img/none_selected.jpg","","163","main_expt",""
"","bandit","243","899857","0.0-204.0-0.0","11439204","wem/bandit_either_3","A2FLOH4DM8A4ZS","either","7","28","","","","","","","0","0","1","0.3368969945","","0.6","0.4","0.8","0.2","","","","","0.3368969945","0.534748173","0.3379187571","0.08831047354","","","","","","","","72","H","0","img/none_selected.jpg","","164","main_expt",""
"","bandit","244","901682","0.0-205.0-0.0","11439204","wem/bandit_either_3","A2FLOH4DM8A4ZS","either","7","275","","","","","","","0","1","0","","0.1035482763","0.6","0.4","0.8","0.2","0.3767562303","0.4724966102","0.3160546663","0.1035482763","","","","","","","","","","","","76","L","3","","","165","main_expt",""
"","bandit","245","903362","0.0-206.0-0.0","11439204","wem/bandit_either_3","A2FLOH4DM8A4ZS","either","7","123","","","","","","","0","0","1","0.06888190676","","0.6","0.4","0.8","0.2","","","","","0.4727650462","0.5280505203","0.3058359067","0.06888190676","","","","","","","","76","L","3","","","166","main_expt",""
"","bandit","246","905001","0.0-207.0-0.0","11439204","wem/bandit_either_3","A2FLOH4DM8A4ZS","either","7","107","","","","","","","0","0","1","0.06051452263","","0.6","0.4","0.8","0.2","","","","","0.6140635231","0.589670135","0.2561334246","0.06051452263","","","","","","","","76","L","3","","","167","main_expt",""
"","bandit","247","906762","0.0-208.0-0.0","11439204","wem/bandit_either_3","A2FLOH4DM8A4ZS","either","7","230","","","","","","","0","0","1","0.2459084815","","0.6","0.4","0.8","0.2","","","","","0.5629225295","0.5058201204","0.2459084815","0.07905307949","","","","","","","","75","K","2","","","168","main_expt",""
"","bandit","248","908447","0.0-209.0-0.0","11439204","wem/bandit_either_3","A2FLOH4DM8A4ZS","either","7","130","","","","","","","0","0","1","0.2138460752","","0.6","0.4","0.8","0.2","","","","","0.6456076899","0.4102709571","0.2138460752","0.07051596905","","","","","","","","75","K","2","","","169","main_expt",""
"","bandit","249","910196","0.0-210.0-0.0","11439204","wem/bandit_either_3","A2FLOH4DM8A4ZS","either","7","211","","","","","","","1","0","0","0.5061826445","","0.6","0.4","0.8","0.2","","","","","0.719827795","0.5061826445","0.1642406351","0.1056762318","","","","","","","","74","J","1","","","170","main_expt",""
"","bandit","250","911832","0.0-211.0-0.0","11439204","wem/bandit_either_3","A2FLOH4DM8A4ZS","either","7","91","","","","","","","0","0","1","","0.6092158501","0.6","0.4","0.8","0.2","0.6716280274","0.6092158501","0.2337150112","0.1513980822","","","","","","","","","","","","74","J","1","","","171","main_expt",""
"","bandit","251","913518","0.0-212.0-0.0","11439204","wem/bandit_either_3","A2FLOH4DM8A4ZS","either","7","144","","","","","","","0","1","0","","0.691496366","0.6","0.4","0.8","0.2","0.5683226388","0.691496366","0.3128682212","0.1552293495","","","","","","","","","","","","74","J","1","","","172","main_expt",""
"","bandit","252","915220","0.0-213.0-0.0","11439204","wem/bandit_either_3","A2FLOH4DM8A4ZS","either","7","153","","","","","","","0","0","1","","0.7402253768","0.6","0.4","0.8","0.2","0.4581357746","0.7402253768","0.2775517843","0.1325975083","","","","","","","","","","","","74","J","1","","","173","main_expt",""
"","bandit","253","916919","0.0-214.0-0.0","11439204","wem/bandit_either_3","A2FLOH4DM8A4ZS","either","7","154","","","","","","","0","1","0","","0.6601004511","0.6","0.4","0.8","0.2","0.5903479164","0.6601004511","0.4159305855","0.09024892351","","","","","","","","","","","","74","J","1","","","174","main_expt",""
"","bandit","254","918542","0.0-215.0-0.0","11439204","wem/bandit_either_3","A2FLOH4DM8A4ZS","either","7","71","","","","","","","0","1","0","","0.6781732273","0.6","0.4","0.8","0.2","0.5658285383","0.6781732273","0.4471770837","0.06963745108","","","","","","","","","","","","74","J","1","","","175","main_expt",""
"","bandit","255","920414","0.0-216.0-0.0","11439204","wem/bandit_either_3","A2FLOH4DM8A4ZS","either","7","335","","","","","","","0","0","1","","0.6932650799","0.6","0.4","0.8","0.2","0.5313506173","0.6932650799","0.5162211083","0.07897043431","","","","","","","","","","","","74","J","1","","","176","main_expt",""
"","bandit","256","922035","0.0-217.0-0.0","11439204","wem/bandit_either_3","A2FLOH4DM8A4ZS","either","7","72","","","","","","","0","1","0","","0.6803850572","0.6","0.4","0.8","0.2","0.4231289234","0.6803850572","0.6372676231","0.09469685393","","","","","","","","","","","","74","J","1","","","177","main_expt",""
"","bandit","257","923971","0.0-218.0-0.0","11439204","wem/bandit_either_3","A2FLOH4DM8A4ZS","either","7","397","","","","","","","0","0","1","0.5407017663","","0.6","0.4","0.8","0.2","","","","","0.580807006","0.5407017663","0.6295749113","0.1486386852","","","","","","","","74","J","1","","","178","main_expt",""
"","bandit","258","925983","0.0-219.0-0.0","11439204","wem/bandit_either_3","A2FLOH4DM8A4ZS","either","7","464","","","","","","","1","0","0","0.5931576708","","0.6","0.4","0.8","0.2","","","","","0.5499948007","0.5931576708","0.4126066341","0.1965095934","","","","","","","","74","J","1","","","179","main_expt",""
"","bandit","259","927652","0.0-220.0-0.0","11439204","wem/bandit_either_3","A2FLOH4DM8A4ZS","either","7","122","","","","","","","0","0","1","0.5390819372","","0.6","0.4","0.8","0.2","","","","","0.4918200669","0.5390819372","0.516991344","0.1749048096","","","","","","","","74","J","1","","","180","main_expt",""
"","bandit","260","929415","0.0-221.0-0.0","11439204","wem/bandit_either_3","A2FLOH4DM8A4ZS","either","7","218","","","","","","","1","0","0","0.4239603033","","0.6","0.4","0.8","0.2","","","","","0.5428702931","0.4929910299","0.4239603033","0.232896561","","","","","","","","75","K","2","","","181","main_expt",""
"","bandit","261","930977","0.0-222.0-0.0","11439204","wem/bandit_either_3","A2FLOH4DM8A4ZS","either","7","15","","","","","","","0","0","1","0.3961891141","","0.6","0.4","0.8","0.2","","","","","0.5870547156","0.458433212","0.3961891141","0.2561822725","","","","","","","","75","K","2","","","182","main_expt",""
"","bandit","262","932693","0.0-223.0-0.0","11439204","wem/bandit_either_3","A2FLOH4DM8A4ZS","either","7","175","","","","","","","0","0","1","0.4364601233","","0.6","0.4","0.8","0.2","","","","","0.5031908535","0.5725449786","0.4364601233","0.2713883962","","","","","","","","75","K","2","","","183","main_expt",""
"","bandit","263","934376","0.0-224.0-0.0","11439204","wem/bandit_either_3","A2FLOH4DM8A4ZS","either","7","147","","","","","","","0","0","1","","0.4239978994","0.6","0.4","0.8","0.2","0.4239978994","0.4878383732","0.4826964198","0.3543557679","","","","","","","","","","","","72","H","0","img/none_selected.jpg","","184","main_expt",""
"","bandit","264","936013","0.0-225.0-0.0","11439204","wem/bandit_either_3","A2FLOH4DM8A4ZS","either","7","110","","","","","","","0","0","1","","0.2974533566","0.6","0.4","0.8","0.2","0.3425545299","0.5189350158","0.4448789548","0.2974533566","","","","","","","","","","","","76","L","3","","","185","main_expt",""
"","bandit","265","937682","0.0-226.0-0.0","11439204","wem/bandit_either_3","A2FLOH4DM8A4ZS","either","7","120","","","","","","","1","0","0","0.2594221554","","0.6","0.4","0.8","0.2","","","","","0.2594221554","0.4310300585","0.4585835861","0.3295130888","","","","","","","","72","H","0","img/none_selected.jpg","","186","main_expt",""
"","bandit","266","939290","0.0-227.0-0.0","11439204","wem/bandit_either_3","A2FLOH4DM8A4ZS","either","7","58","","","","","","","1","0","0","0.350747246","","0.6","0.4","0.8","0.2","","","","","0.350747246","0.4005994516","0.5470412386","0.3440574025","","","","","","","","72","H","0","img/none_selected.jpg","","187","main_expt",""
"","bandit","267","940849","0.0-228.0-0.0","11439204","wem/bandit_either_3","A2FLOH4DM8A4ZS","either","7","12","","","","","","","0","1","0","","0.3667816541","0.6","0.4","0.8","0.2","0.3667816541","0.5684333967","0.5485419855","0.3176863717","","","","","","","","","","","","72","H","0","img/none_selected.jpg","","188","main_expt",""
"","bandit","268","942580","0.0-229.0-0.0","11439204","wem/bandit_either_3","A2FLOH4DM8A4ZS","either","7","189","","","","","","","0","0","1","","0.3129240978","0.6","0.4","0.8","0.2","0.3129240978","0.5768443477","0.6161015427","0.3194332301","","","","","","","","","","","","72","H","0","img/none_selected.jpg","","189","main_expt",""
"","bandit","269","944172","0.0-230.0-0.0","11439204","wem/bandit_either_3","A2FLOH4DM8A4ZS","either","7","42","","","","","","","0","1","0","","0.3681084497","0.6","0.4","0.8","0.2","0.3681084497","0.6091254975","0.5145576236","0.3585260795","","","","","","","","","","","","72","H","0","img/none_selected.jpg","","190","main_expt",""
"","bandit","270","946010","0.0-231.0-0.0","11439204","wem/bandit_either_3","A2FLOH4DM8A4ZS","either","7","243","","","","","","","0","0","1","0.3284994938","","0.6","0.4","0.8","0.2","","","","","0.3284994938","0.6355225437","0.4447609651","0.4438822556","","","","","","","","72","H","0","img/none_selected.jpg","","191","main_expt",""
"","bandit","271","947592","0.0-232.0-0.0","11439204","wem/bandit_either_3","A2FLOH4DM8A4ZS","either","7","11","","","","","","","0","0","1","","0.2913335268","0.6","0.4","0.8","0.2","0.2913335268","0.7449996868","0.4273979598","0.6336907385","","","","","","","","","","","","72","H","0","img/none_selected.jpg","","192","main_expt",""
"","bandit","272","949258","0.0-233.0-0.0","11439204","wem/bandit_either_3","A2FLOH4DM8A4ZS","either","7","112","","","","","","","0","0","1","","0.7645281636","0.6","0.4","0.8","0.2","0.3614904019","0.7645281636","0.4382354048","0.5871300795","","","","","","","","","","","","74","J","1","","","193","main_expt",""
"","bandit","273","950803","0.0-234.0-0.0","11439204","wem/bandit_either_3","A2FLOH4DM8A4ZS","either","7","11","","","","","","","1","0","0","0.4367950698","","0.6","0.4","0.8","0.2","","","","","0.4180963095","0.7417458559","0.4367950698","0.5919999684","","","","","","","","75","K","2","","","194","main_expt",""
"","bandit","274","952427","0.0-235.0-0.0","11439204","wem/bandit_either_3","A2FLOH4DM8A4ZS","either","7","66","","","","","","","1","0","0","0.4306922929","","0.6","0.4","0.8","0.2","","","","","0.4129416526","0.7102393491","0.4306922929","0.5599221581","","","","","","","","75","K","2","","","195","main_expt",""
"","bandit","275","954084","0.0-236.0-0.0","11439204","wem/bandit_either_3","A2FLOH4DM8A4ZS","either","7","107","","","","","","","0","0","1","0.4436260943","","0.6","0.4","0.8","0.2","","","","","0.6027995291","0.6846894693","0.4436260943","0.4552797342","","","","","","","","75","K","2","","","196","main_expt",""
"","bandit","276","955719","0.0-237.0-0.0","11439204","wem/bandit_either_3","A2FLOH4DM8A4ZS","either","7","81","","","","","","","0","1","0","","0.4547077395","0.6","0.4","0.8","0.2","0.6174547511","0.6573901597","0.4547077395","0.3045440077","","","","","","","","","","","","75","K","2","","","197","main_expt",""
"","bandit","277","957338","0.0-238.0-0.0","11439204","wem/bandit_either_3","A2FLOH4DM8A4ZS","either","7","56","","","","","","","0","1","0","","0.545148617","0.6","0.4","0.8","0.2","0.5727893511","0.7020762336","0.545148617","0.4061180554","","","","","","","","","","","","75","K","2","","","198","main_expt",""
"","bandit","278","958978","0.0-239.0-0.0","11439204","wem/bandit_either_3","A2FLOH4DM8A4ZS","either","7","89","","","","","","","0","1","0","","0.5838562778","0.6","0.4","0.8","0.2","0.5803616598","0.7749867965","0.5838562778","0.3406873398","","","","","","","","","","","","75","K","2","","","199","main_expt",""
"","bandit","279","960541","0.0-240.0-0.0","11439204","wem/bandit_either_3","A2FLOH4DM8A4ZS","either","7","18","","","","","","","1","0","0","0.6569131065","","0.6","0.4","0.8","0.2","","","","","0.5109940584","0.7971262248","0.6569131065","0.2810551981","","","","","","","","75","K","2","","","200","main_expt",""
"","bandit","280","962426","0.0-241.0-0.0","11439204","wem/bandit_either_3","A2FLOH4DM8A4ZS","either","7","307","","","","","","","0","0","1","","0.6559739125","0.6","0.4","0.8","0.2","0.444158281","0.6431063495","0.6559739125","0.2295892347","","","","","","","","","","","","75","K","2","","","201","main_expt",""
"","bandit","281","964514","0.0-242.0-0.0","11439204","wem/bandit_either_3","A2FLOH4DM8A4ZS","either","7","524","","","","","","","1","0","0","0.5940698896","","0.6","0.4","0.8","0.2","","","","","0.3774362348","0.6153479028","0.5940698896","0.2134833186","","","","","","","","75","K","2","","","202","main_expt",""
"","bandit","282","966168","0.0-243.0-0.0","11439204","wem/bandit_either_3","A2FLOH4DM8A4ZS","either","7","97","","","","","","","0","1","0","","0.6288005559","0.6","0.4","0.8","0.2","0.2852638898","0.6107921693","0.6288005559","0.1538434825","","","","","","","","","","","","75","K","2","","","203","main_expt",""
"","bandit","283","967885","0.0-244.0-0.0","11439204","wem/bandit_either_3","A2FLOH4DM8A4ZS","either","7","173","","","","","","","1","0","0","0.7483345684","","0.6","0.4","0.8","0.2","","","","","0.3900316507","0.6364312764","0.7483345684","0.08629221539","","","","","","","","75","K","2","","","204","main_expt",""
"","bandit","284","969540","0.0-245.0-0.0","11439204","wem/bandit_either_3","A2FLOH4DM8A4ZS","either","7","35","","","","","","","0","0","1","","0.7823609999","0.6","0.4","0.8","0.2","0.3334674042","0.7098325313","0.7823609999","0.1303029892","","","","","","","","","","","","75","K","2","","","205","main_expt",""
"","bandit","285","971451","0.0-246.0-0.0","11439204","wem/bandit_either_3","A2FLOH4DM8A4ZS","either","7","294","","","","","","","0","0","1","0.7053347691","","0.6","0.4","0.8","0.2","","","","","0.3997779834","0.6423198407","0.7053347691","0.1290793888","","","","","","","","75","K","2","","","206","main_expt",""
"","bandit","286","973142","0.0-247.0-0.0","11439204","wem/bandit_either_3","A2FLOH4DM8A4ZS","either","7","142","","","","","","","1","0","0","0.692958529","","0.6","0.4","0.8","0.2","","","","","0.2791746034","0.7196337679","0.692958529","0.1471003053","","","","","","","","75","K","2","","","207","main_expt",""
"","bandit","287","974777","0.0-248.0-0.0","11439204","wem/bandit_either_3","A2FLOH4DM8A4ZS","either","7","70","","","","","","","1","0","0","0.5726600787","","0.6","0.4","0.8","0.2","","","","","0.3447420344","0.7273253538","0.5726600787","0.1204476287","","","","","","","","75","K","2","","","208","main_expt",""
"","bandit","288","976545","0.0-249.0-0.0","11439204","wem/bandit_either_3","A2FLOH4DM8A4ZS","either","7","194","","","","","","","0","0","1","0.7193759884","","0.6","0.4","0.8","0.2","","","","","0.2106944101","0.7701678217","0.7193759884","0.1752658923","","","","","","","","75","K","2","","","209","main_expt",""
"","bandit","289","978195","0.0-250.0-0.0","11439204","wem/bandit_either_3","A2FLOH4DM8A4ZS","either","7","81","","","","","","","0","0","1","","0.2071456167","0.6","0.4","0.8","0.2","0.2609791638","0.7673062315","0.5469619257","0.2071456167","","","","","","","","","","","","76","L","3","","","210","main_expt",""
"","bandit","290","979850","0.0-251.0-0.0","11439204","wem/bandit_either_3","A2FLOH4DM8A4ZS","either","7","97","","","","","","","0","1","0","","0.7733207599","0.6","0.4","0.8","0.2","0.3702243554","0.7733207599","0.5432746348","0.1982577311","","","","","","","","","","","","74","J","1","","","211","main_expt",""
"","bandit","291","981486","0.0-252.0-0.0","11439204","wem/bandit_either_3","A2FLOH4DM8A4ZS","either","7","82","","","","","","","0","1","0","","0.7176010575","0.6","0.4","0.8","0.2","0.4070014152","0.7176010575","0.4857525371","0.2837026457","","","","","","","","","","","","74","J","1","","","212","main_expt",""
"","bandit","292","983144","0.0-253.0-0.0","11439204","wem/bandit_either_3","A2FLOH4DM8A4ZS","either","7","103","","","","","","","0","1","0","","0.7241732444","0.6","0.4","0.8","0.2","0.5001351259","0.7241732444","0.4416723402","0.2192955177","","","","","","","","","","","","74","J","1","","","213","main_expt",""
"","bandit","293","984834","0.0-254.0-0.0","11439204","wem/bandit_either_3","A2FLOH4DM8A4ZS","either","7","111","","","","","","","0","0","1","0.6696022014","","0.6","0.4","0.8","0.2","","","","","0.5667049056","0.6696022014","0.4231083207","0.2885853396","","","","","","","","74","J","1","","","214","main_expt",""
"","bandit","294","986494","0.0-255.0-0.0","11439204","wem/bandit_either_3","A2FLOH4DM8A4ZS","either","7","98","","","","","","","0","1","0","","0.6255990046","0.6","0.4","0.8","0.2","0.5259574602","0.6255990046","0.329019478","0.2451296471","","","","","","","","","","","","74","J","1","","","215","main_expt",""
"","bandit","295","988165","0.0-256.0-0.0","11439204","wem/bandit_either_3","A2FLOH4DM8A4ZS","either","7","115","","","","","","","0","1","0","","0.6771362935","0.6","0.4","0.8","0.2","0.5468860011","0.6771362935","0.3469743373","0.1946790852","","","","","","","","","","","","74","J","1","","","216","main_expt",""
"","bandit","296","989822","0.0-257.0-0.0","11439204","wem/bandit_either_3","A2FLOH4DM8A4ZS","either","7","102","","","","","","","0","0","1","","0.6918953154","0.6","0.4","0.8","0.2","0.6182745027","0.6918953154","0.3618740044","0.2497229096","","","","","","","","","","","","74","J","1","","","217","main_expt",""
"","bandit","297","991566","0.0-258.0-0.0","11439204","wem/bandit_either_3","A2FLOH4DM8A4ZS","either","7","133","","","","","","","1","0","0","0.5726390237","","0.6","0.4","0.8","0.2","","","","","0.5979125128","0.5726390237","0.3574217595","0.3076421025","","","","","","","","74","J","1","","","218","main_expt",""
"","bandit","298","993213","0.0-259.0-0.0","11439204","wem/bandit_either_3","A2FLOH4DM8A4ZS","either","7","79","","","","","","","0","1","0","","0.5179196303","0.6","0.4","0.8","0.2","0.5321687475","0.5179196303","0.3862686792","0.3488941347","","","","","","","","","","","","74","J","1","","","219","main_expt",""
"","bandit","299","994919","0.0-260.0-0.0","11439204","wem/bandit_either_3","A2FLOH4DM8A4ZS","either","7","149","","","","","","","1","0","0","0.5578222379","","0.6","0.4","0.8","0.2","","","","","0.6053830099","0.5578222379","0.4432846828","0.306784001","","","","","","","","74","J","1","","","220","main_expt",""
"","bandit","300","996607","0.0-261.0-0.0","11439204","wem/bandit_either_3","A2FLOH4DM8A4ZS","either","7","132","","","","","","","0","0","1","0.6640911266","","0.6","0.4","0.8","0.2","","","","","0.69383498","0.6640911266","0.432499938","0.3786925452","","","","","","","","74","J","1","","","221","main_expt",""
"","bandit","301","998479","0.0-262.0-0.0","11439204","wem/bandit_either_3","A2FLOH4DM8A4ZS","either","7","306","","","","","","","0","1","0","","0.7340686256","0.6","0.4","0.8","0.2","0.783375317","0.7340686256","0.4050903391","0.5014801557","","","","","","","","","","","","74","J","1","","","222","main_expt",""
"","bandit","302","1000190","0.0-263.0-0.0","11439204","wem/bandit_either_3","A2FLOH4DM8A4ZS","either","7","172","","","","","","","1","0","0","0.852862777","","0.6","0.4","0.8","0.2","","","","","0.8374489269","0.852862777","0.3282593462","0.4081704387","","","","","","","","74","J","1","","","223","main_expt",""
"","bandit","303","1001830","0.0-264.0-0.0","11439204","wem/bandit_either_3","A2FLOH4DM8A4ZS","either","7","85","","","","","","","0","0","1","","0.7830506485","0.6","0.4","0.8","0.2","0.7801262993","0.7830506485","0.2465370002","0.422296693","","","","","","","","","","","","74","J","1","","","224","main_expt",""
"","bandit","304","1003705","0.0-265.0-0.0","11439204","wem/bandit_either_3","A2FLOH4DM8A4ZS","either","7","310","","","","","","","0","0","1","0.7447555501","","0.6","0.4","0.8","0.2","","","","","0.7438235551","0.7447555501","0.2260872052","0.3998144739","","","","","","","","74","J","1","","","225","main_expt",""
"","bandit","305","1005982","0.0-266.0-0.0","11439204","wem/bandit_either_3","A2FLOH4DM8A4ZS","either","7","694","","","","","","","0","0","1","0.2573895518","","0.6","0.4","0.8","0.2","","","","","0.7561714458","0.7331719472","0.2573895518","0.2692780115","","","","","","","","75","K","2","","","226","main_expt",""
"","bandit","306","1007683","0.0-267.0-0.0","11439204","wem/bandit_either_3","A2FLOH4DM8A4ZS","either","7","133","","","","","","","0","0","1","","0.6417259928","0.6","0.4","0.8","0.2","0.7527106072","0.6417259928","0.2134597582","0.268728261","","","","","","","","","","","","74","J","1","","","227","main_expt",""
"","bandit","307","1009397","0.0-268.0-0.0","11439204","wem/bandit_either_3","A2FLOH4DM8A4ZS","either","7","153","","","","","","","0","0","1","","0.6315627418","0.6","0.4","0.8","0.2","0.6315627418","0.6050549784","0.348479141","0.2211951924","","","","","","","","","","","","72","H","0","img/none_selected.jpg","","228","main_expt",""
"","bandit","308","1010955","0.0-269.0-0.0","11439204","wem/bandit_either_3","A2FLOH4DM8A4ZS","either","7","16","","","","","","","1","0","0","0.5564086662","","0.6","0.4","0.8","0.2","","","","","0.5564086662","0.5962230341","0.3250735223","0.219241791","","","","","","","","72","H","0","img/none_selected.jpg","","229","main_expt",""
"","bandit","309","1012703","0.0-270.0-0.0","11439204","wem/bandit_either_3","A2FLOH4DM8A4ZS","either","7","143","","","","","","","1","0","0","0.5895813861","","0.6","0.4","0.8","0.2","","","","","0.5895813861","0.5594933722","0.3395219718","0.291585141","","","","","","","","72","H","0","img/none_selected.jpg","","230","main_expt",""
"","bandit","310","1014325","0.0-271.0-0.0","11439204","wem/bandit_either_3","A2FLOH4DM8A4ZS","either","7","66","","","","","","","0","0","1","0.6148213975","","0.6","0.4","0.8","0.2","","","","","0.6148213975","0.6411036761","0.3315483329","0.2754541949","","","","","","","","72","H","0","img/none_selected.jpg","","231","main_expt",""
"","bandit","311","1015949","0.0-272.0-0.0","11439204","wem/bandit_either_3","A2FLOH4DM8A4ZS","either","7","78","","","","","","","1","0","0","0.5176988489","","0.6","0.4","0.8","0.2","","","","","0.5176988489","0.6653930637","0.3876030756","0.3055336503","","","","","","","","72","H","0","img/none_selected.jpg","","232","main_expt",""
"","bandit","312","1017617","0.0-273.0-0.0","11439204","wem/bandit_either_3","A2FLOH4DM8A4ZS","either","7","119","","","","","","","1","0","0","0.4505666118","","0.6","0.4","0.8","0.2","","","","","0.4505666118","0.5426719569","0.3696248546","0.3390100853","","","","","","","","72","H","0","img/none_selected.jpg","","233","main_expt",""
"","bandit","313","1019255","0.0-274.0-0.0","11439204","wem/bandit_either_3","A2FLOH4DM8A4ZS","either","7","90","","","","","","","0","0","1","","0.4393496879","0.6","0.4","0.8","0.2","0.4393496879","0.5581360181","0.3927474605","0.3165323161","","","","","","","","","","","","72","H","0","img/none_selected.jpg","","234","main_expt",""
"","bandit","314","1021001","0.0-275.0-0.0","11439204","wem/bandit_either_3","A2FLOH4DM8A4ZS","either","7","197","","","","","","","0","0","1","","0.2944333127","0.6","0.4","0.8","0.2","0.3542725407","0.5299247183","0.4734072524","0.2944333127","","","","","","","","","","","","76","L","3","","","235","main_expt",""
"","bandit","315","1022562","0.0-276.0-0.0","11439204","wem/bandit_either_3","A2FLOH4DM8A4ZS","either","7","6","","","","","","","0","0","1","","0.4127469632","0.6","0.4","0.8","0.2","0.452511288","0.4709954077","0.5857320117","0.4127469632","","","","","","","","","","","","76","L","3","","","236","main_expt",""
"","bandit","316","1024279","0.0-277.0-0.0","11439204","wem/bandit_either_3","A2FLOH4DM8A4ZS","either","7","161","","","","","","","1","0","0","0.4743784035","","0.6","0.4","0.8","0.2","","","","","0.4743784035","0.4171051322","0.5208556897","0.4353664578","","","","","","","","72","H","0","img/none_selected.jpg","","237","main_expt",""
"","bandit","317","1026073","0.0-278.0-0.0","11439204","wem/bandit_either_3","A2FLOH4DM8A4ZS","either","7","234","","","","","","","0","0","1","0.4666998134","","0.6","0.4","0.8","0.2","","","","","0.4666998134","0.40722148","0.4551370454","0.3871798792","","","","","","","","72","H","0","img/none_selected.jpg","","238","main_expt",""
"","bandit","318","1027880","0.0-279.0-0.0","11439204","wem/bandit_either_3","A2FLOH4DM8A4ZS","either","7","259","","","","","","","0","0","1","","0.3113271407","0.6","0.4","0.8","0.2","0.4916456171","0.3113271407","0.2979137516","0.3244704863","","","","","","","","","","","","74","J","1","","","239","main_expt",""
"","bandit","319","1029628","0.0-280.0-0.0","11439204","wem/bandit_either_3","A2FLOH4DM8A4ZS","either","7","204","","","","","","","0","0","1","0.2453134511","","0.6","0.4","0.8","0.2","","","","","0.7128417261","0.2505753432","0.2453134511","0.3606581002","","","","","","","","75","K","2","","","240","main_expt",""
"","bandit","320","1031283","0.0-281.0-0.0","11439204","wem/bandit_either_3","A2FLOH4DM8A4ZS","either","7","122","","","","","","","0","0","1","","0.7711562233","0.6","0.4","0.8","0.2","0.7711562233","0.2015136922","0.1984184333","0.3524522155","","","","","","","","","","","","72","H","0","img/none_selected.jpg","","241","main_expt",""
"","bandit","321","1032998","0.0-282.0-0.0","11439204","wem/bandit_either_3","A2FLOH4DM8A4ZS","either","7","169","","","","","","","1","0","0","0.7503869254","","0.6","0.4","0.8","0.2","","","","","0.7503869254","0.2405045743","0.35553679","0.3677191248","","","","","","","","72","H","0","img/none_selected.jpg","","242","main_expt",""
"","bandit","322","1034559","0.0-283.0-0.0","11439204","wem/bandit_either_3","A2FLOH4DM8A4ZS","either","7","5","","","","","","","1","0","0","0.6345316327","","0.6","0.4","0.8","0.2","","","","","0.6345316327","0.2458255622","0.3153476176","0.2524844898","","","","","","","","72","H","0","img/none_selected.jpg","","243","main_expt",""
"","bandit","323","1038504","0.0-284.0-0.0","11439204","wem/bandit_either_3","A2FLOH4DM8A4ZS","either","7","2406","","","","","","","1","0","0","0.6330191047","","0.6","0.4","0.8","0.2","","","","","0.6330191047","0.3958019263","0.2733658223","0.2870953983","","","","","","","","72","H","0","img/none_selected.jpg","","244","main_expt",""
"","bandit","324","1040190","0.0-285.0-0.0","11439204","wem/bandit_either_3","A2FLOH4DM8A4ZS","either","7","139","","","","","","","0","0","1","","0.6219736313","0.6","0.4","0.8","0.2","0.6219736313","0.3463698993","0.3496419154","0.3392553197","","","","","","","","","","","","72","H","0","img/none_selected.jpg","","245","main_expt",""
