"consent","trial_type","trial_index","time_elapsed","internal_node_id","subjID","study","MID","cond","drift","rt","responses","key_press","expt_phase","like","value","connected","gems","bombs","no_reward","GemPrChosen","BombPrChosen","GainOverPainPr_0","GainOverPainPr_1","GainOverPainPr_2","GainOverPainPr_3","LosePr_0","LosePr_1","LosePr_2","LosePr_3","WinPr_0","WinPr_1","WinPr_2","WinPr_3","Q0","Q1","Q2","gender","age","ethnicity","target","respCharCode","respKey","respChoiceNum","respChoice","practice","trial_counter","trial_label","button_pressed"
"INL_behavioral_consent_30min_online.html","consent","0","25704","0.0-0.0","12681289","wem/bandit_either_3","A3TCFIPOBRZZB3","either","4","","","","","","","","","","","","","","","","","","","","","","","","","","","","","","","","","","","","","","",""
"","survey-text","1","31102","0.0-1.0","12681289","wem/bandit_either_3","A3TCFIPOBRZZB3","either","4","4378","{""Q0"":""A3TCFIPOBRZZB3""}","","","","","","","","","","","","","","","","","","","","","","","","","","","","","","","","","","","","",""
"","text","2","46353","0.0-2.0","12681289","wem/bandit_either_3","A3TCFIPOBRZZB3","either","4","14248","","32","","","","","","","","","","","","","","","","","","","","","","","","","","","","","","","","","","","",""
"","text","3","54894","0.0-3.0","12681289","wem/bandit_either_3","A3TCFIPOBRZZB3","either","4","8539","","32","","","","","","","","","","","","","","","","","","","","","","","","","","","","","","","","","","","",""
"","text","4","72431","0.0-4.0","12681289","wem/bandit_either_3","A3TCFIPOBRZZB3","either","4","17535","","32","","","","","","","","","","","","","","","","","","","","","","","","","","","","","","","","","","","",""
"","text","5","82679","0.0-5.0","12681289","wem/bandit_either_3","A3TCFIPOBRZZB3","either","4","10243","","32","","","","","","","","","","","","","","","","","","","","","","","","","","","","","","","","","","","",""
"","text","6","93529","0.0-6.0","12681289","wem/bandit_either_3","A3TCFIPOBRZZB3","either","4","10846","","32","","","","","","","","","","","","","","","","","","","","","","","","","","","","","","","","","","","",""
"","text","7","101369","0.0-7.0","12681289","wem/bandit_either_3","A3TCFIPOBRZZB3","either","4","7837","","32","","","","","","","","","","","","","","","","","","","","","","","","","","","","","","","","","","","",""
"","text","8","105741","0.0-8.0","12681289","wem/bandit_either_3","A3TCFIPOBRZZB3","either","4","4367","","32","","","","","","","","","","","","","","","","","","","","","","","","","","","","","","","","","","","",""
"","identification","9","114179","0.0-9.0-0.0","12681289","wem/bandit_either_3","A3TCFIPOBRZZB3","either","4","8408","","","","6","6","6","","","","","","","","","","","","","","","","","","","","","","","","the village of Zur","","","","","","","",""
"","identification","10","122153","0.0-9.0-1.0","12681289","wem/bandit_either_3","A3TCFIPOBRZZB3","either","4","6946","","","","0","0","0","","","","","","","","","","","","","","","","","","","","","","","","the village of Nyx","","","","","","","",""
"","text","11","129346","0.0-10.0","12681289","wem/bandit_either_3","A3TCFIPOBRZZB3","either","4","6179","","32","","","","","","","","","","","","","","","","","","","","","","","","","","","","","","","","","","","",""
"","text","12","132953","0.0-11.0","12681289","wem/bandit_either_3","A3TCFIPOBRZZB3","either","4","3605","","32","","","","","","","","","","","","","","","","","","","","","","","","","","","","","","","","","","","",""
"","text","13","135137","0.0-12.0","12681289","wem/bandit_either_3","A3TCFIPOBRZZB3","either","4","2181","","32","","","","","","","","","","","","","","","","","","","","","","","","","","","","","","","","","","","",""
"","text","14","137996","0.0-13.0","12681289","wem/bandit_either_3","A3TCFIPOBRZZB3","either","4","2856","","32","","","","","","","","","","","","","","","","","","","","","","","","","","","","","","","","","","","",""
"","bandit","15","143428","0.0-14.0-0.0","12681289","wem/bandit_either_3","A3TCFIPOBRZZB3","either","4","3892","","","","","","","0","0","1","0","0","","","","","0","","","","0","","","","","","","","","","","74","J","0","img/none_selected_demo.jpg","true","0","",""
"","bandit","16","146541","0.0-15.0-0.0","12681289","wem/bandit_either_3","A3TCFIPOBRZZB3","either","4","1578","","","","","","","0","0","1","0","0","","","","","0","","","","0","","","","","","","","","","","75","K","0","img/none_selected_demo.jpg","true","0","",""
"","text","17","153764","0.0-16.0","12681289","wem/bandit_either_3","A3TCFIPOBRZZB3","either","4","7219","","32","","","","","","","","","","","","","","","","","","","","","","","","","","","","","","","","","","","",""
"","text","18","161838","0.0-17.0","12681289","wem/bandit_either_3","A3TCFIPOBRZZB3","either","4","8069","","32","","","","","","","","","","","","","","","","","","","","","","","","","","","","","","","","","","","",""
"","text","19","170700","0.0-18.0","12681289","wem/bandit_either_3","A3TCFIPOBRZZB3","either","4","8857","","32","","","","","","","","","","","","","","","","","","","","","","","","","","","","","","","","","","","",""
"","text","20","173528","0.0-19.0","12681289","wem/bandit_either_3","A3TCFIPOBRZZB3","either","4","2825","","32","","","","","","","","","","","","","","","","","","","","","","","","","","","","","","","","","","","",""
"","bandit","21","177103","0.0-20.0-0.0","12681289","wem/bandit_either_3","A3TCFIPOBRZZB3","either","4","2042","","","","","","","0","1","0","","0.8","0.5","0.5","","","0.8","0.2","","","","","","","","","","","","","","74","J","0","img/none_selected_demo.jpg","true","0","80_20_practice",""
"","bandit","22","178993","0.0-20.0-1.0","12681289","wem/bandit_either_3","A3TCFIPOBRZZB3","either","4","367","","","","","","","0","1","0","","0.8","0.5","0.5","","","0.8","0.2","","","","","","","","","","","","","","74","J","0","img/none_selected_demo.jpg","true","0","80_20_practice",""
"","bandit","23","181049","0.0-20.0-2.0","12681289","wem/bandit_either_3","A3TCFIPOBRZZB3","either","4","527","","","","","","","0","0","1","0.8","","0.5","0.5","","","","","","","0.8","0.2","","","","","","","","","","74","J","0","img/none_selected_demo.jpg","true","0","80_20_practice",""
"","bandit","24","182673","0.0-20.0-3.0","12681289","wem/bandit_either_3","A3TCFIPOBRZZB3","either","4","103","","","","","","","0","1","0","","0.8","0.5","0.5","","","0.8","0.2","","","","","","","","","","","","","","74","J","0","img/none_selected_demo.jpg","true","0","80_20_practice",""
"","bandit","25","185695","0.0-20.0-4.0","12681289","wem/bandit_either_3","A3TCFIPOBRZZB3","either","4","1499","","","","","","","0","0","1","","0.2","0.5","0.5","","","0.8","0.2","","","","","","","","","","","","","","75","K","1","","true","0","80_20_practice",""
"","bandit","26","187675","0.0-20.0-5.0","12681289","wem/bandit_either_3","A3TCFIPOBRZZB3","either","4","455","","","","","","","1","0","0","0.2","","0.5","0.5","","","","","","","0.8","0.2","","","","","","","","","","75","K","1","","true","0","80_20_practice",""
"","bandit","27","189297","0.0-20.0-6.0","12681289","wem/bandit_either_3","A3TCFIPOBRZZB3","either","4","94","","","","","","","0","0","1","0.2","","0.5","0.5","","","","","","","0.8","0.2","","","","","","","","","","75","K","1","","true","0","80_20_practice",""
"","bandit","28","191512","0.0-20.0-7.0","12681289","wem/bandit_either_3","A3TCFIPOBRZZB3","either","4","690","","","","","","","0","0","1","0.2","","0.5","0.5","","","","","","","0.8","0.2","","","","","","","","","","75","K","1","","true","0","80_20_practice",""
"","bandit","29","193692","0.0-20.0-8.0","12681289","wem/bandit_either_3","A3TCFIPOBRZZB3","either","4","651","","","","","","","0","0","1","0.2","","0.5","0.5","","","","","","","0.8","0.2","","","","","","","","","","75","K","1","","true","0","80_20_practice",""
"","bandit","30","195509","0.0-20.0-9.0","12681289","wem/bandit_either_3","A3TCFIPOBRZZB3","either","4","281","","","","","","","0","1","0","","0.8","0.5","0.5","","","0.8","0.2","","","","","","","","","","","","","","74","J","0","img/none_selected_demo.jpg","true","0","80_20_practice",""
"","bandit","31","198855","0.0-20.0-10.0","12681289","wem/bandit_either_3","A3TCFIPOBRZZB3","either","4","1802","","","","","","","0","1","0","","0.8","0.5","0.5","","","0.8","0.2","","","","","","","","","","","","","","74","J","0","img/none_selected_demo.jpg","true","0","80_20_practice",""
"","bandit","32","200839","0.0-20.0-11.0","12681289","wem/bandit_either_3","A3TCFIPOBRZZB3","either","4","448","","","","","","","0","1","0","","0.8","0.5","0.5","","","0.8","0.2","","","","","","","","","","","","","","74","J","0","img/none_selected_demo.jpg","true","0","80_20_practice",""
"","bandit","33","202752","0.0-20.0-12.0","12681289","wem/bandit_either_3","A3TCFIPOBRZZB3","either","4","380","","","","","","","0","1","0","","0.8","0.5","0.5","","","0.8","0.2","","","","","","","","","","","","","","74","J","0","img/none_selected_demo.jpg","true","0","80_20_practice",""
"","bandit","34","204530","0.0-20.0-13.0","12681289","wem/bandit_either_3","A3TCFIPOBRZZB3","either","4","246","","","","","","","0","1","0","","0.8","0.5","0.5","","","0.8","0.2","","","","","","","","","","","","","","74","J","0","img/none_selected_demo.jpg","true","0","80_20_practice",""
"","bandit","35","206385","0.0-20.0-14.0","12681289","wem/bandit_either_3","A3TCFIPOBRZZB3","either","4","316","","","","","","","0","0","1","0.8","","0.5","0.5","","","","","","","0.8","0.2","","","","","","","","","","74","J","0","img/none_selected_demo.jpg","true","0","80_20_practice",""
"","bandit","36","208348","0.0-20.0-15.0","12681289","wem/bandit_either_3","A3TCFIPOBRZZB3","either","4","412","","","","","","","0","0","1","0.8","","0.5","0.5","","","","","","","0.8","0.2","","","","","","","","","","74","J","0","img/none_selected_demo.jpg","true","0","80_20_practice",""
"","bandit","37","210300","0.0-20.0-16.0","12681289","wem/bandit_either_3","A3TCFIPOBRZZB3","either","4","418","","","","","","","1","0","0","0.8","","0.5","0.5","","","","","","","0.8","0.2","","","","","","","","","","74","J","0","img/none_selected_demo.jpg","true","0","80_20_practice",""
"","bandit","38","211980","0.0-20.0-17.0","12681289","wem/bandit_either_3","A3TCFIPOBRZZB3","either","4","150","","","","","","","0","0","1","","0.8","0.5","0.5","","","0.8","0.2","","","","","","","","","","","","","","74","J","0","img/none_selected_demo.jpg","true","0","80_20_practice",""
"","bandit","39","213906","0.0-20.0-18.0","12681289","wem/bandit_either_3","A3TCFIPOBRZZB3","either","4","401","","","","","","","0","1","0","","0.8","0.5","0.5","","","0.8","0.2","","","","","","","","","","","","","","74","J","0","img/none_selected_demo.jpg","true","0","80_20_practice",""
"","bandit","40","215795","0.0-20.0-19.0","12681289","wem/bandit_either_3","A3TCFIPOBRZZB3","either","4","358","","","","","","","1","0","0","0.8","","0.5","0.5","","","","","","","0.8","0.2","","","","","","","","","","74","J","0","img/none_selected_demo.jpg","true","0","80_20_practice",""
"","text","41","218656","0.0-21.0","12681289","wem/bandit_either_3","A3TCFIPOBRZZB3","either","4","2858","","32","","","","","","","","","","","","","","","","","","","","","","","","","","","","","","","","","","","",""
"","bandit","42","220848","0.0-22.0-0.0","12681289","wem/bandit_either_3","A3TCFIPOBRZZB3","either","4","664","","","","","","","1","0","0","1","0","","","","","0","1","","","1","0","","","","","","","","","","74","J","0","img/none_selected_demo.jpg","true","0","",""
"","text","43","226434","0.0-23.0","12681289","wem/bandit_either_3","A3TCFIPOBRZZB3","either","4","5583","","32","","","","","","","","","","","","","","","","","","","","","","","","","","","","","","","","","","","",""
"","text","44","230310","0.0-24.0","12681289","wem/bandit_either_3","A3TCFIPOBRZZB3","either","4","3873","","32","","","","","","","","","","","","","","","","","","","","","","","","","","","","","","","","","","","",""
"","text","45","232806","0.0-25.0","12681289","wem/bandit_either_3","A3TCFIPOBRZZB3","either","4","2493","","32","","","","","","","","","","","","","","","","","","","","","","","","","","","","","","","","","","","",""
"","text","46","236363","0.0-26.0","12681289","wem/bandit_either_3","A3TCFIPOBRZZB3","either","4","3551","","32","","","","","","","","","","","","","","","","","","","","","","","","","","","","","","","","","","","",""
"","text","47","242533","0.0-27.0","12681289","wem/bandit_either_3","A3TCFIPOBRZZB3","either","4","6162","","32","","","","","","","","","","","","","","","","","","","","","","","","","","","","","","","","","","","",""
"","text","48","245599","0.0-28.0","12681289","wem/bandit_either_3","A3TCFIPOBRZZB3","either","4","3060","","32","","","","","","","","","","","","","","","","","","","","","","","","","","","","","","","","","","","",""
"","text","49","250441","0.0-29.0","12681289","wem/bandit_either_3","A3TCFIPOBRZZB3","either","4","4835","","32","","","","","","","","","","","","","","","","","","","","","","","","","","","","","","","","","","","",""
"","text","50","253277","0.0-30.0","12681289","wem/bandit_either_3","A3TCFIPOBRZZB3","either","4","2828","","32","","","","","","","","","","","","","","","","","","","","","","","","","","","","","","","","","","","",""
"","text","51","256745","0.0-31.0","12681289","wem/bandit_either_3","A3TCFIPOBRZZB3","either","4","3462","","32","","","","","","","","","","","","","","","","","","","","","","","","","","","","","","","","","","","",""
"","text","52","258391","0.0-32.0","12681289","wem/bandit_either_3","A3TCFIPOBRZZB3","either","4","1638","","32","","","","","","","","","","","","","","","","","","","","","","","","","","","","","","","","","","","",""
"","text","53","265169","0.0-33.0","12681289","wem/bandit_either_3","A3TCFIPOBRZZB3","either","4","6771","","32","","","","","","","","","","","","","","","","","","","","","","","","","","","","","","","","","","","",""
"","bandit","54","267452","0.0-34.0-0.0","12681289","wem/bandit_either_3","A3TCFIPOBRZZB3","either","4","745","","","","","","","1","0","0","0.8","","0.5","0.5","0.5","0.5","","","","","0.8","0.2","0.6","0.2","","","","","","","","72","H","0","img/none_selected.jpg","true","0","full_practice",""
"","bandit","55","269404","0.0-34.0-1.0","12681289","wem/bandit_either_3","A3TCFIPOBRZZB3","either","4","420","","","","","","","0","1","0","","0.8","0.5","0.5","0.5","0.5","0.8","0.2","0.6","0.2","","","","","","","","","","","","72","H","0","img/none_selected.jpg","true","0","full_practice",""
"","bandit","56","271338","0.0-34.0-2.0","12681289","wem/bandit_either_3","A3TCFIPOBRZZB3","either","4","415","","","","","","","0","0","1","","0.8","0.5","0.5","0.5","0.5","0.8","0.2","0.6","0.2","","","","","","","","","","","","72","H","0","img/none_selected.jpg","true","0","full_practice",""
"","bandit","57","273407","0.0-34.0-3.0","12681289","wem/bandit_either_3","A3TCFIPOBRZZB3","either","4","539","","","","","","","1","0","0","0.8","","0.5","0.5","0.5","0.5","","","","","0.8","0.2","0.6","0.2","","","","","","","","72","H","0","img/none_selected.jpg","true","0","full_practice",""
"","bandit","58","275399","0.0-34.0-4.0","12681289","wem/bandit_either_3","A3TCFIPOBRZZB3","either","4","467","","","","","","","0","1","0","","0.8","0.5","0.5","0.5","0.5","0.8","0.2","0.6","0.2","","","","","","","","","","","","72","H","0","img/none_selected.jpg","true","0","full_practice",""
"","bandit","59","277359","0.0-34.0-5.0","12681289","wem/bandit_either_3","A3TCFIPOBRZZB3","either","4","432","","","","","","","0","1","0","","0.8","0.5","0.5","0.5","0.5","0.8","0.2","0.6","0.2","","","","","","","","","","","","72","H","0","img/none_selected.jpg","true","0","full_practice",""
"","bandit","60","279333","0.0-34.0-6.0","12681289","wem/bandit_either_3","A3TCFIPOBRZZB3","either","4","450","","","","","","","0","1","0","","0.8","0.5","0.5","0.5","0.5","0.8","0.2","0.6","0.2","","","","","","","","","","","","72","H","0","img/none_selected.jpg","true","0","full_practice",""
"","bandit","61","281256","0.0-34.0-7.0","12681289","wem/bandit_either_3","A3TCFIPOBRZZB3","either","4","399","","","","","","","0","1","0","","0.8","0.5","0.5","0.5","0.5","0.8","0.2","0.6","0.2","","","","","","","","","","","","72","H","0","img/none_selected.jpg","true","0","full_practice",""
"","bandit","62","283246","0.0-34.0-8.0","12681289","wem/bandit_either_3","A3TCFIPOBRZZB3","either","4","466","","","","","","","0","1","0","","0.8","0.5","0.5","0.5","0.5","0.8","0.2","0.6","0.2","","","","","","","","","","","","72","H","0","img/none_selected.jpg","true","0","full_practice",""
"","bandit","63","285158","0.0-34.0-9.0","12681289","wem/bandit_either_3","A3TCFIPOBRZZB3","either","4","383","","","","","","","0","0","1","0.8","","0.5","0.5","0.5","0.5","","","","","0.8","0.2","0.6","0.2","","","","","","","","72","H","0","img/none_selected.jpg","true","0","full_practice",""
"","bandit","64","287113","0.0-34.0-10.0","12681289","wem/bandit_either_3","A3TCFIPOBRZZB3","either","4","431","","","","","","","0","1","0","","0.8","0.5","0.5","0.5","0.5","0.8","0.2","0.6","0.2","","","","","","","","","","","","72","H","0","img/none_selected.jpg","true","0","full_practice",""
"","bandit","65","289029","0.0-34.0-11.0","12681289","wem/bandit_either_3","A3TCFIPOBRZZB3","either","4","395","","","","","","","1","0","0","0.8","","0.5","0.5","0.5","0.5","","","","","0.8","0.2","0.6","0.2","","","","","","","","72","H","0","img/none_selected.jpg","true","0","full_practice",""
"","bandit","66","290890","0.0-34.0-12.0","12681289","wem/bandit_either_3","A3TCFIPOBRZZB3","either","4","333","","","","","","","1","0","0","0.8","","0.5","0.5","0.5","0.5","","","","","0.8","0.2","0.6","0.2","","","","","","","","72","H","0","img/none_selected.jpg","true","0","full_practice",""
"","bandit","67","292846","0.0-34.0-13.0","12681289","wem/bandit_either_3","A3TCFIPOBRZZB3","either","4","429","","","","","","","0","1","0","","0.8","0.5","0.5","0.5","0.5","0.8","0.2","0.6","0.2","","","","","","","","","","","","72","H","0","img/none_selected.jpg","true","0","full_practice",""
"","bandit","68","294715","0.0-34.0-14.0","12681289","wem/bandit_either_3","A3TCFIPOBRZZB3","either","4","344","","","","","","","1","0","0","0.8","","0.5","0.5","0.5","0.5","","","","","0.8","0.2","0.6","0.2","","","","","","","","72","H","0","img/none_selected.jpg","true","0","full_practice",""
"","bandit","69","296698","0.0-34.0-15.0","12681289","wem/bandit_either_3","A3TCFIPOBRZZB3","either","4","460","","","","","","","1","0","0","0.8","","0.5","0.5","0.5","0.5","","","","","0.8","0.2","0.6","0.2","","","","","","","","72","H","0","img/none_selected.jpg","true","0","full_practice",""
"","bandit","70","298638","0.0-34.0-16.0","12681289","wem/bandit_either_3","A3TCFIPOBRZZB3","either","4","410","","","","","","","0","1","0","","0.8","0.5","0.5","0.5","0.5","0.8","0.2","0.6","0.2","","","","","","","","","","","","72","H","0","img/none_selected.jpg","true","0","full_practice",""
"","bandit","71","300559","0.0-34.0-17.0","12681289","wem/bandit_either_3","A3TCFIPOBRZZB3","either","4","395","","","","","","","0","1","0","","0.8","0.5","0.5","0.5","0.5","0.8","0.2","0.6","0.2","","","","","","","","","","","","72","H","0","img/none_selected.jpg","true","0","full_practice",""
"","bandit","72","302473","0.0-34.0-18.0","12681289","wem/bandit_either_3","A3TCFIPOBRZZB3","either","4","389","","","","","","","1","0","0","0.8","","0.5","0.5","0.5","0.5","","","","","0.8","0.2","0.6","0.2","","","","","","","","72","H","0","img/none_selected.jpg","true","0","full_practice",""
"","bandit","73","304718","0.0-34.0-19.0","12681289","wem/bandit_either_3","A3TCFIPOBRZZB3","either","4","717","","","","","","","0","1","0","","0.8","0.5","0.5","0.5","0.5","0.8","0.2","0.6","0.2","","","","","","","","","","","","72","H","0","img/none_selected.jpg","true","0","full_practice",""
"","text","74","307101","0.0-35.0","12681289","wem/bandit_either_3","A3TCFIPOBRZZB3","either","4","2374","","32","","","","","","","","","","","","","","","","","","","","","","","","","","","","","","","","","","","",""
"","text","75","320513","0.0-36.0","12681289","wem/bandit_either_3","A3TCFIPOBRZZB3","either","4","12405","","32","","","","","","","","","","","","","","","","","","","","","","","","","","","","","","","","","","","",""
"","text","76","330680","0.0-37.0","12681289","wem/bandit_either_3","A3TCFIPOBRZZB3","either","4","10162","","32","","","","","","","","","","","","","","","","","","","","","","","","","","","","","","","","","","","",""
"","text","77","341868","0.0-38.0","12681289","wem/bandit_either_3","A3TCFIPOBRZZB3","either","4","11184","","32","","","","","","","","","","","","","","","","","","","","","","","","","","","","","","","","","","","",""
"","text","78","350107","0.0-39.0","12681289","wem/bandit_either_3","A3TCFIPOBRZZB3","either","4","8236","","32","","","","","","","","","","","","","","","","","","","","","","","","","","","","","","","","","","","",""
"","text","79","354051","0.0-40.0","12681289","wem/bandit_either_3","A3TCFIPOBRZZB3","either","4","3940","","32","","","","","","","","","","","","","","","","","","","","","","","","","","","","","","","","","","","",""
"","bandit","80","359035","0.0-41.0-0.0","12681289","wem/bandit_either_3","A3TCFIPOBRZZB3","either","4","3454","","","","","","","0","1","0","","0.8209843215","0.6","0.2","0.4","0.8","0.8209843215","0.2887693562","0.9858900825","0.7267404998","","","","","","","","","","","","72","H","0","img/none_selected.jpg","","1","main_expt",""
"","bandit","81","360968","0.0-42.0-0.0","12681289","wem/bandit_either_3","A3TCFIPOBRZZB3","either","4","402","","","","","","","0","0","1","0.8179122382","","0.6","0.2","0.4","0.8","","","","","0.8179122382","0.2986217167","0.9854924354","0.7034907646","","","","","","","","72","H","0","img/none_selected.jpg","","2","main_expt",""
"","bandit","82","362940","0.0-43.0-0.0","12681289","wem/bandit_either_3","A3TCFIPOBRZZB3","either","4","416","","","","","","","0","0","1","0.8301291561","","0.6","0.2","0.4","0.8","","","","","0.8301291561","0.261346942","0.9789624529","0.6574847675","","","","","","","","72","H","0","img/none_selected.jpg","","3","main_expt",""
"","bandit","83","364992","0.0-44.0-0.0","12681289","wem/bandit_either_3","A3TCFIPOBRZZB3","either","4","523","","","","","","","1","0","0","0.8219157537","","0.6","0.2","0.4","0.8","","","","","0.8219157537","0.2757740293","0.9565345184","0.5092805277","","","","","","","","72","H","0","img/none_selected.jpg","","4","main_expt",""
"","bandit","84","366838","0.0-45.0-0.0","12681289","wem/bandit_either_3","A3TCFIPOBRZZB3","either","4","327","","","","","","","0","1","0","","0.7759220463","0.6","0.2","0.4","0.8","0.7759220463","0.3329857669","0.941194936","0.5952926025","","","","","","","","","","","","72","H","0","img/none_selected.jpg","","5","main_expt",""
"","bandit","85","368440","0.0-46.0-0.0","12681289","wem/bandit_either_3","A3TCFIPOBRZZB3","either","4","74","","","","","","","1","0","0","0.7495930044","","0.6","0.2","0.4","0.8","","","","","0.7495930044","0.331878758","0.9305219143","0.6160758637","","","","","","","","72","H","0","img/none_selected.jpg","","6","main_expt",""
"","bandit","86","370083","0.0-47.0-0.0","12681289","wem/bandit_either_3","A3TCFIPOBRZZB3","either","4","115","","","","","","","1","0","0","0.7078030286","","0.6","0.2","0.4","0.8","","","","","0.7078030286","0.3863389794","0.937738562","0.6381806331","","","","","","","","72","H","0","img/none_selected.jpg","","7","main_expt",""
"","bandit","87","372072","0.0-48.0-0.0","12681289","wem/bandit_either_3","A3TCFIPOBRZZB3","either","4","464","","","","","","","0","0","1","0.689407674","","0.6","0.2","0.4","0.8","","","","","0.689407674","0.4242016385","0.8269671957","0.7047831713","","","","","","","","72","H","0","img/none_selected.jpg","","8","main_expt",""
"","bandit","88","374099","0.0-49.0-0.0","12681289","wem/bandit_either_3","A3TCFIPOBRZZB3","either","4","494","","","","","","","0","1","0","","0.7848236408","0.6","0.2","0.4","0.8","0.7848236408","0.379169242","0.7696709776","0.6222923336","","","","","","","","","","","","72","H","0","img/none_selected.jpg","","9","main_expt",""
"","bandit","89","375889","0.0-50.0-0.0","12681289","wem/bandit_either_3","A3TCFIPOBRZZB3","either","4","270","","","","","","","1","0","0","0.791363481","","0.6","0.2","0.4","0.8","","","","","0.791363481","0.40569916","0.7313552403","0.5629201009","","","","","","","","72","H","0","img/none_selected.jpg","","10","main_expt",""
"","bandit","90","377897","0.0-51.0-0.0","12681289","wem/bandit_either_3","A3TCFIPOBRZZB3","either","4","484","","","","","","","1","0","0","0.7800632456","","0.6","0.2","0.4","0.8","","","","","0.7800632456","0.4188021694","0.8129169819","0.644159789","","","","","","","","72","H","0","img/none_selected.jpg","","11","main_expt",""
"","bandit","91","379690","0.0-52.0-0.0","12681289","wem/bandit_either_3","A3TCFIPOBRZZB3","either","4","268","","","","","","","0","1","0","","0.7559884596","0.6","0.2","0.4","0.8","0.7559884596","0.3689559917","0.7611571711","0.6840372722","","","","","","","","","","","","72","H","0","img/none_selected.jpg","","12","main_expt",""
"","bandit","92","381651","0.0-53.0-0.0","12681289","wem/bandit_either_3","A3TCFIPOBRZZB3","either","4","415","","","","","","","0","1","0","","0.7695577991","0.6","0.2","0.4","0.8","0.7695577991","0.4584943612","0.7628417147","0.6236151953","","","","","","","","","","","","72","H","0","img/none_selected.jpg","","13","main_expt",""
"","bandit","93","383725","0.0-54.0-0.0","12681289","wem/bandit_either_3","A3TCFIPOBRZZB3","either","4","550","","","","","","","0","1","0","","0.8509931145","0.6","0.2","0.4","0.8","0.8509931145","0.455083938","0.7436451733","0.5388331182","","","","","","","","","","","","72","H","0","img/none_selected.jpg","","14","main_expt",""
"","bandit","94","385726","0.0-55.0-0.0","12681289","wem/bandit_either_3","A3TCFIPOBRZZB3","either","4","474","","","","","","","0","1","0","","0.7745856811","0.6","0.2","0.4","0.8","0.7745856811","0.5360112786","0.8256008488","0.4802769188","","","","","","","","","","","","72","H","0","img/none_selected.jpg","","15","main_expt",""
"","bandit","95","387776","0.0-56.0-0.0","12681289","wem/bandit_either_3","A3TCFIPOBRZZB3","either","4","530","","","","","","","1","0","0","0.7576521113","","0.6","0.2","0.4","0.8","","","","","0.7576521113","0.4791571541","0.7683027423","0.4688000192","","","","","","","","72","H","0","img/none_selected.jpg","","16","main_expt",""
"","bandit","96","389850","0.0-57.0-0.0","12681289","wem/bandit_either_3","A3TCFIPOBRZZB3","either","4","546","","","","","","","1","0","0","0.8099558365","","0.6","0.2","0.4","0.8","","","","","0.8099558365","0.5263630166","0.7857675768","0.6000602573","","","","","","","","72","H","0","img/none_selected.jpg","","17","main_expt",""
"","bandit","97","391863","0.0-58.0-0.0","12681289","wem/bandit_either_3","A3TCFIPOBRZZB3","either","4","488","","","","","","","0","1","0","","0.7535280451","0.6","0.2","0.4","0.8","0.7535280451","0.543945959","0.7303419725","0.6046592687","","","","","","","","","","","","72","H","0","img/none_selected.jpg","","18","main_expt",""
"","bandit","98","393854","0.0-59.0-0.0","12681289","wem/bandit_either_3","A3TCFIPOBRZZB3","either","4","467","","","","","","","0","0","1","","0.7206444799","0.6","0.2","0.4","0.8","0.7206444799","0.4579801682","0.7243255268","0.6177236116","","","","","","","","","","","","72","H","0","img/none_selected.jpg","","19","main_expt",""
"","bandit","99","395780","0.0-60.0-0.0","12681289","wem/bandit_either_3","A3TCFIPOBRZZB3","either","4","395","","","","","","","0","0","1","0.6388551968","","0.6","0.2","0.4","0.8","","","","","0.6388551968","0.5439896582","0.7691283854","0.5484637992","","","","","","","","72","H","0","img/none_selected.jpg","","20","main_expt",""
"","bandit","100","397791","0.0-61.0-0.0","12681289","wem/bandit_either_3","A3TCFIPOBRZZB3","either","4","481","","","","","","","0","0","1","0.4956822649","","0.6","0.2","0.4","0.8","","","","","0.4956822649","0.5796019833","0.7068464658","0.6646151354","","","","","","","","72","H","0","img/none_selected.jpg","","21","main_expt",""
"","bandit","101","399705","0.0-62.0-0.0","12681289","wem/bandit_either_3","A3TCFIPOBRZZB3","either","4","385","","","","","","","1","0","0","0.5885929095","","0.6","0.2","0.4","0.8","","","","","0.4316307404","0.5885929095","0.7407239748","0.7223938077","","","","","","","","74","J","1","","","22","main_expt",""
"","bandit","102","401778","0.0-63.0-0.0","12681289","wem/bandit_either_3","A3TCFIPOBRZZB3","either","4","547","","","","","","","0","0","1","","0.4899642796","0.6","0.2","0.4","0.8","0.4158022912","0.4899642796","0.7300920021","0.7548690184","","","","","","","","","","","","74","J","1","","","23","main_expt",""
"","bandit","103","403754","0.0-64.0-0.0","12681289","wem/bandit_either_3","A3TCFIPOBRZZB3","either","4","445","","","","","","","0","1","0","","0.4984159311","0.6","0.2","0.4","0.8","0.4099928258","0.4984159311","0.7074307303","0.7794954679","","","","","","","","","","","","74","J","1","","","24","main_expt",""
"","bandit","104","405913","0.0-65.0-0.0","12681289","wem/bandit_either_3","A3TCFIPOBRZZB3","either","4","611","","","","","","","0","1","0","","0.5885503773","0.6","0.2","0.4","0.8","0.4303724308","0.5885503773","0.6228099684","0.8029664172","","","","","","","","","","","","74","J","1","","","25","main_expt",""
"","bandit","105","408025","0.0-66.0-0.0","12681289","wem/bandit_either_3","A3TCFIPOBRZZB3","either","4","572","","","","","","","1","0","0","0.6978100054","","0.6","0.2","0.4","0.8","","","","","0.3291624114","0.6978100054","0.5588879168","0.6980766755","","","","","","","","74","J","1","","","26","main_expt",""
"","bandit","106","410329","0.0-67.0-0.0","12681289","wem/bandit_either_3","A3TCFIPOBRZZB3","either","4","770","","","","","","","0","1","0","","0.6442468271","0.6","0.2","0.4","0.8","0.3795789415","0.6442468271","0.5033257713","0.7021498626","","","","","","","","","","","","74","J","1","","","27","main_expt",""
"","bandit","107","412490","0.0-68.0-0.0","12681289","wem/bandit_either_3","A3TCFIPOBRZZB3","either","4","635","","","","","","","0","1","0","","0.7399213538","0.6","0.2","0.4","0.8","0.3208573938","0.7399213538","0.4915102133","0.7802436781","","","","","","","","","","","","74","J","1","","","28","main_expt",""
"","bandit","108","414626","0.0-69.0-0.0","12681289","wem/bandit_either_3","A3TCFIPOBRZZB3","either","4","591","","","","","","","0","1","0","","0.7520253205","0.6","0.2","0.4","0.8","0.3352919619","0.7520253205","0.4291187576","0.6907923131","","","","","","","","","","","","74","J","1","","","29","main_expt",""
"","bandit","109","416678","0.0-70.0-0.0","12681289","wem/bandit_either_3","A3TCFIPOBRZZB3","either","4","507","","","","","","","0","1","0","","0.7528469829","0.6","0.2","0.4","0.8","0.3452717309","0.7528469829","0.5379907803","0.6771306444","","","","","","","","","","","","74","J","1","","","30","main_expt",""
"","bandit","110","418661","0.0-71.0-0.0","12681289","wem/bandit_either_3","A3TCFIPOBRZZB3","either","4","451","","","","","","","0","1","0","","0.7571908429","0.6","0.2","0.4","0.8","0.2967094522","0.7571908429","0.646046857","0.7130915948","","","","","","","","","","","","74","J","1","","","31","main_expt",""
"","bandit","111","420533","0.0-72.0-0.0","12681289","wem/bandit_either_3","A3TCFIPOBRZZB3","either","4","344","","","","","","","0","1","0","","0.7530934884","0.6","0.2","0.4","0.8","0.255781972","0.7530934884","0.5608885347","0.6849190202","","","","","","","","","","","","74","J","1","","","32","main_expt",""
"","bandit","112","422555","0.0-73.0-0.0","12681289","wem/bandit_either_3","A3TCFIPOBRZZB3","either","4","484","","","","","","","0","0","1","","0.7163673585","0.6","0.2","0.4","0.8","0.2703771925","0.7163673585","0.5952322697","0.7392612035","","","","","","","","","","","","74","J","1","","","33","main_expt",""
"","bandit","113","424497","0.0-74.0-0.0","12681289","wem/bandit_either_3","A3TCFIPOBRZZB3","either","4","416","","","","","","","0","1","0","","0.6817248107","0.6","0.2","0.4","0.8","0.3572673824","0.6817248107","0.6206609301","0.7026009082","","","","","","","","","","","","74","J","1","","","34","main_expt",""
"","bandit","114","426389","0.0-75.0-0.0","12681289","wem/bandit_either_3","A3TCFIPOBRZZB3","either","4","364","","","","","","","0","0","1","0.6903641832","","0.6","0.2","0.4","0.8","","","","","0.3237575066","0.6903641832","0.6223058769","0.632003728","","","","","","","","74","J","1","","","35","main_expt",""
"","bandit","115","428301","0.0-76.0-0.0","12681289","wem/bandit_either_3","A3TCFIPOBRZZB3","either","4","378","","","","","","","0","1","0","","0.6953747248","0.6","0.2","0.4","0.8","0.3724209237","0.6953747248","0.7304722347","0.7266912659","","","","","","","","","","","","74","J","1","","","36","main_expt",""
"","bandit","116","430226","0.0-77.0-0.0","12681289","wem/bandit_either_3","A3TCFIPOBRZZB3","either","4","401","","","","","","","0","0","1","0.7552078918","","0.6","0.2","0.4","0.8","","","","","0.3848591071","0.7552078918","0.6789706255","0.5512211225","","","","","","","","74","J","1","","","37","main_expt",""
"","bandit","117","432099","0.0-78.0-0.0","12681289","wem/bandit_either_3","A3TCFIPOBRZZB3","either","4","344","","","","","","","1","0","0","0.7095976639","","0.6","0.2","0.4","0.8","","","","","0.4026628424","0.7095976639","0.6758320082","0.5888446875","","","","","","","","74","J","1","","","38","main_expt",""
"","bandit","118","434054","0.0-79.0-0.0","12681289","wem/bandit_either_3","A3TCFIPOBRZZB3","either","4","391","","","","","","","0","1","0","","0.7813817897","0.6","0.2","0.4","0.8","0.460229008","0.7813817897","0.753286291","0.7349010221","","","","","","","","","","","","74","J","1","","","39","main_expt",""
"","bandit","119","436123","0.0-80.0-0.0","12681289","wem/bandit_either_3","A3TCFIPOBRZZB3","either","4","536","","","","","","","0","1","0","","0.7604460558","0.6","0.2","0.4","0.8","0.3392787789","0.7604460558","0.7527041006","0.6715391024","","","","","","","","","","","","74","J","1","","","40","main_expt",""
"","bandit","120","438066","0.0-81.0-0.0","12681289","wem/bandit_either_3","A3TCFIPOBRZZB3","either","4","409","","","","","","","1","0","0","0.7588214983","","0.6","0.2","0.4","0.8","","","","","0.2983701942","0.7588214983","0.7900808451","0.688235262","","","","","","","","74","J","1","","","41","main_expt",""
"","bandit","121","439986","0.0-82.0-0.0","12681289","wem/bandit_either_3","A3TCFIPOBRZZB3","either","4","392","","","","","","","0","0","1","0.8204813903","","0.6","0.2","0.4","0.8","","","","","0.2390858253","0.8204813903","0.7261157662","0.750516412","","","","","","","","74","J","1","","","42","main_expt",""
"","bandit","122","441839","0.0-83.0-0.0","12681289","wem/bandit_either_3","A3TCFIPOBRZZB3","either","4","326","","","","","","","0","0","1","","0.8310219988","0.6","0.2","0.4","0.8","0.1877526289","0.8310219988","0.772887471","0.775378891","","","","","","","","","","","","74","J","1","","","43","main_expt",""
"","bandit","123","443729","0.0-84.0-0.0","12681289","wem/bandit_either_3","A3TCFIPOBRZZB3","either","4","360","","","","","","","0","0","1","","0.8165903167","0.6","0.2","0.4","0.8","0.2713877418","0.8165903167","0.7359848823","0.5983035632","","","","","","","","","","","","74","J","1","","","44","main_expt",""
"","bandit","124","445541","0.0-85.0-0.0","12681289","wem/bandit_either_3","A3TCFIPOBRZZB3","either","4","284","","","","","","","0","0","1","0.6223954065","","0.6","0.2","0.4","0.8","","","","","0.2600408605","0.6765015189","0.6223954065","0.6453890447","","","","","","","","75","K","2","","","45","main_expt",""
"","bandit","125","447393","0.0-86.0-0.0","12681289","wem/bandit_either_3","A3TCFIPOBRZZB3","either","4","320","","","","","","","0","1","0","","0.5963379238","0.6","0.2","0.4","0.8","0.2435580982","0.6613510417","0.5963379238","0.4979639723","","","","","","","","","","","","75","K","2","","","46","main_expt",""
"","bandit","126","449203","0.0-87.0-0.0","12681289","wem/bandit_either_3","A3TCFIPOBRZZB3","either","4","284","","","","","","","0","0","1","","0.6161308884","0.6","0.2","0.4","0.8","0.3258971046","0.7373034573","0.6161308884","0.4475739324","","","","","","","","","","","","75","K","2","","","47","main_expt",""
"","bandit","127","451186","0.0-88.0-0.0","12681289","wem/bandit_either_3","A3TCFIPOBRZZB3","either","4","457","","","","","","","1","0","0","0.6354722558","","0.6","0.2","0.4","0.8","","","","","0.2934977076","0.6580913366","0.6354722558","0.570942939","","","","","","","","75","K","2","","","48","main_expt",""
"","bandit","128","453090","0.0-89.0-0.0","12681289","wem/bandit_either_3","A3TCFIPOBRZZB3","either","4","373","","","","","","","0","0","1","0.5941747261","","0.6","0.2","0.4","0.8","","","","","0.3381222087","0.6518545324","0.5941747261","0.5943858444","","","","","","","","75","K","2","","","49","main_expt",""
"","bandit","129","455002","0.0-90.0-0.0","12681289","wem/bandit_either_3","A3TCFIPOBRZZB3","either","4","379","","","","","","","0","1","0","","0.5510631732","0.6","0.2","0.4","0.8","0.4149653651","0.6362385309","0.5510631732","0.72156704","","","","","","","","","","","","75","K","2","","","50","main_expt",""
"","bandit","130","456866","0.0-91.0-0.0","12681289","wem/bandit_either_3","A3TCFIPOBRZZB3","either","4","320","","","","","","","0","0","1","","0.5580995271","0.6","0.2","0.4","0.8","0.315936401","0.6673370403","0.5580995271","0.6453884322","","","","","","","","","","","","75","K","2","","","51","main_expt",""
"","bandit","131","458840","0.0-92.0-0.0","12681289","wem/bandit_either_3","A3TCFIPOBRZZB3","either","4","439","","","","","","","1","0","0","0.4492126091","","0.6","0.2","0.4","0.8","","","","","0.34776451","0.6614759556","0.4492126091","0.635653338","","","","","","","","75","K","2","","","52","main_expt",""
"","bandit","132","460712","0.0-93.0-0.0","12681289","wem/bandit_either_3","A3TCFIPOBRZZB3","either","4","328","","","","","","","0","1","0","","0.4600129001","0.6","0.2","0.4","0.8","0.2946288454","0.5099009019","0.4600129001","0.5700640027","","","","","","","","","","","","75","K","2","","","53","main_expt",""
"","bandit","133","462637","0.0-94.0-0.0","12681289","wem/bandit_either_3","A3TCFIPOBRZZB3","either","4","307","","","","","","","0","0","1","","0.4005354829","0.6","0.2","0.4","0.8","0.3757560715","0.5323874036","0.4005354829","0.4535518587","","","","","","","","","","","","75","K","2","","","54","main_expt",""
"","bandit","134","464549","0.0-95.0-0.0","12681289","wem/bandit_either_3","A3TCFIPOBRZZB3","either","4","370","","","","","","","0","0","1","","0.3305694417","0.6","0.2","0.4","0.8","0.3258455482","0.5410243768","0.3305694417","0.4271895083","","","","","","","","","","","","75","K","2","","","55","main_expt",""
"","bandit","135","466352","0.0-96.0-0.0","12681289","wem/bandit_either_3","A3TCFIPOBRZZB3","either","4","270","","","","","","","0","0","1","0.3506641683","","0.6","0.2","0.4","0.8","","","","","0.4350401219","0.5594159285","0.3443449075","0.3506641683","","","","","","","","76","L","3","","","56","main_expt",""
"","bandit","136","468355","0.0-97.0-0.0","12681289","wem/bandit_either_3","A3TCFIPOBRZZB3","either","4","426","","","","","","","0","0","1","","0.3266461122","0.6","0.2","0.4","0.8","0.3707313189","0.5057935102","0.3719720486","0.3266461122","","","","","","","","","","","","76","L","3","","","57","main_expt",""
"","bandit","137","470363","0.0-98.0-0.0","12681289","wem/bandit_either_3","A3TCFIPOBRZZB3","either","4","456","","","","","","","0","0","1","0.3024401834","","0.6","0.2","0.4","0.8","","","","","0.5588799977","0.4921421838","0.2230753252","0.3024401834","","","","","","","","76","L","3","","","58","main_expt",""
"","bandit","138","472185","0.0-99.0-0.0","12681289","wem/bandit_either_3","A3TCFIPOBRZZB3","either","4","293","","","","","","","0","0","1","0.2255195526","","0.6","0.2","0.4","0.8","","","","","0.6863198467","0.4740341295","0.2255195526","0.4306619987","","","","","","","","75","K","2","","","59","main_expt",""
"","bandit","139","474149","0.0-100.0-0.0","12681289","wem/bandit_either_3","A3TCFIPOBRZZB3","either","4","443","","","","","","","0","0","1","","0.2150487889","0.6","0.2","0.4","0.8","0.6998437478","0.4853159436","0.2150487889","0.4710521126","","","","","","","","","","","","75","K","2","","","60","main_expt",""
"","bandit","140","476066","0.0-101.0-0.0","12681289","wem/bandit_either_3","A3TCFIPOBRZZB3","either","4","390","","","","","","","0","0","1","0.4843563089","","0.6","0.2","0.4","0.8","","","","","0.7027468204","0.4843563089","0.2670703017","0.4797168847","","","","","","","","74","J","1","","","61","main_expt",""
"","bandit","141","477998","0.0-102.0-0.0","12681289","wem/bandit_either_3","A3TCFIPOBRZZB3","either","4","403","","","","","","","0","1","0","","0.4970562682","0.6","0.2","0.4","0.8","0.7461433662","0.4970562682","0.1622034337","0.441351191","","","","","","","","","","","","74","J","1","","","62","main_expt",""
"","bandit","142","479922","0.0-103.0-0.0","12681289","wem/bandit_either_3","A3TCFIPOBRZZB3","either","4","387","","","","","","","0","1","0","","0.4870743105","0.6","0.2","0.4","0.8","0.7956877632","0.4870743105","0.1872430185","0.6405696824","","","","","","","","","","","","74","J","1","","","63","main_expt",""
"","bandit","143","481896","0.0-104.0-0.0","12681289","wem/bandit_either_3","A3TCFIPOBRZZB3","either","4","411","","","","","","","1","0","0","0.5297884171","","0.6","0.2","0.4","0.8","","","","","0.7533911137","0.5297884171","0.1921602407","0.5093225209","","","","","","","","74","J","1","","","64","main_expt",""
"","bandit","144","483836","0.0-105.0-0.0","12681289","wem/bandit_either_3","A3TCFIPOBRZZB3","either","4","414","","","","","","","0","1","0","","0.5510281753","0.6","0.2","0.4","0.8","0.8407665504","0.5510281753","0.1747679693","0.5190422554","","","","","","","","","","","","74","J","1","","","65","main_expt",""
"","bandit","145","485778","0.0-106.0-0.0","12681289","wem/bandit_either_3","A3TCFIPOBRZZB3","either","4","416","","","","","","","0","1","0","","0.6548378986","0.6","0.2","0.4","0.8","0.8392190168","0.6548378986","0.149475979","0.4367989657","","","","","","","","","","","","74","J","1","","","66","main_expt",""
"","bandit","146","487560","0.0-107.0-0.0","12681289","wem/bandit_either_3","A3TCFIPOBRZZB3","either","4","253","","","","","","","0","1","0","","0.7873643744","0.6","0.2","0.4","0.8","0.7998105719","0.7873643744","0.1340316754","0.4515976155","","","","","","","","","","","","74","J","1","","","67","main_expt",""
"","bandit","147","489587","0.0-108.0-0.0","12681289","wem/bandit_either_3","A3TCFIPOBRZZB3","either","4","502","","","","","","","0","1","0","","0.8374830125","0.6","0.2","0.4","0.8","0.8055175736","0.8374830125","0.1635100664","0.4605235732","","","","","","","","","","","","74","J","1","","","68","main_expt",""
"","bandit","148","491567","0.0-109.0-0.0","12681289","wem/bandit_either_3","A3TCFIPOBRZZB3","either","4","456","","","","","","","0","0","1","","0.7948054761","0.6","0.2","0.4","0.8","0.9157616325","0.7948054761","0.1227365859","0.3799115548","","","","","","","","","","","","74","J","1","","","69","main_expt",""
"","bandit","149","493419","0.0-110.0-0.0","12681289","wem/bandit_either_3","A3TCFIPOBRZZB3","either","4","324","","","","","","","1","0","0","0.8257183208","","0.6","0.2","0.4","0.8","","","","","0.9575411193","0.8257183208","0.1248437045","0.4215965018","","","","","","","","74","J","1","","","70","main_expt",""
"","bandit","150","495321","0.0-111.0-0.0","12681289","wem/bandit_either_3","A3TCFIPOBRZZB3","either","4","375","","","","","","","0","1","0","","0.7378076352","0.6","0.2","0.4","0.8","0.9604429572","0.7378076352","0.1153860856","0.4069040491","","","","","","","","","","","","74","J","1","","","71","main_expt",""
"","bandit","151","497151","0.0-112.0-0.0","12681289","wem/bandit_either_3","A3TCFIPOBRZZB3","either","4","306","","","","","","","1","0","0","0.7402058239","","0.6","0.2","0.4","0.8","","","","","0.9598545795","0.7402058239","0.1355011504","0.4396577013","","","","","","","","74","J","1","","","72","main_expt",""
"","bandit","152","499193","0.0-113.0-0.0","12681289","wem/bandit_either_3","A3TCFIPOBRZZB3","either","4","515","","","","","","","0","1","0","","0.6976791507","0.6","0.2","0.4","0.8","0.944667289","0.6976791507","0.05996807606","0.6562772762","","","","","","","","","","","","74","J","1","","","73","main_expt",""
"","bandit","153","501059","0.0-114.0-0.0","12681289","wem/bandit_either_3","A3TCFIPOBRZZB3","either","4","334","","","","","","","0","1","0","","0.7918365236","0.6","0.2","0.4","0.8","0.9226304804","0.7918365236","0.05405538329","0.6973429816","","","","","","","","","","","","74","J","1","","","74","main_expt",""
"","bandit","154","503060","0.0-115.0-0.0","12681289","wem/bandit_either_3","A3TCFIPOBRZZB3","either","4","455","","","","","","","0","1","0","","0.7822783488","0.6","0.2","0.4","0.8","0.9398646798","0.7822783488","0.02989929625","0.7736122178","","","","","","","","","","","","74","J","1","","","75","main_expt",""
"","bandit","155","505230","0.0-116.0-0.0","12681289","wem/bandit_either_3","A3TCFIPOBRZZB3","either","4","630","","","","","","","1","0","0","0.7290889389","","0.6","0.2","0.4","0.8","","","","","0.9344412274","0.7290889389","0.0563551135","0.8130420724","","","","","","","","74","J","1","","","76","main_expt",""
"","bandit","156","507353","0.0-117.0-0.0","12681289","wem/bandit_either_3","A3TCFIPOBRZZB3","either","4","590","","","","","","","0","1","0","","0.7903383215","0.6","0.2","0.4","0.8","0.9512527415","0.7903383215","0.0510075381","0.8182773084","","","","","","","","","","","","74","J","1","","","77","main_expt",""
"","bandit","157","509160","0.0-118.0-0.0","12681289","wem/bandit_either_3","A3TCFIPOBRZZB3","either","4","257","","","","","","","0","0","1","","0.8093770606","0.6","0.2","0.4","0.8","0.945324638","0.8093770606","0.07280641377","0.910984946","","","","","","","","","","","","74","J","1","","","78","main_expt",""
"","bandit","158","511011","0.0-119.0-0.0","12681289","wem/bandit_either_3","A3TCFIPOBRZZB3","either","4","312","","","","","","","0","0","1","","0.7310189459","0.6","0.2","0.4","0.8","0.9313693401","0.7310189459","0.06591604593","0.9303795674","","","","","","","","","","","","74","J","1","","","79","main_expt",""
"","bandit","159","512944","0.0-120.0-0.0","12681289","wem/bandit_either_3","A3TCFIPOBRZZB3","either","4","378","","","","","","","0","1","0","","0.7915113188","0.6","0.2","0.4","0.8","0.9272018461","0.7915113188","0.02790121052","0.9581515868","","","","","","","","","","","","74","J","1","","","80","main_expt",""
"","bandit","160","514826","0.0-121.0-0.0","12681289","wem/bandit_either_3","A3TCFIPOBRZZB3","either","4","351","","","","","","","0","1","0","","0.8463201033","0.6","0.2","0.4","0.8","0.9340165544","0.8463201033","0.03997429631","0.9107397581","","","","","","","","","","","","74","J","1","","","81","main_expt",""
"","bandit","161","516726","0.0-122.0-0.0","12681289","wem/bandit_either_3","A3TCFIPOBRZZB3","either","4","365","","","","","","","0","1","0","","0.9043915002","0.6","0.2","0.4","0.8","0.9778602254","0.9043915002","0.03692483048","0.9531247327","","","","","","","","","","","","74","J","1","","","82","main_expt",""
"","bandit","162","518592","0.0-123.0-0.0","12681289","wem/bandit_either_3","A3TCFIPOBRZZB3","either","4","344","","","","","","","0","1","0","","0.922294541","0.6","0.2","0.4","0.8","0.9593015187","0.922294541","0.04167024954","0.91574064","","","","","","","","","","","","74","J","1","","","83","main_expt",""
"","bandit","163","520383","0.0-124.0-0.0","12681289","wem/bandit_either_3","A3TCFIPOBRZZB3","either","4","224","","","","","","","0","1","0","","0.9079954767","0.6","0.2","0.4","0.8","0.9398758864","0.9079954767","0.03449326924","0.9287460716","","","","","","","","","","","","74","J","1","","","84","main_expt",""
"","bandit","164","522105","0.0-125.0-0.0","12681289","wem/bandit_either_3","A3TCFIPOBRZZB3","either","4","188","","","","","","","0","1","0","","0.92293493","0.6","0.2","0.4","0.8","0.9256746213","0.92293493","0.07382848834","0.9817994773","","","","","","","","","","","","74","J","1","","","85","main_expt",""
"","bandit","165","523866","0.0-126.0-0.0","12681289","wem/bandit_either_3","A3TCFIPOBRZZB3","either","4","234","","","","","","","1","0","0","0.8831043051","","0.6","0.2","0.4","0.8","","","","","0.8910640916","0.8831043051","0.08839198485","0.9651028603","","","","","","","","74","J","1","","","86","main_expt",""
"","bandit","166","525574","0.0-127.0-0.0","12681289","wem/bandit_either_3","A3TCFIPOBRZZB3","either","4","180","","","","","","","0","1","0","","0.876749115","0.6","0.2","0.4","0.8","0.8729480744","0.876749115","0.08767612821","0.9364705545","","","","","","","","","","","","74","J","1","","","87","main_expt",""
"","bandit","167","527363","0.0-128.0-0.0","12681289","wem/bandit_either_3","A3TCFIPOBRZZB3","either","4","257","","","","","","","1","0","0","0.9189432589","","0.6","0.2","0.4","0.8","","","","","0.8780151739","0.9189432589","0.1606359608","0.9235767634","","","","","","","","74","J","1","","","88","main_expt",""
"","bandit","168","529108","0.0-129.0-0.0","12681289","wem/bandit_either_3","A3TCFIPOBRZZB3","either","4","212","","","","","","","0","1","0","","0.8770582065","0.6","0.2","0.4","0.8","0.8856980863","0.8770582065","0.2051996915","0.9375107972","","","","","","","","","","","","74","J","1","","","89","main_expt",""
"","bandit","169","530918","0.0-130.0-0.0","12681289","wem/bandit_either_3","A3TCFIPOBRZZB3","either","4","261","","","","","","","0","1","0","","0.9303780437","0.6","0.2","0.4","0.8","0.8828292745","0.9303780437","0.1757431166","0.9201099193","","","","","","","","","","","","74","J","1","","","90","main_expt",""
"","bandit","170","532711","0.0-131.0-0.0","12681289","wem/bandit_either_3","A3TCFIPOBRZZB3","either","4","252","","","","","","","0","1","0","","0.8870296602","0.6","0.2","0.4","0.8","0.9016480115","0.8870296602","0.3470073597","0.9416722714","","","","","","","","","","","","74","J","1","","","91","main_expt",""
"","bandit","171","534574","0.0-132.0-0.0","12681289","wem/bandit_either_3","A3TCFIPOBRZZB3","either","4","323","","","","","","","0","1","0","","0.8466670433","0.6","0.2","0.4","0.8","0.9077272713","0.8466670433","0.4969118024","0.943817784","","","","","","","","","","","","74","J","1","","","92","main_expt",""
"","bandit","172","536480","0.0-133.0-0.0","12681289","wem/bandit_either_3","A3TCFIPOBRZZB3","either","4","373","","","","","","","0","1","0","","0.850017275","0.6","0.2","0.4","0.8","0.875936713","0.850017275","0.5773598144","0.9078517942","","","","","","","","","","","","74","J","1","","","93","main_expt",""
"","bandit","173","538280","0.0-134.0-0.0","12681289","wem/bandit_either_3","A3TCFIPOBRZZB3","either","4","263","","","","","","","0","0","1","0.6893652978","","0.6","0.2","0.4","0.8","","","","","0.8089346838","0.6893652978","0.5513550223","0.8983200186","","","","","","","","74","J","1","","","94","main_expt",""
"","bandit","174","540115","0.0-135.0-0.0","12681289","wem/bandit_either_3","A3TCFIPOBRZZB3","either","4","310","","","","","","","0","0","1","","0.6025630118","0.6","0.2","0.4","0.8","0.7472177953","0.6025630118","0.5461825447","0.8744309931","","","","","","","","","","","","74","J","1","","","95","main_expt",""
"","bandit","175","541959","0.0-136.0-0.0","12681289","wem/bandit_either_3","A3TCFIPOBRZZB3","either","4","312","","","","","","","0","1","0","","0.5565182624","0.6","0.2","0.4","0.8","0.631257407","0.5565182624","0.5564841108","0.8894212924","","","","","","","","","","","","74","J","1","","","96","main_expt",""
"","bandit","176","543810","0.0-137.0-0.0","12681289","wem/bandit_either_3","A3TCFIPOBRZZB3","either","4","325","","","","","","","0","0","1","","0.4820287155","0.6","0.2","0.4","0.8","0.7474787878","0.4820287155","0.6513715187","0.891162681","","","","","","","","","","","","74","J","1","","","97","main_expt",""
"","bandit","177","546012","0.0-138.0-0.0","12681289","wem/bandit_either_3","A3TCFIPOBRZZB3","either","4","673","","","","","","","0","1","0","","0.4599621431","0.6","0.2","0.4","0.8","0.7753317291","0.4599621431","0.7004254565","0.8495400438","","","","","","","","","","","","74","J","1","","","98","main_expt",""
"","bandit","178","547897","0.0-139.0-0.0","12681289","wem/bandit_either_3","A3TCFIPOBRZZB3","either","4","358","","","","","","","0","1","0","","0.4109144258","0.6","0.2","0.4","0.8","0.7088399779","0.4109144258","0.6473310623","0.8671572546","","","","","","","","","","","","74","J","1","","","99","main_expt",""
"","bandit","179","549924","0.0-140.0-0.0","12681289","wem/bandit_either_3","A3TCFIPOBRZZB3","either","4","474","","","","","","","0","1","0","","0.3466085394","0.6","0.2","0.4","0.8","0.7328055719","0.3466085394","0.6160818326","0.8312294914","","","","","","","","","","","","74","J","1","","","100","main_expt",""
"","bandit","180","551770","0.0-141.0-0.0","12681289","wem/bandit_either_3","A3TCFIPOBRZZB3","either","4","297","","","","","","","0","0","1","","0.3712289037","0.6","0.2","0.4","0.8","0.8183789849","0.3712289037","0.6963675268","0.8135240708","","","","","","","","","","","","74","J","1","","","101","main_expt",""
"","bandit","181","553680","0.0-142.0-0.0","12681289","wem/bandit_either_3","A3TCFIPOBRZZB3","either","4","377","","","","","","","1","0","0","0.3626324234","","0.6","0.2","0.4","0.8","","","","","0.7854635714","0.3626324234","0.6339579424","0.8556055773","","","","","","","","74","J","1","","","102","main_expt",""
"","bandit","182","555473","0.0-143.0-0.0","12681289","wem/bandit_either_3","A3TCFIPOBRZZB3","either","4","255","","","","","","","0","0","1","","0.2748825764","0.6","0.2","0.4","0.8","0.8481411385","0.2748825764","0.6908430899","0.7632006143","","","","","","","","","","","","74","J","1","","","103","main_expt",""
"","bandit","183","557328","0.0-144.0-0.0","12681289","wem/bandit_either_3","A3TCFIPOBRZZB3","either","4","328","","","","","","","0","0","1","","0.2381725209","0.6","0.2","0.4","0.8","0.8129446485","0.2381725209","0.6866318891","0.8273213265","","","","","","","","","","","","74","J","1","","","104","main_expt",""
"","bandit","184","559358","0.0-145.0-0.0","12681289","wem/bandit_either_3","A3TCFIPOBRZZB3","either","4","453","","","","","","","0","1","0","","0.7898688037","0.6","0.2","0.4","0.8","0.7898688037","0.1939551764","0.6749941214","0.7930501456","","","","","","","","","","","","72","H","0","img/none_selected.jpg","","105","main_expt",""
"","bandit","185","561171","0.0-146.0-0.0","12681289","wem/bandit_either_3","A3TCFIPOBRZZB3","either","4","280","","","","","","","0","0","1","0.7810744832","","0.6","0.2","0.4","0.8","","","","","0.7810744832","0.1884153881","0.7300347885","0.7186603115","","","","","","","","72","H","0","img/none_selected.jpg","","106","main_expt",""
"","bandit","186","563013","0.0-147.0-0.0","12681289","wem/bandit_either_3","A3TCFIPOBRZZB3","either","4","313","","","","","","","0","1","0","","0.7837395221","0.6","0.2","0.4","0.8","0.7837395221","0.1011451677","0.8133516847","0.7155595947","","","","","","","","","","","","72","H","0","img/none_selected.jpg","","107","main_expt",""
"","bandit","187","565073","0.0-148.0-0.0","12681289","wem/bandit_either_3","A3TCFIPOBRZZB3","either","4","522","","","","","","","0","0","1","0.787971135","","0.6","0.2","0.4","0.8","","","","","0.787971135","0.1500242655","0.8009432675","0.7654707556","","","","","","","","72","H","0","img/none_selected.jpg","","108","main_expt",""
"","bandit","188","566987","0.0-149.0-0.0","12681289","wem/bandit_either_3","A3TCFIPOBRZZB3","either","4","367","","","","","","","0","0","1","0.6866525704","","0.6","0.2","0.4","0.8","","","","","0.6866525704","0.1285750889","0.7379370491","0.6288612937","","","","","","","","72","H","0","img/none_selected.jpg","","109","main_expt",""
"","bandit","189","568881","0.0-150.0-0.0","12681289","wem/bandit_either_3","A3TCFIPOBRZZB3","either","4","364","","","","","","","0","1","0","","0.5824748378","0.6","0.2","0.4","0.8","0.5824748378","0.06279291231","0.7379992527","0.6309058105","","","","","","","","","","","","72","H","0","img/none_selected.jpg","","110","main_expt",""
"","bandit","190","570665","0.0-151.0-0.0","12681289","wem/bandit_either_3","A3TCFIPOBRZZB3","either","4","255","","","","","","","0","0","1","0.659702805","","0.6","0.2","0.4","0.8","","","","","0.659702805","0.07144278273","0.7464430213","0.6218965746","","","","","","","","72","H","0","img/none_selected.jpg","","111","main_expt",""
"","bandit","191","572519","0.0-152.0-0.0","12681289","wem/bandit_either_3","A3TCFIPOBRZZB3","either","4","324","","","","","","","0","1","0","","0.5111205641","0.6","0.2","0.4","0.8","0.5111205641","0.06013221683","0.7736339118","0.6741482942","","","","","","","","","","","","72","H","0","img/none_selected.jpg","","112","main_expt",""
"","bandit","192","574421","0.0-153.0-0.0","12681289","wem/bandit_either_3","A3TCFIPOBRZZB3","either","4","371","","","","","","","0","0","1","0.4852392648","","0.6","0.2","0.4","0.8","","","","","0.4852392648","0.1442356489","0.8480767854","0.7405202534","","","","","","","","72","H","0","img/none_selected.jpg","","113","main_expt",""
"","bandit","193","576222","0.0-154.0-0.0","12681289","wem/bandit_either_3","A3TCFIPOBRZZB3","either","4","269","","","","","","","0","1","0","","0.3531287621","0.6","0.2","0.4","0.8","0.3531287621","0.1733870882","0.8016933152","0.743157628","","","","","","","","","","","","72","H","0","img/none_selected.jpg","","114","main_expt",""
"","bandit","194","578114","0.0-155.0-0.0","12681289","wem/bandit_either_3","A3TCFIPOBRZZB3","either","4","365","","","","","","","0","1","0","","0.4090792957","0.6","0.2","0.4","0.8","0.4090792957","0.2198725907","0.8200260584","0.7732583829","","","","","","","","","","","","72","H","0","img/none_selected.jpg","","115","main_expt",""
"","bandit","195","579980","0.0-156.0-0.0","12681289","wem/bandit_either_3","A3TCFIPOBRZZB3","either","4","335","","","","","","","1","0","0","0.4927933112","","0.6","0.2","0.4","0.8","","","","","0.4927933112","0.2116870815","0.7761954976","0.6224016225","","","","","","","","72","H","0","img/none_selected.jpg","","116","main_expt",""
"","bandit","196","581869","0.0-157.0-0.0","12681289","wem/bandit_either_3","A3TCFIPOBRZZB3","either","4","338","","","","","","","0","0","1","0.4255499736","","0.6","0.2","0.4","0.8","","","","","0.4255499736","0.1293815938","0.7722233998","0.6784399158","","","","","","","","72","H","0","img/none_selected.jpg","","117","main_expt",""
"","bandit","197","583690","0.0-158.0-0.0","12681289","wem/bandit_either_3","A3TCFIPOBRZZB3","either","4","279","","","","","","","1","0","0","0.4073726931","","0.6","0.2","0.4","0.8","","","","","0.4073726931","0.1442073762","0.8049831996","0.7499631032","","","","","","","","72","H","0","img/none_selected.jpg","","118","main_expt",""
"","bandit","198","585606","0.0-159.0-0.0","12681289","wem/bandit_either_3","A3TCFIPOBRZZB3","either","4","375","","","","","","","0","0","1","0.5447318884","","0.6","0.2","0.4","0.8","","","","","0.5447318884","0.2098334931","0.8469405197","0.6258432538","","","","","","","","72","H","0","img/none_selected.jpg","","119","main_expt",""
"","bandit","199","587538","0.0-160.0-0.0","12681289","wem/bandit_either_3","A3TCFIPOBRZZB3","either","4","394","","","","","","","1","0","0","0.5336717705","","0.6","0.2","0.4","0.8","","","","","0.5336717705","0.243218138","0.783925966","0.5602994123","","","","","","","","72","H","0","img/none_selected.jpg","","120","main_expt",""
"","bandit","200","589379","0.0-161.0-0.0","12681289","wem/bandit_either_3","A3TCFIPOBRZZB3","either","4","310","","","","","","","1","0","0","0.5621279662","","0.6","0.2","0.4","0.8","","","","","0.5621279662","0.1595445902","0.8031476983","0.5850644561","","","","","","","","72","H","0","img/none_selected.jpg","","121","main_expt",""
"","bandit","201","591214","0.0-162.0-0.0","12681289","wem/bandit_either_3","A3TCFIPOBRZZB3","either","4","298","","","","","","","0","0","1","0.5664238538","","0.6","0.2","0.4","0.8","","","","","0.5664238538","0.1939767007","0.776878313","0.6205732407","","","","","","","","72","H","0","img/none_selected.jpg","","122","main_expt",""
"","bandit","202","593045","0.0-163.0-0.0","12681289","wem/bandit_either_3","A3TCFIPOBRZZB3","either","4","300","","","","","","","0","1","0","","0.6501842916","0.6","0.2","0.4","0.8","0.6501842916","0.2265728871","0.7695343448","0.7954206102","","","","","","","","","","","","72","H","0","img/none_selected.jpg","","123","main_expt",""
"","bandit","203","594891","0.0-164.0-0.0","12681289","wem/bandit_either_3","A3TCFIPOBRZZB3","either","4","311","","","","","","","1","0","0","0.5413703051","","0.6","0.2","0.4","0.8","","","","","0.5413703051","0.2027469411","0.6154230174","0.881213352","","","","","","","","72","H","0","img/none_selected.jpg","","124","main_expt",""
"","bandit","204","596786","0.0-165.0-0.0","12681289","wem/bandit_either_3","A3TCFIPOBRZZB3","either","4","342","","","","","","","0","0","1","","0.5191338098","0.6","0.2","0.4","0.8","0.5191338098","0.1506135949","0.4710930195","0.8598562332","","","","","","","","","","","","72","H","0","img/none_selected.jpg","","125","main_expt",""
"","bandit","205","598616","0.0-166.0-0.0","12681289","wem/bandit_either_3","A3TCFIPOBRZZB3","either","4","283","","","","","","","1","0","0","0.6232591378","","0.6","0.2","0.4","0.8","","","","","0.6232591378","0.1875851228","0.5258886302","0.867144728","","","","","","","","72","H","0","img/none_selected.jpg","","126","main_expt",""
"","bandit","206","600515","0.0-167.0-0.0","12681289","wem/bandit_either_3","A3TCFIPOBRZZB3","either","4","368","","","","","","","0","1","0","","0.601333273","0.6","0.2","0.4","0.8","0.601333273","0.2106184636","0.3996486754","0.8677917819","","","","","","","","","","","","72","H","0","img/none_selected.jpg","","127","main_expt",""
"","bandit","207","602475","0.0-168.0-0.0","12681289","wem/bandit_either_3","A3TCFIPOBRZZB3","either","4","428","","","","","","","1","0","0","0.6312294041","","0.6","0.2","0.4","0.8","","","","","0.6312294041","0.1276240755","0.3557241191","0.8194058857","","","","","","","","72","H","0","img/none_selected.jpg","","128","main_expt",""
"","bandit","208","604370","0.0-169.0-0.0","12681289","wem/bandit_either_3","A3TCFIPOBRZZB3","either","4","366","","","","","","","0","0","1","0.6655034733","","0.6","0.2","0.4","0.8","","","","","0.6655034733","0.2163335705","0.2432070908","0.813940224","","","","","","","","72","H","0","img/none_selected.jpg","","129","main_expt",""
"","bandit","209","606180","0.0-170.0-0.0","12681289","wem/bandit_either_3","A3TCFIPOBRZZB3","either","4","277","","","","","","","0","0","1","","0.6882303755","0.6","0.2","0.4","0.8","0.6882303755","0.2448863899","0.1722843937","0.7296764962","","","","","","","","","","","","72","H","0","img/none_selected.jpg","","130","main_expt",""
"","bandit","210","608133","0.0-171.0-0.0","12681289","wem/bandit_either_3","A3TCFIPOBRZZB3","either","4","391","","","","","","","1","0","0","0.6772884453","","0.6","0.2","0.4","0.8","","","","","0.6772884453","0.3447645787","0.1336027919","0.614258276","","","","","","","","72","H","0","img/none_selected.jpg","","131","main_expt",""
"","bandit","211","609988","0.0-172.0-0.0","12681289","wem/bandit_either_3","A3TCFIPOBRZZB3","either","4","322","","","","","","","1","0","0","0.6773684555","","0.6","0.2","0.4","0.8","","","","","0.6773684555","0.3622527956","0.1351629047","0.5349540706","","","","","","","","72","H","0","img/none_selected.jpg","","132","main_expt",""
"","bandit","212","611883","0.0-173.0-0.0","12681289","wem/bandit_either_3","A3TCFIPOBRZZB3","either","4","351","","","","","","","1","0","0","0.7437755928","","0.6","0.2","0.4","0.8","","","","","0.7437755928","0.2961885878","0.2495029","0.5449090787","","","","","","","","72","H","0","img/none_selected.jpg","","133","main_expt",""
"","bandit","213","613805","0.0-174.0-0.0","12681289","wem/bandit_either_3","A3TCFIPOBRZZB3","either","4","379","","","","","","","1","0","0","0.7423545867","","0.6","0.2","0.4","0.8","","","","","0.7423545867","0.2932126781","0.2118512663","0.5037108559","","","","","","","","72","H","0","img/none_selected.jpg","","134","main_expt",""
"","bandit","214","615703","0.0-175.0-0.0","12681289","wem/bandit_either_3","A3TCFIPOBRZZB3","either","4","346","","","","","","","0","1","0","","0.7462440124","0.6","0.2","0.4","0.8","0.7462440124","0.2836439675","0.2474577379","0.5131336393","","","","","","","","","","","","72","H","0","img/none_selected.jpg","","135","main_expt",""
"","bandit","215","617567","0.0-176.0-0.0","12681289","wem/bandit_either_3","A3TCFIPOBRZZB3","either","4","331","","","","","","","0","0","1","","0.6372772774","0.6","0.2","0.4","0.8","0.6372772774","0.1985775905","0.1496333288","0.5847952324","","","","","","","","","","","","72","H","0","img/none_selected.jpg","","136","main_expt",""
"","bandit","216","619349","0.0-177.0-0.0","12681289","wem/bandit_either_3","A3TCFIPOBRZZB3","either","4","246","","","","","","","0","0","1","0.6587707878","","0.6","0.2","0.4","0.8","","","","","0.6587707878","0.2655975","0.164835495","0.5191620222","","","","","","","","72","H","0","img/none_selected.jpg","","137","main_expt",""
"","bandit","217","621143","0.0-178.0-0.0","12681289","wem/bandit_either_3","A3TCFIPOBRZZB3","either","4","262","","","","","","","0","0","1","0.6545472314","","0.6","0.2","0.4","0.8","","","","","0.6545472314","0.4066298912","0.1629561883","0.3830682141","","","","","","","","72","H","0","img/none_selected.jpg","","138","main_expt",""
"","bandit","218","622955","0.0-179.0-0.0","12681289","wem/bandit_either_3","A3TCFIPOBRZZB3","either","4","279","","","","","","","1","0","0","0.5773899651","","0.6","0.2","0.4","0.8","","","","","0.5773899651","0.4537429859","0.1162724323","0.3036015776","","","","","","","","72","H","0","img/none_selected.jpg","","139","main_expt",""
"","bandit","219","624822","0.0-180.0-0.0","12681289","wem/bandit_either_3","A3TCFIPOBRZZB3","either","4","333","","","","","","","1","0","0","0.5786924042","","0.6","0.2","0.4","0.8","","","","","0.5786924042","0.410026376","0.1262651596","0.2541790234","","","","","","","","72","H","0","img/none_selected.jpg","","140","main_expt",""
"","bandit","220","626626","0.0-181.0-0.0","12681289","wem/bandit_either_3","A3TCFIPOBRZZB3","either","4","254","","","","","","","0","1","0","","0.4589731036","0.6","0.2","0.4","0.8","0.4589731036","0.3978668086","0.1258799353","0.1899663758","","","","","","","","","","","","72","H","0","img/none_selected.jpg","","141","main_expt",""
"","bandit","221","628437","0.0-182.0-0.0","12681289","wem/bandit_either_3","A3TCFIPOBRZZB3","either","4","263","","","","","","","0","0","1","","0.3667804619","0.6","0.2","0.4","0.8","0.3667804619","0.4096738096","0.1220135665","0.214868544","","","","","","","","","","","","72","H","0","img/none_selected.jpg","","142","main_expt",""
"","bandit","222","630410","0.0-183.0-0.0","12681289","wem/bandit_either_3","A3TCFIPOBRZZB3","either","4","274","","","","","","","0","0","1","","0.3563831379","0.6","0.2","0.4","0.8","0.3563831379","0.5422751762","0.1600355681","0.1549416237","","","","","","","","","","","","72","H","0","img/none_selected.jpg","","143","main_expt",""
"","bandit","223","632256","0.0-184.0-0.0","12681289","wem/bandit_either_3","A3TCFIPOBRZZB3","either","4","309","","","","","","","0","0","1","0.3675361202","","0.6","0.2","0.4","0.8","","","","","0.3675361202","0.6045197677","0.103653669","0.2142728447","","","","","","","","72","H","0","img/none_selected.jpg","","144","main_expt",""
"","bandit","224","634582","0.0-185.0-0.0","12681289","wem/bandit_either_3","A3TCFIPOBRZZB3","either","4","801","","","","","","","0","0","1","0.2166472609","","0.6","0.2","0.4","0.8","","","","","0.3266856562","0.6140727406","0.1417267119","0.2166472609","","","","","","","","76","L","3","","","145","main_expt",""
"","bandit","225","636427","0.0-186.0-0.0","12681289","wem/bandit_either_3","A3TCFIPOBRZZB3","either","4","314","","","","","","","0","0","1","0.2446047688","","0.6","0.2","0.4","0.8","","","","","0.2815179259","0.5553742365","0.1508894681","0.2446047688","","","","","","","","76","L","3","","","146","main_expt",""
"","bandit","226","638130","0.0-187.0-0.0","12681289","wem/bandit_either_3","A3TCFIPOBRZZB3","either","4","172","","","","","","","0","0","1","0.1207147728","","0.6","0.2","0.4","0.8","","","","","0.3560244833","0.52787167","0.1207147728","0.3011136322","","","","","","","","75","K","2","","","147","main_expt",""
"","bandit","227","639938","0.0-188.0-0.0","12681289","wem/bandit_either_3","A3TCFIPOBRZZB3","either","4","285","","","","","","","0","0","1","","0.1362234148","0.6","0.2","0.4","0.8","0.3585854149","0.5053851794","0.1362234148","0.2519777133","","","","","","","","","","","","75","K","2","","","148","main_expt",""
"","bandit","228","641812","0.0-189.0-0.0","12681289","wem/bandit_either_3","A3TCFIPOBRZZB3","either","4","317","","","","","","","1","0","0","0.1244444975","","0.6","0.2","0.4","0.8","","","","","0.284478414","0.5431256022","0.1244444975","0.2996109941","","","","","","","","75","K","2","","","149","main_expt",""
"","bandit","229","643574","0.0-190.0-0.0","12681289","wem/bandit_either_3","A3TCFIPOBRZZB3","either","4","229","","","","","","","0","0","1","0.1109305632","","0.6","0.2","0.4","0.8","","","","","0.2617238314","0.422574086","0.1109305632","0.2963563975","","","","","","","","75","K","2","","","150","main_expt",""
"","bandit","230","646394","0.0-191.0-0.0","12681289","wem/bandit_either_3","A3TCFIPOBRZZB3","either","4","1283","","","","","","","0","0","1","0.3907227364","","0.6","0.2","0.4","0.8","","","","","0.2709462114","0.3907227364","0.11412436","0.4327396174","","","","","","","","74","J","1","","","151","main_expt",""
"","bandit","231","648208","0.0-192.0-0.0","12681289","wem/bandit_either_3","A3TCFIPOBRZZB3","either","4","283","","","","","","","0","0","1","","0.5580814469","0.6","0.2","0.4","0.8","0.2993716907","0.5580814469","0.1469045903","0.4303068123","","","","","","","","","","","","74","J","1","","","152","main_expt",""
"","bandit","232","650134","0.0-193.0-0.0","12681289","wem/bandit_either_3","A3TCFIPOBRZZB3","either","4","392","","","","","","","0","0","1","","0.2733354782","0.6","0.2","0.4","0.8","0.2733354782","0.51223936","0.1633028487","0.455197397","","","","","","","","","","","","72","H","0","img/none_selected.jpg","","153","main_expt",""
"","bandit","233","651926","0.0-194.0-0.0","12681289","wem/bandit_either_3","A3TCFIPOBRZZB3","either","4","258","","","","","","","0","1","0","","0.3264007987","0.6","0.2","0.4","0.8","0.3264007987","0.4811601507","0.1340882311","0.6184454144","","","","","","","","","","","","72","H","0","img/none_selected.jpg","","154","main_expt",""
"","bandit","234","653718","0.0-195.0-0.0","12681289","wem/bandit_either_3","A3TCFIPOBRZZB3","either","4","262","","","","","","","1","0","0","0.204433578","","0.6","0.2","0.4","0.8","","","","","0.204433578","0.575425417","0.1041462846","0.5833601464","","","","","","","","72","H","0","img/none_selected.jpg","","155","main_expt",""
"","bandit","235","655521","0.0-196.0-0.0","12681289","wem/bandit_either_3","A3TCFIPOBRZZB3","either","4","272","","","","","","","0","0","1","0.07451572188","","0.6","0.2","0.4","0.8","","","","","0.07451572188","0.6109018817","0.08564190031","0.646897734","","","","","","","","72","H","0","img/none_selected.jpg","","156","main_expt",""
"","bandit","236","657363","0.0-197.0-0.0","12681289","wem/bandit_either_3","A3TCFIPOBRZZB3","either","4","286","","","","","","","0","0","1","0.1251686374","","0.6","0.2","0.4","0.8","","","","","0.1251686374","0.6812883852","0.06977116317","0.6912470103","","","","","","","","72","H","0","img/none_selected.jpg","","157","main_expt",""
"","bandit","237","659168","0.0-198.0-0.0","12681289","wem/bandit_either_3","A3TCFIPOBRZZB3","either","4","256","","","","","","","0","0","1","0.1292052795","","0.6","0.2","0.4","0.8","","","","","0.1292052795","0.73777041","0.1504927074","0.7865398282","","","","","","","","72","H","0","img/none_selected.jpg","","158","main_expt",""
"","bandit","238","660980","0.0-199.0-0.0","12681289","wem/bandit_either_3","A3TCFIPOBRZZB3","either","4","277","","","","","","","1","0","0","0.1200050714","","0.6","0.2","0.4","0.8","","","","","0.1200050714","0.8388849062","0.1429264201","0.7220910122","","","","","","","","72","H","0","img/none_selected.jpg","","159","main_expt",""
"","bandit","239","662752","0.0-200.0-0.0","12681289","wem/bandit_either_3","A3TCFIPOBRZZB3","either","4","240","","","","","","","0","0","1","0.1156014834","","0.6","0.2","0.4","0.8","","","","","0.1156014834","0.8006667519","0.1832893837","0.710563805","","","","","","","","72","H","0","img/none_selected.jpg","","160","main_expt",""
"","bandit","240","665397","0.0-201.0-0.0","12681289","wem/bandit_either_3","A3TCFIPOBRZZB3","either","4","1081","","","","","","","0","0","1","0.7406956812","","0.6","0.2","0.4","0.8","","","","","0.1425751263","0.7406956812","0.2337310763","0.6205281072","","","","","","","","74","J","1","","","161","main_expt",""
"","bandit","241","667147","0.0-202.0-0.0","12681289","wem/bandit_either_3","A3TCFIPOBRZZB3","either","4","214","","","","","","","0","1","0","","0.775259894","0.6","0.2","0.4","0.8","0.2108345254","0.775259894","0.2326198937","0.5246840185","","","","","","","","","","","","74","J","1","","","162","main_expt",""
"","bandit","242","668920","0.0-203.0-0.0","12681289","wem/bandit_either_3","A3TCFIPOBRZZB3","either","4","248","","","","","","","0","0","1","","0.6539471222","0.6","0.2","0.4","0.8","0.1664621688","0.6539471222","0.1584290897","0.569340372","","","","","","","","","","","","74","J","1","","","163","main_expt",""
"","bandit","243","670800","0.0-204.0-0.0","12681289","wem/bandit_either_3","A3TCFIPOBRZZB3","either","4","334","","","","","","","0","0","1","0.7914062868","","0.6","0.2","0.4","0.8","","","","","0.1741279052","0.7914062868","0.1417900361","0.5688323765","","","","","","","","74","J","1","","","164","main_expt",""
"","bandit","244","672656","0.0-205.0-0.0","12681289","wem/bandit_either_3","A3TCFIPOBRZZB3","either","4","308","","","","","","","0","1","0","","0.8415061218","0.6","0.2","0.4","0.8","0.1891196979","0.8415061218","0.08849486786","0.5195648955","","","","","","","","","","","","74","J","1","","","165","main_expt",""
"","bandit","245","674501","0.0-206.0-0.0","12681289","wem/bandit_either_3","A3TCFIPOBRZZB3","either","4","294","","","","","","","0","1","0","","0.9084068317","0.6","0.2","0.4","0.8","0.3016440744","0.9084068317","0.1010416226","0.536500984","","","","","","","","","","","","74","J","1","","","166","main_expt",""
"","bandit","246","676372","0.0-207.0-0.0","12681289","wem/bandit_either_3","A3TCFIPOBRZZB3","either","4","326","","","","","","","0","1","0","","0.8857506799","0.6","0.2","0.4","0.8","0.3427468607","0.8857506799","0.1506776516","0.4243381616","","","","","","","","","","","","74","J","1","","","167","main_expt",""
"","bandit","247","678203","0.0-208.0-0.0","12681289","wem/bandit_either_3","A3TCFIPOBRZZB3","either","4","295","","","","","","","0","1","0","","0.9247721234","0.6","0.2","0.4","0.8","0.3759001064","0.9247721234","0.2532220847","0.4877327119","","","","","","","","","","","","74","J","1","","","168","main_expt",""
"","bandit","248","679944","0.0-209.0-0.0","12681289","wem/bandit_either_3","A3TCFIPOBRZZB3","either","4","209","","","","","","","0","1","0","","0.8870410368","0.6","0.2","0.4","0.8","0.3824832387","0.8870410368","0.2223654062","0.5096331713","","","","","","","","","","","","74","J","1","","","169","main_expt",""
"","bandit","249","681746","0.0-210.0-0.0","12681289","wem/bandit_either_3","A3TCFIPOBRZZB3","either","4","272","","","","","","","0","0","1","","0.8782412079","0.6","0.2","0.4","0.8","0.3257043992","0.8782412079","0.2161840498","0.6111595203","","","","","","","","","","","","74","J","1","","","170","main_expt",""
"","bandit","250","683379","0.0-211.0-0.0","12681289","wem/bandit_either_3","A3TCFIPOBRZZB3","either","4","94","","","","","","","0","1","0","","0.7978982074","0.6","0.2","0.4","0.8","0.2943589708","0.7978982074","0.1996440145","0.5888321224","","","","","","","","","","","","74","J","1","","","171","main_expt",""
"","bandit","251","685158","0.0-212.0-0.0","12681289","wem/bandit_either_3","A3TCFIPOBRZZB3","either","4","252","","","","","","","1","0","0","0.7896885826","","0.6","0.2","0.4","0.8","","","","","0.4298537702","0.7896885826","0.275753823","0.6295404033","","","","","","","","74","J","1","","","172","main_expt",""
"","bandit","252","686891","0.0-213.0-0.0","12681289","wem/bandit_either_3","A3TCFIPOBRZZB3","either","4","202","","","","","","","0","0","1","","0.7771385218","0.6","0.2","0.4","0.8","0.4196262671","0.7771385218","0.2850946521","0.5976712981","","","","","","","","","","","","74","J","1","","","173","main_expt",""
"","bandit","253","688561","0.0-214.0-0.0","12681289","wem/bandit_either_3","A3TCFIPOBRZZB3","either","4","140","","","","","","","0","1","0","","0.8412209493","0.6","0.2","0.4","0.8","0.4056978145","0.8412209493","0.2836726952","0.5936331925","","","","","","","","","","","","74","J","1","","","174","main_expt",""
"","bandit","254","690246","0.0-215.0-0.0","12681289","wem/bandit_either_3","A3TCFIPOBRZZB3","either","4","153","","","","","","","0","1","0","","0.8433491626","0.6","0.2","0.4","0.8","0.3323311207","0.8433491626","0.27413619","0.544145328","","","","","","","","","","","","74","J","1","","","175","main_expt",""
"","bandit","255","692054","0.0-216.0-0.0","12681289","wem/bandit_either_3","A3TCFIPOBRZZB3","either","4","266","","","","","","","0","1","0","","0.778586436","0.6","0.2","0.4","0.8","0.3087900888","0.778586436","0.2369491767","0.3584947592","","","","","","","","","","","","74","J","1","","","176","main_expt",""
"","bandit","256","693847","0.0-217.0-0.0","12681289","wem/bandit_either_3","A3TCFIPOBRZZB3","either","4","242","","","","","","","1","0","0","0.7488794252","","0.6","0.2","0.4","0.8","","","","","0.3898613412","0.7488794252","0.3440943848","0.436171931","","","","","","","","74","J","1","","","177","main_expt",""
"","bandit","257","695671","0.0-218.0-0.0","12681289","wem/bandit_either_3","A3TCFIPOBRZZB3","either","4","282","","","","","","","0","1","0","","0.7738581751","0.6","0.2","0.4","0.8","0.5236321052","0.7738581751","0.3529135521","0.5193680035","","","","","","","","","","","","74","J","1","","","178","main_expt",""
"","bandit","258","697448","0.0-219.0-0.0","12681289","wem/bandit_either_3","A3TCFIPOBRZZB3","either","4","247","","","","","","","1","0","0","0.7527820287","","0.6","0.2","0.4","0.8","","","","","0.2955080601","0.7527820287","0.3787243664","0.3957798075","","","","","","","","74","J","1","","","179","main_expt",""
"","bandit","259","699155","0.0-220.0-0.0","12681289","wem/bandit_either_3","A3TCFIPOBRZZB3","either","4","180","","","","","","","1","0","0","0.8022950929","","0.6","0.2","0.4","0.8","","","","","0.3174151272","0.8022950929","0.3092677326","0.4249873197","","","","","","","","74","J","1","","","180","main_expt",""
"","bandit","260","700875","0.0-221.0-0.0","12681289","wem/bandit_either_3","A3TCFIPOBRZZB3","either","4","184","","","","","","","0","1","0","","0.7505347306","0.6","0.2","0.4","0.8","0.3560995969","0.7505347306","0.3701559146","0.4260342439","","","","","","","","","","","","74","J","1","","","181","main_expt",""
"","bandit","261","702700","0.0-222.0-0.0","12681289","wem/bandit_either_3","A3TCFIPOBRZZB3","either","4","295","","","","","","","0","1","0","","0.603349844","0.6","0.2","0.4","0.8","0.4649908644","0.603349844","0.2672844749","0.4305619521","","","","","","","","","","","","74","J","1","","","182","main_expt",""
"","bandit","262","704486","0.0-223.0-0.0","12681289","wem/bandit_either_3","A3TCFIPOBRZZB3","either","4","258","","","","","","","0","1","0","","0.6464544124","0.6","0.2","0.4","0.8","0.4588174784","0.6464544124","0.3046315644","0.4638513582","","","","","","","","","","","","74","J","1","","","183","main_expt",""
"","bandit","263","706252","0.0-224.0-0.0","12681289","wem/bandit_either_3","A3TCFIPOBRZZB3","either","4","226","","","","","","","0","1","0","","0.6606024443","0.6","0.2","0.4","0.8","0.509799977","0.6606024443","0.3507685813","0.5084330557","","","","","","","","","","","","74","J","1","","","184","main_expt",""
"","bandit","264","707961","0.0-225.0-0.0","12681289","wem/bandit_either_3","A3TCFIPOBRZZB3","either","4","164","","","","","","","0","0","1","","0.7034535028","0.6","0.2","0.4","0.8","0.4557178443","0.7034535028","0.3250269766","0.5853778332","","","","","","","","","","","","74","J","1","","","185","main_expt",""
"","bandit","265","709803","0.0-226.0-0.0","12681289","wem/bandit_either_3","A3TCFIPOBRZZB3","either","4","302","","","","","","","0","1","0","","0.7672503758","0.6","0.2","0.4","0.8","0.3250172706","0.7672503758","0.3636669497","0.5009207633","","","","","","","","","","","","74","J","1","","","186","main_expt",""
"","bandit","266","711617","0.0-227.0-0.0","12681289","wem/bandit_either_3","A3TCFIPOBRZZB3","either","4","272","","","","","","","0","1","0","","0.7505037824","0.6","0.2","0.4","0.8","0.2982192525","0.7505037824","0.4095027401","0.4376492532","","","","","","","","","","","","74","J","1","","","187","main_expt",""
"","bandit","267","713383","0.0-228.0-0.0","12681289","wem/bandit_either_3","A3TCFIPOBRZZB3","either","4","227","","","","","","","0","1","0","","0.7458261356","0.6","0.2","0.4","0.8","0.2647713636","0.7458261356","0.3356624093","0.317868257","","","","","","","","","","","","74","J","1","","","188","main_expt",""
"","bandit","268","715526","0.0-229.0-0.0","12681289","wem/bandit_either_3","A3TCFIPOBRZZB3","either","4","606","","","","","","","0","1","0","","0.747965221","0.6","0.2","0.4","0.8","0.2798663258","0.747965221","0.3717951419","0.3700786551","","","","","","","","","","","","74","J","1","","","189","main_expt",""
"","bandit","269","717257","0.0-230.0-0.0","12681289","wem/bandit_either_3","A3TCFIPOBRZZB3","either","4","199","","","","","","","0","0","1","","0.7459095382","0.6","0.2","0.4","0.8","0.2146362806","0.7459095382","0.3266606931","0.3423477616","","","","","","","","","","","","74","J","1","","","190","main_expt",""
"","bandit","270","718999","0.0-231.0-0.0","12681289","wem/bandit_either_3","A3TCFIPOBRZZB3","either","4","213","","","","","","","0","0","1","","0.6299055833","0.6","0.2","0.4","0.8","0.3132783624","0.6299055833","0.4206899072","0.2488230813","","","","","","","","","","","","74","J","1","","","191","main_expt",""
"","bandit","271","720844","0.0-232.0-0.0","12681289","wem/bandit_either_3","A3TCFIPOBRZZB3","either","4","310","","","","","","","0","0","1","","0.688533977","0.6","0.2","0.4","0.8","0.2488083766","0.688533977","0.4982817076","0.2193108308","","","","","","","","","","","","74","J","1","","","192","main_expt",""
"","bandit","272","722907","0.0-233.0-0.0","12681289","wem/bandit_either_3","A3TCFIPOBRZZB3","either","4","513","","","","","","","0","0","1","","0.7176496952","0.6","0.2","0.4","0.8","0.225611763","0.7176496952","0.4820211017","0.4057276106","","","","","","","","","","","","74","J","1","","","193","main_expt",""
"","bandit","273","725628","0.0-234.0-0.0","12681289","wem/bandit_either_3","A3TCFIPOBRZZB3","either","4","1175","","","","","","","0","1","0","","0.5373891537","0.6","0.2","0.4","0.8","0.2159393038","0.746212457","0.5373891537","0.3826056333","","","","","","","","","","","","75","K","2","","","194","main_expt",""
"","bandit","274","727420","0.0-235.0-0.0","12681289","wem/bandit_either_3","A3TCFIPOBRZZB3","either","4","256","","","","","","","0","0","1","","0.3890275207","0.6","0.2","0.4","0.8","0.3112228701","0.6800784202","0.3890275207","0.4922935908","","","","","","","","","","","","75","K","2","","","195","main_expt",""
"","bandit","275","729182","0.0-236.0-0.0","12681289","wem/bandit_either_3","A3TCFIPOBRZZB3","either","4","230","","","","","","","0","0","1","0.4329462643","","0.6","0.2","0.4","0.8","","","","","0.3249051539","0.5986295964","0.4329462643","0.5475793877","","","","","","","","75","K","2","","","196","main_expt",""
"","bandit","276","731024","0.0-237.0-0.0","12681289","wem/bandit_either_3","A3TCFIPOBRZZB3","either","4","310","","","","","","","0","0","1","","0.416825946","0.6","0.2","0.4","0.8","0.2985018541","0.5323622673","0.416825946","0.6069385875","","","","","","","","","","","","75","K","2","","","197","main_expt",""
"","bandit","277","732819","0.0-238.0-0.0","12681289","wem/bandit_either_3","A3TCFIPOBRZZB3","either","4","262","","","","","","","0","0","1","0.4063336836","","0.6","0.2","0.4","0.8","","","","","0.3109366799","0.5348043844","0.4063336836","0.4946816555","","","","","","","","75","K","2","","","198","main_expt",""
"","bandit","278","735817","0.0-239.0-0.0","12681289","wem/bandit_either_3","A3TCFIPOBRZZB3","either","4","1451","","","","","","","0","1","0","","0.3143364341","0.6","0.2","0.4","0.8","0.3143364341","0.4534403339","0.361264989","0.479635203","","","","","","","","","","","","72","H","0","img/none_selected.jpg","","199","main_expt",""
"","bandit","279","737413","0.0-240.0-0.0","12681289","wem/bandit_either_3","A3TCFIPOBRZZB3","either","4","45","","","","","","","0","1","0","","0.3176919365","0.6","0.2","0.4","0.8","0.3176919365","0.4185876589","0.4700223374","0.4969837249","","","","","","","","","","","","72","H","0","img/none_selected.jpg","","200","main_expt",""
"","bandit","280","739197","0.0-241.0-0.0","12681289","wem/bandit_either_3","A3TCFIPOBRZZB3","either","4","247","","","","","","","0","0","1","0.2848283651","","0.6","0.2","0.4","0.8","","","","","0.2848283651","0.3812211227","0.4751543938","0.4548125401","","","","","","","","72","H","0","img/none_selected.jpg","","201","main_expt",""
"","bandit","281","740854","0.0-242.0-0.0","12681289","wem/bandit_either_3","A3TCFIPOBRZZB3","either","4","127","","","","","","","0","0","1","0.2439676923","","0.6","0.2","0.4","0.8","","","","","0.2439676923","0.4414728031","0.4044794657","0.5767771981","","","","","","","","72","H","0","img/none_selected.jpg","","202","main_expt",""
"","bandit","282","742629","0.0-243.0-0.0","12681289","wem/bandit_either_3","A3TCFIPOBRZZB3","either","4","254","","","","","","","0","0","1","0.2582922662","","0.6","0.2","0.4","0.8","","","","","0.2582922662","0.3698030662","0.3321077444","0.6118171827","","","","","","","","72","H","0","img/none_selected.jpg","","203","main_expt",""
"","bandit","283","744400","0.0-244.0-0.0","12681289","wem/bandit_either_3","A3TCFIPOBRZZB3","either","4","236","","","","","","","0","1","0","","0.3799793739","0.6","0.2","0.4","0.8","0.3799793739","0.4899087748","0.3697340749","0.5373194108","","","","","","","","","","","","72","H","0","img/none_selected.jpg","","204","main_expt",""
"","bandit","284","746182","0.0-245.0-0.0","12681289","wem/bandit_either_3","A3TCFIPOBRZZB3","either","4","248","","","","","","","0","0","1","","0.4441528059","0.6","0.2","0.4","0.8","0.4441528059","0.4310108402","0.3998168993","0.5501461309","","","","","","","","","","","","72","H","0","img/none_selected.jpg","","205","main_expt",""
"","bandit","285","748030","0.0-246.0-0.0","12681289","wem/bandit_either_3","A3TCFIPOBRZZB3","either","4","322","","","","","","","0","0","1","","0.4468516792","0.6","0.2","0.4","0.8","0.4468516792","0.3912115078","0.4929909192","0.5094027242","","","","","","","","","","","","72","H","0","img/none_selected.jpg","","206","main_expt",""
"","bandit","286","749917","0.0-247.0-0.0","12681289","wem/bandit_either_3","A3TCFIPOBRZZB3","either","4","336","","","","","","","1","0","0","0.6449696869","","0.6","0.2","0.4","0.8","","","","","0.399366085","0.3195818707","0.4960693894","0.6449696869","","","","","","","","76","L","3","","","207","main_expt",""
"","bandit","287","751752","0.0-248.0-0.0","12681289","wem/bandit_either_3","A3TCFIPOBRZZB3","either","4","285","","","","","","","0","0","1","0.549996868","","0.6","0.2","0.4","0.8","","","","","0.4206610772","0.2378171997","0.3912862986","0.549996868","","","","","","","","76","L","3","","","208","main_expt",""
"","bandit","288","753545","0.0-249.0-0.0","12681289","wem/bandit_either_3","A3TCFIPOBRZZB3","either","4","263","","","","","","","1","0","0","0.5258833792","","0.6","0.2","0.4","0.8","","","","","0.5145499259","0.2339104391","0.4218938049","0.5258833792","","","","","","","","76","L","3","","","209","main_expt",""
"","bandit","289","755469","0.0-250.0-0.0","12681289","wem/bandit_either_3","A3TCFIPOBRZZB3","either","4","374","","","","","","","1","0","0","0.5453980868","","0.6","0.2","0.4","0.8","","","","","0.3497539355","0.2506558306","0.6003160005","0.5453980868","","","","","","","","76","L","3","","","210","main_expt",""
"","bandit","290","757275","0.0-251.0-0.0","12681289","wem/bandit_either_3","A3TCFIPOBRZZB3","either","4","245","","","","","","","0","0","1","0.5370950561","","0.6","0.2","0.4","0.8","","","","","0.3335821388","0.3466578502","0.5481562991","0.5370950561","","","","","","","","76","L","3","","","211","main_expt",""
"","bandit","291","758965","0.0-252.0-0.0","12681289","wem/bandit_either_3","A3TCFIPOBRZZB3","either","4","145","","","","","","","0","0","1","0.5774996514","","0.6","0.2","0.4","0.8","","","","","0.2778022227","0.4162959965","0.6210595125","0.5774996514","","","","","","","","76","L","3","","","212","main_expt",""
"","bandit","292","760727","0.0-253.0-0.0","12681289","wem/bandit_either_3","A3TCFIPOBRZZB3","either","4","224","","","","","","","0","0","1","0.4826056363","","0.6","0.2","0.4","0.8","","","","","0.2949104287","0.545788555","0.7732161257","0.4826056363","","","","","","","","76","L","3","","","213","main_expt",""
"","bandit","293","762547","0.0-254.0-0.0","12681289","wem/bandit_either_3","A3TCFIPOBRZZB3","either","4","288","","","","","","","0","0","1","0.4913277851","","0.6","0.2","0.4","0.8","","","","","0.2443343027","0.6077749924","0.7689771773","0.4913277851","","","","","","","","76","L","3","","","214","main_expt",""
"","bandit","294","764322","0.0-255.0-0.0","12681289","wem/bandit_either_3","A3TCFIPOBRZZB3","either","4","238","","","","","","","0","0","1","0.5415006571","","0.6","0.2","0.4","0.8","","","","","0.2232989174","0.4883429648","0.6841712945","0.5415006571","","","","","","","","76","L","3","","","215","main_expt",""
"","bandit","295","766545","0.0-256.0-0.0","12681289","wem/bandit_either_3","A3TCFIPOBRZZB3","either","4","688","","","","","","","1","0","0","0.7019934296","","0.6","0.2","0.4","0.8","","","","","0.2918619336","0.3309854328","0.7019934296","0.5198015267","","","","","","","","75","K","2","","","216","main_expt",""
"","bandit","296","768115","0.0-257.0-0.0","12681289","wem/bandit_either_3","A3TCFIPOBRZZB3","either","4","43","","","","","","","0","1","0","","0.7537099884","0.6","0.2","0.4","0.8","0.3571058798","0.3310528633","0.7537099884","0.545097872","","","","","","","","","","","","75","K","2","","","217","main_expt",""
"","bandit","297","769927","0.0-258.0-0.0","12681289","wem/bandit_either_3","A3TCFIPOBRZZB3","either","4","275","","","","","","","0","1","0","","0.8428980993","0.6","0.2","0.4","0.8","0.3738303097","0.4147218791","0.8428980993","0.5776025334","","","","","","","","","","","","75","K","2","","","218","main_expt",""
"","bandit","298","771716","0.0-259.0-0.0","12681289","wem/bandit_either_3","A3TCFIPOBRZZB3","either","4","251","","","","","","","1","0","0","0.8007326434","","0.6","0.2","0.4","0.8","","","","","0.4832874948","0.3402104323","0.8007326434","0.5616346574","","","","","","","","75","K","2","","","219","main_expt",""
"","bandit","299","773508","0.0-260.0-0.0","12681289","wem/bandit_either_3","A3TCFIPOBRZZB3","either","4","246","","","","","","","0","1","0","","0.8518850648","0.6","0.2","0.4","0.8","0.475455537","0.3448871422","0.8518850648","0.6261942659","","","","","","","","","","","","75","K","2","","","220","main_expt",""
"","bandit","300","775322","0.0-261.0-0.0","12681289","wem/bandit_either_3","A3TCFIPOBRZZB3","either","4","265","","","","","","","0","1","0","","0.8488451861","0.6","0.2","0.4","0.8","0.3849790123","0.4438284365","0.8488451861","0.6533416475","","","","","","","","","","","","75","K","2","","","221","main_expt",""
"","bandit","301","777113","0.0-262.0-0.0","12681289","wem/bandit_either_3","A3TCFIPOBRZZB3","either","4","258","","","","","","","0","1","0","","0.8202185963","0.6","0.2","0.4","0.8","0.2708628555","0.3768672835","0.8202185963","0.6780524799","","","","","","","","","","","","75","K","2","","","222","main_expt",""
"","bandit","302","778927","0.0-263.0-0.0","12681289","wem/bandit_either_3","A3TCFIPOBRZZB3","either","4","286","","","","","","","0","1","0","","0.839196386","0.6","0.2","0.4","0.8","0.3886191555","0.4599748191","0.839196386","0.638470603","","","","","","","","","","","","75","K","2","","","223","main_expt",""
"","bandit","303","780678","0.0-264.0-0.0","12681289","wem/bandit_either_3","A3TCFIPOBRZZB3","either","4","213","","","","","","","1","0","0","0.8340435664","","0.6","0.2","0.4","0.8","","","","","0.3352763987","0.5868274652","0.8340435664","0.560582988","","","","","","","","75","K","2","","","224","main_expt",""
"","bandit","304","782450","0.0-265.0-0.0","12681289","wem/bandit_either_3","A3TCFIPOBRZZB3","either","4","238","","","","","","","0","1","0","","0.8229669419","0.6","0.2","0.4","0.8","0.3948846532","0.510759767","0.8229669419","0.5004803289","","","","","","","","","","","","75","K","2","","","225","main_expt",""
"","bandit","305","784241","0.0-266.0-0.0","12681289","wem/bandit_either_3","A3TCFIPOBRZZB3","either","4","256","","","","","","","1","0","0","0.8326575293","","0.6","0.2","0.4","0.8","","","","","0.385279681","0.6026028704","0.8326575293","0.5109709899","","","","","","","","75","K","2","","","226","main_expt",""
"","bandit","306","786017","0.0-267.0-0.0","12681289","wem/bandit_either_3","A3TCFIPOBRZZB3","either","4","241","","","","","","","0","1","0","","0.8904476858","0.6","0.2","0.4","0.8","0.3296530349","0.588132951","0.8904476858","0.4271661703","","","","","","","","","","","","75","K","2","","","227","main_expt",""
"","bandit","307","787834","0.0-268.0-0.0","12681289","wem/bandit_either_3","A3TCFIPOBRZZB3","either","4","282","","","","","","","1","0","0","0.8877596604","","0.6","0.2","0.4","0.8","","","","","0.4227788413","0.5754590721","0.8877596604","0.374673526","","","","","","","","75","K","2","","","228","main_expt",""
"","bandit","308","789693","0.0-269.0-0.0","12681289","wem/bandit_either_3","A3TCFIPOBRZZB3","either","4","276","","","","","","","1","0","0","0.8647697669","","0.6","0.2","0.4","0.8","","","","","0.4470353227","0.6311951266","0.8647697669","0.393435759","","","","","","","","75","K","2","","","229","main_expt",""
"","bandit","309","791551","0.0-270.0-0.0","12681289","wem/bandit_either_3","A3TCFIPOBRZZB3","either","4","319","","","","","","","0","1","0","","0.8704214291","0.6","0.2","0.4","0.8","0.2986819632","0.6164228117","0.8704214291","0.3299431778","","","","","","","","","","","","75","K","2","","","230","main_expt",""
"","bandit","310","794175","0.0-271.0-0.0","12681289","wem/bandit_either_3","A3TCFIPOBRZZB3","either","4","1081","","","","","","","0","1","0","","0.8598686354","0.6","0.2","0.4","0.8","0.4508866759","0.5943568022","0.8598686354","0.3477061432","","","","","","","","","","","","75","K","2","","","231","main_expt",""
"","bandit","311","796199","0.0-272.0-0.0","12681289","wem/bandit_either_3","A3TCFIPOBRZZB3","either","4","490","","","","","","","0","1","0","","0.7939027672","0.6","0.2","0.4","0.8","0.5125968159","0.6032910051","0.7939027672","0.3430234075","","","","","","","","","","","","75","K","2","","","232","main_expt",""
"","bandit","312","798134","0.0-273.0-0.0","12681289","wem/bandit_either_3","A3TCFIPOBRZZB3","either","4","400","","","","","","","1","0","0","0.7930400566","","0.6","0.2","0.4","0.8","","","","","0.6020802482","0.7225660168","0.7930400566","0.2812772396","","","","","","","","75","K","2","","","233","main_expt",""
"","bandit","313","800015","0.0-274.0-0.0","12681289","wem/bandit_either_3","A3TCFIPOBRZZB3","either","4","346","","","","","","","0","0","1","","0.7549101179","0.6","0.2","0.4","0.8","0.5927943616","0.6718439238","0.7549101179","0.2049555934","","","","","","","","","","","","75","K","2","","","234","main_expt",""
"","bandit","314","801814","0.0-275.0-0.0","12681289","wem/bandit_either_3","A3TCFIPOBRZZB3","either","4","266","","","","","","","0","1","0","","0.7654291135","0.6","0.2","0.4","0.8","0.5814417759","0.6025803433","0.7654291135","0.144612338","","","","","","","","","","","","75","K","2","","","235","main_expt",""
"","bandit","315","803744","0.0-276.0-0.0","12681289","wem/bandit_either_3","A3TCFIPOBRZZB3","either","4","392","","","","","","","0","1","0","","0.6965918162","0.6","0.2","0.4","0.8","0.6530024001","0.6170166349","0.6965918162","0.1509581517","","","","","","","","","","","","75","K","2","","","236","main_expt",""
"","bandit","316","805628","0.0-277.0-0.0","12681289","wem/bandit_either_3","A3TCFIPOBRZZB3","either","4","336","","","","","","","0","1","0","","0.8151927982","0.6","0.2","0.4","0.8","0.5861490443","0.6426153702","0.8151927982","0.2267465707","","","","","","","","","","","","75","K","2","","","237","main_expt",""
"","bandit","317","807592","0.0-278.0-0.0","12681289","wem/bandit_either_3","A3TCFIPOBRZZB3","either","4","410","","","","","","","0","1","0","","0.7696745118","0.6","0.2","0.4","0.8","0.6086881899","0.5421138037","0.7696745118","0.1651127221","","","","","","","","","","","","75","K","2","","","238","main_expt",""
"","bandit","318","809558","0.0-279.0-0.0","12681289","wem/bandit_either_3","A3TCFIPOBRZZB3","either","4","422","","","","","","","0","0","1","0.7368178416","","0.6","0.2","0.4","0.8","","","","","0.6323362843","0.5534077834","0.7368178416","0.1587945469","","","","","","","","75","K","2","","","239","main_expt",""
"","bandit","319","811371","0.0-280.0-0.0","12681289","wem/bandit_either_3","A3TCFIPOBRZZB3","either","4","281","","","","","","","0","0","1","0.6443792527","","0.6","0.2","0.4","0.8","","","","","0.5620837446","0.7267030345","0.6443792527","0.08644000702","","","","","","","","75","K","2","","","240","main_expt",""
"","bandit","320","813323","0.0-281.0-0.0","12681289","wem/bandit_either_3","A3TCFIPOBRZZB3","either","4","412","","","","","","","1","0","0","0.6467572307","","0.6","0.2","0.4","0.8","","","","","0.5571148452","0.7211407476","0.6467572307","0.06677296221","","","","","","","","75","K","2","","","241","main_expt",""
"","bandit","321","815156","0.0-282.0-0.0","12681289","wem/bandit_either_3","A3TCFIPOBRZZB3","either","4","293","","","","","","","0","0","1","","0.6131120494","0.6","0.2","0.4","0.8","0.4016720442","0.6764936995","0.6131120494","0.08066643837","","","","","","","","","","","","75","K","2","","","242","main_expt",""
"","bandit","322","816952","0.0-283.0-0.0","12681289","wem/bandit_either_3","A3TCFIPOBRZZB3","either","4","231","","","","","","","1","0","0","0.7409975133","","0.6","0.2","0.4","0.8","","","","","0.5389796081","0.6677952341","0.7409975133","0.08086195374","","","","","","","","75","K","2","","","243","main_expt",""
