"consent","trial_type","trial_index","time_elapsed","internal_node_id","subjID","study","MID","cond","drift","rt","responses","key_press","expt_phase","like","value","connected","gems","bombs","no_reward","GemPrChosen","BombPrChosen","GainOverPainPr_0","GainOverPainPr_1","GainOverPainPr_2","GainOverPainPr_3","LosePr_0","LosePr_1","LosePr_2","LosePr_3","WinPr_0","WinPr_1","WinPr_2","WinPr_3","Q0","Q1","Q2","gender","age","ethnicity","target","respCharCode","respKey","respChoiceNum","respChoice","practice","trial_counter","trial_label","button_pressed"
"INL_behavioral_consent_30min_online.html","consent","0","20231","0.0-0.0","17287899","wem/bandit_either_3","ALF9AAZGQP4K5","either","5","","","","","","","","","","","","","","","","","","","","","","","","","","","","","","","","","","","","","","",""
"","survey-text","1","25080","0.0-1.0","17287899","wem/bandit_either_3","ALF9AAZGQP4K5","either","5","3831","{""Q0"":""ALF9AAZGQP4K5""}","","","","","","","","","","","","","","","","","","","","","","","","","","","","","","","","","","","","",""
"","text","2","36328","0.0-2.0","17287899","wem/bandit_either_3","ALF9AAZGQP4K5","either","5","10240","","32","","","","","","","","","","","","","","","","","","","","","","","","","","","","","","","","","","","",""
"","text","3","43996","0.0-3.0","17287899","wem/bandit_either_3","ALF9AAZGQP4K5","either","5","7663","","32","","","","","","","","","","","","","","","","","","","","","","","","","","","","","","","","","","","",""
"","text","4","63276","0.0-4.0","17287899","wem/bandit_either_3","ALF9AAZGQP4K5","either","5","19276","","32","","","","","","","","","","","","","","","","","","","","","","","","","","","","","","","","","","","",""
"","text","5","76037","0.0-5.0","17287899","wem/bandit_either_3","ALF9AAZGQP4K5","either","5","12759","","32","","","","","","","","","","","","","","","","","","","","","","","","","","","","","","","","","","","",""
"","text","6","100752","0.0-6.0","17287899","wem/bandit_either_3","ALF9AAZGQP4K5","either","5","24712","","32","","","","","","","","","","","","","","","","","","","","","","","","","","","","","","","","","","","",""
"","text","7","107260","0.0-7.0","17287899","wem/bandit_either_3","ALF9AAZGQP4K5","either","5","6504","","32","","","","","","","","","","","","","","","","","","","","","","","","","","","","","","","","","","","",""
"","text","8","111688","0.0-8.0","17287899","wem/bandit_either_3","ALF9AAZGQP4K5","either","5","4424","","32","","","","","","","","","","","","","","","","","","","","","","","","","","","","","","","","","","","",""
"","identification","9","122214","0.0-9.0-0.0","17287899","wem/bandit_either_3","ALF9AAZGQP4K5","either","5","10479","","","","3","3","3","","","","","","","","","","","","","","","","","","","","","","","","the village of Zur","","","","","","","",""
"","identification","10","132412","0.0-9.0-1.0","17287899","wem/bandit_either_3","ALF9AAZGQP4K5","either","5","9162","","","","1","1","0","","","","","","","","","","","","","","","","","","","","","","","","the village of Nyx","","","","","","","",""
"","text","11","139312","0.0-10.0","17287899","wem/bandit_either_3","ALF9AAZGQP4K5","either","5","5896","","32","","","","","","","","","","","","","","","","","","","","","","","","","","","","","","","","","","","",""
"","text","12","142142","0.0-11.0","17287899","wem/bandit_either_3","ALF9AAZGQP4K5","either","5","2827","","32","","","","","","","","","","","","","","","","","","","","","","","","","","","","","","","","","","","",""
"","text","13","143999","0.0-12.0","17287899","wem/bandit_either_3","ALF9AAZGQP4K5","either","5","1855","","32","","","","","","","","","","","","","","","","","","","","","","","","","","","","","","","","","","","",""
"","text","14","147875","0.0-13.0","17287899","wem/bandit_either_3","ALF9AAZGQP4K5","either","5","3872","","32","","","","","","","","","","","","","","","","","","","","","","","","","","","","","","","","","","","",""
"","bandit","15","151520","0.0-14.0-0.0","17287899","wem/bandit_either_3","ALF9AAZGQP4K5","either","5","2126","","","","","","","0","0","1","0","0","","","","","0","","","","0","","","","","","","","","","","74","J","0","img/none_selected_demo.jpg","true","0","",""
"","bandit","16","153733","0.0-15.0-0.0","17287899","wem/bandit_either_3","ALF9AAZGQP4K5","either","5","701","","","","","","","0","0","1","0","0","","","","","0","","","","0","","","","","","","","","","","75","K","0","img/none_selected_demo.jpg","true","0","",""
"","text","17","165453","0.0-16.0","17287899","wem/bandit_either_3","ALF9AAZGQP4K5","either","5","11713","","32","","","","","","","","","","","","","","","","","","","","","","","","","","","","","","","","","","","",""
"","text","18","173807","0.0-17.0","17287899","wem/bandit_either_3","ALF9AAZGQP4K5","either","5","8349","","32","","","","","","","","","","","","","","","","","","","","","","","","","","","","","","","","","","","",""
"","text","19","180118","0.0-18.0","17287899","wem/bandit_either_3","ALF9AAZGQP4K5","either","5","6307","","32","","","","","","","","","","","","","","","","","","","","","","","","","","","","","","","","","","","",""
"","text","20","182920","0.0-19.0","17287899","wem/bandit_either_3","ALF9AAZGQP4K5","either","5","2799","","32","","","","","","","","","","","","","","","","","","","","","","","","","","","","","","","","","","","",""
"","bandit","21","185492","0.0-20.0-0.0","17287899","wem/bandit_either_3","ALF9AAZGQP4K5","either","5","1061","","","","","","","1","0","0","0.8","","0.5","0.5","","","","","","","0.8","0.2","","","","","","","","","","74","J","0","img/none_selected_demo.jpg","true","0","80_20_practice",""
"","bandit","22","187334","0.0-20.0-1.0","17287899","wem/bandit_either_3","ALF9AAZGQP4K5","either","5","323","","","","","","","1","0","0","0.8","","0.5","0.5","","","","","","","0.8","0.2","","","","","","","","","","74","J","0","img/none_selected_demo.jpg","true","0","80_20_practice",""
"","bandit","23","189153","0.0-20.0-2.0","17287899","wem/bandit_either_3","ALF9AAZGQP4K5","either","5","303","","","","","","","0","1","0","","0.8","0.5","0.5","","","0.8","0.2","","","","","","","","","","","","","","74","J","0","img/none_selected_demo.jpg","true","0","80_20_practice",""
"","bandit","24","190928","0.0-20.0-3.0","17287899","wem/bandit_either_3","ALF9AAZGQP4K5","either","5","260","","","","","","","1","0","0","0.8","","0.5","0.5","","","","","","","0.8","0.2","","","","","","","","","","74","J","0","img/none_selected_demo.jpg","true","0","80_20_practice",""
"","bandit","25","192983","0.0-20.0-4.0","17287899","wem/bandit_either_3","ALF9AAZGQP4K5","either","5","544","","","","","","","0","0","1","","0.2","0.5","0.5","","","0.8","0.2","","","","","","","","","","","","","","75","K","1","","true","0","80_20_practice",""
"","bandit","26","194765","0.0-20.0-5.0","17287899","wem/bandit_either_3","ALF9AAZGQP4K5","either","5","268","","","","","","","0","0","1","0.2","","0.5","0.5","","","","","","","0.8","0.2","","","","","","","","","","75","K","1","","true","0","80_20_practice",""
"","bandit","27","196647","0.0-20.0-6.0","17287899","wem/bandit_either_3","ALF9AAZGQP4K5","either","5","370","","","","","","","0","0","1","0.2","","0.5","0.5","","","","","","","0.8","0.2","","","","","","","","","","75","K","1","","true","0","80_20_practice",""
"","bandit","28","198370","0.0-20.0-7.0","17287899","wem/bandit_either_3","ALF9AAZGQP4K5","either","5","209","","","","","","","1","0","0","0.8","","0.5","0.5","","","","","","","0.8","0.2","","","","","","","","","","74","J","0","img/none_selected_demo.jpg","true","0","80_20_practice",""
"","bandit","29","200060","0.0-20.0-8.0","17287899","wem/bandit_either_3","ALF9AAZGQP4K5","either","5","173","","","","","","","1","0","0","0.8","","0.5","0.5","","","","","","","0.8","0.2","","","","","","","","","","74","J","0","img/none_selected_demo.jpg","true","0","80_20_practice",""
"","bandit","30","202021","0.0-20.0-9.0","17287899","wem/bandit_either_3","ALF9AAZGQP4K5","either","5","445","","","","","","","0","0","1","0.8","","0.5","0.5","","","","","","","0.8","0.2","","","","","","","","","","74","J","0","img/none_selected_demo.jpg","true","0","80_20_practice",""
"","bandit","31","203844","0.0-20.0-10.0","17287899","wem/bandit_either_3","ALF9AAZGQP4K5","either","5","310","","","","","","","1","0","0","0.8","","0.5","0.5","","","","","","","0.8","0.2","","","","","","","","","","74","J","0","img/none_selected_demo.jpg","true","0","80_20_practice",""
"","bandit","32","205607","0.0-20.0-11.0","17287899","wem/bandit_either_3","ALF9AAZGQP4K5","either","5","251","","","","","","","0","1","0","","0.8","0.5","0.5","","","0.8","0.2","","","","","","","","","","","","","","74","J","0","img/none_selected_demo.jpg","true","0","80_20_practice",""
"","bandit","33","208203","0.0-20.0-12.0","17287899","wem/bandit_either_3","ALF9AAZGQP4K5","either","5","1082","","","","","","","1","0","0","0.8","","0.5","0.5","","","","","","","0.8","0.2","","","","","","","","","","74","J","0","img/none_selected_demo.jpg","true","0","80_20_practice",""
"","bandit","34","210022","0.0-20.0-13.0","17287899","wem/bandit_either_3","ALF9AAZGQP4K5","either","5","305","","","","","","","1","0","0","0.8","","0.5","0.5","","","","","","","0.8","0.2","","","","","","","","","","74","J","0","img/none_selected_demo.jpg","true","0","80_20_practice",""
"","bandit","35","211866","0.0-20.0-14.0","17287899","wem/bandit_either_3","ALF9AAZGQP4K5","either","5","330","","","","","","","0","0","1","0.8","","0.5","0.5","","","","","","","0.8","0.2","","","","","","","","","","74","J","0","img/none_selected_demo.jpg","true","0","80_20_practice",""
"","bandit","36","213492","0.0-20.0-15.0","17287899","wem/bandit_either_3","ALF9AAZGQP4K5","either","5","112","","","","","","","0","1","0","","0.8","0.5","0.5","","","0.8","0.2","","","","","","","","","","","","","","74","J","0","img/none_selected_demo.jpg","true","0","80_20_practice",""
"","bandit","37","215513","0.0-20.0-16.0","17287899","wem/bandit_either_3","ALF9AAZGQP4K5","either","5","500","","","","","","","1","0","0","0.8","","0.5","0.5","","","","","","","0.8","0.2","","","","","","","","","","74","J","0","img/none_selected_demo.jpg","true","0","80_20_practice",""
"","bandit","38","217424","0.0-20.0-17.0","17287899","wem/bandit_either_3","ALF9AAZGQP4K5","either","5","395","","","","","","","0","0","1","","0.8","0.5","0.5","","","0.8","0.2","","","","","","","","","","","","","","74","J","0","img/none_selected_demo.jpg","true","0","80_20_practice",""
"","bandit","39","219682","0.0-20.0-18.0","17287899","wem/bandit_either_3","ALF9AAZGQP4K5","either","5","745","","","","","","","0","0","1","0.8","","0.5","0.5","","","","","","","0.8","0.2","","","","","","","","","","74","J","0","img/none_selected_demo.jpg","true","0","80_20_practice",""
"","bandit","40","221476","0.0-20.0-19.0","17287899","wem/bandit_either_3","ALF9AAZGQP4K5","either","5","279","","","","","","","1","0","0","0.8","","0.5","0.5","","","","","","","0.8","0.2","","","","","","","","","","74","J","0","img/none_selected_demo.jpg","true","0","80_20_practice",""
"","text","41","226799","0.0-21.0","17287899","wem/bandit_either_3","ALF9AAZGQP4K5","either","5","5317","","32","","","","","","","","","","","","","","","","","","","","","","","","","","","","","","","","","","","",""
"","bandit","42","228729","0.0-22.0-0.0","17287899","wem/bandit_either_3","ALF9AAZGQP4K5","either","5","416","","","","","","","1","0","0","1","0","","","","","0","1","","","1","0","","","","","","","","","","74","J","0","img/none_selected_demo.jpg","true","0","",""
"","text","43","236928","0.0-23.0","17287899","wem/bandit_either_3","ALF9AAZGQP4K5","either","5","8194","","32","","","","","","","","","","","","","","","","","","","","","","","","","","","","","","","","","","","",""
"","text","44","240071","0.0-24.0","17287899","wem/bandit_either_3","ALF9AAZGQP4K5","either","5","3139","","32","","","","","","","","","","","","","","","","","","","","","","","","","","","","","","","","","","","",""
"","text","45","242312","0.0-25.0","17287899","wem/bandit_either_3","ALF9AAZGQP4K5","either","5","2234","","32","","","","","","","","","","","","","","","","","","","","","","","","","","","","","","","","","","","",""
"","text","46","245255","0.0-26.0","17287899","wem/bandit_either_3","ALF9AAZGQP4K5","either","5","2937","","32","","","","","","","","","","","","","","","","","","","","","","","","","","","","","","","","","","","",""
"","text","47","255668","0.0-27.0","17287899","wem/bandit_either_3","ALF9AAZGQP4K5","either","5","10408","","32","","","","","","","","","","","","","","","","","","","","","","","","","","","","","","","","","","","",""
"","text","48","257891","0.0-28.0","17287899","wem/bandit_either_3","ALF9AAZGQP4K5","either","5","2218","","32","","","","","","","","","","","","","","","","","","","","","","","","","","","","","","","","","","","",""
"","text","49","264002","0.0-29.0","17287899","wem/bandit_either_3","ALF9AAZGQP4K5","either","5","6106","","32","","","","","","","","","","","","","","","","","","","","","","","","","","","","","","","","","","","",""
"","text","50","267085","0.0-30.0","17287899","wem/bandit_either_3","ALF9AAZGQP4K5","either","5","3079","","32","","","","","","","","","","","","","","","","","","","","","","","","","","","","","","","","","","","",""
"","text","51","269796","0.0-31.0","17287899","wem/bandit_either_3","ALF9AAZGQP4K5","either","5","2706","","32","","","","","","","","","","","","","","","","","","","","","","","","","","","","","","","","","","","",""
"","text","52","271620","0.0-32.0","17287899","wem/bandit_either_3","ALF9AAZGQP4K5","either","5","1820","","32","","","","","","","","","","","","","","","","","","","","","","","","","","","","","","","","","","","",""
"","text","53","273800","0.0-33.0","17287899","wem/bandit_either_3","ALF9AAZGQP4K5","either","5","2177","","32","","","","","","","","","","","","","","","","","","","","","","","","","","","","","","","","","","","",""
"","bandit","54","276136","0.0-34.0-0.0","17287899","wem/bandit_either_3","ALF9AAZGQP4K5","either","5","823","","","","","","","0","0","1","","0.8","0.5","0.5","0.5","0.5","0.8","0.2","0.6","0.2","","","","","","","","","","","","72","H","0","img/none_selected.jpg","true","0","full_practice",""
"","bandit","55","277972","0.0-34.0-1.0","17287899","wem/bandit_either_3","ALF9AAZGQP4K5","either","5","310","","","","","","","0","0","1","0.2","","0.5","0.5","0.5","0.5","","","","","0.8","0.2","0.6","0.2","","","","","","","","74","J","1","","true","0","full_practice",""
"","bandit","56","279753","0.0-34.0-2.0","17287899","wem/bandit_either_3","ALF9AAZGQP4K5","either","5","267","","","","","","","0","1","0","","0.6","0.5","0.5","0.5","0.5","0.8","0.2","0.6","0.2","","","","","","","","","","","","75","K","2","","true","0","full_practice",""
"","bandit","57","281508","0.0-34.0-3.0","17287899","wem/bandit_either_3","ALF9AAZGQP4K5","either","5","241","","","","","","","0","1","0","","0.6","0.5","0.5","0.5","0.5","0.8","0.2","0.6","0.2","","","","","","","","","","","","75","K","2","","true","0","full_practice",""
"","bandit","58","283214","0.0-34.0-4.0","17287899","wem/bandit_either_3","ALF9AAZGQP4K5","either","5","191","","","","","","","0","0","1","","0.6","0.5","0.5","0.5","0.5","0.8","0.2","0.6","0.2","","","","","","","","","","","","75","K","2","","true","0","full_practice",""
"","bandit","59","284938","0.0-34.0-5.0","17287899","wem/bandit_either_3","ALF9AAZGQP4K5","either","5","210","","","","","","","1","0","0","0.6","","0.5","0.5","0.5","0.5","","","","","0.8","0.2","0.6","0.2","","","","","","","","75","K","2","","true","0","full_practice",""
"","bandit","60","286714","0.0-34.0-6.0","17287899","wem/bandit_either_3","ALF9AAZGQP4K5","either","5","261","","","","","","","0","0","1","0.6","","0.5","0.5","0.5","0.5","","","","","0.8","0.2","0.6","0.2","","","","","","","","75","K","2","","true","0","full_practice",""
"","bandit","61","288317","0.0-34.0-7.0","17287899","wem/bandit_either_3","ALF9AAZGQP4K5","either","5","87","","","","","","","0","0","1","0.6","","0.5","0.5","0.5","0.5","","","","","0.8","0.2","0.6","0.2","","","","","","","","75","K","2","","true","0","full_practice",""
"","bandit","62","290133","0.0-34.0-8.0","17287899","wem/bandit_either_3","ALF9AAZGQP4K5","either","5","299","","","","","","","0","0","1","0.2","","0.5","0.5","0.5","0.5","","","","","0.8","0.2","0.6","0.2","","","","","","","","76","L","3","","true","0","full_practice",""
"","bandit","63","291921","0.0-34.0-9.0","17287899","wem/bandit_either_3","ALF9AAZGQP4K5","either","5","271","","","","","","","0","1","0","","0.8","0.5","0.5","0.5","0.5","0.8","0.2","0.6","0.2","","","","","","","","","","","","72","H","0","img/none_selected.jpg","true","0","full_practice",""
"","bandit","64","293607","0.0-34.0-10.0","17287899","wem/bandit_either_3","ALF9AAZGQP4K5","either","5","165","","","","","","","0","1","0","","0.8","0.5","0.5","0.5","0.5","0.8","0.2","0.6","0.2","","","","","","","","","","","","72","H","0","img/none_selected.jpg","true","0","full_practice",""
"","bandit","65","295402","0.0-34.0-11.0","17287899","wem/bandit_either_3","ALF9AAZGQP4K5","either","5","280","","","","","","","1","0","0","0.8","","0.5","0.5","0.5","0.5","","","","","0.8","0.2","0.6","0.2","","","","","","","","72","H","0","img/none_selected.jpg","true","0","full_practice",""
"","bandit","66","297162","0.0-34.0-12.0","17287899","wem/bandit_either_3","ALF9AAZGQP4K5","either","5","241","","","","","","","0","1","0","","0.8","0.5","0.5","0.5","0.5","0.8","0.2","0.6","0.2","","","","","","","","","","","","72","H","0","img/none_selected.jpg","true","0","full_practice",""
"","bandit","67","298910","0.0-34.0-13.0","17287899","wem/bandit_either_3","ALF9AAZGQP4K5","either","5","230","","","","","","","1","0","0","0.8","","0.5","0.5","0.5","0.5","","","","","0.8","0.2","0.6","0.2","","","","","","","","72","H","0","img/none_selected.jpg","true","0","full_practice",""
"","bandit","68","300663","0.0-34.0-14.0","17287899","wem/bandit_either_3","ALF9AAZGQP4K5","either","5","237","","","","","","","0","1","0","","0.8","0.5","0.5","0.5","0.5","0.8","0.2","0.6","0.2","","","","","","","","","","","","72","H","0","img/none_selected.jpg","true","0","full_practice",""
"","bandit","69","302461","0.0-34.0-15.0","17287899","wem/bandit_either_3","ALF9AAZGQP4K5","either","5","281","","","","","","","1","0","0","0.8","","0.5","0.5","0.5","0.5","","","","","0.8","0.2","0.6","0.2","","","","","","","","72","H","0","img/none_selected.jpg","true","0","full_practice",""
"","bandit","70","304229","0.0-34.0-16.0","17287899","wem/bandit_either_3","ALF9AAZGQP4K5","either","5","247","","","","","","","0","1","0","","0.8","0.5","0.5","0.5","0.5","0.8","0.2","0.6","0.2","","","","","","","","","","","","72","H","0","img/none_selected.jpg","true","0","full_practice",""
"","bandit","71","305902","0.0-34.0-17.0","17287899","wem/bandit_either_3","ALF9AAZGQP4K5","either","5","159","","","","","","","0","1","0","","0.8","0.5","0.5","0.5","0.5","0.8","0.2","0.6","0.2","","","","","","","","","","","","72","H","0","img/none_selected.jpg","true","0","full_practice",""
"","bandit","72","307561","0.0-34.0-18.0","17287899","wem/bandit_either_3","ALF9AAZGQP4K5","either","5","144","","","","","","","0","0","1","","0.8","0.5","0.5","0.5","0.5","0.8","0.2","0.6","0.2","","","","","","","","","","","","72","H","0","img/none_selected.jpg","true","0","full_practice",""
"","bandit","73","309157","0.0-34.0-19.0","17287899","wem/bandit_either_3","ALF9AAZGQP4K5","either","5","78","","","","","","","0","1","0","","0.8","0.5","0.5","0.5","0.5","0.8","0.2","0.6","0.2","","","","","","","","","","","","72","H","0","img/none_selected.jpg","true","0","full_practice",""
"","text","74","311333","0.0-35.0","17287899","wem/bandit_either_3","ALF9AAZGQP4K5","either","5","2154","","32","","","","","","","","","","","","","","","","","","","","","","","","","","","","","","","","","","","",""
"","text","75","321719","0.0-36.0","17287899","wem/bandit_either_3","ALF9AAZGQP4K5","either","5","9380","","32","","","","","","","","","","","","","","","","","","","","","","","","","","","","","","","","","","","",""
"","text","76","327771","0.0-37.0","17287899","wem/bandit_either_3","ALF9AAZGQP4K5","either","5","6046","","32","","","","","","","","","","","","","","","","","","","","","","","","","","","","","","","","","","","",""
"","text","77","333889","0.0-38.0","17287899","wem/bandit_either_3","ALF9AAZGQP4K5","either","5","6112","","32","","","","","","","","","","","","","","","","","","","","","","","","","","","","","","","","","","","",""
"","text","78","338875","0.0-39.0","17287899","wem/bandit_either_3","ALF9AAZGQP4K5","either","5","4980","","32","","","","","","","","","","","","","","","","","","","","","","","","","","","","","","","","","","","",""
"","text","79","342155","0.0-40.0","17287899","wem/bandit_either_3","ALF9AAZGQP4K5","either","5","3275","","32","","","","","","","","","","","","","","","","","","","","","","","","","","","","","","","","","","","",""
"","bandit","80","344505","0.0-41.0-0.0","17287899","wem/bandit_either_3","ALF9AAZGQP4K5","either","5","836","","","","","","","0","0","1","","0.32692793","0.2","0.6","0.4","0.8","0.32692793","0.6131215568","0.4909711759","0.4253928501","","","","","","","","","","","","72","H","0","img/none_selected.jpg","","1","main_expt",""
"","bandit","81","346106","0.0-42.0-0.0","17287899","wem/bandit_either_3","ALF9AAZGQP4K5","either","5","74","","","","","","","0","0","1","0.5514346198","","0.2","0.6","0.4","0.8","","","","","0.3068321923","0.6783759564","0.5514346198","0.5447097682","","","","","","","","75","K","2","","","2","main_expt",""
"","bandit","82","347770","0.0-43.0-0.0","17287899","wem/bandit_either_3","ALF9AAZGQP4K5","either","5","149","","","","","","","0","0","1","0.5631376832","","0.2","0.6","0.4","0.8","","","","","0.2871808385","0.6535049038","0.5966913043","0.5631376832","","","","","","","","76","L","3","","","3","main_expt",""
"","bandit","83","349350","0.0-44.0-0.0","17287899","wem/bandit_either_3","ALF9AAZGQP4K5","either","5","66","","","","","","","0","0","1","","0.5433476707","0.2","0.6","0.4","0.8","0.3062311279","0.5433476707","0.6236804691","0.5889355808","","","","","","","","","","","","74","J","1","","","4","main_expt",""
"","bandit","84","350911","0.0-45.0-0.0","17287899","wem/bandit_either_3","ALF9AAZGQP4K5","either","5","47","","","","","","","0","0","1","0.6125363118","","0.2","0.6","0.4","0.8","","","","","0.2453374439","0.4256320799","0.5844938386","0.6125363118","","","","","","","","76","L","3","","","5","main_expt",""
"","bandit","85","352623","0.0-46.0-0.0","17287899","wem/bandit_either_3","ALF9AAZGQP4K5","either","5","197","","","","","","","0","1","0","","0.4929788692","0.2","0.6","0.4","0.8","0.2258644136","0.4097031487","0.4929788692","0.5204159956","","","","","","","","","","","","75","K","2","","","6","main_expt",""
"","bandit","86","354255","0.0-47.0-0.0","17287899","wem/bandit_either_3","ALF9AAZGQP4K5","either","5","117","","","","","","","0","1","0","","0.3978044106","0.2","0.6","0.4","0.8","0.2251512132","0.4614862243","0.3978044106","0.5949894572","","","","","","","","","","","","75","K","2","","","7","main_expt",""
"","bandit","87","355932","0.0-48.0-0.0","17287899","wem/bandit_either_3","ALF9AAZGQP4K5","either","5","158","","","","","","","0","1","0","","0.5080346622","0.2","0.6","0.4","0.8","0.1597376121","0.4305419438","0.5080346622","0.7043393759","","","","","","","","","","","","75","K","2","","","8","main_expt",""
"","bandit","88","357496","0.0-49.0-0.0","17287899","wem/bandit_either_3","ALF9AAZGQP4K5","either","5","46","","","","","","","1","0","0","0.440708512","","0.2","0.6","0.4","0.8","","","","","0.1395884133","0.6000641755","0.440708512","0.6866437556","","","","","","","","75","K","2","","","9","main_expt",""
"","bandit","89","359127","0.0-50.0-0.0","17287899","wem/bandit_either_3","ALF9AAZGQP4K5","either","5","114","","","","","","","1","0","0","0.4862198985","","0.2","0.6","0.4","0.8","","","","","0.1529628815","0.66675231","0.4862198985","0.6743415364","","","","","","","","75","K","2","","","10","main_expt",""
"","bandit","90","360918","0.0-51.0-0.0","17287899","wem/bandit_either_3","ALF9AAZGQP4K5","either","5","272","","","","","","","0","0","1","","0.4942886423","0.2","0.6","0.4","0.8","0.1918890603","0.538431352","0.4942886423","0.6907290289","","","","","","","","","","","","75","K","2","","","11","main_expt",""
"","bandit","91","362563","0.0-52.0-0.0","17287899","wem/bandit_either_3","ALF9AAZGQP4K5","either","5","127","","","","","","","1","0","0","0.4999864232","","0.2","0.6","0.4","0.8","","","","","0.1412308375","0.5683478731","0.4999864232","0.7254617755","","","","","","","","75","K","2","","","12","main_expt",""
"","bandit","92","364178","0.0-53.0-0.0","17287899","wem/bandit_either_3","ALF9AAZGQP4K5","either","5","98","","","","","","","0","0","1","","0.3945724157","0.2","0.6","0.4","0.8","0.1854965676","0.5870071372","0.3945724157","0.7533793381","","","","","","","","","","","","75","K","2","","","13","main_expt",""
"","bandit","93","365966","0.0-54.0-0.0","17287899","wem/bandit_either_3","ALF9AAZGQP4K5","either","5","272","","","","","","","0","0","1","","0.3389967741","0.2","0.6","0.4","0.8","0.2200151947","0.3389967741","0.458684297","0.6909187676","","","","","","","","","","","","74","J","1","","","14","main_expt",""
"","bandit","94","367516","0.0-55.0-0.0","17287899","wem/bandit_either_3","ALF9AAZGQP4K5","either","5","34","","","","","","","0","0","1","","0.1497743902","0.2","0.6","0.4","0.8","0.1497743902","0.2927381815","0.5338449271","0.7916820586","","","","","","","","","","","","72","H","0","img/none_selected.jpg","","15","main_expt",""
"","bandit","95","369209","0.0-56.0-0.0","17287899","wem/bandit_either_3","ALF9AAZGQP4K5","either","5","178","","","","","","","0","1","0","","0.1767244745","0.2","0.6","0.4","0.8","0.1767244745","0.2268478953","0.6821016448","0.7991661796","","","","","","","","","","","","72","H","0","img/none_selected.jpg","","16","main_expt",""
"","bandit","96","370936","0.0-57.0-0.0","17287899","wem/bandit_either_3","ALF9AAZGQP4K5","either","5","213","","","","","","","0","0","1","","0.1953364786","0.2","0.6","0.4","0.8","0.1953364786","0.2364877179","0.6963612506","0.7352739439","","","","","","","","","","","","72","H","0","img/none_selected.jpg","","17","main_expt",""
"","bandit","97","372636","0.0-58.0-0.0","17287899","wem/bandit_either_3","ALF9AAZGQP4K5","either","5","184","","","","","","","0","0","1","","0.139355503","0.2","0.6","0.4","0.8","0.139355503","0.280777314","0.7035779666","0.6911569498","","","","","","","","","","","","72","H","0","img/none_selected.jpg","","18","main_expt",""
"","bandit","98","374365","0.0-59.0-0.0","17287899","wem/bandit_either_3","ALF9AAZGQP4K5","either","5","212","","","","","","","0","0","1","0.129677489","","0.2","0.6","0.4","0.8","","","","","0.129677489","0.3280428268","0.677086514","0.6372159304","","","","","","","","72","H","0","img/none_selected.jpg","","19","main_expt",""
"","bandit","99","376165","0.0-60.0-0.0","17287899","wem/bandit_either_3","ALF9AAZGQP4K5","either","5","275","","","","","","","0","0","1","0.213865824","","0.2","0.6","0.4","0.8","","","","","0.1584506979","0.213865824","0.5211019236","0.5917564331","","","","","","","","74","J","1","","","20","main_expt",""
"","bandit","100","377739","0.0-61.0-0.0","17287899","wem/bandit_either_3","ALF9AAZGQP4K5","either","5","54","","","","","","","0","1","0","","0.6351733259","0.2","0.6","0.4","0.8","0.1934985877","0.2755747612","0.6040081297","0.6351733259","","","","","","","","","","","","76","L","3","","","21","main_expt",""
"","bandit","101","379490","0.0-62.0-0.0","17287899","wem/bandit_either_3","ALF9AAZGQP4K5","either","5","230","","","","","","","0","0","1","0.57448168","","0.2","0.6","0.4","0.8","","","","","0.1184813826","0.3096891892","0.5276460007","0.57448168","","","","","","","","76","L","3","","","22","main_expt",""
"","bandit","102","381252","0.0-63.0-0.0","17287899","wem/bandit_either_3","ALF9AAZGQP4K5","either","5","242","","","","","","","0","1","0","","0.532235281","0.2","0.6","0.4","0.8","0.1387482349","0.1855444332","0.4373756081","0.532235281","","","","","","","","","","","","76","L","3","","","23","main_expt",""
"","bandit","103","382909","0.0-64.0-0.0","17287899","wem/bandit_either_3","ALF9AAZGQP4K5","either","5","140","","","","","","","0","0","1","","0.4695599312","0.2","0.6","0.4","0.8","0.1275075135","0.2026045625","0.4051577966","0.4695599312","","","","","","","","","","","","76","L","3","","","24","main_expt",""
"","bandit","104","385001","0.0-65.0-0.0","17287899","wem/bandit_either_3","ALF9AAZGQP4K5","either","5","574","","","","","","","0","0","1","0.3710761786","","0.2","0.6","0.4","0.8","","","","","0.1324238285","0.2610081957","0.3583026632","0.3710761786","","","","","","","","76","L","3","","","25","main_expt",""
"","bandit","105","387037","0.0-66.0-0.0","17287899","wem/bandit_either_3","ALF9AAZGQP4K5","either","5","517","","","","","","","0","0","1","0.3104834237","","0.2","0.6","0.4","0.8","","","","","0.2222282692","0.2068764453","0.4070676783","0.3104834237","","","","","","","","76","L","3","","","26","main_expt",""
"","bandit","106","388575","0.0-67.0-0.0","17287899","wem/bandit_either_3","ALF9AAZGQP4K5","either","5","23","","","","","","","0","0","1","0.1387354037","","0.2","0.6","0.4","0.8","","","","","0.2367528544","0.1387354037","0.3962805628","0.4250638914","","","","","","","","74","J","1","","","27","main_expt",""
"","bandit","107","390437","0.0-68.0-0.0","17287899","wem/bandit_either_3","ALF9AAZGQP4K5","either","5","344","","","","","","","0","0","1","0.2065421522","","0.2","0.6","0.4","0.8","","","","","0.1581712713","0.2065421522","0.3381264529","0.3738912408","","","","","","","","74","J","1","","","28","main_expt",""
"","bandit","108","392201","0.0-69.0-0.0","17287899","wem/bandit_either_3","ALF9AAZGQP4K5","either","5","244","","","","","","","0","0","1","","0.3405446746","0.2","0.6","0.4","0.8","0.2361440946","0.2452437498","0.3405446746","0.411092256","","","","","","","","","","","","75","K","2","","","29","main_expt",""
"","bandit","109","393924","0.0-70.0-0.0","17287899","wem/bandit_either_3","ALF9AAZGQP4K5","either","5","199","","","","","","","0","1","0","","0.3536414415","0.2","0.6","0.4","0.8","0.3051502752","0.3076129501","0.3536414415","0.306262239","","","","","","","","","","","","75","K","2","","","30","main_expt",""
"","bandit","110","395691","0.0-71.0-0.0","17287899","wem/bandit_either_3","ALF9AAZGQP4K5","either","5","244","","","","","","","0","0","1","0.3201297868","","0.2","0.6","0.4","0.8","","","","","0.3588845582","0.275744379","0.3201297868","0.2846857217","","","","","","","","75","K","2","","","31","main_expt",""
"","bandit","111","397462","0.0-72.0-0.0","17287899","wem/bandit_either_3","ALF9AAZGQP4K5","either","5","247","","","","","","","0","0","1","0.414050106","","0.2","0.6","0.4","0.8","","","","","0.3351264969","0.1582224348","0.414050106","0.260797537","","","","","","","","75","K","2","","","32","main_expt",""
"","bandit","112","399298","0.0-73.0-0.0","17287899","wem/bandit_either_3","ALF9AAZGQP4K5","either","5","315","","","","","","","0","0","1","","0.4846208784","0.2","0.6","0.4","0.8","0.3369799553","0.07234251762","0.4846208784","0.3108282978","","","","","","","","","","","","75","K","2","","","33","main_expt",""
"","bandit","113","401034","0.0-74.0-0.0","17287899","wem/bandit_either_3","ALF9AAZGQP4K5","either","5","214","","","","","","","0","0","1","","0.3040676539","0.2","0.6","0.4","0.8","0.3040676539","0.07244310326","0.4250330595","0.3996464291","","","","","","","","","","","","72","H","0","img/none_selected.jpg","","34","main_expt",""
"","bandit","114","402584","0.0-75.0-0.0","17287899","wem/bandit_either_3","ALF9AAZGQP4K5","either","5","33","","","","","","","0","0","1","","0.2974236485","0.2","0.6","0.4","0.8","0.2974236485","0.07140094546","0.499329675","0.4368131495","","","","","","","","","","","","72","H","0","img/none_selected.jpg","","35","main_expt",""
"","bandit","115","404302","0.0-76.0-0.0","17287899","wem/bandit_either_3","ALF9AAZGQP4K5","either","5","190","","","","","","","0","0","1","","0.310238309","0.2","0.6","0.4","0.8","0.310238309","0.08624361683","0.3892953339","0.3396719642","","","","","","","","","","","","72","H","0","img/none_selected.jpg","","36","main_expt",""
"","bandit","116","405998","0.0-77.0-0.0","17287899","wem/bandit_either_3","ALF9AAZGQP4K5","either","5","178","","","","","","","1","0","0","0.07543251018","","0.2","0.6","0.4","0.8","","","","","0.2818719109","0.07543251018","0.3680424748","0.4409026667","","","","","","","","74","J","1","","","37","main_expt",""
"","bandit","117","407738","0.0-78.0-0.0","17287899","wem/bandit_either_3","ALF9AAZGQP4K5","either","5","225","","","","","","","0","0","1","0.1324785543","","0.2","0.6","0.4","0.8","","","","","0.2925765749","0.1324785543","0.4909804269","0.489392614","","","","","","","","74","J","1","","","38","main_expt",""
"","bandit","118","409407","0.0-79.0-0.0","17287899","wem/bandit_either_3","ALF9AAZGQP4K5","either","5","145","","","","","","","0","0","1","0.1824024676","","0.2","0.6","0.4","0.8","","","","","0.3033582507","0.1824024676","0.5165168671","0.4403114744","","","","","","","","74","J","1","","","39","main_expt",""
"","bandit","119","411196","0.0-80.0-0.0","17287899","wem/bandit_either_3","ALF9AAZGQP4K5","either","5","268","","","","","","","0","0","1","0.343221944","","0.2","0.6","0.4","0.8","","","","","0.2371445562","0.09861269436","0.6036007873","0.343221944","","","","","","","","76","L","3","","","40","main_expt",""
"","bandit","120","412762","0.0-81.0-0.0","17287899","wem/bandit_either_3","ALF9AAZGQP4K5","either","5","49","","","","","","","0","0","1","0.1028082326","","0.2","0.6","0.4","0.8","","","","","0.2072661203","0.1028082326","0.6078828369","0.450343793","","","","","","","","74","J","1","","","41","main_expt",""
"","bandit","121","414418","0.0-82.0-0.0","17287899","wem/bandit_either_3","ALF9AAZGQP4K5","either","5","135","","","","","","","0","0","1","0.4422822993","","0.2","0.6","0.4","0.8","","","","","0.1850700716","0.1326350751","0.5757077757","0.4422822993","","","","","","","","76","L","3","","","42","main_expt",""
"","bandit","122","416192","0.0-83.0-0.0","17287899","wem/bandit_either_3","ALF9AAZGQP4K5","either","5","253","","","","","","","0","0","1","","0.1700345657","0.2","0.6","0.4","0.8","0.1700345657","0.1591685393","0.504524575","0.4755437476","","","","","","","","","","","","72","H","0","img/none_selected.jpg","","43","main_expt",""
"","bandit","123","417796","0.0-84.0-0.0","17287899","wem/bandit_either_3","ALF9AAZGQP4K5","either","5","87","","","","","","","0","1","0","","0.3354744533","0.2","0.6","0.4","0.8","0.150922449","0.1558361793","0.3354744533","0.6211160782","","","","","","","","","","","","75","K","2","","","44","main_expt",""
"","bandit","124","419558","0.0-85.0-0.0","17287899","wem/bandit_either_3","ALF9AAZGQP4K5","either","5","246","","","","","","","0","1","0","","0.2259933845","0.2","0.6","0.4","0.8","0.08792573626","0.08224127908","0.2259933845","0.5950963145","","","","","","","","","","","","75","K","2","","","45","main_expt",""
"","bandit","125","421310","0.0-86.0-0.0","17287899","wem/bandit_either_3","ALF9AAZGQP4K5","either","5","236","","","","","","","0","0","1","","0.1991815266","0.2","0.6","0.4","0.8","0.05210962111","0.05681632526","0.1991815266","0.600883672","","","","","","","","","","","","75","K","2","","","46","main_expt",""
"","bandit","126","423066","0.0-87.0-0.0","17287899","wem/bandit_either_3","ALF9AAZGQP4K5","either","5","237","","","","","","","0","0","1","","0.1821259253","0.2","0.6","0.4","0.8","0.1658512007","0.02046531905","0.1821259253","0.6018426621","","","","","","","","","","","","75","K","2","","","47","main_expt",""
"","bandit","127","424798","0.0-88.0-0.0","17287899","wem/bandit_either_3","ALF9AAZGQP4K5","either","5","214","","","","","","","0","0","1","0.1850219792","","0.2","0.6","0.4","0.8","","","","","0.2171730843","0.02793369594","0.1850219792","0.6719149388","","","","","","","","75","K","2","","","48","main_expt",""
"","bandit","128","426568","0.0-89.0-0.0","17287899","wem/bandit_either_3","ALF9AAZGQP4K5","either","5","252","","","","","","","0","0","1","","0.2843491098","0.2","0.6","0.4","0.8","0.2545874694","0.01520235592","0.2843491098","0.5824093935","","","","","","","","","","","","75","K","2","","","49","main_expt",""
"","bandit","129","428293","0.0-90.0-0.0","17287899","wem/bandit_either_3","ALF9AAZGQP4K5","either","5","209","","","","","","","0","0","1","","0.008868670712","0.2","0.6","0.4","0.8","0.1971443839","0.008868670712","0.2385085868","0.5697547833","","","","","","","","","","","","74","J","1","","","50","main_expt",""
"","bandit","130","429998","0.0-91.0-0.0","17287899","wem/bandit_either_3","ALF9AAZGQP4K5","either","5","188","","","","","","","0","0","1","0.004668439046","","0.2","0.6","0.4","0.8","","","","","0.1743954459","0.004668439046","0.2762119933","0.5875551098","","","","","","","","74","J","1","","","51","main_expt",""
"","bandit","131","431591","0.0-92.0-0.0","17287899","wem/bandit_either_3","ALF9AAZGQP4K5","either","5","76","","","","","","","1","0","0","0.691822337","","0.2","0.6","0.4","0.8","","","","","0.1007451992","0.003090075005","0.2350807626","0.691822337","","","","","","","","76","L","3","","","52","main_expt",""
"","bandit","132","433345","0.0-93.0-0.0","17287899","wem/bandit_either_3","ALF9AAZGQP4K5","either","5","235","","","","","","","1","0","0","0.7363191169","","0.2","0.6","0.4","0.8","","","","","0.1648918076","0.003474758773","0.2301492847","0.7363191169","","","","","","","","76","L","3","","","53","main_expt",""
"","bandit","133","435200","0.0-94.0-0.0","17287899","wem/bandit_either_3","ALF9AAZGQP4K5","either","5","335","","","","","","","0","0","1","0.7639548597","","0.2","0.6","0.4","0.8","","","","","0.1761014763","0.003279238457","0.2779325162","0.7639548597","","","","","","","","76","L","3","","","54","main_expt",""
"","bandit","134","436862","0.0-95.0-0.0","17287899","wem/bandit_either_3","ALF9AAZGQP4K5","either","5","143","","","","","","","1","0","0","0.7264154962","","0.2","0.6","0.4","0.8","","","","","0.1460392243","0.001847339967","0.2882189161","0.7264154962","","","","","","","","76","L","3","","","55","main_expt",""
"","bandit","135","438617","0.0-96.0-0.0","17287899","wem/bandit_either_3","ALF9AAZGQP4K5","either","5","237","","","","","","","1","0","0","0.7511403137","","0.2","0.6","0.4","0.8","","","","","0.1882527018","0.001186331615","0.2646822794","0.7511403137","","","","","","","","76","L","3","","","56","main_expt",""
"","bandit","136","440395","0.0-97.0-0.0","17287899","wem/bandit_either_3","ALF9AAZGQP4K5","either","5","259","","","","","","","0","0","1","0.6292194553","","0.2","0.6","0.4","0.8","","","","","0.1836596221","0.001917609755","0.3080117871","0.6292194553","","","","","","","","76","L","3","","","57","main_expt",""
"","bandit","137","442176","0.0-98.0-0.0","17287899","wem/bandit_either_3","ALF9AAZGQP4K5","either","5","236","","","","","","","0","0","1","0.5622591622","","0.2","0.6","0.4","0.8","","","","","0.2259562874","0.004115025419","0.2609020091","0.5622591622","","","","","","","","76","L","3","","","58","main_expt",""
"","bandit","138","443949","0.0-99.0-0.0","17287899","wem/bandit_either_3","ALF9AAZGQP4K5","either","5","254","","","","","","","1","0","0","0.6394190939","","0.2","0.6","0.4","0.8","","","","","0.1673227733","0.007083433589","0.3014652953","0.6394190939","","","","","","","","76","L","3","","","59","main_expt",""
"","bandit","139","445709","0.0-100.0-0.0","17287899","wem/bandit_either_3","ALF9AAZGQP4K5","either","5","243","","","","","","","1","0","0","0.502148976","","0.2","0.6","0.4","0.8","","","","","0.1404143731","0.0100473459","0.2872544729","0.502148976","","","","","","","","76","L","3","","","60","main_expt",""
"","bandit","140","447469","0.0-101.0-0.0","17287899","wem/bandit_either_3","ALF9AAZGQP4K5","either","5","241","","","","","","","0","0","1","0.5541662771","","0.2","0.6","0.4","0.8","","","","","0.1087230511","0.02288810402","0.2347068593","0.5541662771","","","","","","","","76","L","3","","","61","main_expt",""
"","bandit","141","449091","0.0-102.0-0.0","17287899","wem/bandit_either_3","ALF9AAZGQP4K5","either","5","105","","","","","","","0","1","0","","0.6016144889","0.2","0.6","0.4","0.8","0.1173770395","0.04890713094","0.1786743828","0.6016144889","","","","","","","","","","","","76","L","3","","","62","main_expt",""
"","bandit","142","450936","0.0-103.0-0.0","17287899","wem/bandit_either_3","ALF9AAZGQP4K5","either","5","326","","","","","","","0","0","1","0.6306423252","","0.2","0.6","0.4","0.8","","","","","0.1173961002","0.06015841579","0.1627017484","0.6306423252","","","","","","","","76","L","3","","","63","main_expt",""
"","bandit","143","453078","0.0-104.0-0.0","17287899","wem/bandit_either_3","ALF9AAZGQP4K5","either","5","624","","","","","","","1","0","0","0.5963496952","","0.2","0.6","0.4","0.8","","","","","0.1093057248","0.0697324588","0.2220220934","0.5963496952","","","","","","","","76","L","3","","","64","main_expt",""
"","bandit","144","454895","0.0-105.0-0.0","17287899","wem/bandit_either_3","ALF9AAZGQP4K5","either","5","281","","","","","","","1","0","0","0.5835424673","","0.2","0.6","0.4","0.8","","","","","0.1437581537","0.03955641554","0.1387290973","0.5835424673","","","","","","","","76","L","3","","","65","main_expt",""
"","bandit","145","457127","0.0-106.0-0.0","17287899","wem/bandit_either_3","ALF9AAZGQP4K5","either","5","703","","","","","","","1","0","0","0.5789137396","","0.2","0.6","0.4","0.8","","","","","0.1321246006","0.04104317144","0.1481952943","0.5789137396","","","","","","","","76","L","3","","","66","main_expt",""
"","bandit","146","458978","0.0-107.0-0.0","17287899","wem/bandit_either_3","ALF9AAZGQP4K5","either","5","336","","","","","","","0","0","1","0.6503196648","","0.2","0.6","0.4","0.8","","","","","0.1441415222","0.07749417123","0.1354395346","0.6503196648","","","","","","","","76","L","3","","","67","main_expt",""
"","bandit","147","460498","0.0-108.0-0.0","17287899","wem/bandit_either_3","ALF9AAZGQP4K5","either","5","1","","","","","","","0","0","1","0.1606162296","","0.2","0.6","0.4","0.8","","","","","0.1794787892","0.1606162296","0.09431815687","0.7295955131","","","","","","","","74","J","1","","","68","main_expt",""
"","bandit","148","464148","0.0-109.0-0.0","17287899","wem/bandit_either_3","ALF9AAZGQP4K5","either","5","2125","","","","","","","0","0","1","0.7924649224","","0.2","0.6","0.4","0.8","","","","","0.2467892919","0.1458723802","0.09491494314","0.7924649224","","","","","","","","76","L","3","","","69","main_expt",""
"","bandit","149","466103","0.0-110.0-0.0","17287899","wem/bandit_either_3","ALF9AAZGQP4K5","either","5","435","","","","","","","1","0","0","0.7104550926","","0.2","0.6","0.4","0.8","","","","","0.2683381141","0.09936082334","0.144379617","0.7104550926","","","","","","","","76","L","3","","","70","main_expt",""
"","bandit","150","467976","0.0-111.0-0.0","17287899","wem/bandit_either_3","ALF9AAZGQP4K5","either","5","346","","","","","","","0","0","1","","0.6350436987","0.2","0.6","0.4","0.8","0.3513633517","0.08487306657","0.1522740794","0.6350436987","","","","","","","","","","","","76","L","3","","","71","main_expt",""
"","bandit","151","469821","0.0-112.0-0.0","17287899","wem/bandit_either_3","ALF9AAZGQP4K5","either","5","327","","","","","","","0","0","1","0.5987872161","","0.2","0.6","0.4","0.8","","","","","0.2914052368","0.08819471669","0.1668466162","0.5987872161","","","","","","","","76","L","3","","","72","main_expt",""
"","bandit","152","471689","0.0-113.0-0.0","17287899","wem/bandit_either_3","ALF9AAZGQP4K5","either","5","348","","","","","","","0","0","1","0.5985066563","","0.2","0.6","0.4","0.8","","","","","0.2877488323","0.1283432424","0.1896474075","0.5985066563","","","","","","","","76","L","3","","","73","main_expt",""
"","bandit","153","473467","0.0-114.0-0.0","17287899","wem/bandit_either_3","ALF9AAZGQP4K5","either","5","259","","","","","","","0","0","1","0.09379917772","","0.2","0.6","0.4","0.8","","","","","0.2562899571","0.09379917772","0.2374421278","0.6384302553","","","","","","","","74","J","1","","","74","main_expt",""
"","bandit","154","475083","0.0-115.0-0.0","17287899","wem/bandit_either_3","ALF9AAZGQP4K5","either","5","98","","","","","","","0","0","1","0.5658832615","","0.2","0.6","0.4","0.8","","","","","0.2733605005","0.09049970266","0.2083661751","0.5658832615","","","","","","","","76","L","3","","","75","main_expt",""
"","bandit","155","476681","0.0-116.0-0.0","17287899","wem/bandit_either_3","ALF9AAZGQP4K5","either","5","80","","","","","","","0","0","1","","0.2438220339","0.2","0.6","0.4","0.8","0.3937912108","0.08721668036","0.2438220339","0.6242699585","","","","","","","","","","","","75","K","2","","","76","main_expt",""
"","bandit","156","478316","0.0-117.0-0.0","17287899","wem/bandit_either_3","ALF9AAZGQP4K5","either","5","116","","","","","","","0","0","1","","0.2317864895","0.2","0.6","0.4","0.8","0.2317864895","0.06435523183","0.2688374605","0.5744400186","","","","","","","","","","","","72","H","0","img/none_selected.jpg","","77","main_expt",""
"","bandit","157","480112","0.0-118.0-0.0","17287899","wem/bandit_either_3","ALF9AAZGQP4K5","either","5","275","","","","","","","0","0","1","","0.1809738678","0.2","0.6","0.4","0.8","0.1809738678","0.0482567949","0.354885782","0.5888420407","","","","","","","","","","","","72","H","0","img/none_selected.jpg","","78","main_expt",""
"","bandit","158","481725","0.0-119.0-0.0","17287899","wem/bandit_either_3","ALF9AAZGQP4K5","either","5","94","","","","","","","1","0","0","0.0437210955","","0.2","0.6","0.4","0.8","","","","","0.1139783564","0.0437210955","0.3618930149","0.6367332082","","","","","","","","74","J","1","","","79","main_expt",""
"","bandit","159","483518","0.0-120.0-0.0","17287899","wem/bandit_either_3","ALF9AAZGQP4K5","either","5","272","","","","","","","0","0","1","0.02877808334","","0.2","0.6","0.4","0.8","","","","","0.08785846653","0.02877808334","0.2656346555","0.6870764151","","","","","","","","74","J","1","","","80","main_expt",""
"","bandit","160","485410","0.0-121.0-0.0","17287899","wem/bandit_either_3","ALF9AAZGQP4K5","either","5","365","","","","","","","0","0","1","0.01921293631","","0.2","0.6","0.4","0.8","","","","","0.09113866108","0.01921293631","0.4245431589","0.594282643","","","","","","","","74","J","1","","","81","main_expt",""
"","bandit","161","487138","0.0-122.0-0.0","17287899","wem/bandit_either_3","ALF9AAZGQP4K5","either","5","210","","","","","","","1","0","0","0.04933803159","","0.2","0.6","0.4","0.8","","","","","0.1055231707","0.04933803159","0.4469352605","0.6134463007","","","","","","","","74","J","1","","","82","main_expt",""
"","bandit","162","489204","0.0-123.0-0.0","17287899","wem/bandit_either_3","ALF9AAZGQP4K5","either","5","545","","","","","","","0","0","1","0.03134335394","","0.2","0.6","0.4","0.8","","","","","0.09865920741","0.03134335394","0.4492602846","0.573719985","","","","","","","","74","J","1","","","83","main_expt",""
"","bandit","163","490868","0.0-124.0-0.0","17287899","wem/bandit_either_3","ALF9AAZGQP4K5","either","5","127","","","","","","","0","0","1","","0.08181594064","0.2","0.6","0.4","0.8","0.06745845416","0.08181594064","0.4800113203","0.5666188995","","","","","","","","","","","","74","J","1","","","84","main_expt",""
"","bandit","164","492712","0.0-125.0-0.0","17287899","wem/bandit_either_3","ALF9AAZGQP4K5","either","5","325","","","","","","","0","0","1","0.09326949564","","0.2","0.6","0.4","0.8","","","","","0.05723787215","0.09326949564","0.53417275","0.5161506384","","","","","","","","74","J","1","","","85","main_expt",""
"","bandit","165","494373","0.0-126.0-0.0","17287899","wem/bandit_either_3","ALF9AAZGQP4K5","either","5","145","","","","","","","1","0","0","0.4431594274","","0.2","0.6","0.4","0.8","","","","","0.04283717318","0.1365856799","0.4431594274","0.4408304524","","","","","","","","75","K","2","","","86","main_expt",""
"","bandit","166","496146","0.0-127.0-0.0","17287899","wem/bandit_either_3","ALF9AAZGQP4K5","either","5","251","","","","","","","0","1","0","","0.4135642243","0.2","0.6","0.4","0.8","0.04801612347","0.1845868617","0.4135642243","0.4926691315","","","","","","","","","","","","75","K","2","","","87","main_expt",""
"","bandit","167","497971","0.0-128.0-0.0","17287899","wem/bandit_either_3","ALF9AAZGQP4K5","either","5","305","","","","","","","0","0","1","0.4785462387","","0.2","0.6","0.4","0.8","","","","","0.1154775412","0.2304222619","0.4785462387","0.6047228172","","","","","","","","75","K","2","","","88","main_expt",""
"","bandit","168","499635","0.0-129.0-0.0","17287899","wem/bandit_either_3","ALF9AAZGQP4K5","either","5","144","","","","","","","0","1","0","","0.6395163219","0.2","0.6","0.4","0.8","0.1308375778","0.1408060154","0.6395163219","0.5311406509","","","","","","","","","","","","75","K","2","","","89","main_expt",""
"","bandit","169","501430","0.0-130.0-0.0","17287899","wem/bandit_either_3","ALF9AAZGQP4K5","either","5","273","","","","","","","0","1","0","","0.6143207643","0.2","0.6","0.4","0.8","0.07282967421","0.1870966622","0.6143207643","0.6262376813","","","","","","","","","","","","75","K","2","","","90","main_expt",""
"","bandit","170","503269","0.0-131.0-0.0","17287899","wem/bandit_either_3","ALF9AAZGQP4K5","either","5","320","","","","","","","1","0","0","0.446485487","","0.2","0.6","0.4","0.8","","","","","0.07599207753","0.192698437","0.446485487","0.690423555","","","","","","","","75","K","2","","","91","main_expt",""
"","bandit","171","505011","0.0-132.0-0.0","17287899","wem/bandit_either_3","ALF9AAZGQP4K5","either","5","225","","","","","","","0","1","0","","0.5169677416","0.2","0.6","0.4","0.8","0.04323911508","0.1683480261","0.5169677416","0.6517149298","","","","","","","","","","","","75","K","2","","","92","main_expt",""
"","bandit","172","506772","0.0-133.0-0.0","17287899","wem/bandit_either_3","ALF9AAZGQP4K5","either","5","243","","","","","","","1","0","0","0.4242737166","","0.2","0.6","0.4","0.8","","","","","0.04253576945","0.1330499919","0.4242737166","0.5656193004","","","","","","","","75","K","2","","","93","main_expt",""
"","bandit","173","508503","0.0-134.0-0.0","17287899","wem/bandit_either_3","ALF9AAZGQP4K5","either","5","212","","","","","","","0","0","1","","0.3479993201","0.2","0.6","0.4","0.8","0.04534385772","0.1880917327","0.3479993201","0.4344563295","","","","","","","","","","","","75","K","2","","","94","main_expt",""
"","bandit","174","510193","0.0-135.0-0.0","17287899","wem/bandit_either_3","ALF9AAZGQP4K5","either","5","170","","","","","","","1","0","0","0.3701135783","","0.2","0.6","0.4","0.8","","","","","0.03318992591","0.1867575465","0.3701135783","0.5651083109","","","","","","","","75","K","2","","","95","main_expt",""
"","bandit","175","511979","0.0-136.0-0.0","17287899","wem/bandit_either_3","ALF9AAZGQP4K5","either","5","251","","","","","","","1","0","0","0.3430407586","","0.2","0.6","0.4","0.8","","","","","0.03408771876","0.2231999883","0.3430407586","0.5348041914","","","","","","","","75","K","2","","","96","main_expt",""
"","bandit","176","513772","0.0-137.0-0.0","17287899","wem/bandit_either_3","ALF9AAZGQP4K5","either","5","269","","","","","","","0","1","0","","0.2876443713","0.2","0.6","0.4","0.8","0.05013144164","0.2149045243","0.2876443713","0.5627844697","","","","","","","","","","","","75","K","2","","","97","main_expt",""
"","bandit","177","515527","0.0-138.0-0.0","17287899","wem/bandit_either_3","ALF9AAZGQP4K5","either","5","234","","","","","","","0","0","1","0.3310412313","","0.2","0.6","0.4","0.8","","","","","0.03739082544","0.1963416079","0.3310412313","0.6177525637","","","","","","","","75","K","2","","","98","main_expt",""
"","bandit","178","517181","0.0-139.0-0.0","17287899","wem/bandit_either_3","ALF9AAZGQP4K5","either","5","126","","","","","","","1","0","0","0.3893078888","","0.2","0.6","0.4","0.8","","","","","0.1018336486","0.1659387142","0.3893078888","0.7429557604","","","","","","","","75","K","2","","","99","main_expt",""
"","bandit","179","518935","0.0-140.0-0.0","17287899","wem/bandit_either_3","ALF9AAZGQP4K5","either","5","234","","","","","","","1","0","0","0.4049224607","","0.2","0.6","0.4","0.8","","","","","0.1398961818","0.145948344","0.4049224607","0.6717563967","","","","","","","","75","K","2","","","100","main_expt",""
"","bandit","180","520744","0.0-141.0-0.0","17287899","wem/bandit_either_3","ALF9AAZGQP4K5","either","5","285","","","","","","","0","1","0","","0.3259939159","0.2","0.6","0.4","0.8","0.1830356504","0.1366695263","0.3259939159","0.6929666651","","","","","","","","","","","","75","K","2","","","101","main_expt",""
"","bandit","181","522577","0.0-142.0-0.0","17287899","wem/bandit_either_3","ALF9AAZGQP4K5","either","5","312","","","","","","","0","0","1","","0.3598161211","0.2","0.6","0.4","0.8","0.1396005595","0.1543059156","0.3598161211","0.6827494989","","","","","","","","","","","","75","K","2","","","102","main_expt",""
"","bandit","182","524166","0.0-143.0-0.0","17287899","wem/bandit_either_3","ALF9AAZGQP4K5","either","5","70","","","","","","","1","0","0","0.3385951472","","0.2","0.6","0.4","0.8","","","","","0.0853830874","0.1484193465","0.3385951472","0.7315485361","","","","","","","","75","K","2","","","103","main_expt",""
"","bandit","183","525907","0.0-144.0-0.0","17287899","wem/bandit_either_3","ALF9AAZGQP4K5","either","5","223","","","","","","","1","0","0","0.4881545817","","0.2","0.6","0.4","0.8","","","","","0.09317924201","0.1516288854","0.4881545817","0.6852971926","","","","","","","","75","K","2","","","104","main_expt",""
"","bandit","184","527554","0.0-145.0-0.0","17287899","wem/bandit_either_3","ALF9AAZGQP4K5","either","5","126","","","","","","","0","0","1","","0.4790883063","0.2","0.6","0.4","0.8","0.08203708102","0.1283123627","0.4790883063","0.693594393","","","","","","","","","","","","75","K","2","","","105","main_expt",""
"","bandit","185","529293","0.0-146.0-0.0","17287899","wem/bandit_either_3","ALF9AAZGQP4K5","either","5","219","","","","","","","1","0","0","0.4354998123","","0.2","0.6","0.4","0.8","","","","","0.07160056992","0.2016068708","0.4354998123","0.6101065231","","","","","","","","75","K","2","","","106","main_expt",""
"","bandit","186","530962","0.0-147.0-0.0","17287899","wem/bandit_either_3","ALF9AAZGQP4K5","either","5","139","","","","","","","0","0","1","","0.4789065637","0.2","0.6","0.4","0.8","0.09799112372","0.2344181992","0.4789065637","0.5549317608","","","","","","","","","","","","75","K","2","","","107","main_expt",""
"","bandit","187","532719","0.0-148.0-0.0","17287899","wem/bandit_either_3","ALF9AAZGQP4K5","either","5","234","","","","","","","0","1","0","","0.2921896665","0.2","0.6","0.4","0.8","0.1101799882","0.2234564856","0.2921896665","0.5753690117","","","","","","","","","","","","75","K","2","","","108","main_expt",""
"","bandit","188","534408","0.0-149.0-0.0","17287899","wem/bandit_either_3","ALF9AAZGQP4K5","either","5","168","","","","","","","0","0","1","","0.3545905428","0.2","0.6","0.4","0.8","0.07189968831","0.2494485671","0.3545905428","0.5748544728","","","","","","","","","","","","75","K","2","","","109","main_expt",""
"","bandit","189","536122","0.0-150.0-0.0","17287899","wem/bandit_either_3","ALF9AAZGQP4K5","either","5","188","","","","","","","0","1","0","","0.3110769573","0.2","0.6","0.4","0.8","0.06101418375","0.2804015825","0.3110769573","0.6473038793","","","","","","","","","","","","75","K","2","","","110","main_expt",""
"","bandit","190","537894","0.0-151.0-0.0","17287899","wem/bandit_either_3","ALF9AAZGQP4K5","either","5","249","","","","","","","0","0","1","0.3673577619","","0.2","0.6","0.4","0.8","","","","","0.1032726654","0.254644275","0.3673577619","0.6296147118","","","","","","","","75","K","2","","","111","main_expt",""
"","bandit","191","539473","0.0-152.0-0.0","17287899","wem/bandit_either_3","ALF9AAZGQP4K5","either","5","58","","","","","","","0","0","1","0.3439961468","","0.2","0.6","0.4","0.8","","","","","0.1061240248","0.2686709136","0.3439961468","0.6174722021","","","","","","","","75","K","2","","","112","main_expt",""
"","bandit","192","541250","0.0-153.0-0.0","17287899","wem/bandit_either_3","ALF9AAZGQP4K5","either","5","258","","","","","","","0","0","1","","0.3389202036","0.2","0.6","0.4","0.8","0.1150632514","0.3211503982","0.3389202036","0.7467975424","","","","","","","","","","","","75","K","2","","","113","main_expt",""
"","bandit","193","542930","0.0-154.0-0.0","17287899","wem/bandit_either_3","ALF9AAZGQP4K5","either","5","156","","","","","","","0","0","1","0.3067152309","","0.2","0.6","0.4","0.8","","","","","0.1491479201","0.3067152309","0.3122185675","0.7797220863","","","","","","","","74","J","1","","","114","main_expt",""
"","bandit","194","544532","0.0-155.0-0.0","17287899","wem/bandit_either_3","ALF9AAZGQP4K5","either","5","80","","","","","","","0","0","1","","0.08304421353","0.2","0.6","0.4","0.8","0.08304421353","0.3274584286","0.2431064996","0.8152411921","","","","","","","","","","","","72","H","0","img/none_selected.jpg","","115","main_expt",""
"","bandit","195","546117","0.0-156.0-0.0","17287899","wem/bandit_either_3","ALF9AAZGQP4K5","either","5","65","","","","","","","0","0","1","0.7362727539","","0.2","0.6","0.4","0.8","","","","","0.1391191417","0.2491959293","0.2225404561","0.7362727539","","","","","","","","76","L","3","","","116","main_expt",""
"","bandit","196","547949","0.0-157.0-0.0","17287899","wem/bandit_either_3","ALF9AAZGQP4K5","either","5","312","","","","","","","0","0","1","0.2891792411","","0.2","0.6","0.4","0.8","","","","","0.1689833708","0.1425156065","0.2891792411","0.7051771602","","","","","","","","75","K","2","","","117","main_expt",""
"","bandit","197","549621","0.0-158.0-0.0","17287899","wem/bandit_either_3","ALF9AAZGQP4K5","either","5","153","","","","","","","0","0","1","0.1550025764","","0.2","0.6","0.4","0.8","","","","","0.1341186766","0.1550025764","0.3147139712","0.7099604309","","","","","","","","74","J","1","","","118","main_expt",""
"","bandit","198","551339","0.0-159.0-0.0","17287899","wem/bandit_either_3","ALF9AAZGQP4K5","either","5","197","","","","","","","0","0","1","","0.1211065448","0.2","0.6","0.4","0.8","0.1211065448","0.1733664784","0.4890071061","0.6633752461","","","","","","","","","","","","72","H","0","img/none_selected.jpg","","119","main_expt",""
"","bandit","199","553158","0.0-160.0-0.0","17287899","wem/bandit_either_3","ALF9AAZGQP4K5","either","5","294","","","","","","","1","0","0","0.6748815414","","0.2","0.6","0.4","0.8","","","","","0.1317257861","0.2091577514","0.5238994176","0.6748815414","","","","","","","","76","L","3","","","120","main_expt",""
"","bandit","200","554968","0.0-161.0-0.0","17287899","wem/bandit_either_3","ALF9AAZGQP4K5","either","5","287","","","","","","","1","0","0","0.694041989","","0.2","0.6","0.4","0.8","","","","","0.08851148741","0.2038206067","0.4821854017","0.694041989","","","","","","","","76","L","3","","","121","main_expt",""
"","bandit","201","556727","0.0-162.0-0.0","17287899","wem/bandit_either_3","ALF9AAZGQP4K5","either","5","235","","","","","","","1","0","0","0.7808088803","","0.2","0.6","0.4","0.8","","","","","0.1313095228","0.1646827865","0.5695824443","0.7808088803","","","","","","","","76","L","3","","","122","main_expt",""
"","bandit","202","558625","0.0-163.0-0.0","17287899","wem/bandit_either_3","ALF9AAZGQP4K5","either","5","372","","","","","","","0","1","0","","0.7513243775","0.2","0.6","0.4","0.8","0.1990721176","0.08951947698","0.5884468641","0.7513243775","","","","","","","","","","","","76","L","3","","","123","main_expt",""
"","bandit","203","560354","0.0-164.0-0.0","17287899","wem/bandit_either_3","ALF9AAZGQP4K5","either","5","208","","","","","","","1","0","0","0.7095593687","","0.2","0.6","0.4","0.8","","","","","0.3510587203","0.09676311751","0.6578864121","0.7095593687","","","","","","","","76","L","3","","","124","main_expt",""
"","bandit","204","562083","0.0-165.0-0.0","17287899","wem/bandit_either_3","ALF9AAZGQP4K5","either","5","205","","","","","","","1","0","0","0.6464373278","","0.2","0.6","0.4","0.8","","","","","0.2829787335","0.08914634913","0.6610648035","0.6464373278","","","","","","","","76","L","3","","","125","main_expt",""
"","bandit","205","563787","0.0-166.0-0.0","17287899","wem/bandit_either_3","ALF9AAZGQP4K5","either","5","184","","","","","","","1","0","0","0.69855693","","0.2","0.6","0.4","0.8","","","","","0.3253732313","0.1104844084","0.6745370829","0.69855693","","","","","","","","76","L","3","","","126","main_expt",""
"","bandit","206","565599","0.0-167.0-0.0","17287899","wem/bandit_either_3","ALF9AAZGQP4K5","either","5","289","","","","","","","1","0","0","0.6394960802","","0.2","0.6","0.4","0.8","","","","","0.2969307539","0.1302598269","0.6357656308","0.6394960802","","","","","","","","76","L","3","","","127","main_expt",""
"","bandit","207","567389","0.0-168.0-0.0","17287899","wem/bandit_either_3","ALF9AAZGQP4K5","either","5","269","","","","","","","1","0","0","0.5912569563","","0.2","0.6","0.4","0.8","","","","","0.3862322559","0.1739983423","0.6746479632","0.5912569563","","","","","","","","76","L","3","","","128","main_expt",""
"","bandit","208","568949","0.0-169.0-0.0","17287899","wem/bandit_either_3","ALF9AAZGQP4K5","either","5","36","","","","","","","0","1","0","","0.6408154383","0.2","0.6","0.4","0.8","0.3399993615","0.2144078185","0.609360971","0.6408154383","","","","","","","","","","","","76","L","3","","","129","main_expt",""
"","bandit","209","570785","0.0-170.0-0.0","17287899","wem/bandit_either_3","ALF9AAZGQP4K5","either","5","317","","","","","","","1","0","0","0.6160079471","","0.2","0.6","0.4","0.8","","","","","0.4343217783","0.2133227205","0.5791775941","0.6160079471","","","","","","","","76","L","3","","","130","main_expt",""
"","bandit","210","572514","0.0-171.0-0.0","17287899","wem/bandit_either_3","ALF9AAZGQP4K5","either","5","204","","","","","","","0","0","1","0.6639311205","","0.2","0.6","0.4","0.8","","","","","0.4116870082","0.3009586135","0.6039133906","0.6639311205","","","","","","","","76","L","3","","","131","main_expt",""
"","bandit","211","574094","0.0-172.0-0.0","17287899","wem/bandit_either_3","ALF9AAZGQP4K5","either","5","59","","","","","","","0","1","0","","0.7314418876","0.2","0.6","0.4","0.8","0.3235444519","0.3257006372","0.5564977279","0.7314418876","","","","","","","","","","","","76","L","3","","","132","main_expt",""
"","bandit","212","575682","0.0-173.0-0.0","17287899","wem/bandit_either_3","ALF9AAZGQP4K5","either","5","66","","","","","","","1","0","0","0.7343064015","","0.2","0.6","0.4","0.8","","","","","0.4204005917","0.3286432436","0.5453182718","0.7343064015","","","","","","","","76","L","3","","","133","main_expt",""
"","bandit","213","577398","0.0-174.0-0.0","17287899","wem/bandit_either_3","ALF9AAZGQP4K5","either","5","190","","","","","","","1","0","0","0.6345074403","","0.2","0.6","0.4","0.8","","","","","0.5326734174","0.3343575241","0.5557967555","0.6345074403","","","","","","","","76","L","3","","","134","main_expt",""
"","bandit","214","579034","0.0-175.0-0.0","17287899","wem/bandit_either_3","ALF9AAZGQP4K5","either","5","107","","","","","","","1","0","0","0.752921597","","0.2","0.6","0.4","0.8","","","","","0.6096825818","0.2917270645","0.5719827955","0.752921597","","","","","","","","76","L","3","","","135","main_expt",""
"","bandit","215","580617","0.0-176.0-0.0","17287899","wem/bandit_either_3","ALF9AAZGQP4K5","either","5","62","","","","","","","1","0","0","0.7642539739","","0.2","0.6","0.4","0.8","","","","","0.6827328332","0.3972485531","0.4756276611","0.7642539739","","","","","","","","76","L","3","","","136","main_expt",""
"","bandit","216","582385","0.0-177.0-0.0","17287899","wem/bandit_either_3","ALF9AAZGQP4K5","either","5","245","","","","","","","1","0","0","0.7166238274","","0.2","0.6","0.4","0.8","","","","","0.6604068036","0.4294090248","0.5078949877","0.7166238274","","","","","","","","76","L","3","","","137","main_expt",""
"","bandit","217","584123","0.0-178.0-0.0","17287899","wem/bandit_either_3","ALF9AAZGQP4K5","either","5","216","","","","","","","1","0","0","0.713549589","","0.2","0.6","0.4","0.8","","","","","0.653661868","0.5009988565","0.4938131475","0.713549589","","","","","","","","76","L","3","","","138","main_expt",""
"","bandit","218","586040","0.0-179.0-0.0","17287899","wem/bandit_either_3","ALF9AAZGQP4K5","either","5","394","","","","","","","0","0","1","","0.6905374229","0.2","0.6","0.4","0.8","0.6169918179","0.4993746949","0.654612375","0.6905374229","","","","","","","","","","","","76","L","3","","","139","main_expt",""
"","bandit","219","588173","0.0-180.0-0.0","17287899","wem/bandit_either_3","ALF9AAZGQP4K5","either","5","604","","","","","","","0","0","1","","0.6614813372","0.2","0.6","0.4","0.8","0.6657435074","0.5448973659","0.52663091","0.6614813372","","","","","","","","","","","","76","L","3","","","140","main_expt",""
"","bandit","220","589974","0.0-181.0-0.0","17287899","wem/bandit_either_3","ALF9AAZGQP4K5","either","5","276","","","","","","","1","0","0","0.7024355817","","0.2","0.6","0.4","0.8","","","","","0.6349341703","0.4829720837","0.5976356642","0.7024355817","","","","","","","","76","L","3","","","141","main_expt",""
"","bandit","221","591780","0.0-182.0-0.0","17287899","wem/bandit_either_3","ALF9AAZGQP4K5","either","5","284","","","","","","","1","0","0","0.7185929435","","0.2","0.6","0.4","0.8","","","","","0.6379356982","0.5402580016","0.5956183516","0.7185929435","","","","","","","","76","L","3","","","142","main_expt",""
"","bandit","222","593570","0.0-183.0-0.0","17287899","wem/bandit_either_3","ALF9AAZGQP4K5","either","5","268","","","","","","","0","1","0","","0.6240660549","0.2","0.6","0.4","0.8","0.6022688156","0.5478015274","0.6432894639","0.6240660549","","","","","","","","","","","","76","L","3","","","143","main_expt",""
"","bandit","223","595325","0.0-184.0-0.0","17287899","wem/bandit_either_3","ALF9AAZGQP4K5","either","5","235","","","","","","","1","0","0","0.5797935966","","0.2","0.6","0.4","0.8","","","","","0.5806731621","0.5189832842","0.6691106198","0.5797935966","","","","","","","","76","L","3","","","144","main_expt",""
"","bandit","224","597185","0.0-185.0-0.0","17287899","wem/bandit_either_3","ALF9AAZGQP4K5","either","5","336","","","","","","","1","0","0","0.520403766","","0.2","0.6","0.4","0.8","","","","","0.5512406412","0.4556604905","0.677031803","0.520403766","","","","","","","","76","L","3","","","145","main_expt",""
"","bandit","225","598954","0.0-186.0-0.0","17287899","wem/bandit_either_3","ALF9AAZGQP4K5","either","5","241","","","","","","","0","0","1","0.5330345992","","0.2","0.6","0.4","0.8","","","","","0.6055708535","0.48011385","0.6697886415","0.5330345992","","","","","","","","76","L","3","","","146","main_expt",""
"","bandit","226","600591","0.0-187.0-0.0","17287899","wem/bandit_either_3","ALF9AAZGQP4K5","either","5","111","","","","","","","0","0","1","","0.5692896821","0.2","0.6","0.4","0.8","0.5711328773","0.5363471167","0.7101623398","0.5692896821","","","","","","","","","","","","76","L","3","","","147","main_expt",""
"","bandit","227","602461","0.0-188.0-0.0","17287899","wem/bandit_either_3","ALF9AAZGQP4K5","either","5","350","","","","","","","0","0","1","","0.4877368026","0.2","0.6","0.4","0.8","0.4258462921","0.4929714004","0.733230793","0.4877368026","","","","","","","","","","","","76","L","3","","","148","main_expt",""
"","bandit","228","604215","0.0-189.0-0.0","17287899","wem/bandit_either_3","ALF9AAZGQP4K5","either","5","229","","","","","","","0","0","1","0.5936336812","","0.2","0.6","0.4","0.8","","","","","0.327967402","0.4356177925","0.7010449773","0.5936336812","","","","","","","","76","L","3","","","149","main_expt",""
"","bandit","229","605916","0.0-190.0-0.0","17287899","wem/bandit_either_3","ALF9AAZGQP4K5","either","5","182","","","","","","","0","0","1","0.4054894896","","0.2","0.6","0.4","0.8","","","","","0.4343474627","0.4054894896","0.6668672445","0.7027445866","","","","","","","","74","J","1","","","150","main_expt",""
"","bandit","230","607757","0.0-191.0-0.0","17287899","wem/bandit_either_3","ALF9AAZGQP4K5","either","5","318","","","","","","","0","0","1","","0.5382828223","0.2","0.6","0.4","0.8","0.5382828223","0.5283130311","0.5612636021","0.7690633033","","","","","","","","","","","","72","H","0","img/none_selected.jpg","","151","main_expt",""
"","bandit","231","609509","0.0-192.0-0.0","17287899","wem/bandit_either_3","ALF9AAZGQP4K5","either","5","223","","","","","","","1","0","0","0.7032448324","","0.2","0.6","0.4","0.8","","","","","0.6572277468","0.6323123958","0.7032448324","0.5989969619","","","","","","","","75","K","2","","","152","main_expt",""
"","bandit","232","611147","0.0-193.0-0.0","17287899","wem/bandit_either_3","ALF9AAZGQP4K5","either","5","115","","","","","","","0","0","1","0.6918543646","","0.2","0.6","0.4","0.8","","","","","0.668560183","0.5847243132","0.6918543646","0.6126787421","","","","","","","","75","K","2","","","153","main_expt",""
"","bandit","233","612911","0.0-194.0-0.0","17287899","wem/bandit_either_3","ALF9AAZGQP4K5","either","5","244","","","","","","","0","0","1","0.647195156","","0.2","0.6","0.4","0.8","","","","","0.6954524596","0.4285456013","0.647195156","0.5461115941","","","","","","","","75","K","2","","","154","main_expt",""
"","bandit","234","614766","0.0-195.0-0.0","17287899","wem/bandit_either_3","ALF9AAZGQP4K5","either","5","327","","","","","","","0","1","0","","0.4772645207","0.2","0.6","0.4","0.8","0.5684527538","0.4772645207","0.6135998722","0.5456348337","","","","","","","","","","","","74","J","1","","","155","main_expt",""
"","bandit","235","616571","0.0-196.0-0.0","17287899","wem/bandit_either_3","ALF9AAZGQP4K5","either","5","275","","","","","","","1","0","0","0.4982711843","","0.2","0.6","0.4","0.8","","","","","0.6034375159","0.4982711843","0.5591033916","0.4782917504","","","","","","","","74","J","1","","","156","main_expt",""
"","bandit","236","618385","0.0-197.0-0.0","17287899","wem/bandit_either_3","ALF9AAZGQP4K5","either","5","287","","","","","","","0","0","1","","0.5275183668","0.2","0.6","0.4","0.8","0.5835723018","0.5275183668","0.5090787948","0.4868537485","","","","","","","","","","","","74","J","1","","","157","main_expt",""
"","bandit","237","619988","0.0-198.0-0.0","17287899","wem/bandit_either_3","ALF9AAZGQP4K5","either","5","81","","","","","","","0","0","1","","0.4489423754","0.2","0.6","0.4","0.8","0.5234712835","0.4489423754","0.6087372924","0.5361642224","","","","","","","","","","","","74","J","1","","","158","main_expt",""
"","bandit","238","622088","0.0-199.0-0.0","17287899","wem/bandit_either_3","ALF9AAZGQP4K5","either","5","574","","","","","","","0","0","1","0.4933275403","","0.2","0.6","0.4","0.8","","","","","0.5636881177","0.4933275403","0.6064578463","0.4947944436","","","","","","","","74","J","1","","","159","main_expt",""
"","bandit","239","623886","0.0-200.0-0.0","17287899","wem/bandit_either_3","ALF9AAZGQP4K5","either","5","270","","","","","","","0","1","0","","0.4521998099","0.2","0.6","0.4","0.8","0.4785340868","0.4521998099","0.6951258233","0.5106889885","","","","","","","","","","","","74","J","1","","","160","main_expt",""
"","bandit","240","625694","0.0-201.0-0.0","17287899","wem/bandit_either_3","ALF9AAZGQP4K5","either","5","282","","","","","","","1","0","0","0.5114636712","","0.2","0.6","0.4","0.8","","","","","0.5038962889","0.5114636712","0.7129510734","0.4566704777","","","","","","","","74","J","1","","","161","main_expt",""
"","bandit","241","627484","0.0-202.0-0.0","17287899","wem/bandit_either_3","ALF9AAZGQP4K5","either","5","271","","","","","","","0","0","1","0.5242674757","","0.2","0.6","0.4","0.8","","","","","0.4448395692","0.5242674757","0.7028034005","0.3259271754","","","","","","","","74","J","1","","","162","main_expt",""
"","bandit","242","629126","0.0-203.0-0.0","17287899","wem/bandit_either_3","ALF9AAZGQP4K5","either","5","111","","","","","","","0","1","0","","0.5687322637","0.2","0.6","0.4","0.8","0.471982621","0.5687322637","0.6293758899","0.2806734392","","","","","","","","","","","","74","J","1","","","163","main_expt",""
"","bandit","243","630966","0.0-204.0-0.0","17287899","wem/bandit_either_3","ALF9AAZGQP4K5","either","5","315","","","","","","","0","1","0","","0.5635146256","0.2","0.6","0.4","0.8","0.6517066897","0.5635146256","0.6813427096","0.2973163189","","","","","","","","","","","","74","J","1","","","164","main_expt",""
"","bandit","244","632697","0.0-205.0-0.0","17287899","wem/bandit_either_3","ALF9AAZGQP4K5","either","5","210","","","","","","","1","0","0","0.6588968294","","0.2","0.6","0.4","0.8","","","","","0.6339143586","0.6588968294","0.7231406025","0.2872552927","","","","","","","","74","J","1","","","165","main_expt",""
"","bandit","245","634441","0.0-206.0-0.0","17287899","wem/bandit_either_3","ALF9AAZGQP4K5","either","5","223","","","","","","","1","0","0","0.74872254","","0.2","0.6","0.4","0.8","","","","","0.6507743373","0.74872254","0.6274448994","0.325395791","","","","","","","","74","J","1","","","166","main_expt",""
"","bandit","246","636243","0.0-207.0-0.0","17287899","wem/bandit_either_3","ALF9AAZGQP4K5","either","5","277","","","","","","","0","0","1","","0.7741304825","0.2","0.6","0.4","0.8","0.6753437353","0.7741304825","0.6778384319","0.3307719744","","","","","","","","","","","","74","J","1","","","167","main_expt",""
"","bandit","247","637895","0.0-208.0-0.0","17287899","wem/bandit_either_3","ALF9AAZGQP4K5","either","5","129","","","","","","","0","1","0","","0.8873722237","0.2","0.6","0.4","0.8","0.6308788189","0.8873722237","0.6928942004","0.4033689778","","","","","","","","","","","","74","J","1","","","168","main_expt",""
"","bandit","248","639755","0.0-209.0-0.0","17287899","wem/bandit_either_3","ALF9AAZGQP4K5","either","5","336","","","","","","","0","0","1","","0.8649989169","0.2","0.6","0.4","0.8","0.6289357746","0.8649989169","0.6181376835","0.4089274666","","","","","","","","","","","","74","J","1","","","169","main_expt",""
"","bandit","249","641389","0.0-210.0-0.0","17287899","wem/bandit_either_3","ALF9AAZGQP4K5","either","5","109","","","","","","","1","0","0","0.8634323334","","0.2","0.6","0.4","0.8","","","","","0.6308829817","0.8634323334","0.6539136718","0.4033631647","","","","","","","","74","J","1","","","170","main_expt",""
"","bandit","250","643185","0.0-211.0-0.0","17287899","wem/bandit_either_3","ALF9AAZGQP4K5","either","5","273","","","","","","","0","0","1","","0.8050812792","0.2","0.6","0.4","0.8","0.6008061885","0.8050812792","0.7935188527","0.3743415885","","","","","","","","","","","","74","J","1","","","171","main_expt",""
"","bandit","251","644847","0.0-212.0-0.0","17287899","wem/bandit_either_3","ALF9AAZGQP4K5","either","5","138","","","","","","","1","0","0","0.7635000848","","0.2","0.6","0.4","0.8","","","","","0.6498855282","0.7635000848","0.7959482017","0.4145867416","","","","","","","","74","J","1","","","172","main_expt",""
"","bandit","252","646626","0.0-213.0-0.0","17287899","wem/bandit_either_3","ALF9AAZGQP4K5","either","5","258","","","","","","","1","0","0","0.7793560846","","0.2","0.6","0.4","0.8","","","","","0.6361658802","0.7793560846","0.7720377381","0.4421490518","","","","","","","","74","J","1","","","173","main_expt",""
"","bandit","253","648523","0.0-214.0-0.0","17287899","wem/bandit_either_3","ALF9AAZGQP4K5","either","5","375","","","","","","","1","0","0","0.7290013271","","0.2","0.6","0.4","0.8","","","","","0.5494915933","0.7290013271","0.7751150559","0.373112653","","","","","","","","74","J","1","","","174","main_expt",""
"","bandit","254","650336","0.0-215.0-0.0","17287899","wem/bandit_either_3","ALF9AAZGQP4K5","either","5","292","","","","","","","0","0","1","0.8353873757","","0.2","0.6","0.4","0.8","","","","","0.6292002022","0.8353873757","0.7699246652","0.372221374","","","","","","","","74","J","1","","","175","main_expt",""
"","bandit","255","651998","0.0-216.0-0.0","17287899","wem/bandit_either_3","ALF9AAZGQP4K5","either","5","130","","","","","","","0","1","0","","0.8589437223","0.2","0.6","0.4","0.8","0.4999600136","0.8589437223","0.8092821718","0.3594456443","","","","","","","","","","","","74","J","1","","","176","main_expt",""
"","bandit","256","653815","0.0-217.0-0.0","17287899","wem/bandit_either_3","ALF9AAZGQP4K5","either","5","286","","","","","","","1","0","0","0.8824379228","","0.2","0.6","0.4","0.8","","","","","0.4500304274","0.8824379228","0.7728258073","0.3705823864","","","","","","","","74","J","1","","","177","main_expt",""
"","bandit","257","655595","0.0-218.0-0.0","17287899","wem/bandit_either_3","ALF9AAZGQP4K5","either","5","259","","","","","","","0","1","0","","0.8862787626","0.2","0.6","0.4","0.8","0.4626099748","0.8862787626","0.8128952128","0.3042584581","","","","","","","","","","","","74","J","1","","","178","main_expt",""
"","bandit","258","657399","0.0-219.0-0.0","17287899","wem/bandit_either_3","ALF9AAZGQP4K5","either","5","279","","","","","","","0","1","0","","0.8851661012","0.2","0.6","0.4","0.8","0.3074659707","0.8851661012","0.7878088044","0.3056645996","","","","","","","","","","","","74","J","1","","","179","main_expt",""
"","bandit","259","659372","0.0-220.0-0.0","17287899","wem/bandit_either_3","ALF9AAZGQP4K5","either","5","447","","","","","","","0","1","0","","0.8623840347","0.2","0.6","0.4","0.8","0.2445312817","0.8623840347","0.7626215198","0.3124458775","","","","","","","","","","","","74","J","1","","","180","main_expt",""
"","bandit","260","662181","0.0-221.0-0.0","17287899","wem/bandit_either_3","ALF9AAZGQP4K5","either","5","1273","","","","","","","0","0","1","","0.8815853427","0.2","0.6","0.4","0.8","0.2284870313","0.8815853427","0.7059637017","0.2597333415","","","","","","","","","","","","74","J","1","","","181","main_expt",""
"","bandit","261","663821","0.0-222.0-0.0","17287899","wem/bandit_either_3","ALF9AAZGQP4K5","either","5","116","","","","","","","1","0","0","0.8955826305","","0.2","0.6","0.4","0.8","","","","","0.2195648065","0.8955826305","0.6691747745","0.2117009826","","","","","","","","74","J","1","","","182","main_expt",""
"","bandit","262","665617","0.0-223.0-0.0","17287899","wem/bandit_either_3","ALF9AAZGQP4K5","either","5","271","","","","","","","1","0","0","0.9362873759","","0.2","0.6","0.4","0.8","","","","","0.2327716204","0.9362873759","0.5523838876","0.2327762041","","","","","","","","74","J","1","","","183","main_expt",""
"","bandit","263","667500","0.0-224.0-0.0","17287899","wem/bandit_either_3","ALF9AAZGQP4K5","either","5","360","","","","","","","0","1","0","","0.9484326647","0.2","0.6","0.4","0.8","0.3207903029","0.9484326647","0.5451875246","0.2750618684","","","","","","","","","","","","74","J","1","","","184","main_expt",""
"","bandit","264","669312","0.0-225.0-0.0","17287899","wem/bandit_either_3","ALF9AAZGQP4K5","either","5","286","","","","","","","1","0","0","0.9660783121","","0.2","0.6","0.4","0.8","","","","","0.3609723674","0.9660783121","0.6090771744","0.2305846964","","","","","","","","74","J","1","","","185","main_expt",""
"","bandit","265","671381","0.0-226.0-0.0","17287899","wem/bandit_either_3","ALF9AAZGQP4K5","either","5","542","","","","","","","1","0","0","0.9665376101","","0.2","0.6","0.4","0.8","","","","","0.4442397518","0.9665376101","0.5810996076","0.2597669424","","","","","","","","74","J","1","","","186","main_expt",""
"","bandit","266","673550","0.0-227.0-0.0","17287899","wem/bandit_either_3","ALF9AAZGQP4K5","either","5","643","","","","","","","0","1","0","","0.9644184371","0.2","0.6","0.4","0.8","0.4478442549","0.9644184371","0.4445572548","0.2143742246","","","","","","","","","","","","74","J","1","","","187","main_expt",""
"","bandit","267","675836","0.0-228.0-0.0","17287899","wem/bandit_either_3","ALF9AAZGQP4K5","either","5","758","","","","","","","1","0","0","0.9731237162","","0.2","0.6","0.4","0.8","","","","","0.4026396634","0.9731237162","0.4113554433","0.2294707647","","","","","","","","74","J","1","","","188","main_expt",""
"","bandit","268","678032","0.0-229.0-0.0","17287899","wem/bandit_either_3","ALF9AAZGQP4K5","either","5","668","","","","","","","0","1","0","","0.9787475226","0.2","0.6","0.4","0.8","0.5072589837","0.9787475226","0.4053553249","0.2469430613","","","","","","","","","","","","74","J","1","","","189","main_expt",""
"","bandit","269","680396","0.0-230.0-0.0","17287899","wem/bandit_either_3","ALF9AAZGQP4K5","either","5","838","","","","","","","1","0","0","0.9847816181","","0.2","0.6","0.4","0.8","","","","","0.5234843415","0.9847816181","0.4927633492","0.2437728268","","","","","","","","74","J","1","","","190","main_expt",""
"","bandit","270","682226","0.0-231.0-0.0","17287899","wem/bandit_either_3","ALF9AAZGQP4K5","either","5","305","","","","","","","1","0","0","0.9713064587","","0.2","0.6","0.4","0.8","","","","","0.5054414672","0.9713064587","0.428678546","0.1655579887","","","","","","","","74","J","1","","","191","main_expt",""
"","bandit","271","684277","0.0-232.0-0.0","17287899","wem/bandit_either_3","ALF9AAZGQP4K5","either","5","523","","","","","","","1","0","0","0.9558555722","","0.2","0.6","0.4","0.8","","","","","0.7037613703","0.9558555722","0.3358015867","0.1501427492","","","","","","","","74","J","1","","","192","main_expt",""
"","bandit","272","686418","0.0-233.0-0.0","17287899","wem/bandit_either_3","ALF9AAZGQP4K5","either","5","618","","","","","","","0","1","0","","0.9443800135","0.2","0.6","0.4","0.8","0.5980286963","0.9443800135","0.2816430679","0.2062706367","","","","","","","","","","","","74","J","1","","","193","main_expt",""
"","bandit","273","688241","0.0-234.0-0.0","17287899","wem/bandit_either_3","ALF9AAZGQP4K5","either","5","299","","","","","","","1","0","0","0.947825408","","0.2","0.6","0.4","0.8","","","","","0.5607231578","0.947825408","0.2951519504","0.2782937815","","","","","","","","74","J","1","","","194","main_expt",""
"","bandit","274","690253","0.0-235.0-0.0","17287899","wem/bandit_either_3","ALF9AAZGQP4K5","either","5","488","","","","","","","1","0","0","0.9531013361","","0.2","0.6","0.4","0.8","","","","","0.6222063369","0.9531013361","0.2482291913","0.2393938873","","","","","","","","74","J","1","","","195","main_expt",""
"","bandit","275","692633","0.0-236.0-0.0","17287899","wem/bandit_either_3","ALF9AAZGQP4K5","either","5","856","","","","","","","0","1","0","","0.9653581558","0.2","0.6","0.4","0.8","0.7092042058","0.9653581558","0.2548661126","0.3385483064","","","","","","","","","","","","74","J","1","","","196","main_expt",""
"","bandit","276","694958","0.0-237.0-0.0","17287899","wem/bandit_either_3","ALF9AAZGQP4K5","either","5","804","","","","","","","1","0","0","0.9774234012","","0.2","0.6","0.4","0.8","","","","","0.7397780251","0.9774234012","0.2789697966","0.3474357388","","","","","","","","74","J","1","","","197","main_expt",""
"","bandit","277","696980","0.0-238.0-0.0","17287899","wem/bandit_either_3","ALF9AAZGQP4K5","either","5","499","","","","","","","0","1","0","","0.9866112083","0.2","0.6","0.4","0.8","0.6977166648","0.9866112083","0.2893473624","0.4511600961","","","","","","","","","","","","74","J","1","","","198","main_expt",""
"","bandit","278","698919","0.0-239.0-0.0","17287899","wem/bandit_either_3","ALF9AAZGQP4K5","either","5","413","","","","","","","0","1","0","","0.9889390623","0.2","0.6","0.4","0.8","0.591703898","0.9889390623","0.2499124536","0.4387406867","","","","","","","","","","","","74","J","1","","","199","main_expt",""
"","bandit","279","701247","0.0-240.0-0.0","17287899","wem/bandit_either_3","ALF9AAZGQP4K5","either","5","803","","","","","","","1","0","0","0.9894921125","","0.2","0.6","0.4","0.8","","","","","0.5107967375","0.9894921125","0.2643429758","0.4368135332","","","","","","","","74","J","1","","","200","main_expt",""
"","bandit","280","703828","0.0-241.0-0.0","17287899","wem/bandit_either_3","ALF9AAZGQP4K5","either","5","1057","","","","","","","1","0","0","0.989248002","","0.2","0.6","0.4","0.8","","","","","0.6528148869","0.989248002","0.2382870841","0.3070084091","","","","","","","","74","J","1","","","201","main_expt",""
"","bandit","281","706348","0.0-242.0-0.0","17287899","wem/bandit_either_3","ALF9AAZGQP4K5","either","5","994","","","","","","","1","0","0","0.9957983392","","0.2","0.6","0.4","0.8","","","","","0.6892998309","0.9957983392","0.1604624283","0.3603585946","","","","","","","","74","J","1","","","202","main_expt",""
"","bandit","282","708687","0.0-243.0-0.0","17287899","wem/bandit_either_3","ALF9AAZGQP4K5","either","5","811","","","","","","","0","1","0","","0.9958893","0.2","0.6","0.4","0.8","0.6989476798","0.9958893","0.1407610566","0.260320329","","","","","","","","","","","","74","J","1","","","203","main_expt",""
"","bandit","283","710551","0.0-244.0-0.0","17287899","wem/bandit_either_3","ALF9AAZGQP4K5","either","5","333","","","","","","","0","1","0","","0.9955962674","0.2","0.6","0.4","0.8","0.772264117","0.9955962674","0.1343245238","0.2003029851","","","","","","","","","","","","74","J","1","","","204","main_expt",""
"","bandit","284","712616","0.0-245.0-0.0","17287899","wem/bandit_either_3","ALF9AAZGQP4K5","either","5","534","","","","","","","0","1","0","","0.9943432705","0.2","0.6","0.4","0.8","0.7366863645","0.9943432705","0.1715400642","0.1922312923","","","","","","","","","","","","74","J","1","","","205","main_expt",""
"","bandit","285","714490","0.0-246.0-0.0","17287899","wem/bandit_either_3","ALF9AAZGQP4K5","either","5","347","","","","","","","1","0","0","0.9982320458","","0.2","0.6","0.4","0.8","","","","","0.7477287432","0.9982320458","0.117617648","0.1936085521","","","","","","","","74","J","1","","","206","main_expt",""
"","bandit","286","716563","0.0-247.0-0.0","17287899","wem/bandit_either_3","ALF9AAZGQP4K5","either","5","550","","","","","","","1","0","0","0.9976530308","","0.2","0.6","0.4","0.8","","","","","0.8185776196","0.9976530308","0.1182717864","0.1821705986","","","","","","","","74","J","1","","","207","main_expt",""
"","bandit","287","718381","0.0-248.0-0.0","17287899","wem/bandit_either_3","ALF9AAZGQP4K5","either","5","292","","","","","","","0","1","0","","0.9961811318","0.2","0.6","0.4","0.8","0.8161769506","0.9961811318","0.1445047472","0.1145050302","","","","","","","","","","","","74","J","1","","","208","main_expt",""
"","bandit","288","720216","0.0-249.0-0.0","17287899","wem/bandit_either_3","ALF9AAZGQP4K5","either","5","310","","","","","","","0","1","0","","0.9977639941","0.2","0.6","0.4","0.8","0.8224464957","0.9977639941","0.1264159314","0.1206637037","","","","","","","","","","","","74","J","1","","","209","main_expt",""
"","bandit","289","722016","0.0-250.0-0.0","17287899","wem/bandit_either_3","ALF9AAZGQP4K5","either","5","276","","","","","","","0","1","0","","0.9953783407","0.2","0.6","0.4","0.8","0.7392866018","0.9953783407","0.1208777168","0.1422927172","","","","","","","","","","","","74","J","1","","","210","main_expt",""
"","bandit","290","724013","0.0-251.0-0.0","17287899","wem/bandit_either_3","ALF9AAZGQP4K5","either","5","472","","","","","","","1","0","0","0.9976351195","","0.2","0.6","0.4","0.8","","","","","0.7125411919","0.9976351195","0.1733448518","0.1811219169","","","","","","","","74","J","1","","","211","main_expt",""
"","bandit","291","726312","0.0-252.0-0.0","17287899","wem/bandit_either_3","ALF9AAZGQP4K5","either","5","776","","","","","","","1","0","0","0.9983589292","","0.2","0.6","0.4","0.8","","","","","0.7191881067","0.9983589292","0.1085262221","0.1982527665","","","","","","","","74","J","1","","","212","main_expt",""
"","bandit","292","728451","0.0-253.0-0.0","17287899","wem/bandit_either_3","ALF9AAZGQP4K5","either","5","614","","","","","","","0","1","0","","0.9960427138","0.2","0.6","0.4","0.8","0.7523845147","0.9960427138","0.08145678985","0.124448309","","","","","","","","","","","","74","J","1","","","213","main_expt",""
"","bandit","293","730322","0.0-254.0-0.0","17287899","wem/bandit_either_3","ALF9AAZGQP4K5","either","5","337","","","","","","","0","1","0","","0.9924650588","0.2","0.6","0.4","0.8","0.7193420906","0.9924650588","0.05725631888","0.1036015692","","","","","","","","","","","","74","J","1","","","214","main_expt",""
"","bandit","294","732353","0.0-255.0-0.0","17287899","wem/bandit_either_3","ALF9AAZGQP4K5","either","5","504","","","","","","","1","0","0","0.9858211903","","0.2","0.6","0.4","0.8","","","","","0.6784461291","0.9858211903","0.04356988172","0.14458031","","","","","","","","74","J","1","","","215","main_expt",""
"","bandit","295","734135","0.0-256.0-0.0","17287899","wem/bandit_either_3","ALF9AAZGQP4K5","either","5","252","","","","","","","1","0","0","0.9915289077","","0.2","0.6","0.4","0.8","","","","","0.5658185063","0.9915289077","0.04316154837","0.2094876981","","","","","","","","74","J","1","","","216","main_expt",""
"","bandit","296","735935","0.0-257.0-0.0","17287899","wem/bandit_either_3","ALF9AAZGQP4K5","either","5","275","","","","","","","0","1","0","","0.9929544916","0.2","0.6","0.4","0.8","0.4886301847","0.9929544916","0.03453558383","0.24936904","","","","","","","","","","","","74","J","1","","","217","main_expt",""
"","bandit","297","737721","0.0-258.0-0.0","17287899","wem/bandit_either_3","ALF9AAZGQP4K5","either","5","260","","","","","","","1","0","0","0.9741721496","","0.2","0.6","0.4","0.8","","","","","0.5674985979","0.9741721496","0.03800932399","0.2006789107","","","","","","","","74","J","1","","","218","main_expt",""
"","bandit","298","739586","0.0-259.0-0.0","17287899","wem/bandit_either_3","ALF9AAZGQP4K5","either","5","341","","","","","","","1","0","0","0.9413517393","","0.2","0.6","0.4","0.8","","","","","0.6088772151","0.9413517393","0.07914639327","0.2118480588","","","","","","","","74","J","1","","","219","main_expt",""
"","bandit","299","741804","0.0-260.0-0.0","17287899","wem/bandit_either_3","ALF9AAZGQP4K5","either","5","686","","","","","","","1","0","0","0.9230346446","","0.2","0.6","0.4","0.8","","","","","0.5856238885","0.9230346446","0.07044987786","0.2159213458","","","","","","","","74","J","1","","","220","main_expt",""
"","bandit","300","744183","0.0-261.0-0.0","17287899","wem/bandit_either_3","ALF9AAZGQP4K5","either","5","852","","","","","","","1","0","0","0.9216350241","","0.2","0.6","0.4","0.8","","","","","0.6601978635","0.9216350241","0.1351506501","0.2097338805","","","","","","","","74","J","1","","","221","main_expt",""
"","bandit","301","745978","0.0-262.0-0.0","17287899","wem/bandit_either_3","ALF9AAZGQP4K5","either","5","270","","","","","","","1","0","0","0.9093406134","","0.2","0.6","0.4","0.8","","","","","0.6540659739","0.9093406134","0.2099108548","0.1468233299","","","","","","","","74","J","1","","","222","main_expt",""
"","bandit","302","747768","0.0-263.0-0.0","17287899","wem/bandit_either_3","ALF9AAZGQP4K5","either","5","262","","","","","","","1","0","0","0.8361447498","","0.2","0.6","0.4","0.8","","","","","0.7010542315","0.8361447498","0.2971693323","0.1379540926","","","","","","","","74","J","1","","","223","main_expt",""
"","bandit","303","749576","0.0-264.0-0.0","17287899","wem/bandit_either_3","ALF9AAZGQP4K5","either","5","279","","","","","","","1","0","0","0.8626161161","","0.2","0.6","0.4","0.8","","","","","0.7972730751","0.8626161161","0.2754671199","0.1943723139","","","","","","","","74","J","1","","","224","main_expt",""
"","bandit","304","751462","0.0-265.0-0.0","17287899","wem/bandit_either_3","ALF9AAZGQP4K5","either","5","362","","","","","","","1","0","0","0.9176165053","","0.2","0.6","0.4","0.8","","","","","0.8726314772","0.9176165053","0.2483133052","0.2949344278","","","","","","","","74","J","1","","","225","main_expt",""
"","bandit","305","753249","0.0-266.0-0.0","17287899","wem/bandit_either_3","ALF9AAZGQP4K5","either","5","258","","","","","","","0","1","0","","0.9516545376","0.2","0.6","0.4","0.8","0.8569150835","0.9516545376","0.2945032007","0.4040967375","","","","","","","","","","","","74","J","1","","","226","main_expt",""
"","bandit","306","754999","0.0-267.0-0.0","17287899","wem/bandit_either_3","ALF9AAZGQP4K5","either","5","226","","","","","","","1","0","0","0.9448551655","","0.2","0.6","0.4","0.8","","","","","0.8773762417","0.9448551655","0.2544933329","0.4369809926","","","","","","","","74","J","1","","","227","main_expt",""
"","bandit","307","756934","0.0-268.0-0.0","17287899","wem/bandit_either_3","ALF9AAZGQP4K5","either","5","408","","","","","","","0","1","0","","0.9298030406","0.2","0.6","0.4","0.8","0.8514828757","0.9298030406","0.22227057","0.4228749262","","","","","","","","","","","","74","J","1","","","228","main_expt",""
"","bandit","308","758823","0.0-269.0-0.0","17287899","wem/bandit_either_3","ALF9AAZGQP4K5","either","5","362","","","","","","","0","1","0","","0.9022116856","0.2","0.6","0.4","0.8","0.893786405","0.9022116856","0.2319557967","0.4953143479","","","","","","","","","","","","74","J","1","","","229","main_expt",""
"","bandit","309","760662","0.0-270.0-0.0","17287899","wem/bandit_either_3","ALF9AAZGQP4K5","either","5","309","","","","","","","1","0","0","0.8934587516","","0.2","0.6","0.4","0.8","","","","","0.9350514117","0.8934587516","0.3107577299","0.4752889979","","","","","","","","74","J","1","","","230","main_expt",""
"","bandit","310","762475","0.0-271.0-0.0","17287899","wem/bandit_either_3","ALF9AAZGQP4K5","either","5","289","","","","","","","0","1","0","","0.8403693225","0.2","0.6","0.4","0.8","0.9139197991","0.8403693225","0.3046703461","0.4887049862","","","","","","","","","","","","74","J","1","","","231","main_expt",""
"","bandit","311","764273","0.0-272.0-0.0","17287899","wem/bandit_either_3","ALF9AAZGQP4K5","either","5","258","","","","","","","0","1","0","","0.7373772703","0.2","0.6","0.4","0.8","0.8753904063","0.7373772703","0.4259459217","0.6065944358","","","","","","","","","","","","74","J","1","","","232","main_expt",""
"","bandit","312","766316","0.0-273.0-0.0","17287899","wem/bandit_either_3","ALF9AAZGQP4K5","either","5","514","","","","","","","1","0","0","0.7275490615","","0.2","0.6","0.4","0.8","","","","","0.807664976","0.7275490615","0.3391655585","0.5320380184","","","","","","","","74","J","1","","","233","main_expt",""
"","bandit","313","768146","0.0-274.0-0.0","17287899","wem/bandit_either_3","ALF9AAZGQP4K5","either","5","303","","","","","","","0","0","1","","0.6910989812","0.2","0.6","0.4","0.8","0.817303243","0.6910989812","0.3380141995","0.5845689413","","","","","","","","","","","","74","J","1","","","234","main_expt",""
"","bandit","314","770112","0.0-275.0-0.0","17287899","wem/bandit_either_3","ALF9AAZGQP4K5","either","5","435","","","","","","","0","1","0","","0.6506848601","0.2","0.6","0.4","0.8","0.8320050337","0.6506848601","0.2949514339","0.4424117598","","","","","","","","","","","","74","J","1","","","235","main_expt",""
"","bandit","315","772147","0.0-276.0-0.0","17287899","wem/bandit_either_3","ALF9AAZGQP4K5","either","5","506","","","","","","","0","0","1","0.589166471","","0.2","0.6","0.4","0.8","","","","","0.8539654836","0.589166471","0.2575094814","0.4411324282","","","","","","","","74","J","1","","","236","main_expt",""
"","bandit","316","773765","0.0-277.0-0.0","17287899","wem/bandit_either_3","ALF9AAZGQP4K5","either","5","90","","","","","","","1","0","0","0.5475273787","","0.2","0.6","0.4","0.8","","","","","0.8151920012","0.5475273787","0.3298960346","0.5792865955","","","","","","","","74","J","1","","","237","main_expt",""
"","bandit","317","775576","0.0-278.0-0.0","17287899","wem/bandit_either_3","ALF9AAZGQP4K5","either","5","277","","","","","","","0","0","1","","0.5644141111","0.2","0.6","0.4","0.8","0.8724257749","0.5644141111","0.3922637729","0.6435093149","","","","","","","","","","","","74","J","1","","","238","main_expt",""
"","bandit","318","777308","0.0-279.0-0.0","17287899","wem/bandit_either_3","ALF9AAZGQP4K5","either","5","208","","","","","","","1","0","0","0.557522906","","0.2","0.6","0.4","0.8","","","","","0.8232187668","0.557522906","0.3200188668","0.571754567","","","","","","","","74","J","1","","","239","main_expt",""
"","bandit","319","779171","0.0-280.0-0.0","17287899","wem/bandit_either_3","ALF9AAZGQP4K5","either","5","334","","","","","","","0","0","1","","0.603497511","0.2","0.6","0.4","0.8","0.8306623225","0.603497511","0.3427015143","0.6642130709","","","","","","","","","","","","74","J","1","","","240","main_expt",""
"","bandit","320","781148","0.0-281.0-0.0","17287899","wem/bandit_either_3","ALF9AAZGQP4K5","either","5","453","","","","","","","1","0","0","0.5998739494","","0.2","0.6","0.4","0.8","","","","","0.7592816599","0.5998739494","0.3027961335","0.702894688","","","","","","","","74","J","1","","","241","main_expt",""
"","bandit","321","782966","0.0-282.0-0.0","17287899","wem/bandit_either_3","ALF9AAZGQP4K5","either","5","290","","","","","","","0","0","1","0.5674661637","","0.2","0.6","0.4","0.8","","","","","0.8354326854","0.5674661637","0.2916945226","0.6468691102","","","","","","","","74","J","1","","","242","main_expt",""
"","bandit","322","784729","0.0-283.0-0.0","17287899","wem/bandit_either_3","ALF9AAZGQP4K5","either","5","235","","","","","","","0","0","1","","0.620083209","0.2","0.6","0.4","0.8","0.8387573723","0.620083209","0.2703759756","0.7073159297","","","","","","","","","","","","74","J","1","","","243","main_expt",""
"","bandit","323","786770","0.0-284.0-0.0","17287899","wem/bandit_either_3","ALF9AAZGQP4K5","either","5","502","","","","","","","0","0","1","0.7089992968","","0.2","0.6","0.4","0.8","","","","","0.8683205951","0.7089992968","0.2055036404","0.6719420595","","","","","","","","74","J","1","","","244","main_expt",""
"","bandit","324","788524","0.0-285.0-0.0","17287899","wem/bandit_either_3","ALF9AAZGQP4K5","either","5","230","","","","","","","1","0","0","0.6816226354","","0.2","0.6","0.4","0.8","","","","","0.7825192054","0.6816226354","0.2458168489","0.7396289485","","","","","","","","74","J","1","","","245","main_expt",""
"","bandit","325","790359","0.0-286.0-0.0","17287899","wem/bandit_either_3","ALF9AAZGQP4K5","either","5","309","","","","","","","1","0","0","0.7150612665","","0.2","0.6","0.4","0.8","","","","","0.7198633651","0.7150612665","0.1926258913","0.7441215906","","","","","","","","74","J","1","","","246","main_expt",""
"","bandit","326","792213","0.0-287.0-0.0","17287899","wem/bandit_either_3","ALF9AAZGQP4K5","either","5","326","","","","","","","0","1","0","","0.7967338304","0.2","0.6","0.4","0.8","0.6902108598","0.7967338304","0.1854987662","0.8116484872","","","","","","","","","","","","74","J","1","","","247","main_expt",""
"","bandit","327","794008","0.0-288.0-0.0","17287899","wem/bandit_either_3","ALF9AAZGQP4K5","either","5","270","","","","","","","0","0","1","0.8081099521","","0.2","0.6","0.4","0.8","","","","","0.7055390467","0.8081099521","0.1318491449","0.8036542548","","","","","","","","74","J","1","","","248","main_expt",""
