"consent","trial_type","trial_index","time_elapsed","internal_node_id","subjID","study","MID","cond","drift","rt","responses","key_press","expt_phase","like","value","connected","gems","bombs","no_reward","GemPrChosen","BombPrChosen","GainOverPainPr_0","GainOverPainPr_1","GainOverPainPr_2","GainOverPainPr_3","LosePr_0","LosePr_1","LosePr_2","LosePr_3","WinPr_0","WinPr_1","WinPr_2","WinPr_3","Q0","Q1","Q2","gender","age","ethnicity","target","respCharCode","respKey","respChoiceNum","respChoice","practice","trial_counter","trial_label","button_pressed"
"INL_behavioral_consent_30min_online.html","consent","0","7668","0.0-0.0","17322974","wem/bandit_either_3","AM155T4U3RE1A","either","4","","","","","","","","","","","","","","","","","","","","","","","","","","","","","","","","","","","","","","",""
"","survey-text","1","15881","0.0-1.0","17322974","wem/bandit_either_3","AM155T4U3RE1A","either","4","7205","{""Q0"":""AM155T4U3RE1A""}","","","","","","","","","","","","","","","","","","","","","","","","","","","","","","","","","","","","",""
"","text","2","39418","0.0-2.0","17322974","wem/bandit_either_3","AM155T4U3RE1A","either","4","22531","","32","","","","","","","","","","","","","","","","","","","","","","","","","","","","","","","","","","","",""
"","text","3","48564","0.0-3.0","17322974","wem/bandit_either_3","AM155T4U3RE1A","either","4","9138","","32","","","","","","","","","","","","","","","","","","","","","","","","","","","","","","","","","","","",""
"","text","4","73534","0.0-4.0","17322974","wem/bandit_either_3","AM155T4U3RE1A","either","4","24965","","32","","","","","","","","","","","","","","","","","","","","","","","","","","","","","","","","","","","",""
"","text","5","90832","0.0-5.0","17322974","wem/bandit_either_3","AM155T4U3RE1A","either","4","17286","","32","","","","","","","","","","","","","","","","","","","","","","","","","","","","","","","","","","","",""
"","text","6","107437","0.0-6.0","17322974","wem/bandit_either_3","AM155T4U3RE1A","either","4","16599","","32","","","","","","","","","","","","","","","","","","","","","","","","","","","","","","","","","","","",""
"","text","7","114453","0.0-7.0","17322974","wem/bandit_either_3","AM155T4U3RE1A","either","4","7013","","32","","","","","","","","","","","","","","","","","","","","","","","","","","","","","","","","","","","",""
"","text","8","118799","0.0-8.0","17322974","wem/bandit_either_3","AM155T4U3RE1A","either","4","4345","","32","","","","","","","","","","","","","","","","","","","","","","","","","","","","","","","","","","","",""
"","identification","9","128076","0.0-9.0-0.0","17322974","wem/bandit_either_3","AM155T4U3RE1A","either","4","9257","","","","1","1","1","","","","","","","","","","","","","","","","","","","","","","","","the village of Zur","","","","","","","",""
"","identification","10","136642","0.0-9.0-1.0","17322974","wem/bandit_either_3","AM155T4U3RE1A","either","4","7312","","","","0","0","0","","","","","","","","","","","","","","","","","","","","","","","","the village of Nyx","","","","","","","",""
"","text","11","151135","0.0-10.0","17322974","wem/bandit_either_3","AM155T4U3RE1A","either","4","13482","","32","","","","","","","","","","","","","","","","","","","","","","","","","","","","","","","","","","","",""
"","text","12","155252","0.0-11.0","17322974","wem/bandit_either_3","AM155T4U3RE1A","either","4","4105","","32","","","","","","","","","","","","","","","","","","","","","","","","","","","","","","","","","","","",""
"","text","13","157381","0.0-12.0","17322974","wem/bandit_either_3","AM155T4U3RE1A","either","4","2127","","32","","","","","","","","","","","","","","","","","","","","","","","","","","","","","","","","","","","",""
"","text","14","162916","0.0-13.0","17322974","wem/bandit_either_3","AM155T4U3RE1A","either","4","5533","","32","","","","","","","","","","","","","","","","","","","","","","","","","","","","","","","","","","","",""
"","bandit","15","166498","0.0-14.0-0.0","17322974","wem/bandit_either_3","AM155T4U3RE1A","either","4","1992","","","","","","","0","0","1","0","0","","","","","0","","","","0","","","","","","","","","","","74","J","0","img/none_selected_demo.jpg","true","0","",""
"","bandit","16","169539","0.0-15.0-0.0","17322974","wem/bandit_either_3","AM155T4U3RE1A","either","4","1526","","","","","","","0","0","1","0","0","","","","","0","","","","0","","","","","","","","","","","75","K","0","img/none_selected_demo.jpg","true","0","",""
"","text","17","176916","0.0-16.0","17322974","wem/bandit_either_3","AM155T4U3RE1A","either","4","7376","","32","","","","","","","","","","","","","","","","","","","","","","","","","","","","","","","","","","","",""
"","text","18","183716","0.0-17.0","17322974","wem/bandit_either_3","AM155T4U3RE1A","either","4","6799","","32","","","","","","","","","","","","","","","","","","","","","","","","","","","","","","","","","","","",""
"","text","19","191020","0.0-18.0","17322974","wem/bandit_either_3","AM155T4U3RE1A","either","4","7303","","32","","","","","","","","","","","","","","","","","","","","","","","","","","","","","","","","","","","",""
"","text","20","194772","0.0-19.0","17322974","wem/bandit_either_3","AM155T4U3RE1A","either","4","3751","","32","","","","","","","","","","","","","","","","","","","","","","","","","","","","","","","","","","","",""
"","bandit","21","197427","0.0-20.0-0.0","17322974","wem/bandit_either_3","AM155T4U3RE1A","either","4","1141","","","","","","","1","0","0","0.8","","0.5","0.5","","","","","","","0.8","0.2","","","","","","","","","","74","J","0","img/none_selected_demo.jpg","true","0","80_20_practice",""
"","bandit","22","199942","0.0-20.0-1.0","17322974","wem/bandit_either_3","AM155T4U3RE1A","either","4","997","","","","","","","1","0","0","0.8","","0.5","0.5","","","","","","","0.8","0.2","","","","","","","","","","74","J","0","img/none_selected_demo.jpg","true","0","80_20_practice",""
"","bandit","23","202089","0.0-20.0-2.0","17322974","wem/bandit_either_3","AM155T4U3RE1A","either","4","572","","","","","","","0","0","1","0.2","","0.5","0.5","","","","","","","0.8","0.2","","","","","","","","","","75","K","1","","true","0","80_20_practice",""
"","bandit","24","203984","0.0-20.0-3.0","17322974","wem/bandit_either_3","AM155T4U3RE1A","either","4","383","","","","","","","0","1","0","","0.8","0.5","0.5","","","0.8","0.2","","","","","","","","","","","","","","74","J","0","img/none_selected_demo.jpg","true","0","80_20_practice",""
"","bandit","25","205878","0.0-20.0-4.0","17322974","wem/bandit_either_3","AM155T4U3RE1A","either","4","369","","","","","","","0","0","1","0.8","","0.5","0.5","","","","","","","0.8","0.2","","","","","","","","","","74","J","0","img/none_selected_demo.jpg","true","0","80_20_practice",""
"","bandit","26","207847","0.0-20.0-5.0","17322974","wem/bandit_either_3","AM155T4U3RE1A","either","4","439","","","","","","","1","0","0","0.8","","0.5","0.5","","","","","","","0.8","0.2","","","","","","","","","","74","J","0","img/none_selected_demo.jpg","true","0","80_20_practice",""
"","bandit","27","210092","0.0-20.0-6.0","17322974","wem/bandit_either_3","AM155T4U3RE1A","either","4","457","","","","","","","0","0","1","0.8","","0.5","0.5","","","","","","","0.8","0.2","","","","","","","","","","74","J","0","img/none_selected_demo.jpg","true","0","80_20_practice",""
"","bandit","28","212225","0.0-20.0-7.0","17322974","wem/bandit_either_3","AM155T4U3RE1A","either","4","455","","","","","","","0","0","1","","0.2","0.5","0.5","","","0.8","0.2","","","","","","","","","","","","","","75","K","1","","true","0","80_20_practice",""
"","bandit","29","213912","0.0-20.0-8.0","17322974","wem/bandit_either_3","AM155T4U3RE1A","either","4","168","","","","","","","0","1","0","","0.8","0.5","0.5","","","0.8","0.2","","","","","","","","","","","","","","74","J","0","img/none_selected_demo.jpg","true","0","80_20_practice",""
"","bandit","30","215813","0.0-20.0-9.0","17322974","wem/bandit_either_3","AM155T4U3RE1A","either","4","379","","","","","","","0","1","0","","0.8","0.5","0.5","","","0.8","0.2","","","","","","","","","","","","","","74","J","0","img/none_selected_demo.jpg","true","0","80_20_practice",""
"","bandit","31","217655","0.0-20.0-10.0","17322974","wem/bandit_either_3","AM155T4U3RE1A","either","4","323","","","","","","","0","0","1","","0.8","0.5","0.5","","","0.8","0.2","","","","","","","","","","","","","","74","J","0","img/none_selected_demo.jpg","true","0","80_20_practice",""
"","bandit","32","219568","0.0-20.0-11.0","17322974","wem/bandit_either_3","AM155T4U3RE1A","either","4","216","","","","","","","0","0","1","0.8","","0.5","0.5","","","","","","","0.8","0.2","","","","","","","","","","74","J","0","img/none_selected_demo.jpg","true","0","80_20_practice",""
"","bandit","33","222703","0.0-20.0-12.0","17322974","wem/bandit_either_3","AM155T4U3RE1A","either","4","1409","","","","","","","0","1","0","","0.8","0.5","0.5","","","0.8","0.2","","","","","","","","","","","","","","74","J","0","img/none_selected_demo.jpg","true","0","80_20_practice",""
"","bandit","34","224825","0.0-20.0-13.0","17322974","wem/bandit_either_3","AM155T4U3RE1A","either","4","597","","","","","","","0","0","1","0.2","","0.5","0.5","","","","","","","0.8","0.2","","","","","","","","","","75","K","1","","true","0","80_20_practice",""
"","bandit","35","226676","0.0-20.0-14.0","17322974","wem/bandit_either_3","AM155T4U3RE1A","either","4","325","","","","","","","0","0","1","","0.2","0.5","0.5","","","0.8","0.2","","","","","","","","","","","","","","75","K","1","","true","0","80_20_practice",""
"","bandit","36","228589","0.0-20.0-15.0","17322974","wem/bandit_either_3","AM155T4U3RE1A","either","4","373","","","","","","","1","0","0","0.8","","0.5","0.5","","","","","","","0.8","0.2","","","","","","","","","","74","J","0","img/none_selected_demo.jpg","true","0","80_20_practice",""
"","bandit","37","230573","0.0-20.0-16.0","17322974","wem/bandit_either_3","AM155T4U3RE1A","either","4","237","","","","","","","0","1","0","","0.8","0.5","0.5","","","0.8","0.2","","","","","","","","","","","","","","74","J","0","img/none_selected_demo.jpg","true","0","80_20_practice",""
"","bandit","38","232573","0.0-20.0-17.0","17322974","wem/bandit_either_3","AM155T4U3RE1A","either","4","305","","","","","","","1","0","0","0.8","","0.5","0.5","","","","","","","0.8","0.2","","","","","","","","","","74","J","0","img/none_selected_demo.jpg","true","0","80_20_practice",""
"","bandit","39","234174","0.0-20.0-18.0","17322974","wem/bandit_either_3","AM155T4U3RE1A","either","4","86","","","","","","","0","0","1","","0.8","0.5","0.5","","","0.8","0.2","","","","","","","","","","","","","","74","J","0","img/none_selected_demo.jpg","true","0","80_20_practice",""
"","bandit","40","236295","0.0-20.0-19.0","17322974","wem/bandit_either_3","AM155T4U3RE1A","either","4","458","","","","","","","0","1","0","","0.8","0.5","0.5","","","0.8","0.2","","","","","","","","","","","","","","74","J","0","img/none_selected_demo.jpg","true","0","80_20_practice",""
"","text","41","239438","0.0-21.0","17322974","wem/bandit_either_3","AM155T4U3RE1A","either","4","3137","","32","","","","","","","","","","","","","","","","","","","","","","","","","","","","","","","","","","","",""
"","bandit","42","242009","0.0-22.0-0.0","17322974","wem/bandit_either_3","AM155T4U3RE1A","either","4","979","","","","","","","1","0","0","1","0","","","","","0","1","","","1","0","","","","","","","","","","74","J","0","img/none_selected_demo.jpg","true","0","",""
"","text","43","247566","0.0-23.0","17322974","wem/bandit_either_3","AM155T4U3RE1A","either","4","5553","","32","","","","","","","","","","","","","","","","","","","","","","","","","","","","","","","","","","","",""
"","text","44","250948","0.0-24.0","17322974","wem/bandit_either_3","AM155T4U3RE1A","either","4","3372","","32","","","","","","","","","","","","","","","","","","","","","","","","","","","","","","","","","","","",""
"","text","45","263957","0.0-25.0","17322974","wem/bandit_either_3","AM155T4U3RE1A","either","4","13004","","32","","","","","","","","","","","","","","","","","","","","","","","","","","","","","","","","","","","",""
"","text","46","267117","0.0-26.0","17322974","wem/bandit_either_3","AM155T4U3RE1A","either","4","3155","","32","","","","","","","","","","","","","","","","","","","","","","","","","","","","","","","","","","","",""
"","text","47","283053","0.0-27.0","17322974","wem/bandit_either_3","AM155T4U3RE1A","either","4","15932","","32","","","","","","","","","","","","","","","","","","","","","","","","","","","","","","","","","","","",""
"","text","48","286799","0.0-28.0","17322974","wem/bandit_either_3","AM155T4U3RE1A","either","4","3740","","32","","","","","","","","","","","","","","","","","","","","","","","","","","","","","","","","","","","",""
"","text","49","293364","0.0-29.0","17322974","wem/bandit_either_3","AM155T4U3RE1A","either","4","6561","","32","","","","","","","","","","","","","","","","","","","","","","","","","","","","","","","","","","","",""
"","text","50","296748","0.0-30.0","17322974","wem/bandit_either_3","AM155T4U3RE1A","either","4","3382","","32","","","","","","","","","","","","","","","","","","","","","","","","","","","","","","","","","","","",""
"","text","51","302627","0.0-31.0","17322974","wem/bandit_either_3","AM155T4U3RE1A","either","4","5877","","32","","","","","","","","","","","","","","","","","","","","","","","","","","","","","","","","","","","",""
"","text","52","304693","0.0-32.0","17322974","wem/bandit_either_3","AM155T4U3RE1A","either","4","2064","","32","","","","","","","","","","","","","","","","","","","","","","","","","","","","","","","","","","","",""
"","text","53","306316","0.0-33.0","17322974","wem/bandit_either_3","AM155T4U3RE1A","either","4","1618","","32","","","","","","","","","","","","","","","","","","","","","","","","","","","","","","","","","","","",""
"","bandit","54","308796","0.0-34.0-0.0","17322974","wem/bandit_either_3","AM155T4U3RE1A","either","4","745","","","","","","","1","0","0","0.8","","0.5","0.5","0.5","0.5","","","","","0.8","0.2","0.6","0.2","","","","","","","","72","H","0","img/none_selected.jpg","true","0","full_practice",""
"","bandit","55","310655","0.0-34.0-1.0","17322974","wem/bandit_either_3","AM155T4U3RE1A","either","4","347","","","","","","","0","1","0","","0.8","0.5","0.5","0.5","0.5","0.8","0.2","0.6","0.2","","","","","","","","","","","","72","H","0","img/none_selected.jpg","true","0","full_practice",""
"","bandit","56","312484","0.0-34.0-2.0","17322974","wem/bandit_either_3","AM155T4U3RE1A","either","4","313","","","","","","","1","0","0","0.8","","0.5","0.5","0.5","0.5","","","","","0.8","0.2","0.6","0.2","","","","","","","","72","H","0","img/none_selected.jpg","true","0","full_practice",""
"","bandit","57","314691","0.0-34.0-3.0","17322974","wem/bandit_either_3","AM155T4U3RE1A","either","4","496","","","","","","","0","1","0","","0.8","0.5","0.5","0.5","0.5","0.8","0.2","0.6","0.2","","","","","","","","","","","","72","H","0","img/none_selected.jpg","true","0","full_practice",""
"","bandit","58","316655","0.0-34.0-4.0","17322974","wem/bandit_either_3","AM155T4U3RE1A","either","4","317","","","","","","","0","1","0","","0.8","0.5","0.5","0.5","0.5","0.8","0.2","0.6","0.2","","","","","","","","","","","","72","H","0","img/none_selected.jpg","true","0","full_practice",""
"","bandit","59","318430","0.0-34.0-5.0","17322974","wem/bandit_either_3","AM155T4U3RE1A","either","4","255","","","","","","","0","0","1","","0.8","0.5","0.5","0.5","0.5","0.8","0.2","0.6","0.2","","","","","","","","","","","","72","H","0","img/none_selected.jpg","true","0","full_practice",""
"","bandit","60","320301","0.0-34.0-6.0","17322974","wem/bandit_either_3","AM155T4U3RE1A","either","4","351","","","","","","","1","0","0","0.8","","0.5","0.5","0.5","0.5","","","","","0.8","0.2","0.6","0.2","","","","","","","","72","H","0","img/none_selected.jpg","true","0","full_practice",""
"","bandit","61","322408","0.0-34.0-7.0","17322974","wem/bandit_either_3","AM155T4U3RE1A","either","4","477","","","","","","","0","1","0","","0.8","0.5","0.5","0.5","0.5","0.8","0.2","0.6","0.2","","","","","","","","","","","","72","H","0","img/none_selected.jpg","true","0","full_practice",""
"","bandit","62","324453","0.0-34.0-8.0","17322974","wem/bandit_either_3","AM155T4U3RE1A","either","4","315","","","","","","","1","0","0","0.8","","0.5","0.5","0.5","0.5","","","","","0.8","0.2","0.6","0.2","","","","","","","","72","H","0","img/none_selected.jpg","true","0","full_practice",""
"","bandit","63","326102","0.0-34.0-9.0","17322974","wem/bandit_either_3","AM155T4U3RE1A","either","4","138","","","","","","","0","1","0","","0.8","0.5","0.5","0.5","0.5","0.8","0.2","0.6","0.2","","","","","","","","","","","","72","H","0","img/none_selected.jpg","true","0","full_practice",""
"","bandit","64","327929","0.0-34.0-10.0","17322974","wem/bandit_either_3","AM155T4U3RE1A","either","4","313","","","","","","","0","0","1","0.8","","0.5","0.5","0.5","0.5","","","","","0.8","0.2","0.6","0.2","","","","","","","","72","H","0","img/none_selected.jpg","true","0","full_practice",""
"","bandit","65","329774","0.0-34.0-11.0","17322974","wem/bandit_either_3","AM155T4U3RE1A","either","4","318","","","","","","","0","1","0","","0.8","0.5","0.5","0.5","0.5","0.8","0.2","0.6","0.2","","","","","","","","","","","","72","H","0","img/none_selected.jpg","true","0","full_practice",""
"","bandit","66","331575","0.0-34.0-12.0","17322974","wem/bandit_either_3","AM155T4U3RE1A","either","4","288","","","","","","","0","0","1","","0.8","0.5","0.5","0.5","0.5","0.8","0.2","0.6","0.2","","","","","","","","","","","","72","H","0","img/none_selected.jpg","true","0","full_practice",""
"","bandit","67","333221","0.0-34.0-13.0","17322974","wem/bandit_either_3","AM155T4U3RE1A","either","4","136","","","","","","","0","0","1","0.2","","0.5","0.5","0.5","0.5","","","","","0.8","0.2","0.6","0.2","","","","","","","","74","J","1","","true","0","full_practice",""
"","bandit","68","335274","0.0-34.0-14.0","17322974","wem/bandit_either_3","AM155T4U3RE1A","either","4","539","","","","","","","1","0","0","0.6","","0.5","0.5","0.5","0.5","","","","","0.8","0.2","0.6","0.2","","","","","","","","75","K","2","","true","0","full_practice",""
"","bandit","69","337190","0.0-34.0-15.0","17322974","wem/bandit_either_3","AM155T4U3RE1A","either","4","317","","","","","","","0","0","1","0.6","","0.5","0.5","0.5","0.5","","","","","0.8","0.2","0.6","0.2","","","","","","","","75","K","2","","true","0","full_practice",""
"","bandit","70","339006","0.0-34.0-16.0","17322974","wem/bandit_either_3","AM155T4U3RE1A","either","4","305","","","","","","","0","0","1","","0.6","0.5","0.5","0.5","0.5","0.8","0.2","0.6","0.2","","","","","","","","","","","","75","K","2","","true","0","full_practice",""
"","bandit","71","340837","0.0-34.0-17.0","17322974","wem/bandit_either_3","AM155T4U3RE1A","either","4","312","","","","","","","0","1","0","","0.2","0.5","0.5","0.5","0.5","0.8","0.2","0.6","0.2","","","","","","","","","","","","76","L","3","","true","0","full_practice",""
"","bandit","72","342731","0.0-34.0-18.0","17322974","wem/bandit_either_3","AM155T4U3RE1A","either","4","379","","","","","","","1","0","0","0.2","","0.5","0.5","0.5","0.5","","","","","0.8","0.2","0.6","0.2","","","","","","","","76","L","3","","true","0","full_practice",""
"","bandit","73","344580","0.0-34.0-19.0","17322974","wem/bandit_either_3","AM155T4U3RE1A","either","4","332","","","","","","","1","0","0","0.2","","0.5","0.5","0.5","0.5","","","","","0.8","0.2","0.6","0.2","","","","","","","","76","L","3","","true","0","full_practice",""
"","text","74","347217","0.0-35.0","17322974","wem/bandit_either_3","AM155T4U3RE1A","either","4","2627","","32","","","","","","","","","","","","","","","","","","","","","","","","","","","","","","","","","","","",""
"","text","75","358702","0.0-36.0","17322974","wem/bandit_either_3","AM155T4U3RE1A","either","4","10479","","32","","","","","","","","","","","","","","","","","","","","","","","","","","","","","","","","","","","",""
"","text","76","368518","0.0-37.0","17322974","wem/bandit_either_3","AM155T4U3RE1A","either","4","9809","","32","","","","","","","","","","","","","","","","","","","","","","","","","","","","","","","","","","","",""
"","text","77","372877","0.0-38.0","17322974","wem/bandit_either_3","AM155T4U3RE1A","either","4","4354","","32","","","","","","","","","","","","","","","","","","","","","","","","","","","","","","","","","","","",""
"","text","78","378583","0.0-39.0","17322974","wem/bandit_either_3","AM155T4U3RE1A","either","4","5702","","32","","","","","","","","","","","","","","","","","","","","","","","","","","","","","","","","","","","",""
"","text","79","387525","0.0-40.0","17322974","wem/bandit_either_3","AM155T4U3RE1A","either","4","8937","","32","","","","","","","","","","","","","","","","","","","","","","","","","","","","","","","","","","","",""
"","bandit","80","390128","0.0-41.0-0.0","17322974","wem/bandit_either_3","AM155T4U3RE1A","either","4","1073","","","","","","","0","1","0","","0.8209843215","0.2","0.6","0.4","0.8","0.8209843215","0.2887693562","0.7267404998","0.9858900825","","","","","","","","","","","","72","H","0","img/none_selected.jpg","","1","main_expt",""
"","bandit","81","392119","0.0-42.0-0.0","17322974","wem/bandit_either_3","AM155T4U3RE1A","either","4","276","","","","","","","1","0","0","0.8179122382","","0.2","0.6","0.4","0.8","","","","","0.8179122382","0.2986217167","0.7034907646","0.9854924354","","","","","","","","72","H","0","img/none_selected.jpg","","2","main_expt",""
"","bandit","82","393950","0.0-43.0-0.0","17322974","wem/bandit_either_3","AM155T4U3RE1A","either","4","320","","","","","","","0","1","0","","0.8301291561","0.2","0.6","0.4","0.8","0.8301291561","0.261346942","0.6574847675","0.9789624529","","","","","","","","","","","","72","H","0","img/none_selected.jpg","","3","main_expt",""
"","bandit","83","395987","0.0-44.0-0.0","17322974","wem/bandit_either_3","AM155T4U3RE1A","either","4","520","","","","","","","0","0","1","0.8219157537","","0.2","0.6","0.4","0.8","","","","","0.8219157537","0.2757740293","0.5092805277","0.9565345184","","","","","","","","72","H","0","img/none_selected.jpg","","4","main_expt",""
"","bandit","84","397862","0.0-45.0-0.0","17322974","wem/bandit_either_3","AM155T4U3RE1A","either","4","314","","","","","","","1","0","0","0.7759220463","","0.2","0.6","0.4","0.8","","","","","0.7759220463","0.3329857669","0.5952926025","0.941194936","","","","","","","","72","H","0","img/none_selected.jpg","","5","main_expt",""
"","bandit","85","399663","0.0-46.0-0.0","17322974","wem/bandit_either_3","AM155T4U3RE1A","either","4","281","","","","","","","0","1","0","","0.7495930044","0.2","0.6","0.4","0.8","0.7495930044","0.331878758","0.6160758637","0.9305219143","","","","","","","","","","","","72","H","0","img/none_selected.jpg","","6","main_expt",""
"","bandit","86","401545","0.0-47.0-0.0","17322974","wem/bandit_either_3","AM155T4U3RE1A","either","4","296","","","","","","","0","1","0","","0.7078030286","0.2","0.6","0.4","0.8","0.7078030286","0.3863389794","0.6381806331","0.937738562","","","","","","","","","","","","72","H","0","img/none_selected.jpg","","7","main_expt",""
"","bandit","87","403346","0.0-48.0-0.0","17322974","wem/bandit_either_3","AM155T4U3RE1A","either","4","287","","","","","","","0","1","0","","0.689407674","0.2","0.6","0.4","0.8","0.689407674","0.4242016385","0.7047831713","0.8269671957","","","","","","","","","","","","72","H","0","img/none_selected.jpg","","8","main_expt",""
"","bandit","88","405208","0.0-49.0-0.0","17322974","wem/bandit_either_3","AM155T4U3RE1A","either","4","342","","","","","","","1","0","0","0.7848236408","","0.2","0.6","0.4","0.8","","","","","0.7848236408","0.379169242","0.6222923336","0.7696709776","","","","","","","","72","H","0","img/none_selected.jpg","","9","main_expt",""
"","bandit","89","407027","0.0-50.0-0.0","17322974","wem/bandit_either_3","AM155T4U3RE1A","either","4","296","","","","","","","0","1","0","","0.791363481","0.2","0.6","0.4","0.8","0.791363481","0.40569916","0.5629201009","0.7313552403","","","","","","","","","","","","72","H","0","img/none_selected.jpg","","10","main_expt",""
"","bandit","90","408803","0.0-51.0-0.0","17322974","wem/bandit_either_3","AM155T4U3RE1A","either","4","260","","","","","","","0","0","1","","0.7800632456","0.2","0.6","0.4","0.8","0.7800632456","0.4188021694","0.644159789","0.8129169819","","","","","","","","","","","","72","H","0","img/none_selected.jpg","","11","main_expt",""
"","bandit","91","410526","0.0-52.0-0.0","17322974","wem/bandit_either_3","AM155T4U3RE1A","either","4","212","","","","","","","0","0","1","","0.7559884596","0.2","0.6","0.4","0.8","0.7559884596","0.3689559917","0.6840372722","0.7611571711","","","","","","","","","","","","72","H","0","img/none_selected.jpg","","12","main_expt",""
"","bandit","92","412993","0.0-53.0-0.0","17322974","wem/bandit_either_3","AM155T4U3RE1A","either","4","953","","","","","","","0","0","1","0.4584943612","","0.2","0.6","0.4","0.8","","","","","0.7695577991","0.4584943612","0.6236151953","0.7628417147","","","","","","","","74","J","1","","","13","main_expt",""
"","bandit","93","414806","0.0-54.0-0.0","17322974","wem/bandit_either_3","AM155T4U3RE1A","either","4","302","","","","","","","1","0","0","0.5388331182","","0.2","0.6","0.4","0.8","","","","","0.8509931145","0.455083938","0.5388331182","0.7436451733","","","","","","","","75","K","2","","","14","main_expt",""
"","bandit","94","416678","0.0-55.0-0.0","17322974","wem/bandit_either_3","AM155T4U3RE1A","either","4","361","","","","","","","0","0","1","0.4802769188","","0.2","0.6","0.4","0.8","","","","","0.7745856811","0.5360112786","0.4802769188","0.8256008488","","","","","","","","75","K","2","","","15","main_expt",""
"","bandit","95","419031","0.0-56.0-0.0","17322974","wem/bandit_either_3","AM155T4U3RE1A","either","4","697","","","","","","","0","0","1","0.7683027423","","0.2","0.6","0.4","0.8","","","","","0.7576521113","0.4791571541","0.4688000192","0.7683027423","","","","","","","","76","L","3","","","16","main_expt",""
"","bandit","96","421057","0.0-57.0-0.0","17322974","wem/bandit_either_3","AM155T4U3RE1A","either","4","513","","","","","","","0","1","0","","0.6000602573","0.2","0.6","0.4","0.8","0.8099558365","0.5263630166","0.6000602573","0.7857675768","","","","","","","","","","","","75","K","2","","","17","main_expt",""
"","bandit","97","423090","0.0-58.0-0.0","17322974","wem/bandit_either_3","AM155T4U3RE1A","either","4","523","","","","","","","0","0","1","0.6046592687","","0.2","0.6","0.4","0.8","","","","","0.7535280451","0.543945959","0.6046592687","0.7303419725","","","","","","","","75","K","2","","","18","main_expt",""
"","bandit","98","424741","0.0-59.0-0.0","17322974","wem/bandit_either_3","AM155T4U3RE1A","either","4","135","","","","","","","1","0","0","0.6177236116","","0.2","0.6","0.4","0.8","","","","","0.7206444799","0.4579801682","0.6177236116","0.7243255268","","","","","","","","75","K","2","","","19","main_expt",""
"","bandit","99","427097","0.0-60.0-0.0","17322974","wem/bandit_either_3","AM155T4U3RE1A","either","4","672","","","","","","","0","1","0","","0.5484637992","0.2","0.6","0.4","0.8","0.6388551968","0.5439896582","0.5484637992","0.7691283854","","","","","","","","","","","","75","K","2","","","20","main_expt",""
"","bandit","100","429039","0.0-61.0-0.0","17322974","wem/bandit_either_3","AM155T4U3RE1A","either","4","428","","","","","","","0","0","1","","0.6646151354","0.2","0.6","0.4","0.8","0.4956822649","0.5796019833","0.6646151354","0.7068464658","","","","","","","","","","","","75","K","2","","","21","main_expt",""
"","bandit","101","431275","0.0-62.0-0.0","17322974","wem/bandit_either_3","AM155T4U3RE1A","either","4","494","","","","","","","0","0","1","0.7223938077","","0.2","0.6","0.4","0.8","","","","","0.4316307404","0.5885929095","0.7223938077","0.7407239748","","","","","","","","75","K","2","","","22","main_expt",""
"","bandit","102","433079","0.0-63.0-0.0","17322974","wem/bandit_either_3","AM155T4U3RE1A","either","4","108","","","","","","","1","0","0","0.4158022912","","0.2","0.6","0.4","0.8","","","","","0.4158022912","0.4899642796","0.7548690184","0.7300920021","","","","","","","","72","H","0","img/none_selected.jpg","","23","main_expt",""
"","bandit","103","434983","0.0-64.0-0.0","17322974","wem/bandit_either_3","AM155T4U3RE1A","either","4","390","","","","","","","1","0","0","0.4099928258","","0.2","0.6","0.4","0.8","","","","","0.4099928258","0.4984159311","0.7794954679","0.7074307303","","","","","","","","72","H","0","img/none_selected.jpg","","24","main_expt",""
"","bandit","104","436823","0.0-65.0-0.0","17322974","wem/bandit_either_3","AM155T4U3RE1A","either","4","327","","","","","","","0","1","0","","0.4303724308","0.2","0.6","0.4","0.8","0.4303724308","0.5885503773","0.8029664172","0.6228099684","","","","","","","","","","","","72","H","0","img/none_selected.jpg","","25","main_expt",""
"","bandit","105","438686","0.0-66.0-0.0","17322974","wem/bandit_either_3","AM155T4U3RE1A","either","4","346","","","","","","","0","1","0","","0.3291624114","0.2","0.6","0.4","0.8","0.3291624114","0.6978100054","0.6980766755","0.5588879168","","","","","","","","","","","","72","H","0","img/none_selected.jpg","","26","main_expt",""
"","bandit","106","440224","0.0-67.0-0.0","17322974","wem/bandit_either_3","AM155T4U3RE1A","either","4","22","","","","","","","0","0","1","","0.3795789415","0.2","0.6","0.4","0.8","0.3795789415","0.6442468271","0.7021498626","0.5033257713","","","","","","","","","","","","72","H","0","img/none_selected.jpg","","27","main_expt",""
"","bandit","107","442118","0.0-68.0-0.0","17322974","wem/bandit_either_3","AM155T4U3RE1A","either","4","383","","","","","","","0","1","0","","0.3208573938","0.2","0.6","0.4","0.8","0.3208573938","0.7399213538","0.7802436781","0.4915102133","","","","","","","","","","","","72","H","0","img/none_selected.jpg","","28","main_expt",""
"","bandit","108","444167","0.0-69.0-0.0","17322974","wem/bandit_either_3","AM155T4U3RE1A","either","4","538","","","","","","","0","0","1","","0.3352919619","0.2","0.6","0.4","0.8","0.3352919619","0.7520253205","0.6907923131","0.4291187576","","","","","","","","","","","","72","H","0","img/none_selected.jpg","","29","main_expt",""
"","bandit","109","446151","0.0-70.0-0.0","17322974","wem/bandit_either_3","AM155T4U3RE1A","either","4","470","","","","","","","0","1","0","","0.3452717309","0.2","0.6","0.4","0.8","0.3452717309","0.7528469829","0.6771306444","0.5379907803","","","","","","","","","","","","72","H","0","img/none_selected.jpg","","30","main_expt",""
"","bandit","110","448313","0.0-71.0-0.0","17322974","wem/bandit_either_3","AM155T4U3RE1A","either","4","616","","","","","","","0","0","1","","0.2967094522","0.2","0.6","0.4","0.8","0.2967094522","0.7571908429","0.7130915948","0.646046857","","","","","","","","","","","","72","H","0","img/none_selected.jpg","","31","main_expt",""
"","bandit","111","450239","0.0-72.0-0.0","17322974","wem/bandit_either_3","AM155T4U3RE1A","either","4","334","","","","","","","0","0","1","","0.255781972","0.2","0.6","0.4","0.8","0.255781972","0.7530934884","0.6849190202","0.5608885347","","","","","","","","","","","","72","H","0","img/none_selected.jpg","","32","main_expt",""
"","bandit","112","451815","0.0-73.0-0.0","17322974","wem/bandit_either_3","AM155T4U3RE1A","either","4","7","","","","","","","1","0","0","0.7163673585","","0.2","0.6","0.4","0.8","","","","","0.2703771925","0.7163673585","0.7392612035","0.5952322697","","","","","","","","74","J","1","","","33","main_expt",""
"","bandit","113","453888","0.0-74.0-0.0","17322974","wem/bandit_either_3","AM155T4U3RE1A","either","4","351","","","","","","","1","0","0","0.6817248107","","0.2","0.6","0.4","0.8","","","","","0.3572673824","0.6817248107","0.7026009082","0.6206609301","","","","","","","","74","J","1","","","34","main_expt",""
"","bandit","114","455463","0.0-75.0-0.0","17322974","wem/bandit_either_3","AM155T4U3RE1A","either","4","51","","","","","","","1","0","0","0.6903641832","","0.2","0.6","0.4","0.8","","","","","0.3237575066","0.6903641832","0.632003728","0.6223058769","","","","","","","","74","J","1","","","35","main_expt",""
"","bandit","115","457504","0.0-76.0-0.0","17322974","wem/bandit_either_3","AM155T4U3RE1A","either","4","524","","","","","","","0","1","0","","0.6953747248","0.2","0.6","0.4","0.8","0.3724209237","0.6953747248","0.7266912659","0.7304722347","","","","","","","","","","","","74","J","1","","","36","main_expt",""
"","bandit","116","459532","0.0-77.0-0.0","17322974","wem/bandit_either_3","AM155T4U3RE1A","either","4","410","","","","","","","1","0","0","0.7552078918","","0.2","0.6","0.4","0.8","","","","","0.3848591071","0.7552078918","0.5512211225","0.6789706255","","","","","","","","74","J","1","","","37","main_expt",""
"","bandit","117","461200","0.0-78.0-0.0","17322974","wem/bandit_either_3","AM155T4U3RE1A","either","4","153","","","","","","","0","1","0","","0.7095976639","0.2","0.6","0.4","0.8","0.4026628424","0.7095976639","0.5888446875","0.6758320082","","","","","","","","","","","","74","J","1","","","38","main_expt",""
"","bandit","118","462923","0.0-79.0-0.0","17322974","wem/bandit_either_3","AM155T4U3RE1A","either","4","198","","","","","","","1","0","0","0.7813817897","","0.2","0.6","0.4","0.8","","","","","0.460229008","0.7813817897","0.7349010221","0.753286291","","","","","","","","74","J","1","","","39","main_expt",""
"","bandit","119","464723","0.0-80.0-0.0","17322974","wem/bandit_either_3","AM155T4U3RE1A","either","4","285","","","","","","","0","1","0","","0.7604460558","0.2","0.6","0.4","0.8","0.3392787789","0.7604460558","0.6715391024","0.7527041006","","","","","","","","","","","","74","J","1","","","40","main_expt",""
"","bandit","120","466580","0.0-81.0-0.0","17322974","wem/bandit_either_3","AM155T4U3RE1A","either","4","336","","","","","","","1","0","0","0.7588214983","","0.2","0.6","0.4","0.8","","","","","0.2983701942","0.7588214983","0.688235262","0.7900808451","","","","","","","","74","J","1","","","41","main_expt",""
"","bandit","121","468421","0.0-82.0-0.0","17322974","wem/bandit_either_3","AM155T4U3RE1A","either","4","311","","","","","","","0","1","0","","0.8204813903","0.2","0.6","0.4","0.8","0.2390858253","0.8204813903","0.750516412","0.7261157662","","","","","","","","","","","","74","J","1","","","42","main_expt",""
"","bandit","122","470388","0.0-83.0-0.0","17322974","wem/bandit_either_3","AM155T4U3RE1A","either","4","405","","","","","","","1","0","0","0.8310219988","","0.2","0.6","0.4","0.8","","","","","0.1877526289","0.8310219988","0.775378891","0.772887471","","","","","","","","74","J","1","","","43","main_expt",""
"","bandit","123","472446","0.0-84.0-0.0","17322974","wem/bandit_either_3","AM155T4U3RE1A","either","4","545","","","","","","","1","0","0","0.8165903167","","0.2","0.6","0.4","0.8","","","","","0.2713877418","0.8165903167","0.5983035632","0.7359848823","","","","","","","","74","J","1","","","44","main_expt",""
"","bandit","124","474458","0.0-85.0-0.0","17322974","wem/bandit_either_3","AM155T4U3RE1A","either","4","501","","","","","","","1","0","0","0.6765015189","","0.2","0.6","0.4","0.8","","","","","0.2600408605","0.6765015189","0.6453890447","0.6223954065","","","","","","","","74","J","1","","","45","main_expt",""
"","bandit","125","476744","0.0-86.0-0.0","17322974","wem/bandit_either_3","AM155T4U3RE1A","either","4","767","","","","","","","0","0","1","0.6613510417","","0.2","0.6","0.4","0.8","","","","","0.2435580982","0.6613510417","0.4979639723","0.5963379238","","","","","","","","74","J","1","","","46","main_expt",""
"","bandit","126","478695","0.0-87.0-0.0","17322974","wem/bandit_either_3","AM155T4U3RE1A","either","4","419","","","","","","","0","1","0","","0.7373034573","0.2","0.6","0.4","0.8","0.3258971046","0.7373034573","0.4475739324","0.6161308884","","","","","","","","","","","","74","J","1","","","47","main_expt",""
"","bandit","127","480694","0.0-88.0-0.0","17322974","wem/bandit_either_3","AM155T4U3RE1A","either","4","485","","","","","","","0","0","1","","0.6580913366","0.2","0.6","0.4","0.8","0.2934977076","0.6580913366","0.570942939","0.6354722558","","","","","","","","","","","","74","J","1","","","48","main_expt",""
"","bandit","128","482729","0.0-89.0-0.0","17322974","wem/bandit_either_3","AM155T4U3RE1A","either","4","377","","","","","","","0","1","0","","0.5943858444","0.2","0.6","0.4","0.8","0.3381222087","0.6518545324","0.5943858444","0.5941747261","","","","","","","","","","","","75","K","2","","","49","main_expt",""
"","bandit","129","484601","0.0-90.0-0.0","17322974","wem/bandit_either_3","AM155T4U3RE1A","either","4","348","","","","","","","0","1","0","","0.72156704","0.2","0.6","0.4","0.8","0.4149653651","0.6362385309","0.72156704","0.5510631732","","","","","","","","","","","","75","K","2","","","50","main_expt",""
"","bandit","130","486502","0.0-91.0-0.0","17322974","wem/bandit_either_3","AM155T4U3RE1A","either","4","387","","","","","","","0","1","0","","0.6453884322","0.2","0.6","0.4","0.8","0.315936401","0.6673370403","0.6453884322","0.5580995271","","","","","","","","","","","","75","K","2","","","51","main_expt",""
"","bandit","131","488407","0.0-92.0-0.0","17322974","wem/bandit_either_3","AM155T4U3RE1A","either","4","387","","","","","","","0","1","0","","0.635653338","0.2","0.6","0.4","0.8","0.34776451","0.6614759556","0.635653338","0.4492126091","","","","","","","","","","","","75","K","2","","","52","main_expt",""
"","bandit","132","490142","0.0-93.0-0.0","17322974","wem/bandit_either_3","AM155T4U3RE1A","either","4","214","","","","","","","0","1","0","","0.5700640027","0.2","0.6","0.4","0.8","0.2946288454","0.5099009019","0.5700640027","0.4600129001","","","","","","","","","","","","75","K","2","","","53","main_expt",""
"","bandit","133","491791","0.0-94.0-0.0","17322974","wem/bandit_either_3","AM155T4U3RE1A","either","4","136","","","","","","","0","0","1","","0.4535518587","0.2","0.6","0.4","0.8","0.3757560715","0.5323874036","0.4535518587","0.4005354829","","","","","","","","","","","","75","K","2","","","54","main_expt",""
"","bandit","134","493686","0.0-95.0-0.0","17322974","wem/bandit_either_3","AM155T4U3RE1A","either","4","142","","","","","","","0","0","1","","0.4271895083","0.2","0.6","0.4","0.8","0.3258455482","0.5410243768","0.4271895083","0.3305694417","","","","","","","","","","","","75","K","2","","","55","main_expt",""
"","bandit","135","496262","0.0-96.0-0.0","17322974","wem/bandit_either_3","AM155T4U3RE1A","either","4","861","","","","","","","0","1","0","","0.3443449075","0.2","0.6","0.4","0.8","0.4350401219","0.5594159285","0.3506641683","0.3443449075","","","","","","","","","","","","76","L","3","","","56","main_expt",""
"","bandit","136","498126","0.0-97.0-0.0","17322974","wem/bandit_either_3","AM155T4U3RE1A","either","4","352","","","","","","","0","0","1","0.3719720486","","0.2","0.6","0.4","0.8","","","","","0.3707313189","0.5057935102","0.3266461122","0.3719720486","","","","","","","","76","L","3","","","57","main_expt",""
"","bandit","137","500073","0.0-98.0-0.0","17322974","wem/bandit_either_3","AM155T4U3RE1A","either","4","299","","","","","","","0","0","1","0.2230753252","","0.2","0.6","0.4","0.8","","","","","0.5588799977","0.4921421838","0.3024401834","0.2230753252","","","","","","","","76","L","3","","","58","main_expt",""
"","bandit","138","502173","0.0-99.0-0.0","17322974","wem/bandit_either_3","AM155T4U3RE1A","either","4","579","","","","","","","0","0","1","","0.4306619987","0.2","0.6","0.4","0.8","0.6863198467","0.4740341295","0.4306619987","0.2255195526","","","","","","","","","","","","75","K","2","","","59","main_expt",""
"","bandit","139","504032","0.0-100.0-0.0","17322974","wem/bandit_either_3","AM155T4U3RE1A","either","4","338","","","","","","","1","0","0","0.4853159436","","0.2","0.6","0.4","0.8","","","","","0.6998437478","0.4853159436","0.4710521126","0.2150487889","","","","","","","","74","J","1","","","60","main_expt",""
"","bandit","140","505954","0.0-101.0-0.0","17322974","wem/bandit_either_3","AM155T4U3RE1A","either","4","323","","","","","","","0","1","0","","0.4843563089","0.2","0.6","0.4","0.8","0.7027468204","0.4843563089","0.4797168847","0.2670703017","","","","","","","","","","","","74","J","1","","","61","main_expt",""
"","bandit","141","507986","0.0-102.0-0.0","17322974","wem/bandit_either_3","AM155T4U3RE1A","either","4","421","","","","","","","0","1","0","","0.4970562682","0.2","0.6","0.4","0.8","0.7461433662","0.4970562682","0.441351191","0.1622034337","","","","","","","","","","","","74","J","1","","","62","main_expt",""
"","bandit","142","510063","0.0-103.0-0.0","17322974","wem/bandit_either_3","AM155T4U3RE1A","either","4","556","","","","","","","0","0","1","","0.4870743105","0.2","0.6","0.4","0.8","0.7956877632","0.4870743105","0.6405696824","0.1872430185","","","","","","","","","","","","74","J","1","","","63","main_expt",""
"","bandit","143","512144","0.0-104.0-0.0","17322974","wem/bandit_either_3","AM155T4U3RE1A","either","4","567","","","","","","","0","1","0","","0.7533911137","0.2","0.6","0.4","0.8","0.7533911137","0.5297884171","0.5093225209","0.1921602407","","","","","","","","","","","","72","H","0","img/none_selected.jpg","","64","main_expt",""
"","bandit","144","514080","0.0-105.0-0.0","17322974","wem/bandit_either_3","AM155T4U3RE1A","either","4","302","","","","","","","0","1","0","","0.8407665504","0.2","0.6","0.4","0.8","0.8407665504","0.5510281753","0.5190422554","0.1747679693","","","","","","","","","","","","72","H","0","img/none_selected.jpg","","65","main_expt",""
"","bandit","145","515881","0.0-106.0-0.0","17322974","wem/bandit_either_3","AM155T4U3RE1A","either","4","279","","","","","","","0","1","0","","0.8392190168","0.2","0.6","0.4","0.8","0.8392190168","0.6548378986","0.4367989657","0.149475979","","","","","","","","","","","","72","H","0","img/none_selected.jpg","","66","main_expt",""
"","bandit","146","517725","0.0-107.0-0.0","17322974","wem/bandit_either_3","AM155T4U3RE1A","either","4","326","","","","","","","0","0","1","","0.7998105719","0.2","0.6","0.4","0.8","0.7998105719","0.7873643744","0.4515976155","0.1340316754","","","","","","","","","","","","72","H","0","img/none_selected.jpg","","67","main_expt",""
"","bandit","147","519839","0.0-108.0-0.0","17322974","wem/bandit_either_3","AM155T4U3RE1A","either","4","589","","","","","","","1","0","0","0.8374830125","","0.2","0.6","0.4","0.8","","","","","0.8055175736","0.8374830125","0.4605235732","0.1635100664","","","","","","","","74","J","1","","","68","main_expt",""
"","bandit","148","521750","0.0-109.0-0.0","17322974","wem/bandit_either_3","AM155T4U3RE1A","either","4","294","","","","","","","1","0","0","0.7948054761","","0.2","0.6","0.4","0.8","","","","","0.9157616325","0.7948054761","0.3799115548","0.1227365859","","","","","","","","74","J","1","","","69","main_expt",""
"","bandit","149","523998","0.0-110.0-0.0","17322974","wem/bandit_either_3","AM155T4U3RE1A","either","4","632","","","","","","","0","1","0","","0.8257183208","0.2","0.6","0.4","0.8","0.9575411193","0.8257183208","0.4215965018","0.1248437045","","","","","","","","","","","","74","J","1","","","70","main_expt",""
"","bandit","150","526034","0.0-111.0-0.0","17322974","wem/bandit_either_3","AM155T4U3RE1A","either","4","522","","","","","","","0","1","0","","0.7378076352","0.2","0.6","0.4","0.8","0.9604429572","0.7378076352","0.4069040491","0.1153860856","","","","","","","","","","","","74","J","1","","","71","main_expt",""
"","bandit","151","528159","0.0-112.0-0.0","17322974","wem/bandit_either_3","AM155T4U3RE1A","either","4","524","","","","","","","0","0","1","","0.7402058239","0.2","0.6","0.4","0.8","0.9598545795","0.7402058239","0.4396577013","0.1355011504","","","","","","","","","","","","74","J","1","","","72","main_expt",""
"","bandit","152","530290","0.0-113.0-0.0","17322974","wem/bandit_either_3","AM155T4U3RE1A","either","4","606","","","","","","","1","0","0","0.6976791507","","0.2","0.6","0.4","0.8","","","","","0.944667289","0.6976791507","0.6562772762","0.05996807606","","","","","","","","74","J","1","","","73","main_expt",""
"","bandit","153","532351","0.0-114.0-0.0","17322974","wem/bandit_either_3","AM155T4U3RE1A","either","4","342","","","","","","","1","0","0","0.7918365236","","0.2","0.6","0.4","0.8","","","","","0.9226304804","0.7918365236","0.6973429816","0.05405538329","","","","","","","","74","J","1","","","74","main_expt",""
"","bandit","154","534308","0.0-115.0-0.0","17322974","wem/bandit_either_3","AM155T4U3RE1A","either","4","365","","","","","","","0","1","0","","0.7822783488","0.2","0.6","0.4","0.8","0.9398646798","0.7822783488","0.7736122178","0.02989929625","","","","","","","","","","","","74","J","1","","","75","main_expt",""
"","bandit","155","536438","0.0-116.0-0.0","17322974","wem/bandit_either_3","AM155T4U3RE1A","either","4","611","","","","","","","1","0","0","0.7290889389","","0.2","0.6","0.4","0.8","","","","","0.9344412274","0.7290889389","0.8130420724","0.0563551135","","","","","","","","74","J","1","","","76","main_expt",""
"","bandit","156","538519","0.0-117.0-0.0","17322974","wem/bandit_either_3","AM155T4U3RE1A","either","4","451","","","","","","","0","1","0","","0.7903383215","0.2","0.6","0.4","0.8","0.9512527415","0.7903383215","0.8182773084","0.0510075381","","","","","","","","","","","","74","J","1","","","77","main_expt",""
"","bandit","157","540474","0.0-118.0-0.0","17322974","wem/bandit_either_3","AM155T4U3RE1A","either","4","361","","","","","","","0","0","1","","0.8093770606","0.2","0.6","0.4","0.8","0.945324638","0.8093770606","0.910984946","0.07280641377","","","","","","","","","","","","74","J","1","","","78","main_expt",""
"","bandit","158","542534","0.0-119.0-0.0","17322974","wem/bandit_either_3","AM155T4U3RE1A","either","4","546","","","","","","","1","0","0","0.9313693401","","0.2","0.6","0.4","0.8","","","","","0.9313693401","0.7310189459","0.9303795674","0.06591604593","","","","","","","","72","H","0","img/none_selected.jpg","","79","main_expt",""
"","bandit","159","544382","0.0-120.0-0.0","17322974","wem/bandit_either_3","AM155T4U3RE1A","either","4","335","","","","","","","1","0","0","0.9272018461","","0.2","0.6","0.4","0.8","","","","","0.9272018461","0.7915113188","0.9581515868","0.02790121052","","","","","","","","72","H","0","img/none_selected.jpg","","80","main_expt",""
"","bandit","160","546398","0.0-121.0-0.0","17322974","wem/bandit_either_3","AM155T4U3RE1A","either","4","482","","","","","","","0","1","0","","0.9340165544","0.2","0.6","0.4","0.8","0.9340165544","0.8463201033","0.9107397581","0.03997429631","","","","","","","","","","","","72","H","0","img/none_selected.jpg","","81","main_expt",""
"","bandit","161","548281","0.0-122.0-0.0","17322974","wem/bandit_either_3","AM155T4U3RE1A","either","4","254","","","","","","","0","1","0","","0.9778602254","0.2","0.6","0.4","0.8","0.9778602254","0.9043915002","0.9531247327","0.03692483048","","","","","","","","","","","","72","H","0","img/none_selected.jpg","","82","main_expt",""
"","bandit","162","550390","0.0-123.0-0.0","17322974","wem/bandit_either_3","AM155T4U3RE1A","either","4","594","","","","","","","0","1","0","","0.9593015187","0.2","0.6","0.4","0.8","0.9593015187","0.922294541","0.91574064","0.04167024954","","","","","","","","","","","","72","H","0","img/none_selected.jpg","","83","main_expt",""
"","bandit","163","552280","0.0-124.0-0.0","17322974","wem/bandit_either_3","AM155T4U3RE1A","either","4","374","","","","","","","0","1","0","","0.9398758864","0.2","0.6","0.4","0.8","0.9398758864","0.9079954767","0.9287460716","0.03449326924","","","","","","","","","","","","72","H","0","img/none_selected.jpg","","84","main_expt",""
"","bandit","164","554197","0.0-125.0-0.0","17322974","wem/bandit_either_3","AM155T4U3RE1A","either","4","324","","","","","","","0","0","1","","0.9256746213","0.2","0.6","0.4","0.8","0.9256746213","0.92293493","0.9817994773","0.07382848834","","","","","","","","","","","","72","H","0","img/none_selected.jpg","","85","main_expt",""
"","bandit","165","556171","0.0-126.0-0.0","17322974","wem/bandit_either_3","AM155T4U3RE1A","either","4","231","","","","","","","0","1","0","","0.8910640916","0.2","0.6","0.4","0.8","0.8910640916","0.8831043051","0.9651028603","0.08839198485","","","","","","","","","","","","72","H","0","img/none_selected.jpg","","86","main_expt",""
"","bandit","166","557957","0.0-127.0-0.0","17322974","wem/bandit_either_3","AM155T4U3RE1A","either","4","273","","","","","","","0","1","0","","0.8729480744","0.2","0.6","0.4","0.8","0.8729480744","0.876749115","0.9364705545","0.08767612821","","","","","","","","","","","","72","H","0","img/none_selected.jpg","","87","main_expt",""
"","bandit","167","559770","0.0-128.0-0.0","17322974","wem/bandit_either_3","AM155T4U3RE1A","either","4","296","","","","","","","1","0","0","0.8780151739","","0.2","0.6","0.4","0.8","","","","","0.8780151739","0.9189432589","0.9235767634","0.1606359608","","","","","","","","72","H","0","img/none_selected.jpg","","88","main_expt",""
"","bandit","168","561293","0.0-129.0-0.0","17322974","wem/bandit_either_3","AM155T4U3RE1A","either","4","1","","","","","","","0","0","1","","0.8856980863","0.2","0.6","0.4","0.8","0.8856980863","0.8770582065","0.9375107972","0.2051996915","","","","","","","","","","","","72","H","0","img/none_selected.jpg","","89","main_expt",""
"","bandit","169","563792","0.0-130.0-0.0","17322974","wem/bandit_either_3","AM155T4U3RE1A","either","4","844","","","","","","","0","1","0","","0.8828292745","0.2","0.6","0.4","0.8","0.8828292745","0.9303780437","0.9201099193","0.1757431166","","","","","","","","","","","","72","H","0","img/none_selected.jpg","","90","main_expt",""
"","bandit","170","565596","0.0-131.0-0.0","17322974","wem/bandit_either_3","AM155T4U3RE1A","either","4","284","","","","","","","0","1","0","","0.9016480115","0.2","0.6","0.4","0.8","0.9016480115","0.8870296602","0.9416722714","0.3470073597","","","","","","","","","","","","72","H","0","img/none_selected.jpg","","91","main_expt",""
"","bandit","171","567263","0.0-132.0-0.0","17322974","wem/bandit_either_3","AM155T4U3RE1A","either","4","153","","","","","","","0","1","0","","0.9077272713","0.2","0.6","0.4","0.8","0.9077272713","0.8466670433","0.943817784","0.4969118024","","","","","","","","","","","","72","H","0","img/none_selected.jpg","","92","main_expt",""
"","bandit","172","568956","0.0-133.0-0.0","17322974","wem/bandit_either_3","AM155T4U3RE1A","either","4","120","","","","","","","0","1","0","","0.875936713","0.2","0.6","0.4","0.8","0.875936713","0.850017275","0.9078517942","0.5773598144","","","","","","","","","","","","72","H","0","img/none_selected.jpg","","93","main_expt",""
"","bandit","173","571577","0.0-134.0-0.0","17322974","wem/bandit_either_3","AM155T4U3RE1A","either","4","908","","","","","","","0","0","1","","0.8089346838","0.2","0.6","0.4","0.8","0.8089346838","0.6893652978","0.8983200186","0.5513550223","","","","","","","","","","","","72","H","0","img/none_selected.jpg","","94","main_expt",""
"","bandit","174","573273","0.0-135.0-0.0","17322974","wem/bandit_either_3","AM155T4U3RE1A","either","4","91","","","","","","","0","1","0","","0.7472177953","0.2","0.6","0.4","0.8","0.7472177953","0.6025630118","0.8744309931","0.5461825447","","","","","","","","","","","","72","H","0","img/none_selected.jpg","","95","main_expt",""
"","bandit","175","575801","0.0-136.0-0.0","17322974","wem/bandit_either_3","AM155T4U3RE1A","either","4","819","","","","","","","0","0","1","","0.631257407","0.2","0.6","0.4","0.8","0.631257407","0.5565182624","0.8894212924","0.5564841108","","","","","","","","","","","","72","H","0","img/none_selected.jpg","","96","main_expt",""
"","bandit","176","577877","0.0-137.0-0.0","17322974","wem/bandit_either_3","AM155T4U3RE1A","either","4","543","","","","","","","0","1","0","","0.7474787878","0.2","0.6","0.4","0.8","0.7474787878","0.4820287155","0.891162681","0.6513715187","","","","","","","","","","","","72","H","0","img/none_selected.jpg","","97","main_expt",""
"","bandit","177","580086","0.0-138.0-0.0","17322974","wem/bandit_either_3","AM155T4U3RE1A","either","4","691","","","","","","","0","1","0","","0.7753317291","0.2","0.6","0.4","0.8","0.7753317291","0.4599621431","0.8495400438","0.7004254565","","","","","","","","","","","","72","H","0","img/none_selected.jpg","","98","main_expt",""
"","bandit","178","582331","0.0-139.0-0.0","17322974","wem/bandit_either_3","AM155T4U3RE1A","either","4","712","","","","","","","0","1","0","","0.7088399779","0.2","0.6","0.4","0.8","0.7088399779","0.4109144258","0.8671572546","0.6473310623","","","","","","","","","","","","72","H","0","img/none_selected.jpg","","99","main_expt",""
"","bandit","179","584422","0.0-140.0-0.0","17322974","wem/bandit_either_3","AM155T4U3RE1A","either","4","481","","","","","","","0","1","0","","0.7328055719","0.2","0.6","0.4","0.8","0.7328055719","0.3466085394","0.8312294914","0.6160818326","","","","","","","","","","","","72","H","0","img/none_selected.jpg","","100","main_expt",""
"","bandit","180","586482","0.0-141.0-0.0","17322974","wem/bandit_either_3","AM155T4U3RE1A","either","4","534","","","","","","","0","1","0","","0.8183789849","0.2","0.6","0.4","0.8","0.8183789849","0.3712289037","0.8135240708","0.6963675268","","","","","","","","","","","","72","H","0","img/none_selected.jpg","","101","main_expt",""
"","bandit","181","588867","0.0-142.0-0.0","17322974","wem/bandit_either_3","AM155T4U3RE1A","either","4","838","","","","","","","0","1","0","","0.7854635714","0.2","0.6","0.4","0.8","0.7854635714","0.3626324234","0.8556055773","0.6339579424","","","","","","","","","","","","72","H","0","img/none_selected.jpg","","102","main_expt",""
"","bandit","182","591059","0.0-143.0-0.0","17322974","wem/bandit_either_3","AM155T4U3RE1A","either","4","363","","","","","","","1","0","0","0.8481411385","","0.2","0.6","0.4","0.8","","","","","0.8481411385","0.2748825764","0.7632006143","0.6908430899","","","","","","","","72","H","0","img/none_selected.jpg","","103","main_expt",""
"","bandit","183","593134","0.0-144.0-0.0","17322974","wem/bandit_either_3","AM155T4U3RE1A","either","4","555","","","","","","","0","1","0","","0.8129446485","0.2","0.6","0.4","0.8","0.8129446485","0.2381725209","0.8273213265","0.6866318891","","","","","","","","","","","","72","H","0","img/none_selected.jpg","","104","main_expt",""
"","bandit","184","595348","0.0-145.0-0.0","17322974","wem/bandit_either_3","AM155T4U3RE1A","either","4","660","","","","","","","0","1","0","","0.7898688037","0.2","0.6","0.4","0.8","0.7898688037","0.1939551764","0.7930501456","0.6749941214","","","","","","","","","","","","72","H","0","img/none_selected.jpg","","105","main_expt",""
"","bandit","185","597441","0.0-146.0-0.0","17322974","wem/bandit_either_3","AM155T4U3RE1A","either","4","575","","","","","","","0","1","0","","0.7810744832","0.2","0.6","0.4","0.8","0.7810744832","0.1884153881","0.7186603115","0.7300347885","","","","","","","","","","","","72","H","0","img/none_selected.jpg","","106","main_expt",""
"","bandit","186","599823","0.0-147.0-0.0","17322974","wem/bandit_either_3","AM155T4U3RE1A","either","4","846","","","","","","","0","0","1","","0.7837395221","0.2","0.6","0.4","0.8","0.7837395221","0.1011451677","0.7155595947","0.8133516847","","","","","","","","","","","","72","H","0","img/none_selected.jpg","","107","main_expt",""
"","bandit","187","602294","0.0-148.0-0.0","17322974","wem/bandit_either_3","AM155T4U3RE1A","either","4","853","","","","","","","1","0","0","0.787971135","","0.2","0.6","0.4","0.8","","","","","0.787971135","0.1500242655","0.7654707556","0.8009432675","","","","","","","","72","H","0","img/none_selected.jpg","","108","main_expt",""
"","bandit","188","604407","0.0-149.0-0.0","17322974","wem/bandit_either_3","AM155T4U3RE1A","either","4","589","","","","","","","0","1","0","","0.6866525704","0.2","0.6","0.4","0.8","0.6866525704","0.1285750889","0.6288612937","0.7379370491","","","","","","","","","","","","72","H","0","img/none_selected.jpg","","109","main_expt",""
"","bandit","189","606741","0.0-150.0-0.0","17322974","wem/bandit_either_3","AM155T4U3RE1A","either","4","661","","","","","","","0","0","1","","0.5824748378","0.2","0.6","0.4","0.8","0.5824748378","0.06279291231","0.6309058105","0.7379992527","","","","","","","","","","","","72","H","0","img/none_selected.jpg","","110","main_expt",""
"","bandit","190","608830","0.0-151.0-0.0","17322974","wem/bandit_either_3","AM155T4U3RE1A","either","4","561","","","","","","","1","0","0","0.659702805","","0.2","0.6","0.4","0.8","","","","","0.659702805","0.07144278273","0.6218965746","0.7464430213","","","","","","","","72","H","0","img/none_selected.jpg","","111","main_expt",""
"","bandit","191","610839","0.0-152.0-0.0","17322974","wem/bandit_either_3","AM155T4U3RE1A","either","4","452","","","","","","","0","1","0","","0.5111205641","0.2","0.6","0.4","0.8","0.5111205641","0.06013221683","0.6741482942","0.7736339118","","","","","","","","","","","","72","H","0","img/none_selected.jpg","","112","main_expt",""
"","bandit","192","612811","0.0-153.0-0.0","17322974","wem/bandit_either_3","AM155T4U3RE1A","either","4","446","","","","","","","0","1","0","","0.4852392648","0.2","0.6","0.4","0.8","0.4852392648","0.1442356489","0.7405202534","0.8480767854","","","","","","","","","","","","72","H","0","img/none_selected.jpg","","113","main_expt",""
"","bandit","193","615232","0.0-154.0-0.0","17322974","wem/bandit_either_3","AM155T4U3RE1A","either","4","858","","","","","","","1","0","0","0.3531287621","","0.2","0.6","0.4","0.8","","","","","0.3531287621","0.1733870882","0.743157628","0.8016933152","","","","","","","","72","H","0","img/none_selected.jpg","","114","main_expt",""
"","bandit","194","617831","0.0-155.0-0.0","17322974","wem/bandit_either_3","AM155T4U3RE1A","either","4","1081","","","","","","","0","0","1","0.4090792957","","0.2","0.6","0.4","0.8","","","","","0.4090792957","0.2198725907","0.7732583829","0.8200260584","","","","","","","","72","H","0","img/none_selected.jpg","","115","main_expt",""
"","bandit","195","620070","0.0-156.0-0.0","17322974","wem/bandit_either_3","AM155T4U3RE1A","either","4","544","","","","","","","0","0","1","","0.4927933112","0.2","0.6","0.4","0.8","0.4927933112","0.2116870815","0.6224016225","0.7761954976","","","","","","","","","","","","72","H","0","img/none_selected.jpg","","116","main_expt",""
"","bandit","196","622262","0.0-157.0-0.0","17322974","wem/bandit_either_3","AM155T4U3RE1A","either","4","664","","","","","","","0","1","0","","0.4255499736","0.2","0.6","0.4","0.8","0.4255499736","0.1293815938","0.6784399158","0.7722233998","","","","","","","","","","","","72","H","0","img/none_selected.jpg","","117","main_expt",""
"","bandit","197","624413","0.0-158.0-0.0","17322974","wem/bandit_either_3","AM155T4U3RE1A","either","4","371","","","","","","","0","0","1","","0.4073726931","0.2","0.6","0.4","0.8","0.4073726931","0.1442073762","0.7499631032","0.8049831996","","","","","","","","","","","","72","H","0","img/none_selected.jpg","","118","main_expt",""
"","bandit","198","626404","0.0-159.0-0.0","17322974","wem/bandit_either_3","AM155T4U3RE1A","either","4","471","","","","","","","0","1","0","","0.2098334931","0.2","0.6","0.4","0.8","0.5447318884","0.2098334931","0.6258432538","0.8469405197","","","","","","","","","","","","74","J","1","","","119","main_expt",""
"","bandit","199","628513","0.0-160.0-0.0","17322974","wem/bandit_either_3","AM155T4U3RE1A","either","4","592","","","","","","","0","0","1","0.243218138","","0.2","0.6","0.4","0.8","","","","","0.5336717705","0.243218138","0.5602994123","0.783925966","","","","","","","","74","J","1","","","120","main_expt",""
"","bandit","200","630378","0.0-161.0-0.0","17322974","wem/bandit_either_3","AM155T4U3RE1A","either","4","131","","","","","","","0","0","1","0.1595445902","","0.2","0.6","0.4","0.8","","","","","0.5621279662","0.1595445902","0.5850644561","0.8031476983","","","","","","","","74","J","1","","","121","main_expt",""
"","bandit","201","632270","0.0-162.0-0.0","17322974","wem/bandit_either_3","AM155T4U3RE1A","either","4","370","","","","","","","0","1","0","","0.6205732407","0.2","0.6","0.4","0.8","0.5664238538","0.1939767007","0.6205732407","0.776878313","","","","","","","","","","","","75","K","2","","","122","main_expt",""
"","bandit","202","634640","0.0-163.0-0.0","17322974","wem/bandit_either_3","AM155T4U3RE1A","either","4","621","","","","","","","1","0","0","0.7954206102","","0.2","0.6","0.4","0.8","","","","","0.6501842916","0.2265728871","0.7954206102","0.7695343448","","","","","","","","75","K","2","","","123","main_expt",""
"","bandit","203","638345","0.0-164.0-0.0","17322974","wem/bandit_either_3","AM155T4U3RE1A","either","4","2190","","","","","","","0","1","0","","0.881213352","0.2","0.6","0.4","0.8","0.5413703051","0.2027469411","0.881213352","0.6154230174","","","","","","","","","","","","75","K","2","","","124","main_expt",""
"","bandit","204","641646","0.0-165.0-0.0","17322974","wem/bandit_either_3","AM155T4U3RE1A","either","4","1574","","","","","","","0","1","0","","0.8598562332","0.2","0.6","0.4","0.8","0.5191338098","0.1506135949","0.8598562332","0.4710930195","","","","","","","","","","","","75","K","2","","","125","main_expt",""
"","bandit","205","645895","0.0-166.0-0.0","17322974","wem/bandit_either_3","AM155T4U3RE1A","either","4","2644","","","","","","","0","1","0","","0.867144728","0.2","0.6","0.4","0.8","0.6232591378","0.1875851228","0.867144728","0.5258886302","","","","","","","","","","","","75","K","2","","","126","main_expt",""
"","bandit","206","647587","0.0-167.0-0.0","17322974","wem/bandit_either_3","AM155T4U3RE1A","either","4","170","","","","","","","1","0","0","0.8677917819","","0.2","0.6","0.4","0.8","","","","","0.601333273","0.2106184636","0.8677917819","0.3996486754","","","","","","","","75","K","2","","","127","main_expt",""
"","bandit","207","652081","0.0-168.0-0.0","17322974","wem/bandit_either_3","AM155T4U3RE1A","either","4","2704","","","","","","","0","1","0","","0.8194058857","0.2","0.6","0.4","0.8","0.6312294041","0.1276240755","0.8194058857","0.3557241191","","","","","","","","","","","","75","K","2","","","128","main_expt",""
"","bandit","208","654294","0.0-169.0-0.0","17322974","wem/bandit_either_3","AM155T4U3RE1A","either","4","692","","","","","","","0","1","0","","0.813940224","0.2","0.6","0.4","0.8","0.6655034733","0.2163335705","0.813940224","0.2432070908","","","","","","","","","","","","75","K","2","","","129","main_expt",""
"","bandit","209","657773","0.0-170.0-0.0","17322974","wem/bandit_either_3","AM155T4U3RE1A","either","4","1871","","","","","","","0","1","0","","0.7296764962","0.2","0.6","0.4","0.8","0.6882303755","0.2448863899","0.7296764962","0.1722843937","","","","","","","","","","","","75","K","2","","","130","main_expt",""
"","bandit","210","659916","0.0-171.0-0.0","17322974","wem/bandit_either_3","AM155T4U3RE1A","either","4","624","","","","","","","0","0","1","0.614258276","","0.2","0.6","0.4","0.8","","","","","0.6772884453","0.3447645787","0.614258276","0.1336027919","","","","","","","","75","K","2","","","131","main_expt",""
"","bandit","211","662104","0.0-172.0-0.0","17322974","wem/bandit_either_3","AM155T4U3RE1A","either","4","667","","","","","","","0","0","1","","0.5349540706","0.2","0.6","0.4","0.8","0.6773684555","0.3622527956","0.5349540706","0.1351629047","","","","","","","","","","","","75","K","2","","","132","main_expt",""
"","bandit","212","663983","0.0-173.0-0.0","17322974","wem/bandit_either_3","AM155T4U3RE1A","either","4","345","","","","","","","1","0","0","0.2495029","","0.2","0.6","0.4","0.8","","","","","0.7437755928","0.2961885878","0.5449090787","0.2495029","","","","","","","","76","L","3","","","133","main_expt",""
"","bandit","213","667404","0.0-174.0-0.0","17322974","wem/bandit_either_3","AM155T4U3RE1A","either","4","1661","","","","","","","0","0","1","0.2118512663","","0.2","0.6","0.4","0.8","","","","","0.7423545867","0.2932126781","0.5037108559","0.2118512663","","","","","","","","76","L","3","","","134","main_expt",""
"","bandit","214","669547","0.0-175.0-0.0","17322974","wem/bandit_either_3","AM155T4U3RE1A","either","4","619","","","","","","","0","0","1","0.2474577379","","0.2","0.6","0.4","0.8","","","","","0.7462440124","0.2836439675","0.5131336393","0.2474577379","","","","","","","","76","L","3","","","135","main_expt",""
"","bandit","215","673279","0.0-176.0-0.0","17322974","wem/bandit_either_3","AM155T4U3RE1A","either","4","2173","","","","","","","0","1","0","","0.6372772774","0.2","0.6","0.4","0.8","0.6372772774","0.1985775905","0.5847952324","0.1496333288","","","","","","","","","","","","72","H","0","img/none_selected.jpg","","136","main_expt",""
"","bandit","216","675883","0.0-177.0-0.0","17322974","wem/bandit_either_3","AM155T4U3RE1A","either","4","839","","","","","","","1","0","0","0.6587707878","","0.2","0.6","0.4","0.8","","","","","0.6587707878","0.2655975","0.5191620222","0.164835495","","","","","","","","72","H","0","img/none_selected.jpg","","137","main_expt",""
"","bandit","217","679655","0.0-178.0-0.0","17322974","wem/bandit_either_3","AM155T4U3RE1A","either","4","2242","","","","","","","1","0","0","0.6545472314","","0.2","0.6","0.4","0.8","","","","","0.6545472314","0.4066298912","0.3830682141","0.1629561883","","","","","","","","72","H","0","img/none_selected.jpg","","138","main_expt",""
"","bandit","218","681757","0.0-179.0-0.0","17322974","wem/bandit_either_3","AM155T4U3RE1A","either","4","394","","","","","","","0","0","1","","0.5773899651","0.2","0.6","0.4","0.8","0.5773899651","0.4537429859","0.3036015776","0.1162724323","","","","","","","","","","","","72","H","0","img/none_selected.jpg","","139","main_expt",""
"","bandit","219","686096","0.0-180.0-0.0","17322974","wem/bandit_either_3","AM155T4U3RE1A","either","4","2572","","","","","","","0","1","0","","0.5786924042","0.2","0.6","0.4","0.8","0.5786924042","0.410026376","0.2541790234","0.1262651596","","","","","","","","","","","","72","H","0","img/none_selected.jpg","","140","main_expt",""
"","bandit","220","688667","0.0-181.0-0.0","17322974","wem/bandit_either_3","AM155T4U3RE1A","either","4","899","","","","","","","0","1","0","","0.4589731036","0.2","0.6","0.4","0.8","0.4589731036","0.3978668086","0.1899663758","0.1258799353","","","","","","","","","","","","72","H","0","img/none_selected.jpg","","141","main_expt",""
"","bandit","221","690981","0.0-182.0-0.0","17322974","wem/bandit_either_3","AM155T4U3RE1A","either","4","795","","","","","","","0","0","1","","0.3667804619","0.2","0.6","0.4","0.8","0.3667804619","0.4096738096","0.214868544","0.1220135665","","","","","","","","","","","","72","H","0","img/none_selected.jpg","","142","main_expt",""
"","bandit","222","693027","0.0-183.0-0.0","17322974","wem/bandit_either_3","AM155T4U3RE1A","either","4","478","","","","","","","0","0","1","0.3563831379","","0.2","0.6","0.4","0.8","","","","","0.3563831379","0.5422751762","0.1549416237","0.1600355681","","","","","","","","72","H","0","img/none_selected.jpg","","143","main_expt",""
"","bandit","223","694870","0.0-184.0-0.0","17322974","wem/bandit_either_3","AM155T4U3RE1A","either","4","325","","","","","","","0","0","1","0.6045197677","","0.2","0.6","0.4","0.8","","","","","0.3675361202","0.6045197677","0.2142728447","0.103653669","","","","","","","","74","J","1","","","144","main_expt",""
"","bandit","224","696921","0.0-185.0-0.0","17322974","wem/bandit_either_3","AM155T4U3RE1A","either","4","537","","","","","","","0","0","1","0.2166472609","","0.2","0.6","0.4","0.8","","","","","0.3266856562","0.6140727406","0.2166472609","0.1417267119","","","","","","","","75","K","2","","","145","main_expt",""
"","bandit","225","698971","0.0-186.0-0.0","17322974","wem/bandit_either_3","AM155T4U3RE1A","either","4","302","","","","","","","0","0","1","0.1508894681","","0.2","0.6","0.4","0.8","","","","","0.2815179259","0.5553742365","0.2446047688","0.1508894681","","","","","","","","76","L","3","","","146","main_expt",""
"","bandit","226","700799","0.0-187.0-0.0","17322974","wem/bandit_either_3","AM155T4U3RE1A","either","4","288","","","","","","","0","0","1","","0.3560244833","0.2","0.6","0.4","0.8","0.3560244833","0.52787167","0.3011136322","0.1207147728","","","","","","","","","","","","72","H","0","img/none_selected.jpg","","147","main_expt",""
"","bandit","227","702608","0.0-188.0-0.0","17322974","wem/bandit_either_3","AM155T4U3RE1A","either","4","276","","","","","","","0","0","1","0.5053851794","","0.2","0.6","0.4","0.8","","","","","0.3585854149","0.5053851794","0.2519777133","0.1362234148","","","","","","","","74","J","1","","","148","main_expt",""
"","bandit","228","705008","0.0-189.0-0.0","17322974","wem/bandit_either_3","AM155T4U3RE1A","either","4","883","","","","","","","1","0","0","0.2996109941","","0.2","0.6","0.4","0.8","","","","","0.284478414","0.5431256022","0.2996109941","0.1244444975","","","","","","","","75","K","2","","","149","main_expt",""
"","bandit","229","706901","0.0-190.0-0.0","17322974","wem/bandit_either_3","AM155T4U3RE1A","either","4","379","","","","","","","0","1","0","","0.2963563975","0.2","0.6","0.4","0.8","0.2617238314","0.422574086","0.2963563975","0.1109305632","","","","","","","","","","","","75","K","2","","","150","main_expt",""
"","bandit","230","708781","0.0-191.0-0.0","17322974","wem/bandit_either_3","AM155T4U3RE1A","either","4","367","","","","","","","0","0","1","0.4327396174","","0.2","0.6","0.4","0.8","","","","","0.2709462114","0.3907227364","0.4327396174","0.11412436","","","","","","","","75","K","2","","","151","main_expt",""
"","bandit","231","710808","0.0-192.0-0.0","17322974","wem/bandit_either_3","AM155T4U3RE1A","either","4","336","","","","","","","0","1","0","","0.4303068123","0.2","0.6","0.4","0.8","0.2993716907","0.5580814469","0.4303068123","0.1469045903","","","","","","","","","","","","75","K","2","","","152","main_expt",""
"","bandit","232","712685","0.0-193.0-0.0","17322974","wem/bandit_either_3","AM155T4U3RE1A","either","4","343","","","","","","","0","1","0","","0.455197397","0.2","0.6","0.4","0.8","0.2733354782","0.51223936","0.455197397","0.1633028487","","","","","","","","","","","","75","K","2","","","153","main_expt",""
"","bandit","233","714535","0.0-194.0-0.0","17322974","wem/bandit_either_3","AM155T4U3RE1A","either","4","332","","","","","","","0","1","0","","0.6184454144","0.2","0.6","0.4","0.8","0.3264007987","0.4811601507","0.6184454144","0.1340882311","","","","","","","","","","","","75","K","2","","","154","main_expt",""
"","bandit","234","716383","0.0-195.0-0.0","17322974","wem/bandit_either_3","AM155T4U3RE1A","either","4","317","","","","","","","0","0","1","0.5833601464","","0.2","0.6","0.4","0.8","","","","","0.204433578","0.575425417","0.5833601464","0.1041462846","","","","","","","","75","K","2","","","155","main_expt",""
"","bandit","235","717974","0.0-196.0-0.0","17322974","wem/bandit_either_3","AM155T4U3RE1A","either","4","71","","","","","","","1","0","0","0.646897734","","0.2","0.6","0.4","0.8","","","","","0.07451572188","0.6109018817","0.646897734","0.08564190031","","","","","","","","75","K","2","","","156","main_expt",""
"","bandit","236","719939","0.0-197.0-0.0","17322974","wem/bandit_either_3","AM155T4U3RE1A","either","4","442","","","","","","","0","0","1","","0.6912470103","0.2","0.6","0.4","0.8","0.1251686374","0.6812883852","0.6912470103","0.06977116317","","","","","","","","","","","","75","K","2","","","157","main_expt",""
"","bandit","237","723183","0.0-198.0-0.0","17322974","wem/bandit_either_3","AM155T4U3RE1A","either","4","1721","","","","","","","0","1","0","","0.7865398282","0.2","0.6","0.4","0.8","0.1292052795","0.73777041","0.7865398282","0.1504927074","","","","","","","","","","","","75","K","2","","","158","main_expt",""
"","bandit","238","725099","0.0-199.0-0.0","17322974","wem/bandit_either_3","AM155T4U3RE1A","either","4","394","","","","","","","0","1","0","","0.7220910122","0.2","0.6","0.4","0.8","0.1200050714","0.8388849062","0.7220910122","0.1429264201","","","","","","","","","","","","75","K","2","","","159","main_expt",""
"","bandit","239","727241","0.0-200.0-0.0","17322974","wem/bandit_either_3","AM155T4U3RE1A","either","4","531","","","","","","","0","1","0","","0.710563805","0.2","0.6","0.4","0.8","0.1156014834","0.8006667519","0.710563805","0.1832893837","","","","","","","","","","","","75","K","2","","","160","main_expt",""
"","bandit","240","729724","0.0-201.0-0.0","17322974","wem/bandit_either_3","AM155T4U3RE1A","either","4","960","","","","","","","1","0","0","0.6205281072","","0.2","0.6","0.4","0.8","","","","","0.1425751263","0.7406956812","0.6205281072","0.2337310763","","","","","","","","75","K","2","","","161","main_expt",""
"","bandit","241","731489","0.0-202.0-0.0","17322974","wem/bandit_either_3","AM155T4U3RE1A","either","4","174","","","","","","","0","0","1","","0.5246840185","0.2","0.6","0.4","0.8","0.2108345254","0.775259894","0.5246840185","0.2326198937","","","","","","","","","","","","75","K","2","","","162","main_expt",""
"","bandit","242","733708","0.0-203.0-0.0","17322974","wem/bandit_either_3","AM155T4U3RE1A","either","4","692","","","","","","","0","0","1","","0.569340372","0.2","0.6","0.4","0.8","0.1664621688","0.6539471222","0.569340372","0.1584290897","","","","","","","","","","","","75","K","2","","","163","main_expt",""
"","bandit","243","735726","0.0-204.0-0.0","17322974","wem/bandit_either_3","AM155T4U3RE1A","either","4","483","","","","","","","0","0","1","0.1417900361","","0.2","0.6","0.4","0.8","","","","","0.1741279052","0.7914062868","0.5688323765","0.1417900361","","","","","","","","76","L","3","","","164","main_expt",""
"","bandit","244","737659","0.0-205.0-0.0","17322974","wem/bandit_either_3","AM155T4U3RE1A","either","4","411","","","","","","","0","1","0","","0.1891196979","0.2","0.6","0.4","0.8","0.1891196979","0.8415061218","0.5195648955","0.08849486786","","","","","","","","","","","","72","H","0","img/none_selected.jpg","","165","main_expt",""
"","bandit","245","739735","0.0-206.0-0.0","17322974","wem/bandit_either_3","AM155T4U3RE1A","either","4","303","","","","","","","0","0","1","0.3016440744","","0.2","0.6","0.4","0.8","","","","","0.3016440744","0.9084068317","0.536500984","0.1010416226","","","","","","","","72","H","0","img/none_selected.jpg","","166","main_expt",""
"","bandit","246","741424","0.0-207.0-0.0","17322974","wem/bandit_either_3","AM155T4U3RE1A","either","4","154","","","","","","","0","0","1","","0.3427468607","0.2","0.6","0.4","0.8","0.3427468607","0.8857506799","0.4243381616","0.1506776516","","","","","","","","","","","","72","H","0","img/none_selected.jpg","","167","main_expt",""
"","bandit","247","744970","0.0-208.0-0.0","17322974","wem/bandit_either_3","AM155T4U3RE1A","either","4","1941","","","","","","","0","0","1","","0.3759001064","0.2","0.6","0.4","0.8","0.3759001064","0.9247721234","0.4877327119","0.2532220847","","","","","","","","","","","","72","H","0","img/none_selected.jpg","","168","main_expt",""
"","bandit","248","747145","0.0-209.0-0.0","17322974","wem/bandit_either_3","AM155T4U3RE1A","either","4","401","","","","","","","1","0","0","0.8870410368","","0.2","0.6","0.4","0.8","","","","","0.3824832387","0.8870410368","0.5096331713","0.2223654062","","","","","","","","74","J","1","","","169","main_expt",""
"","bandit","249","749100","0.0-210.0-0.0","17322974","wem/bandit_either_3","AM155T4U3RE1A","either","4","212","","","","","","","0","1","0","","0.8782412079","0.2","0.6","0.4","0.8","0.3257043992","0.8782412079","0.6111595203","0.2161840498","","","","","","","","","","","","74","J","1","","","170","main_expt",""
"","bandit","250","751190","0.0-211.0-0.0","17322974","wem/bandit_either_3","AM155T4U3RE1A","either","4","565","","","","","","","0","0","1","","0.7978982074","0.2","0.6","0.4","0.8","0.2943589708","0.7978982074","0.5888321224","0.1996440145","","","","","","","","","","","","74","J","1","","","171","main_expt",""
"","bandit","251","752813","0.0-212.0-0.0","17322974","wem/bandit_either_3","AM155T4U3RE1A","either","4","109","","","","","","","1","0","0","0.7896885826","","0.2","0.6","0.4","0.8","","","","","0.4298537702","0.7896885826","0.6295404033","0.275753823","","","","","","","","74","J","1","","","172","main_expt",""
"","bandit","252","754815","0.0-213.0-0.0","17322974","wem/bandit_either_3","AM155T4U3RE1A","either","4","430","","","","","","","0","1","0","","0.7771385218","0.2","0.6","0.4","0.8","0.4196262671","0.7771385218","0.5976712981","0.2850946521","","","","","","","","","","","","74","J","1","","","173","main_expt",""
"","bandit","253","756782","0.0-214.0-0.0","17322974","wem/bandit_either_3","AM155T4U3RE1A","either","4","414","","","","","","","1","0","0","0.8412209493","","0.2","0.6","0.4","0.8","","","","","0.4056978145","0.8412209493","0.5936331925","0.2836726952","","","","","","","","74","J","1","","","174","main_expt",""
"","bandit","254","758381","0.0-215.0-0.0","17322974","wem/bandit_either_3","AM155T4U3RE1A","either","4","75","","","","","","","1","0","0","0.8433491626","","0.2","0.6","0.4","0.8","","","","","0.3323311207","0.8433491626","0.544145328","0.27413619","","","","","","","","74","J","1","","","175","main_expt",""
"","bandit","255","760326","0.0-216.0-0.0","17322974","wem/bandit_either_3","AM155T4U3RE1A","either","4","212","","","","","","","0","0","1","","0.778586436","0.2","0.6","0.4","0.8","0.3087900888","0.778586436","0.3584947592","0.2369491767","","","","","","","","","","","","74","J","1","","","176","main_expt",""
"","bandit","256","762217","0.0-217.0-0.0","17322974","wem/bandit_either_3","AM155T4U3RE1A","either","4","372","","","","","","","1","0","0","0.7488794252","","0.2","0.6","0.4","0.8","","","","","0.3898613412","0.7488794252","0.436171931","0.3440943848","","","","","","","","74","J","1","","","177","main_expt",""
"","bandit","257","764450","0.0-218.0-0.0","17322974","wem/bandit_either_3","AM155T4U3RE1A","either","4","449","","","","","","","0","0","1","0.7738581751","","0.2","0.6","0.4","0.8","","","","","0.5236321052","0.7738581751","0.5193680035","0.3529135521","","","","","","","","74","J","1","","","178","main_expt",""
"","bandit","258","766245","0.0-219.0-0.0","17322974","wem/bandit_either_3","AM155T4U3RE1A","either","4","278","","","","","","","1","0","0","0.7527820287","","0.2","0.6","0.4","0.8","","","","","0.2955080601","0.7527820287","0.3957798075","0.3787243664","","","","","","","","74","J","1","","","179","main_expt",""
"","bandit","259","768245","0.0-220.0-0.0","17322974","wem/bandit_either_3","AM155T4U3RE1A","either","4","486","","","","","","","0","1","0","","0.8022950929","0.2","0.6","0.4","0.8","0.3174151272","0.8022950929","0.4249873197","0.3092677326","","","","","","","","","","","","74","J","1","","","180","main_expt",""
"","bandit","260","770358","0.0-221.0-0.0","17322974","wem/bandit_either_3","AM155T4U3RE1A","either","4","350","","","","","","","1","0","0","0.7505347306","","0.2","0.6","0.4","0.8","","","","","0.3560995969","0.7505347306","0.4260342439","0.3701559146","","","","","","","","74","J","1","","","181","main_expt",""
"","bandit","261","772215","0.0-222.0-0.0","17322974","wem/bandit_either_3","AM155T4U3RE1A","either","4","246","","","","","","","1","0","0","0.603349844","","0.2","0.6","0.4","0.8","","","","","0.4649908644","0.603349844","0.4305619521","0.2672844749","","","","","","","","74","J","1","","","182","main_expt",""
"","bandit","262","773920","0.0-223.0-0.0","17322974","wem/bandit_either_3","AM155T4U3RE1A","either","4","88","","","","","","","0","0","1","0.6464544124","","0.2","0.6","0.4","0.8","","","","","0.4588174784","0.6464544124","0.4638513582","0.3046315644","","","","","","","","74","J","1","","","183","main_expt",""
"","bandit","263","775508","0.0-224.0-0.0","17322974","wem/bandit_either_3","AM155T4U3RE1A","either","4","0","","","","","","","1","0","0","0.6606024443","","0.2","0.6","0.4","0.8","","","","","0.509799977","0.6606024443","0.5084330557","0.3507685813","","","","","","","","74","J","1","","","184","main_expt",""
"","bandit","264","777430","0.0-225.0-0.0","17322974","wem/bandit_either_3","AM155T4U3RE1A","either","4","403","","","","","","","0","1","0","","0.7034535028","0.2","0.6","0.4","0.8","0.4557178443","0.7034535028","0.5853778332","0.3250269766","","","","","","","","","","","","74","J","1","","","185","main_expt",""
"","bandit","265","779584","0.0-226.0-0.0","17322974","wem/bandit_either_3","AM155T4U3RE1A","either","4","626","","","","","","","1","0","0","0.7672503758","","0.2","0.6","0.4","0.8","","","","","0.3250172706","0.7672503758","0.5009207633","0.3636669497","","","","","","","","74","J","1","","","186","main_expt",""
"","bandit","266","781641","0.0-227.0-0.0","17322974","wem/bandit_either_3","AM155T4U3RE1A","either","4","400","","","","","","","0","0","1","0.7505037824","","0.2","0.6","0.4","0.8","","","","","0.2982192525","0.7505037824","0.4376492532","0.4095027401","","","","","","","","74","J","1","","","187","main_expt",""
"","bandit","267","783486","0.0-228.0-0.0","17322974","wem/bandit_either_3","AM155T4U3RE1A","either","4","74","","","","","","","0","0","1","","0.7458261356","0.2","0.6","0.4","0.8","0.2647713636","0.7458261356","0.317868257","0.3356624093","","","","","","","","","","","","74","J","1","","","188","main_expt",""
"","bandit","268","785108","0.0-229.0-0.0","17322974","wem/bandit_either_3","AM155T4U3RE1A","either","4","93","","","","","","","0","0","1","","0.3700786551","0.2","0.6","0.4","0.8","0.2798663258","0.747965221","0.3700786551","0.3717951419","","","","","","","","","","","","75","K","2","","","189","main_expt",""
"","bandit","269","787654","0.0-230.0-0.0","17322974","wem/bandit_either_3","AM155T4U3RE1A","either","4","721","","","","","","","0","0","1","","0.3266606931","0.2","0.6","0.4","0.8","0.2146362806","0.7459095382","0.3423477616","0.3266606931","","","","","","","","","","","","76","L","3","","","190","main_expt",""
"","bandit","270","789813","0.0-231.0-0.0","17322974","wem/bandit_either_3","AM155T4U3RE1A","either","4","638","","","","","","","0","0","1","","0.3132783624","0.2","0.6","0.4","0.8","0.3132783624","0.6299055833","0.2488230813","0.4206899072","","","","","","","","","","","","72","H","0","img/none_selected.jpg","","191","main_expt",""
"","bandit","271","791883","0.0-232.0-0.0","17322974","wem/bandit_either_3","AM155T4U3RE1A","either","4","418","","","","","","","0","1","0","","0.688533977","0.2","0.6","0.4","0.8","0.2488083766","0.688533977","0.2193108308","0.4982817076","","","","","","","","","","","","74","J","1","","","192","main_expt",""
"","bandit","272","793950","0.0-233.0-0.0","17322974","wem/bandit_either_3","AM155T4U3RE1A","either","4","547","","","","","","","1","0","0","0.7176496952","","0.2","0.6","0.4","0.8","","","","","0.225611763","0.7176496952","0.4057276106","0.4820211017","","","","","","","","74","J","1","","","193","main_expt",""
"","bandit","273","795701","0.0-234.0-0.0","17322974","wem/bandit_either_3","AM155T4U3RE1A","either","4","236","","","","","","","0","1","0","","0.746212457","0.2","0.6","0.4","0.8","0.2159393038","0.746212457","0.3826056333","0.5373891537","","","","","","","","","","","","74","J","1","","","194","main_expt",""
"","bandit","274","797661","0.0-235.0-0.0","17322974","wem/bandit_either_3","AM155T4U3RE1A","either","4","445","","","","","","","1","0","0","0.6800784202","","0.2","0.6","0.4","0.8","","","","","0.3112228701","0.6800784202","0.4922935908","0.3890275207","","","","","","","","74","J","1","","","195","main_expt",""
"","bandit","275","800242","0.0-236.0-0.0","17322974","wem/bandit_either_3","AM155T4U3RE1A","either","4","959","","","","","","","0","0","1","","0.5986295964","0.2","0.6","0.4","0.8","0.3249051539","0.5986295964","0.5475793877","0.4329462643","","","","","","","","","","","","74","J","1","","","196","main_expt",""
"","bandit","276","802229","0.0-237.0-0.0","17322974","wem/bandit_either_3","AM155T4U3RE1A","either","4","397","","","","","","","1","0","0","0.5323622673","","0.2","0.6","0.4","0.8","","","","","0.2985018541","0.5323622673","0.6069385875","0.416825946","","","","","","","","74","J","1","","","197","main_expt",""
"","bandit","277","804334","0.0-238.0-0.0","17322974","wem/bandit_either_3","AM155T4U3RE1A","either","4","586","","","","","","","1","0","0","0.5348043844","","0.2","0.6","0.4","0.8","","","","","0.3109366799","0.5348043844","0.4946816555","0.4063336836","","","","","","","","74","J","1","","","198","main_expt",""
"","bandit","278","806397","0.0-239.0-0.0","17322974","wem/bandit_either_3","AM155T4U3RE1A","either","4","533","","","","","","","0","0","1","","0.4534403339","0.2","0.6","0.4","0.8","0.3143364341","0.4534403339","0.479635203","0.361264989","","","","","","","","","","","","74","J","1","","","199","main_expt",""
"","bandit","279","808286","0.0-240.0-0.0","17322974","wem/bandit_either_3","AM155T4U3RE1A","either","4","366","","","","","","","0","0","1","","0.4185876589","0.2","0.6","0.4","0.8","0.3176919365","0.4185876589","0.4969837249","0.4700223374","","","","","","","","","","","","74","J","1","","","200","main_expt",""
"","bandit","280","810111","0.0-241.0-0.0","17322974","wem/bandit_either_3","AM155T4U3RE1A","either","4","305","","","","","","","0","0","1","","0.4548125401","0.2","0.6","0.4","0.8","0.2848283651","0.3812211227","0.4548125401","0.4751543938","","","","","","","","","","","","75","K","2","","","201","main_expt",""
"","bandit","281","811929","0.0-242.0-0.0","17322974","wem/bandit_either_3","AM155T4U3RE1A","either","4","288","","","","","","","1","0","0","0.4044794657","","0.2","0.6","0.4","0.8","","","","","0.2439676923","0.4414728031","0.5767771981","0.4044794657","","","","","","","","76","L","3","","","202","main_expt",""
"","bandit","282","813801","0.0-243.0-0.0","17322974","wem/bandit_either_3","AM155T4U3RE1A","either","4","350","","","","","","","0","0","1","0.3321077444","","0.2","0.6","0.4","0.8","","","","","0.2582922662","0.3698030662","0.6118171827","0.3321077444","","","","","","","","76","L","3","","","203","main_expt",""
"","bandit","283","815333","0.0-244.0-0.0","17322974","wem/bandit_either_3","AM155T4U3RE1A","either","4","12","","","","","","","0","0","1","0.3697340749","","0.2","0.6","0.4","0.8","","","","","0.3799793739","0.4899087748","0.5373194108","0.3697340749","","","","","","","","76","L","3","","","204","main_expt",""
"","bandit","284","817901","0.0-245.0-0.0","17322974","wem/bandit_either_3","AM155T4U3RE1A","either","4","1054","","","","","","","0","0","1","0.3998168993","","0.2","0.6","0.4","0.8","","","","","0.4441528059","0.4310108402","0.5501461309","0.3998168993","","","","","","","","76","L","3","","","205","main_expt",""
"","bandit","285","819774","0.0-246.0-0.0","17322974","wem/bandit_either_3","AM155T4U3RE1A","either","4","342","","","","","","","0","0","1","","0.4468516792","0.2","0.6","0.4","0.8","0.4468516792","0.3912115078","0.5094027242","0.4929909192","","","","","","","","","","","","72","H","0","img/none_selected.jpg","","206","main_expt",""
"","bandit","286","821913","0.0-247.0-0.0","17322974","wem/bandit_either_3","AM155T4U3RE1A","either","4","322","","","","","","","0","0","1","","0.399366085","0.2","0.6","0.4","0.8","0.399366085","0.3195818707","0.6449696869","0.4960693894","","","","","","","","","","","","72","H","0","img/none_selected.jpg","","207","main_expt",""
"","bandit","287","823788","0.0-248.0-0.0","17322974","wem/bandit_either_3","AM155T4U3RE1A","either","4","340","","","","","","","0","0","1","","0.2378171997","0.2","0.6","0.4","0.8","0.4206610772","0.2378171997","0.549996868","0.3912862986","","","","","","","","","","","","74","J","1","","","208","main_expt",""
"","bandit","288","825647","0.0-249.0-0.0","17322974","wem/bandit_either_3","AM155T4U3RE1A","either","4","342","","","","","","","0","0","1","0.2339104391","","0.2","0.6","0.4","0.8","","","","","0.5145499259","0.2339104391","0.5258833792","0.4218938049","","","","","","","","74","J","1","","","209","main_expt",""
"","bandit","289","827552","0.0-250.0-0.0","17322974","wem/bandit_either_3","AM155T4U3RE1A","either","4","372","","","","","","","0","0","1","","0.5453980868","0.2","0.6","0.4","0.8","0.3497539355","0.2506558306","0.5453980868","0.6003160005","","","","","","","","","","","","75","K","2","","","210","main_expt",""
"","bandit","290","829590","0.0-251.0-0.0","17322974","wem/bandit_either_3","AM155T4U3RE1A","either","4","239","","","","","","","1","0","0","0.5370950561","","0.2","0.6","0.4","0.8","","","","","0.3335821388","0.3466578502","0.5370950561","0.5481562991","","","","","","","","75","K","2","","","211","main_expt",""
"","bandit","291","831359","0.0-252.0-0.0","17322974","wem/bandit_either_3","AM155T4U3RE1A","either","4","250","","","","","","","1","0","0","0.5774996514","","0.2","0.6","0.4","0.8","","","","","0.2778022227","0.4162959965","0.5774996514","0.6210595125","","","","","","","","75","K","2","","","212","main_expt",""
"","bandit","292","833167","0.0-253.0-0.0","17322974","wem/bandit_either_3","AM155T4U3RE1A","either","4","226","","","","","","","0","0","1","","0.4826056363","0.2","0.6","0.4","0.8","0.2949104287","0.545788555","0.4826056363","0.7732161257","","","","","","","","","","","","75","K","2","","","213","main_expt",""
"","bandit","293","835195","0.0-254.0-0.0","17322974","wem/bandit_either_3","AM155T4U3RE1A","either","4","508","","","","","","","0","0","1","","0.4913277851","0.2","0.6","0.4","0.8","0.2443343027","0.6077749924","0.4913277851","0.7689771773","","","","","","","","","","","","75","K","2","","","214","main_expt",""
"","bandit","294","837160","0.0-255.0-0.0","17322974","wem/bandit_either_3","AM155T4U3RE1A","either","4","396","","","","","","","0","1","0","","0.5415006571","0.2","0.6","0.4","0.8","0.2232989174","0.4883429648","0.5415006571","0.6841712945","","","","","","","","","","","","75","K","2","","","215","main_expt",""
"","bandit","295","839125","0.0-256.0-0.0","17322974","wem/bandit_either_3","AM155T4U3RE1A","either","4","447","","","","","","","0","1","0","","0.5198015267","0.2","0.6","0.4","0.8","0.2918619336","0.3309854328","0.5198015267","0.7019934296","","","","","","","","","","","","75","K","2","","","216","main_expt",""
"","bandit","296","841183","0.0-257.0-0.0","17322974","wem/bandit_either_3","AM155T4U3RE1A","either","4","341","","","","","","","0","0","1","","0.545097872","0.2","0.6","0.4","0.8","0.3571058798","0.3310528633","0.545097872","0.7537099884","","","","","","","","","","","","75","K","2","","","217","main_expt",""
"","bandit","297","843026","0.0-258.0-0.0","17322974","wem/bandit_either_3","AM155T4U3RE1A","either","4","315","","","","","","","0","0","1","0.5776025334","","0.2","0.6","0.4","0.8","","","","","0.3738303097","0.4147218791","0.5776025334","0.8428980993","","","","","","","","75","K","2","","","218","main_expt",""
"","bandit","298","844852","0.0-259.0-0.0","17322974","wem/bandit_either_3","AM155T4U3RE1A","either","4","301","","","","","","","0","1","0","","0.5616346574","0.2","0.6","0.4","0.8","0.4832874948","0.3402104323","0.5616346574","0.8007326434","","","","","","","","","","","","75","K","2","","","219","main_expt",""
"","bandit","299","846940","0.0-260.0-0.0","17322974","wem/bandit_either_3","AM155T4U3RE1A","either","4","500","","","","","","","0","1","0","","0.6261942659","0.2","0.6","0.4","0.8","0.475455537","0.3448871422","0.6261942659","0.8518850648","","","","","","","","","","","","75","K","2","","","220","main_expt",""
"","bandit","300","848829","0.0-261.0-0.0","17322974","wem/bandit_either_3","AM155T4U3RE1A","either","4","374","","","","","","","0","1","0","","0.6533416475","0.2","0.6","0.4","0.8","0.3849790123","0.4438284365","0.6533416475","0.8488451861","","","","","","","","","","","","75","K","2","","","221","main_expt",""
"","bandit","301","851015","0.0-262.0-0.0","17322974","wem/bandit_either_3","AM155T4U3RE1A","either","4","198","","","","","","","1","0","0","0.6780524799","","0.2","0.6","0.4","0.8","","","","","0.2708628555","0.3768672835","0.6780524799","0.8202185963","","","","","","","","75","K","2","","","222","main_expt",""
"","bandit","302","852854","0.0-263.0-0.0","17322974","wem/bandit_either_3","AM155T4U3RE1A","either","4","316","","","","","","","0","0","1","","0.638470603","0.2","0.6","0.4","0.8","0.3886191555","0.4599748191","0.638470603","0.839196386","","","","","","","","","","","","75","K","2","","","223","main_expt",""
"","bandit","303","854853","0.0-264.0-0.0","17322974","wem/bandit_either_3","AM155T4U3RE1A","either","4","481","","","","","","","0","0","1","","0.560582988","0.2","0.6","0.4","0.8","0.3352763987","0.5868274652","0.560582988","0.8340435664","","","","","","","","","","","","75","K","2","","","224","main_expt",""
"","bandit","304","856890","0.0-265.0-0.0","17322974","wem/bandit_either_3","AM155T4U3RE1A","either","4","348","","","","","","","1","0","0","0.8229669419","","0.2","0.6","0.4","0.8","","","","","0.3948846532","0.510759767","0.5004803289","0.8229669419","","","","","","","","76","L","3","","","225","main_expt",""
"","bandit","305","858723","0.0-266.0-0.0","17322974","wem/bandit_either_3","AM155T4U3RE1A","either","4","312","","","","","","","1","0","0","0.8326575293","","0.2","0.6","0.4","0.8","","","","","0.385279681","0.6026028704","0.5109709899","0.8326575293","","","","","","","","76","L","3","","","226","main_expt",""
"","bandit","306","860646","0.0-267.0-0.0","17322974","wem/bandit_either_3","AM155T4U3RE1A","either","4","392","","","","","","","0","1","0","","0.8904476858","0.2","0.6","0.4","0.8","0.3296530349","0.588132951","0.4271661703","0.8904476858","","","","","","","","","","","","76","L","3","","","227","main_expt",""
"","bandit","307","862795","0.0-268.0-0.0","17322974","wem/bandit_either_3","AM155T4U3RE1A","either","4","626","","","","","","","1","0","0","0.8877596604","","0.2","0.6","0.4","0.8","","","","","0.4227788413","0.5754590721","0.374673526","0.8877596604","","","","","","","","76","L","3","","","228","main_expt",""
"","bandit","308","864834","0.0-269.0-0.0","17322974","wem/bandit_either_3","AM155T4U3RE1A","either","4","518","","","","","","","1","0","0","0.8647697669","","0.2","0.6","0.4","0.8","","","","","0.4470353227","0.6311951266","0.393435759","0.8647697669","","","","","","","","76","L","3","","","229","main_expt",""
"","bandit","309","866624","0.0-270.0-0.0","17322974","wem/bandit_either_3","AM155T4U3RE1A","either","4","269","","","","","","","0","0","1","0.8704214291","","0.2","0.6","0.4","0.8","","","","","0.2986819632","0.6164228117","0.3299431778","0.8704214291","","","","","","","","76","L","3","","","230","main_expt",""
"","bandit","310","868770","0.0-271.0-0.0","17322974","wem/bandit_either_3","AM155T4U3RE1A","either","4","451","","","","","","","1","0","0","0.8598686354","","0.2","0.6","0.4","0.8","","","","","0.4508866759","0.5943568022","0.3477061432","0.8598686354","","","","","","","","76","L","3","","","231","main_expt",""
"","bandit","311","870824","0.0-272.0-0.0","17322974","wem/bandit_either_3","AM155T4U3RE1A","either","4","533","","","","","","","1","0","0","0.7939027672","","0.2","0.6","0.4","0.8","","","","","0.5125968159","0.6032910051","0.3430234075","0.7939027672","","","","","","","","76","L","3","","","232","main_expt",""
"","bandit","312","872902","0.0-273.0-0.0","17322974","wem/bandit_either_3","AM155T4U3RE1A","either","4","543","","","","","","","1","0","0","0.7930400566","","0.2","0.6","0.4","0.8","","","","","0.6020802482","0.7225660168","0.2812772396","0.7930400566","","","","","","","","76","L","3","","","233","main_expt",""
"","bandit","313","874949","0.0-274.0-0.0","17322974","wem/bandit_either_3","AM155T4U3RE1A","either","4","331","","","","","","","0","0","1","0.7549101179","","0.2","0.6","0.4","0.8","","","","","0.5927943616","0.6718439238","0.2049555934","0.7549101179","","","","","","","","76","L","3","","","234","main_expt",""
"","bandit","314","876768","0.0-275.0-0.0","17322974","wem/bandit_either_3","AM155T4U3RE1A","either","4","298","","","","","","","0","0","1","0.7654291135","","0.2","0.6","0.4","0.8","","","","","0.5814417759","0.6025803433","0.144612338","0.7654291135","","","","","","","","76","L","3","","","235","main_expt",""
"","bandit","315","878637","0.0-276.0-0.0","17322974","wem/bandit_either_3","AM155T4U3RE1A","either","4","354","","","","","","","1","0","0","0.6965918162","","0.2","0.6","0.4","0.8","","","","","0.6530024001","0.6170166349","0.1509581517","0.6965918162","","","","","","","","76","L","3","","","236","main_expt",""
"","bandit","316","880760","0.0-277.0-0.0","17322974","wem/bandit_either_3","AM155T4U3RE1A","either","4","608","","","","","","","1","0","0","0.8151927982","","0.2","0.6","0.4","0.8","","","","","0.5861490443","0.6426153702","0.2267465707","0.8151927982","","","","","","","","76","L","3","","","237","main_expt",""
"","bandit","317","882863","0.0-278.0-0.0","17322974","wem/bandit_either_3","AM155T4U3RE1A","either","4","337","","","","","","","0","0","1","0.7696745118","","0.2","0.6","0.4","0.8","","","","","0.6086881899","0.5421138037","0.1651127221","0.7696745118","","","","","","","","76","L","3","","","238","main_expt",""
"","bandit","318","884681","0.0-279.0-0.0","17322974","wem/bandit_either_3","AM155T4U3RE1A","either","4","288","","","","","","","0","1","0","","0.7368178416","0.2","0.6","0.4","0.8","0.6323362843","0.5534077834","0.1587945469","0.7368178416","","","","","","","","","","","","76","L","3","","","239","main_expt",""
"","bandit","319","886601","0.0-280.0-0.0","17322974","wem/bandit_either_3","AM155T4U3RE1A","either","4","400","","","","","","","0","1","0","","0.6443792527","0.2","0.6","0.4","0.8","0.5620837446","0.7267030345","0.08644000702","0.6443792527","","","","","","","","","","","","76","L","3","","","240","main_expt",""
"","bandit","320","888468","0.0-281.0-0.0","17322974","wem/bandit_either_3","AM155T4U3RE1A","either","4","347","","","","","","","0","1","0","","0.6467572307","0.2","0.6","0.4","0.8","0.5571148452","0.7211407476","0.06677296221","0.6467572307","","","","","","","","","","","","76","L","3","","","241","main_expt",""
"","bandit","321","890575","0.0-282.0-0.0","17322974","wem/bandit_either_3","AM155T4U3RE1A","either","4","478","","","","","","","1","0","0","0.6131120494","","0.2","0.6","0.4","0.8","","","","","0.4016720442","0.6764936995","0.08066643837","0.6131120494","","","","","","","","76","L","3","","","242","main_expt",""
"","bandit","322","892390","0.0-283.0-0.0","17322974","wem/bandit_either_3","AM155T4U3RE1A","either","4","295","","","","","","","1","0","0","0.7409975133","","0.2","0.6","0.4","0.8","","","","","0.5389796081","0.6677952341","0.08086195374","0.7409975133","","","","","","","","76","L","3","","","243","main_expt",""
"","bandit","323","894366","0.0-284.0-0.0","17322974","wem/bandit_either_3","AM155T4U3RE1A","either","4","450","","","","","","","0","0","1","0.6582216966","","0.2","0.6","0.4","0.8","","","","","0.5123058505","0.7284567303","0.1496534925","0.6582216966","","","","","","","","76","L","3","","","244","main_expt",""
