"consent","trial_type","trial_index","time_elapsed","internal_node_id","subjID","study","MID","cond","drift","rt","responses","key_press","expt_phase","like","value","connected","gems","bombs","no_reward","GemPrChosen","BombPrChosen","GainOverPainPr_0","GainOverPainPr_1","GainOverPainPr_2","GainOverPainPr_3","LosePr_0","LosePr_1","LosePr_2","LosePr_3","WinPr_0","WinPr_1","WinPr_2","WinPr_3","Q0","Q1","Q2","gender","age","ethnicity","target","respCharCode","respKey","respChoiceNum","respChoice","practice","trial_counter","trial_label","button_pressed"
"INL_behavioral_consent_30min_online.html","consent","0","31549","0.0-0.0","17447552","wem/bandit_either_3","A3QJNTSPNMMA31","either","3","","","","","","","","","","","","","","","","","","","","","","","","","","","","","","","","","","","","","","",""
"","survey-text","1","43718","0.0-1.0","17447552","wem/bandit_either_3","A3QJNTSPNMMA31","either","3","11161","{""Q0"":""A3QJNTSPNMMA31""}","","","","","","","","","","","","","","","","","","","","","","","","","","","","","","","","","","","","",""
"","text","2","50614","0.0-2.0","17447552","wem/bandit_either_3","A3QJNTSPNMMA31","either","3","5891","","32","","","","","","","","","","","","","","","","","","","","","","","","","","","","","","","","","","","",""
"","text","3","55184","0.0-3.0","17447552","wem/bandit_either_3","A3QJNTSPNMMA31","either","3","4568","","32","","","","","","","","","","","","","","","","","","","","","","","","","","","","","","","","","","","",""
"","text","4","71333","0.0-4.0","17447552","wem/bandit_either_3","A3QJNTSPNMMA31","either","3","16148","","32","","","","","","","","","","","","","","","","","","","","","","","","","","","","","","","","","","","",""
"","text","5","96195","0.0-5.0","17447552","wem/bandit_either_3","A3QJNTSPNMMA31","either","3","24859","","32","","","","","","","","","","","","","","","","","","","","","","","","","","","","","","","","","","","",""
"","text","6","110381","0.0-6.0","17447552","wem/bandit_either_3","A3QJNTSPNMMA31","either","3","14184","","32","","","","","","","","","","","","","","","","","","","","","","","","","","","","","","","","","","","",""
"","text","7","114229","0.0-7.0","17447552","wem/bandit_either_3","A3QJNTSPNMMA31","either","3","3845","","32","","","","","","","","","","","","","","","","","","","","","","","","","","","","","","","","","","","",""
"","text","8","117274","0.0-8.0","17447552","wem/bandit_either_3","A3QJNTSPNMMA31","either","3","3043","","32","","","","","","","","","","","","","","","","","","","","","","","","","","","","","","","","","","","",""
"","identification","9","124553","0.0-9.0-0.0","17447552","wem/bandit_either_3","A3QJNTSPNMMA31","either","3","7244","","","","4","4","3","","","","","","","","","","","","","","","","","","","","","","","","the village of Zur","","","","","","","",""
"","identification","10","132258","0.0-9.0-1.0","17447552","wem/bandit_either_3","A3QJNTSPNMMA31","either","3","6696","","","","3","2","1","","","","","","","","","","","","","","","","","","","","","","","","the village of Nyx","","","","","","","",""
"","text","11","139049","0.0-10.0","17447552","wem/bandit_either_3","A3QJNTSPNMMA31","either","3","5788","","32","","","","","","","","","","","","","","","","","","","","","","","","","","","","","","","","","","","",""
"","text","12","141291","0.0-11.0","17447552","wem/bandit_either_3","A3QJNTSPNMMA31","either","3","2239","","32","","","","","","","","","","","","","","","","","","","","","","","","","","","","","","","","","","","",""
"","text","13","142784","0.0-12.0","17447552","wem/bandit_either_3","A3QJNTSPNMMA31","either","3","1490","","32","","","","","","","","","","","","","","","","","","","","","","","","","","","","","","","","","","","",""
"","text","14","147732","0.0-13.0","17447552","wem/bandit_either_3","A3QJNTSPNMMA31","either","3","4946","","32","","","","","","","","","","","","","","","","","","","","","","","","","","","","","","","","","","","",""
"","bandit","15","151576","0.0-14.0-0.0","17447552","wem/bandit_either_3","A3QJNTSPNMMA31","either","3","2333","","","","","","","0","0","1","0","0","","","","","0","","","","0","","","","","","","","","","","74","J","0","img/none_selected_demo.jpg","true","0","",""
"","bandit","16","155279","0.0-15.0-0.0","17447552","wem/bandit_either_3","A3QJNTSPNMMA31","either","3","2191","","","","","","","0","0","1","0","0","","","","","0","","","","0","","","","","","","","","","","75","K","0","img/none_selected_demo.jpg","true","0","",""
"","text","17","160592","0.0-16.0","17447552","wem/bandit_either_3","A3QJNTSPNMMA31","either","3","5310","","32","","","","","","","","","","","","","","","","","","","","","","","","","","","","","","","","","","","",""
"","text","18","167303","0.0-17.0","17447552","wem/bandit_either_3","A3QJNTSPNMMA31","either","3","6709","","32","","","","","","","","","","","","","","","","","","","","","","","","","","","","","","","","","","","",""
"","text","19","171174","0.0-18.0","17447552","wem/bandit_either_3","A3QJNTSPNMMA31","either","3","3866","","32","","","","","","","","","","","","","","","","","","","","","","","","","","","","","","","","","","","",""
"","text","20","174605","0.0-19.0","17447552","wem/bandit_either_3","A3QJNTSPNMMA31","either","3","3428","","32","","","","","","","","","","","","","","","","","","","","","","","","","","","","","","","","","","","",""
"","bandit","21","176783","0.0-20.0-0.0","17447552","wem/bandit_either_3","A3QJNTSPNMMA31","either","3","671","","","","","","","1","0","0","0.8","","0.5","0.5","","","","","","","0.8","0.2","","","","","","","","","","74","J","0","img/none_selected_demo.jpg","true","0","80_20_practice",""
"","bandit","22","179707","0.0-20.0-1.0","17447552","wem/bandit_either_3","A3QJNTSPNMMA31","either","3","1415","","","","","","","0","1","0","","0.8","0.5","0.5","","","0.8","0.2","","","","","","","","","","","","","","74","J","0","img/none_selected_demo.jpg","true","0","80_20_practice",""
"","bandit","23","182036","0.0-20.0-2.0","17447552","wem/bandit_either_3","A3QJNTSPNMMA31","either","3","819","","","","","","","0","0","1","","0.2","0.5","0.5","","","0.8","0.2","","","","","","","","","","","","","","75","K","1","","true","0","80_20_practice",""
"","bandit","24","184239","0.0-20.0-3.0","17447552","wem/bandit_either_3","A3QJNTSPNMMA31","either","3","697","","","","","","","1","0","0","0.8","","0.5","0.5","","","","","","","0.8","0.2","","","","","","","","","","74","J","0","img/none_selected_demo.jpg","true","0","80_20_practice",""
"","bandit","25","186291","0.0-20.0-4.0","17447552","wem/bandit_either_3","A3QJNTSPNMMA31","either","3","542","","","","","","","1","0","0","0.8","","0.5","0.5","","","","","","","0.8","0.2","","","","","","","","","","74","J","0","img/none_selected_demo.jpg","true","0","80_20_practice",""
"","bandit","26","188061","0.0-20.0-5.0","17447552","wem/bandit_either_3","A3QJNTSPNMMA31","either","3","258","","","","","","","1","0","0","0.8","","0.5","0.5","","","","","","","0.8","0.2","","","","","","","","","","74","J","0","img/none_selected_demo.jpg","true","0","80_20_practice",""
"","bandit","27","189857","0.0-20.0-6.0","17447552","wem/bandit_either_3","A3QJNTSPNMMA31","either","3","288","","","","","","","0","1","0","","0.8","0.5","0.5","","","0.8","0.2","","","","","","","","","","","","","","74","J","0","img/none_selected_demo.jpg","true","0","80_20_practice",""
"","bandit","28","191845","0.0-20.0-7.0","17447552","wem/bandit_either_3","A3QJNTSPNMMA31","either","3","481","","","","","","","0","1","0","","0.8","0.5","0.5","","","0.8","0.2","","","","","","","","","","","","","","74","J","0","img/none_selected_demo.jpg","true","0","80_20_practice",""
"","bandit","29","193429","0.0-20.0-8.0","17447552","wem/bandit_either_3","A3QJNTSPNMMA31","either","3","72","","","","","","","0","1","0","","0.8","0.5","0.5","","","0.8","0.2","","","","","","","","","","","","","","74","J","0","img/none_selected_demo.jpg","true","0","80_20_practice",""
"","bandit","30","195432","0.0-20.0-9.0","17447552","wem/bandit_either_3","A3QJNTSPNMMA31","either","3","491","","","","","","","0","0","1","","0.8","0.5","0.5","","","0.8","0.2","","","","","","","","","","","","","","74","J","0","img/none_selected_demo.jpg","true","0","80_20_practice",""
"","bandit","31","197197","0.0-20.0-10.0","17447552","wem/bandit_either_3","A3QJNTSPNMMA31","either","3","256","","","","","","","0","0","1","","0.2","0.5","0.5","","","0.8","0.2","","","","","","","","","","","","","","75","K","1","","true","0","80_20_practice",""
"","bandit","32","199045","0.0-20.0-11.0","17447552","wem/bandit_either_3","A3QJNTSPNMMA31","either","3","340","","","","","","","1","0","0","0.8","","0.5","0.5","","","","","","","0.8","0.2","","","","","","","","","","74","J","0","img/none_selected_demo.jpg","true","0","80_20_practice",""
"","bandit","33","200900","0.0-20.0-12.0","17447552","wem/bandit_either_3","A3QJNTSPNMMA31","either","3","344","","","","","","","0","1","0","","0.8","0.5","0.5","","","0.8","0.2","","","","","","","","","","","","","","74","J","0","img/none_selected_demo.jpg","true","0","80_20_practice",""
"","bandit","34","202652","0.0-20.0-13.0","17447552","wem/bandit_either_3","A3QJNTSPNMMA31","either","3","243","","","","","","","0","1","0","","0.8","0.5","0.5","","","0.8","0.2","","","","","","","","","","","","","","74","J","0","img/none_selected_demo.jpg","true","0","80_20_practice",""
"","bandit","35","204498","0.0-20.0-14.0","17447552","wem/bandit_either_3","A3QJNTSPNMMA31","either","3","340","","","","","","","1","0","0","0.8","","0.5","0.5","","","","","","","0.8","0.2","","","","","","","","","","74","J","0","img/none_selected_demo.jpg","true","0","80_20_practice",""
"","bandit","36","206268","0.0-20.0-15.0","17447552","wem/bandit_either_3","A3QJNTSPNMMA31","either","3","264","","","","","","","0","1","0","","0.8","0.5","0.5","","","0.8","0.2","","","","","","","","","","","","","","74","J","0","img/none_selected_demo.jpg","true","0","80_20_practice",""
"","bandit","37","208027","0.0-20.0-16.0","17447552","wem/bandit_either_3","A3QJNTSPNMMA31","either","3","251","","","","","","","1","0","0","0.8","","0.5","0.5","","","","","","","0.8","0.2","","","","","","","","","","74","J","0","img/none_selected_demo.jpg","true","0","80_20_practice",""
"","bandit","38","209804","0.0-20.0-17.0","17447552","wem/bandit_either_3","A3QJNTSPNMMA31","either","3","267","","","","","","","1","0","0","0.8","","0.5","0.5","","","","","","","0.8","0.2","","","","","","","","","","74","J","0","img/none_selected_demo.jpg","true","0","80_20_practice",""
"","bandit","39","211574","0.0-20.0-18.0","17447552","wem/bandit_either_3","A3QJNTSPNMMA31","either","3","260","","","","","","","1","0","0","0.8","","0.5","0.5","","","","","","","0.8","0.2","","","","","","","","","","74","J","0","img/none_selected_demo.jpg","true","0","80_20_practice",""
"","bandit","40","213373","0.0-20.0-19.0","17447552","wem/bandit_either_3","A3QJNTSPNMMA31","either","3","292","","","","","","","1","0","0","0.8","","0.5","0.5","","","","","","","0.8","0.2","","","","","","","","","","74","J","0","img/none_selected_demo.jpg","true","0","80_20_practice",""
"","text","41","216865","0.0-21.0","17447552","wem/bandit_either_3","A3QJNTSPNMMA31","either","3","3488","","32","","","","","","","","","","","","","","","","","","","","","","","","","","","","","","","","","","","",""
"","bandit","42","219825","0.0-22.0-0.0","17447552","wem/bandit_either_3","A3QJNTSPNMMA31","either","3","1447","","","","","","","0","1","0","0","1","","","","","0","1","","","1","0","","","","","","","","","","75","K","1","","true","0","",""
"","text","43","226884","0.0-23.0","17447552","wem/bandit_either_3","A3QJNTSPNMMA31","either","3","7054","","32","","","","","","","","","","","","","","","","","","","","","","","","","","","","","","","","","","","",""
"","text","44","230393","0.0-24.0","17447552","wem/bandit_either_3","A3QJNTSPNMMA31","either","3","3505","","32","","","","","","","","","","","","","","","","","","","","","","","","","","","","","","","","","","","",""
"","text","45","232821","0.0-25.0","17447552","wem/bandit_either_3","A3QJNTSPNMMA31","either","3","2426","","32","","","","","","","","","","","","","","","","","","","","","","","","","","","","","","","","","","","",""
"","text","46","236155","0.0-26.0","17447552","wem/bandit_either_3","A3QJNTSPNMMA31","either","3","3331","","32","","","","","","","","","","","","","","","","","","","","","","","","","","","","","","","","","","","",""
"","text","47","242350","0.0-27.0","17447552","wem/bandit_either_3","A3QJNTSPNMMA31","either","3","6189","","32","","","","","","","","","","","","","","","","","","","","","","","","","","","","","","","","","","","",""
"","text","48","245355","0.0-28.0","17447552","wem/bandit_either_3","A3QJNTSPNMMA31","either","3","3003","","32","","","","","","","","","","","","","","","","","","","","","","","","","","","","","","","","","","","",""
"","text","49","248475","0.0-29.0","17447552","wem/bandit_either_3","A3QJNTSPNMMA31","either","3","3117","","32","","","","","","","","","","","","","","","","","","","","","","","","","","","","","","","","","","","",""
"","text","50","250614","0.0-30.0","17447552","wem/bandit_either_3","A3QJNTSPNMMA31","either","3","2133","","32","","","","","","","","","","","","","","","","","","","","","","","","","","","","","","","","","","","",""
"","text","51","254851","0.0-31.0","17447552","wem/bandit_either_3","A3QJNTSPNMMA31","either","3","4231","","32","","","","","","","","","","","","","","","","","","","","","","","","","","","","","","","","","","","",""
"","text","52","256805","0.0-32.0","17447552","wem/bandit_either_3","A3QJNTSPNMMA31","either","3","1949","","32","","","","","","","","","","","","","","","","","","","","","","","","","","","","","","","","","","","",""
"","text","53","260771","0.0-33.0","17447552","wem/bandit_either_3","A3QJNTSPNMMA31","either","3","3964","","32","","","","","","","","","","","","","","","","","","","","","","","","","","","","","","","","","","","",""
"","bandit","54","262914","0.0-34.0-0.0","17447552","wem/bandit_either_3","A3QJNTSPNMMA31","either","3","635","","","","","","","0","1","0","","0.8","0.5","0.5","0.5","0.5","0.8","0.2","0.6","0.2","","","","","","","","","","","","72","H","0","img/none_selected.jpg","true","0","full_practice",""
"","bandit","55","264692","0.0-34.0-1.0","17447552","wem/bandit_either_3","A3QJNTSPNMMA31","either","3","267","","","","","","","0","0","1","","0.2","0.5","0.5","0.5","0.5","0.8","0.2","0.6","0.2","","","","","","","","","","","","74","J","1","","true","0","full_practice",""
"","bandit","56","266489","0.0-34.0-2.0","17447552","wem/bandit_either_3","A3QJNTSPNMMA31","either","3","287","","","","","","","0","1","0","","0.8","0.5","0.5","0.5","0.5","0.8","0.2","0.6","0.2","","","","","","","","","","","","72","H","0","img/none_selected.jpg","true","0","full_practice",""
"","bandit","57","268250","0.0-34.0-3.0","17447552","wem/bandit_either_3","A3QJNTSPNMMA31","either","3","243","","","","","","","1","0","0","0.8","","0.5","0.5","0.5","0.5","","","","","0.8","0.2","0.6","0.2","","","","","","","","72","H","0","img/none_selected.jpg","true","0","full_practice",""
"","bandit","58","270008","0.0-34.0-4.0","17447552","wem/bandit_either_3","A3QJNTSPNMMA31","either","3","245","","","","","","","0","0","1","","0.8","0.5","0.5","0.5","0.5","0.8","0.2","0.6","0.2","","","","","","","","","","","","72","H","0","img/none_selected.jpg","true","0","full_practice",""
"","bandit","59","271748","0.0-34.0-5.0","17447552","wem/bandit_either_3","A3QJNTSPNMMA31","either","3","229","","","","","","","0","0","1","","0.2","0.5","0.5","0.5","0.5","0.8","0.2","0.6","0.2","","","","","","","","","","","","76","L","3","","true","0","full_practice",""
"","bandit","60","273524","0.0-34.0-6.0","17447552","wem/bandit_either_3","A3QJNTSPNMMA31","either","3","269","","","","","","","0","1","0","","0.6","0.5","0.5","0.5","0.5","0.8","0.2","0.6","0.2","","","","","","","","","","","","75","K","2","","true","0","full_practice",""
"","bandit","61","275404","0.0-34.0-7.0","17447552","wem/bandit_either_3","A3QJNTSPNMMA31","either","3","372","","","","","","","0","1","0","","0.8","0.5","0.5","0.5","0.5","0.8","0.2","0.6","0.2","","","","","","","","","","","","72","H","0","img/none_selected.jpg","true","0","full_practice",""
"","bandit","62","277163","0.0-34.0-8.0","17447552","wem/bandit_either_3","A3QJNTSPNMMA31","either","3","249","","","","","","","1","0","0","0.6","","0.5","0.5","0.5","0.5","","","","","0.8","0.2","0.6","0.2","","","","","","","","75","K","2","","true","0","full_practice",""
"","bandit","63","278927","0.0-34.0-9.0","17447552","wem/bandit_either_3","A3QJNTSPNMMA31","either","3","251","","","","","","","1","0","0","0.8","","0.5","0.5","0.5","0.5","","","","","0.8","0.2","0.6","0.2","","","","","","","","72","H","0","img/none_selected.jpg","true","0","full_practice",""
"","bandit","64","280652","0.0-34.0-10.0","17447552","wem/bandit_either_3","A3QJNTSPNMMA31","either","3","213","","","","","","","1","0","0","0.6","","0.5","0.5","0.5","0.5","","","","","0.8","0.2","0.6","0.2","","","","","","","","75","K","2","","true","0","full_practice",""
"","bandit","65","282346","0.0-34.0-11.0","17447552","wem/bandit_either_3","A3QJNTSPNMMA31","either","3","180","","","","","","","0","1","0","","0.8","0.5","0.5","0.5","0.5","0.8","0.2","0.6","0.2","","","","","","","","","","","","72","H","0","img/none_selected.jpg","true","0","full_practice",""
"","bandit","66","284055","0.0-34.0-12.0","17447552","wem/bandit_either_3","A3QJNTSPNMMA31","either","3","195","","","","","","","0","0","1","0.6","","0.5","0.5","0.5","0.5","","","","","0.8","0.2","0.6","0.2","","","","","","","","75","K","2","","true","0","full_practice",""
"","bandit","67","285949","0.0-34.0-13.0","17447552","wem/bandit_either_3","A3QJNTSPNMMA31","either","3","381","","","","","","","0","1","0","","0.8","0.5","0.5","0.5","0.5","0.8","0.2","0.6","0.2","","","","","","","","","","","","72","H","0","img/none_selected.jpg","true","0","full_practice",""
"","bandit","68","287730","0.0-34.0-14.0","17447552","wem/bandit_either_3","A3QJNTSPNMMA31","either","3","271","","","","","","","0","0","1","","0.2","0.5","0.5","0.5","0.5","0.8","0.2","0.6","0.2","","","","","","","","","","","","74","J","1","","true","0","full_practice",""
"","bandit","69","289510","0.0-34.0-15.0","17447552","wem/bandit_either_3","A3QJNTSPNMMA31","either","3","272","","","","","","","0","0","1","","0.2","0.5","0.5","0.5","0.5","0.8","0.2","0.6","0.2","","","","","","","","","","","","76","L","3","","true","0","full_practice",""
"","bandit","70","291313","0.0-34.0-16.0","17447552","wem/bandit_either_3","A3QJNTSPNMMA31","either","3","288","","","","","","","1","0","0","0.8","","0.5","0.5","0.5","0.5","","","","","0.8","0.2","0.6","0.2","","","","","","","","72","H","0","img/none_selected.jpg","true","0","full_practice",""
"","bandit","71","293117","0.0-34.0-17.0","17447552","wem/bandit_either_3","A3QJNTSPNMMA31","either","3","290","","","","","","","0","0","1","0.8","","0.5","0.5","0.5","0.5","","","","","0.8","0.2","0.6","0.2","","","","","","","","72","H","0","img/none_selected.jpg","true","0","full_practice",""
"","bandit","72","295061","0.0-34.0-18.0","17447552","wem/bandit_either_3","A3QJNTSPNMMA31","either","3","436","","","","","","","0","1","0","","0.6","0.5","0.5","0.5","0.5","0.8","0.2","0.6","0.2","","","","","","","","","","","","75","K","2","","true","0","full_practice",""
"","bandit","73","297089","0.0-34.0-19.0","17447552","wem/bandit_either_3","A3QJNTSPNMMA31","either","3","519","","","","","","","0","0","1","","0.6","0.5","0.5","0.5","0.5","0.8","0.2","0.6","0.2","","","","","","","","","","","","75","K","2","","true","0","full_practice",""
"","text","74","300322","0.0-35.0","17447552","wem/bandit_either_3","A3QJNTSPNMMA31","either","3","3220","","32","","","","","","","","","","","","","","","","","","","","","","","","","","","","","","","","","","","",""
"","text","75","311384","0.0-36.0","17447552","wem/bandit_either_3","A3QJNTSPNMMA31","either","3","10057","","32","","","","","","","","","","","","","","","","","","","","","","","","","","","","","","","","","","","",""
"","text","76","318935","0.0-37.0","17447552","wem/bandit_either_3","A3QJNTSPNMMA31","either","3","7547","","32","","","","","","","","","","","","","","","","","","","","","","","","","","","","","","","","","","","",""
"","text","77","323957","0.0-38.0","17447552","wem/bandit_either_3","A3QJNTSPNMMA31","either","3","5020","","32","","","","","","","","","","","","","","","","","","","","","","","","","","","","","","","","","","","",""
"","text","78","328113","0.0-39.0","17447552","wem/bandit_either_3","A3QJNTSPNMMA31","either","3","4152","","32","","","","","","","","","","","","","","","","","","","","","","","","","","","","","","","","","","","",""
"","text","79","331792","0.0-40.0","17447552","wem/bandit_either_3","A3QJNTSPNMMA31","either","3","3674","","32","","","","","","","","","","","","","","","","","","","","","","","","","","","","","","","","","","","",""
"","bandit","80","334218","0.0-41.0-0.0","17447552","wem/bandit_either_3","A3QJNTSPNMMA31","either","3","913","","","","","","","0","1","0","","0.6473934842","0.4","0.6","0.8","0.2","0.6494041588","0.4261870849","0.6473934842","0.1387034319","","","","","","","","","","","","75","K","2","","","1","main_expt",""
"","bandit","81","336704","0.0-42.0-0.0","17447552","wem/bandit_either_3","A3QJNTSPNMMA31","either","3","973","","","","","","","0","1","0","","0.7608835745","0.4","0.6","0.8","0.2","0.7608835745","0.3223101542","0.5221866694","0.2166337036","","","","","","","","","","","","72","H","0","img/none_selected.jpg","","2","main_expt",""
"","bandit","82","338590","0.0-43.0-0.0","17447552","wem/bandit_either_3","A3QJNTSPNMMA31","either","3","374","","","","","","","0","0","1","0.5356292978","","0.4","0.6","0.8","0.2","","","","","0.7745567172","0.2541217019","0.5356292978","0.3253899216","","","","","","","","75","K","2","","","3","main_expt",""
"","bandit","83","340331","0.0-44.0-0.0","17447552","wem/bandit_either_3","A3QJNTSPNMMA31","either","3","231","","","","","","","0","1","0","","0.8315703218","0.4","0.6","0.8","0.2","0.8315703218","0.2272043942","0.5154592071","0.3003293127","","","","","","","","","","","","72","H","0","img/none_selected.jpg","","4","main_expt",""
"","bandit","84","342452","0.0-45.0-0.0","17447552","wem/bandit_either_3","A3QJNTSPNMMA31","either","3","612","","","","","","","1","0","0","0.2967729676","","0.4","0.6","0.8","0.2","","","","","0.8380789219","0.2967729676","0.4578896037","0.3839660868","","","","","","","","74","J","1","","","5","main_expt",""
"","bandit","85","344238","0.0-46.0-0.0","17447552","wem/bandit_either_3","A3QJNTSPNMMA31","either","3","277","","","","","","","1","0","0","0.8233568153","","0.4","0.6","0.8","0.2","","","","","0.8233568153","0.3211998527","0.4825789634","0.3833463511","","","","","","","","72","H","0","img/none_selected.jpg","","6","main_expt",""
"","bandit","86","345998","0.0-47.0-0.0","17447552","wem/bandit_either_3","A3QJNTSPNMMA31","either","3","248","","","","","","","0","0","1","","0.4190649117","0.4","0.6","0.8","0.2","0.8672840292","0.4190649117","0.4013658759","0.3173395401","","","","","","","","","","","","74","J","1","","","7","main_expt",""
"","bandit","87","347817","0.0-48.0-0.0","17447552","wem/bandit_either_3","A3QJNTSPNMMA31","either","3","304","","","","","","","1","0","0","0.7921451217","","0.4","0.6","0.8","0.2","","","","","0.7921451217","0.5253498774","0.3721769634","0.3265190876","","","","","","","","72","H","0","img/none_selected.jpg","","8","main_expt",""
"","bandit","88","349657","0.0-49.0-0.0","17447552","wem/bandit_either_3","A3QJNTSPNMMA31","either","3","327","","","","","","","0","1","0","","0.7826569337","0.4","0.6","0.8","0.2","0.7826569337","0.5552176016","0.3934089605","0.4229840653","","","","","","","","","","","","72","H","0","img/none_selected.jpg","","9","main_expt",""
"","bandit","89","351639","0.0-50.0-0.0","17447552","wem/bandit_either_3","A3QJNTSPNMMA31","either","3","470","","","","","","","1","0","0","0.7150392401","","0.4","0.6","0.8","0.2","","","","","0.7150392401","0.654745146","0.3360942297","0.5107168356","","","","","","","","72","H","0","img/none_selected.jpg","","10","main_expt",""
"","bandit","90","353484","0.0-51.0-0.0","17447552","wem/bandit_either_3","A3QJNTSPNMMA31","either","3","324","","","","","","","0","0","1","","0.6906605055","0.4","0.6","0.8","0.2","0.6906605055","0.6089063278","0.4969537907","0.4383577931","","","","","","","","","","","","72","H","0","img/none_selected.jpg","","11","main_expt",""
"","bandit","91","355325","0.0-52.0-0.0","17447552","wem/bandit_either_3","A3QJNTSPNMMA31","either","3","323","","","","","","","0","1","0","","0.5487148549","0.4","0.6","0.8","0.2","0.6725575113","0.559155858","0.4760264401","0.5487148549","","","","","","","","","","","","76","L","3","","","12","main_expt",""
"","bandit","92","357808","0.0-53.0-0.0","17447552","wem/bandit_either_3","A3QJNTSPNMMA31","either","3","970","","","","","","","0","1","0","","0.7404599176","0.4","0.6","0.8","0.2","0.7404599176","0.6464491645","0.4008761295","0.7407599438","","","","","","","","","","","","72","H","0","img/none_selected.jpg","","13","main_expt",""
"","bandit","93","359605","0.0-54.0-0.0","17447552","wem/bandit_either_3","A3QJNTSPNMMA31","either","3","289","","","","","","","0","1","0","","0.8307131687","0.4","0.6","0.8","0.2","0.6751607758","0.6936958995","0.358486362","0.8307131687","","","","","","","","","","","","76","L","3","","","14","main_expt",""
"","bandit","94","361483","0.0-55.0-0.0","17447552","wem/bandit_either_3","A3QJNTSPNMMA31","either","3","361","","","","","","","0","1","0","","0.8114394421","0.4","0.6","0.8","0.2","0.6115440925","0.731471075","0.395258373","0.8114394421","","","","","","","","","","","","76","L","3","","","15","main_expt",""
"","bandit","95","363334","0.0-56.0-0.0","17447552","wem/bandit_either_3","A3QJNTSPNMMA31","either","3","336","","","","","","","0","1","0","","0.8242397169","0.4","0.6","0.8","0.2","0.7019001419","0.6487541525","0.4197334966","0.8242397169","","","","","","","","","","","","76","L","3","","","16","main_expt",""
"","bandit","96","365518","0.0-57.0-0.0","17447552","wem/bandit_either_3","A3QJNTSPNMMA31","either","3","675","","","","","","","0","0","1","0.7017998","","0.4","0.6","0.8","0.2","","","","","0.7017998","0.7654634758","0.2160816064","0.8317633157","","","","","","","","72","H","0","img/none_selected.jpg","","17","main_expt",""
"","bandit","97","367356","0.0-58.0-0.0","17447552","wem/bandit_either_3","A3QJNTSPNMMA31","either","3","329","","","","","","","0","0","1","0.2058632209","","0.4","0.6","0.8","0.2","","","","","0.7672473748","0.7160830043","0.2058632209","0.8158638682","","","","","","","","75","K","2","","","18","main_expt",""
"","bandit","98","369078","0.0-59.0-0.0","17447552","wem/bandit_either_3","A3QJNTSPNMMA31","either","3","210","","","","","","","0","1","0","","0.8291878069","0.4","0.6","0.8","0.2","0.7950219121","0.6856656502","0.2314559036","0.8291878069","","","","","","","","","","","","76","L","3","","","19","main_expt",""
"","bandit","99","371011","0.0-60.0-0.0","17447552","wem/bandit_either_3","A3QJNTSPNMMA31","either","3","415","","","","","","","0","0","1","","0.8665153398","0.4","0.6","0.8","0.2","0.8460513568","0.6829400921","0.1762066147","0.8665153398","","","","","","","","","","","","76","L","3","","","20","main_expt",""
"","bandit","100","372775","0.0-61.0-0.0","17447552","wem/bandit_either_3","A3QJNTSPNMMA31","either","3","248","","","","","","","1","0","0","0.6849203215","","0.4","0.6","0.8","0.2","","","","","0.8571228725","0.6849203215","0.150477598","0.8181415858","","","","","","","","74","J","1","","","21","main_expt",""
"","bandit","101","374652","0.0-62.0-0.0","17447552","wem/bandit_either_3","A3QJNTSPNMMA31","either","3","368","","","","","","","1","0","0","0.6832197831","","0.4","0.6","0.8","0.2","","","","","0.8498483749","0.6832197831","0.1957635407","0.7731960963","","","","","","","","74","J","1","","","22","main_expt",""
"","bandit","102","376451","0.0-63.0-0.0","17447552","wem/bandit_either_3","A3QJNTSPNMMA31","either","3","287","","","","","","","0","0","1","","0.6103957523","0.4","0.6","0.8","0.2","0.887495535","0.6103957523","0.2193187944","0.8004626553","","","","","","","","","","","","74","J","1","","","23","main_expt",""
"","bandit","103","378035","0.0-64.0-0.0","17447552","wem/bandit_either_3","A3QJNTSPNMMA31","either","3","74","","","","","","","0","1","0","","0.918231735","0.4","0.6","0.8","0.2","0.918231735","0.5485819736","0.1836328706","0.7941911222","","","","","","","","","","","","72","H","0","img/none_selected.jpg","","24","main_expt",""
"","bandit","104","380380","0.0-65.0-0.0","17447552","wem/bandit_either_3","A3QJNTSPNMMA31","either","3","829","","","","","","","0","1","0","","0.9111146318","0.4","0.6","0.8","0.2","0.9111146318","0.5852935809","0.1410441375","0.7100633829","","","","","","","","","","","","72","H","0","img/none_selected.jpg","","25","main_expt",""
"","bandit","105","382210","0.0-66.0-0.0","17447552","wem/bandit_either_3","A3QJNTSPNMMA31","either","3","314","","","","","","","0","0","1","0.6097892937","","0.4","0.6","0.8","0.2","","","","","0.9190640316","0.6097892937","0.1082593399","0.6872129375","","","","","","","","74","J","1","","","26","main_expt",""
"","bandit","106","383975","0.0-67.0-0.0","17447552","wem/bandit_either_3","A3QJNTSPNMMA31","either","3","253","","","","","","","0","1","0","","0.9372614837","0.4","0.6","0.8","0.2","0.9372614837","0.6653335402","0.1042047793","0.6798864795","","","","","","","","","","","","72","H","0","img/none_selected.jpg","","27","main_expt",""
"","bandit","107","385761","0.0-68.0-0.0","17447552","wem/bandit_either_3","A3QJNTSPNMMA31","either","3","271","","","","","","","0","0","1","0.1153509117","","0.4","0.6","0.8","0.2","","","","","0.9269484959","0.6850825106","0.1153509117","0.6812343762","","","","","","","","75","K","2","","","28","main_expt",""
"","bandit","108","387550","0.0-69.0-0.0","17447552","wem/bandit_either_3","A3QJNTSPNMMA31","either","3","277","","","","","","","0","1","0","","0.9376772981","0.4","0.6","0.8","0.2","0.9376772981","0.7309016742","0.1601566248","0.5305157647","","","","","","","","","","","","72","H","0","img/none_selected.jpg","","29","main_expt",""
"","bandit","109","389280","0.0-70.0-0.0","17447552","wem/bandit_either_3","A3QJNTSPNMMA31","either","3","217","","","","","","","0","0","1","0.4713174284","","0.4","0.6","0.8","0.2","","","","","0.8795505253","0.8141980113","0.09548927903","0.4713174284","","","","","","","","76","L","3","","","30","main_expt",""
"","bandit","110","391069","0.0-71.0-0.0","17447552","wem/bandit_either_3","A3QJNTSPNMMA31","either","3","278","","","","","","","0","1","0","","0.8605863748","0.4","0.6","0.8","0.2","0.8605863748","0.8926711601","0.09272353297","0.2938490869","","","","","","","","","","","","72","H","0","img/none_selected.jpg","","31","main_expt",""
"","bandit","111","393204","0.0-72.0-0.0","17447552","wem/bandit_either_3","A3QJNTSPNMMA31","either","3","622","","","","","","","0","1","0","","0.757600507","0.4","0.6","0.8","0.2","0.757600507","0.8397563013","0.09547929832","0.3005160425","","","","","","","","","","","","72","H","0","img/none_selected.jpg","","32","main_expt",""
"","bandit","112","395998","0.0-73.0-0.0","17447552","wem/bandit_either_3","A3QJNTSPNMMA31","either","3","1282","","","","","","","0","0","1","","0.7257103923","0.4","0.6","0.8","0.2","0.7257103923","0.8251988787","0.08683876107","0.3661211491","","","","","","","","","","","","72","H","0","img/none_selected.jpg","","33","main_expt",""
"","bandit","113","397751","0.0-74.0-0.0","17447552","wem/bandit_either_3","A3QJNTSPNMMA31","either","3","242","","","","","","","0","0","1","","0.08117088791","0.4","0.6","0.8","0.2","0.5786815464","0.7303528712","0.08117088791","0.4614725573","","","","","","","","","","","","75","K","2","","","34","main_expt",""
"","bandit","114","400044","0.0-75.0-0.0","17447552","wem/bandit_either_3","A3QJNTSPNMMA31","either","3","783","","","","","","","0","0","1","","0.8093673003","0.4","0.6","0.8","0.2","0.4812266686","0.8093673003","0.09593582107","0.4597324626","","","","","","","","","","","","74","J","1","","","35","main_expt",""
"","bandit","115","401918","0.0-76.0-0.0","17447552","wem/bandit_either_3","A3QJNTSPNMMA31","either","3","364","","","","","","","0","0","1","","0.4294742096","0.4","0.6","0.8","0.2","0.4459447539","0.79718131","0.1392988708","0.4294742096","","","","","","","","","","","","76","L","3","","","36","main_expt",""
"","bandit","116","403761","0.0-77.0-0.0","17447552","wem/bandit_either_3","A3QJNTSPNMMA31","either","3","330","","","","","","","1","0","0","0.5737218407","","0.4","0.6","0.8","0.2","","","","","0.5737218407","0.8157762275","0.07673209605","0.5301274199","","","","","","","","72","H","0","img/none_selected.jpg","","37","main_expt",""
"","bandit","117","405843","0.0-78.0-0.0","17447552","wem/bandit_either_3","A3QJNTSPNMMA31","either","3","567","","","","","","","1","0","0","0.6008421093","","0.4","0.6","0.8","0.2","","","","","0.6008421093","0.7941499978","0.1078843958","0.5746889943","","","","","","","","72","H","0","img/none_selected.jpg","","38","main_expt",""
"","bandit","118","407977","0.0-79.0-0.0","17447552","wem/bandit_either_3","A3QJNTSPNMMA31","either","3","612","","","","","","","0","1","0","","0.6076920036","0.4","0.6","0.8","0.2","0.6076920036","0.7352357368","0.09731722171","0.6621100331","","","","","","","","","","","","72","H","0","img/none_selected.jpg","","39","main_expt",""
"","bandit","119","409827","0.0-80.0-0.0","17447552","wem/bandit_either_3","A3QJNTSPNMMA31","either","3","333","","","","","","","1","0","0","0.6616622706","","0.4","0.6","0.8","0.2","","","","","0.6616622706","0.7920886563","0.2123509389","0.6794361822","","","","","","","","72","H","0","img/none_selected.jpg","","40","main_expt",""
"","bandit","120","411642","0.0-81.0-0.0","17447552","wem/bandit_either_3","A3QJNTSPNMMA31","either","3","302","","","","","","","0","0","1","","0.6945341382","0.4","0.6","0.8","0.2","0.6945341382","0.8780543775","0.1265365425","0.7140523024","","","","","","","","","","","","72","H","0","img/none_selected.jpg","","41","main_expt",""
"","bandit","121","413425","0.0-82.0-0.0","17447552","wem/bandit_either_3","A3QJNTSPNMMA31","either","3","269","","","","","","","1","0","0","0.9167256642","","0.4","0.6","0.8","0.2","","","","","0.6833149102","0.9167256642","0.166138795","0.6669732994","","","","","","","","74","J","1","","","42","main_expt",""
"","bandit","122","415330","0.0-83.0-0.0","17447552","wem/bandit_either_3","A3QJNTSPNMMA31","either","3","395","","","","","","","0","1","0","","0.9407985187","0.4","0.6","0.8","0.2","0.7094953576","0.9407985187","0.1782339186","0.5435093165","","","","","","","","","","","","74","J","1","","","43","main_expt",""
"","bandit","123","417056","0.0-84.0-0.0","17447552","wem/bandit_either_3","A3QJNTSPNMMA31","either","3","216","","","","","","","0","0","1","","0.7519468023","0.4","0.6","0.8","0.2","0.7519468023","0.9000978766","0.1342945815","0.6002661395","","","","","","","","","","","","72","H","0","img/none_selected.jpg","","44","main_expt",""
"","bandit","124","419205","0.0-85.0-0.0","17447552","wem/bandit_either_3","A3QJNTSPNMMA31","either","3","637","","","","","","","1","0","0","0.9190036262","","0.4","0.6","0.8","0.2","","","","","0.7673203249","0.9190036262","0.09086288848","0.5948203474","","","","","","","","74","J","1","","","45","main_expt",""
"","bandit","125","421220","0.0-86.0-0.0","17447552","wem/bandit_either_3","A3QJNTSPNMMA31","either","3","499","","","","","","","1","0","0","0.8865788656","","0.4","0.6","0.8","0.2","","","","","0.722836051","0.8865788656","0.06420934006","0.6230250108","","","","","","","","74","J","1","","","46","main_expt",""
"","bandit","126","422993","0.0-87.0-0.0","17447552","wem/bandit_either_3","A3QJNTSPNMMA31","either","3","260","","","","","","","0","1","0","","0.8207935484","0.4","0.6","0.8","0.2","0.7392487755","0.8207935484","0.02332738683","0.7239235909","","","","","","","","","","","","74","J","1","","","47","main_expt",""
"","bandit","127","424801","0.0-88.0-0.0","17447552","wem/bandit_either_3","A3QJNTSPNMMA31","either","3","296","","","","","","","0","1","0","","0.8170742187","0.4","0.6","0.8","0.2","0.7551111279","0.8170742187","0.03517565614","0.7715310514","","","","","","","","","","","","74","J","1","","","48","main_expt",""
"","bandit","128","426594","0.0-89.0-0.0","17447552","wem/bandit_either_3","A3QJNTSPNMMA31","either","3","283","","","","","","","0","1","0","","0.7874830355","0.4","0.6","0.8","0.2","0.6917772817","0.7874830355","0.04466115719","0.822179592","","","","","","","","","","","","74","J","1","","","49","main_expt",""
"","bandit","129","428487","0.0-90.0-0.0","17447552","wem/bandit_either_3","A3QJNTSPNMMA31","either","3","381","","","","","","","0","1","0","","0.8279472521","0.4","0.6","0.8","0.2","0.6689959301","0.8279472521","0.05053383529","0.8108951243","","","","","","","","","","","","74","J","1","","","50","main_expt",""
"","bandit","130","430515","0.0-91.0-0.0","17447552","wem/bandit_either_3","A3QJNTSPNMMA31","either","3","509","","","","","","","1","0","0","0.8426817256","","0.4","0.6","0.8","0.2","","","","","0.6020608281","0.8426817256","0.04681033125","0.7649170446","","","","","","","","74","J","1","","","51","main_expt",""
"","bandit","131","432356","0.0-92.0-0.0","17447552","wem/bandit_either_3","A3QJNTSPNMMA31","either","3","331","","","","","","","0","1","0","","0.8377647656","0.4","0.6","0.8","0.2","0.6583182673","0.8377647656","0.09308222201","0.8169848275","","","","","","","","","","","","74","J","1","","","52","main_expt",""
"","bandit","132","434198","0.0-93.0-0.0","17447552","wem/bandit_either_3","A3QJNTSPNMMA31","either","3","326","","","","","","","0","1","0","","0.8241398149","0.4","0.6","0.8","0.2","0.5419436754","0.8241398149","0.1397702629","0.8843577791","","","","","","","","","","","","74","J","1","","","53","main_expt",""
"","bandit","133","436028","0.0-94.0-0.0","17447552","wem/bandit_either_3","A3QJNTSPNMMA31","either","3","318","","","","","","","1","0","0","0.7289352116","","0.4","0.6","0.8","0.2","","","","","0.5717614462","0.7289352116","0.110287685","0.8854515068","","","","","","","","74","J","1","","","54","main_expt",""
"","bandit","134","437821","0.0-95.0-0.0","17447552","wem/bandit_either_3","A3QJNTSPNMMA31","either","3","273","","","","","","","1","0","0","0.5895019519","","0.4","0.6","0.8","0.2","","","","","0.5497935615","0.5895019519","0.1843384007","0.8884574585","","","","","","","","74","J","1","","","55","main_expt",""
"","bandit","135","439690","0.0-96.0-0.0","17447552","wem/bandit_either_3","A3QJNTSPNMMA31","either","3","358","","","","","","","0","0","1","","0.4622464331","0.4","0.6","0.8","0.2","0.4902645195","0.4622464331","0.2056752237","0.8840911236","","","","","","","","","","","","74","J","1","","","56","main_expt",""
"","bandit","136","441446","0.0-97.0-0.0","17447552","wem/bandit_either_3","A3QJNTSPNMMA31","either","3","242","","","","","","","0","0","1","0.3410726922","","0.4","0.6","0.8","0.2","","","","","0.5258365243","0.490024734","0.3410726922","0.864283103","","","","","","","","75","K","2","","","57","main_expt",""
"","bandit","137","442957","0.0-98.0-0.0","17447552","wem/bandit_either_3","A3QJNTSPNMMA31","either","3","1","","","","","","","0","1","0","","0.7377821737","0.4","0.6","0.8","0.2","0.6097664349","0.6182628796","0.3873695161","0.7377821737","","","","","","","","","","","","76","L","3","","","58","main_expt",""
"","bandit","138","444860","0.0-99.0-0.0","17447552","wem/bandit_either_3","A3QJNTSPNMMA31","either","3","389","","","","","","","0","1","0","","0.7469541206","0.4","0.6","0.8","0.2","0.6016711108","0.6976829826","0.3281321534","0.7469541206","","","","","","","","","","","","76","L","3","","","59","main_expt",""
"","bandit","139","446696","0.0-100.0-0.0","17447552","wem/bandit_either_3","A3QJNTSPNMMA31","either","3","319","","","","","","","1","0","0","0.8019510571","","0.4","0.6","0.8","0.2","","","","","0.5544917648","0.675433977","0.2380439254","0.8019510571","","","","","","","","76","L","3","","","60","main_expt",""
"","bandit","140","448482","0.0-101.0-0.0","17447552","wem/bandit_either_3","A3QJNTSPNMMA31","either","3","271","","","","","","","0","1","0","","0.8943887388","0.4","0.6","0.8","0.2","0.6842720067","0.7206550838","0.2228222105","0.8943887388","","","","","","","","","","","","76","L","3","","","61","main_expt",""
"","bandit","141","450304","0.0-102.0-0.0","17447552","wem/bandit_either_3","A3QJNTSPNMMA31","either","3","306","","","","","","","0","0","1","","0.8942973556","0.4","0.6","0.8","0.2","0.6824345281","0.7184677658","0.2489253665","0.8942973556","","","","","","","","","","","","76","L","3","","","62","main_expt",""
"","bandit","142","453671","0.0-103.0-0.0","17447552","wem/bandit_either_3","A3QJNTSPNMMA31","either","3","1853","","","","","","","0","0","1","0.6785259816","","0.4","0.6","0.8","0.2","","","","","0.7321168219","0.6785259816","0.2298237489","0.8829609874","","","","","","","","74","J","1","","","63","main_expt",""
"","bandit","143","455661","0.0-104.0-0.0","17447552","wem/bandit_either_3","A3QJNTSPNMMA31","either","3","474","","","","","","","1","0","0","0.8123013145","","0.4","0.6","0.8","0.2","","","","","0.8123013145","0.6349383059","0.1849055857","0.8175344892","","","","","","","","72","H","0","img/none_selected.jpg","","64","main_expt",""
"","bandit","144","457451","0.0-105.0-0.0","17447552","wem/bandit_either_3","A3QJNTSPNMMA31","either","3","279","","","","","","","0","0","1","","0.7812905168","0.4","0.6","0.8","0.2","0.8236121316","0.629769122","0.2285715909","0.7812905168","","","","","","","","","","","","76","L","3","","","65","main_expt",""
"","bandit","145","459519","0.0-106.0-0.0","17447552","wem/bandit_either_3","A3QJNTSPNMMA31","either","3","556","","","","","","","0","0","1","","0.8270077233","0.4","0.6","0.8","0.2","0.8270077233","0.7158950816","0.2477643906","0.7848445355","","","","","","","","","","","","72","H","0","img/none_selected.jpg","","66","main_expt",""
"","bandit","146","461281","0.0-107.0-0.0","17447552","wem/bandit_either_3","A3QJNTSPNMMA31","either","3","256","","","","","","","0","0","1","0.6309271871","","0.4","0.6","0.8","0.2","","","","","0.7601471472","0.6309271871","0.1801078726","0.763143195","","","","","","","","74","J","1","","","67","main_expt",""
"","bandit","147","463038","0.0-108.0-0.0","17447552","wem/bandit_either_3","A3QJNTSPNMMA31","either","3","241","","","","","","","0","0","1","0.08479184886","","0.4","0.6","0.8","0.2","","","","","0.7567750057","0.617221228","0.08479184886","0.7966751536","","","","","","","","75","K","2","","","68","main_expt",""
"","bandit","148","464614","0.0-109.0-0.0","17447552","wem/bandit_either_3","A3QJNTSPNMMA31","either","3","65","","","","","","","1","0","0","0.8534335227","","0.4","0.6","0.8","0.2","","","","","0.6871277649","0.6235929763","0.06982522498","0.8534335227","","","","","","","","76","L","3","","","69","main_expt",""
"","bandit","149","466540","0.0-110.0-0.0","17447552","wem/bandit_either_3","A3QJNTSPNMMA31","either","3","410","","","","","","","0","1","0","","0.8915498471","0.4","0.6","0.8","0.2","0.773099018","0.5543620559","0.05029268469","0.8915498471","","","","","","","","","","","","76","L","3","","","70","main_expt",""
"","bandit","150","468405","0.0-111.0-0.0","17447552","wem/bandit_either_3","A3QJNTSPNMMA31","either","3","356","","","","","","","0","0","1","","0.8736989015","0.4","0.6","0.8","0.2","0.7412476729","0.5333999135","0.06413839938","0.8736989015","","","","","","","","","","","","76","L","3","","","71","main_expt",""
"","bandit","151","470076","0.0-112.0-0.0","17447552","wem/bandit_either_3","A3QJNTSPNMMA31","either","3","157","","","","","","","0","1","0","","0.8080704968","0.4","0.6","0.8","0.2","0.8080704968","0.5905126671","0.05155778705","0.8837551658","","","","","","","","","","","","72","H","0","img/none_selected.jpg","","72","main_expt",""
"","bandit","152","472252","0.0-113.0-0.0","17447552","wem/bandit_either_3","A3QJNTSPNMMA31","either","3","664","","","","","","","1","0","0","0.8270016227","","0.4","0.6","0.8","0.2","","","","","0.8270016227","0.6925119087","0.0232747386","0.8495494246","","","","","","","","72","H","0","img/none_selected.jpg","","73","main_expt",""
"","bandit","153","474129","0.0-114.0-0.0","17447552","wem/bandit_either_3","A3QJNTSPNMMA31","either","3","367","","","","","","","0","0","1","","0.7872017979","0.4","0.6","0.8","0.2","0.7872017979","0.7134745341","0.04751547773","0.9127472651","","","","","","","","","","","","72","H","0","img/none_selected.jpg","","74","main_expt",""
"","bandit","154","475785","0.0-115.0-0.0","17447552","wem/bandit_either_3","A3QJNTSPNMMA31","either","3","148","","","","","","","1","0","0","0.8065440948","","0.4","0.6","0.8","0.2","","","","","0.6167225576","0.8065440948","0.05282531612","0.9199060817","","","","","","","","74","J","1","","","75","main_expt",""
"","bandit","155","477710","0.0-116.0-0.0","17447552","wem/bandit_either_3","A3QJNTSPNMMA31","either","3","409","","","","","","","0","0","1","","0.7849172319","0.4","0.6","0.8","0.2","0.637182095","0.7849172319","0.08738729654","0.8691294168","","","","","","","","","","","","74","J","1","","","76","main_expt",""
"","bandit","156","479225","0.0-117.0-0.0","17447552","wem/bandit_either_3","A3QJNTSPNMMA31","either","3","4","","","","","","","0","0","1","0.08851312664","","0.4","0.6","0.8","0.2","","","","","0.7169911294","0.7818962729","0.08851312664","0.9111329321","","","","","","","","75","K","2","","","77","main_expt",""
"","bandit","157","481378","0.0-118.0-0.0","17447552","wem/bandit_either_3","A3QJNTSPNMMA31","either","3","641","","","","","","","0","1","0","","0.9286966754","0.4","0.6","0.8","0.2","0.7446448061","0.7002933386","0.145228539","0.9286966754","","","","","","","","","","","","76","L","3","","","78","main_expt",""
"","bandit","158","483334","0.0-119.0-0.0","17447552","wem/bandit_either_3","A3QJNTSPNMMA31","either","3","437","","","","","","","0","0","1","","0.9616021792","0.4","0.6","0.8","0.2","0.8152221547","0.6510109529","0.1669860915","0.9616021792","","","","","","","","","","","","76","L","3","","","79","main_expt",""
"","bandit","159","484966","0.0-120.0-0.0","17447552","wem/bandit_either_3","A3QJNTSPNMMA31","either","3","120","","","","","","","1","0","0","0.810351938","","0.4","0.6","0.8","0.2","","","","","0.810351938","0.6765614865","0.1922913003","0.950571795","","","","","","","","72","H","0","img/none_selected.jpg","","80","main_expt",""
"","bandit","160","487011","0.0-121.0-0.0","17447552","wem/bandit_either_3","A3QJNTSPNMMA31","either","3","535","","","","","","","0","1","0","","0.8895110989","0.4","0.6","0.8","0.2","0.8895110989","0.5908869344","0.2407870914","0.9331160128","","","","","","","","","","","","72","H","0","img/none_selected.jpg","","81","main_expt",""
"","bandit","161","488825","0.0-122.0-0.0","17447552","wem/bandit_either_3","A3QJNTSPNMMA31","either","3","293","","","","","","","1","0","0","0.5267531711","","0.4","0.6","0.8","0.2","","","","","0.9046816681","0.5267531711","0.3077898034","0.9465986336","","","","","","","","74","J","1","","","82","main_expt",""
"","bandit","162","490584","0.0-123.0-0.0","17447552","wem/bandit_either_3","A3QJNTSPNMMA31","either","3","245","","","","","","","1","0","0","0.8465278631","","0.4","0.6","0.8","0.2","","","","","0.8465278631","0.6168373964","0.2337579628","0.9371159138","","","","","","","","72","H","0","img/none_selected.jpg","","83","main_expt",""
"","bandit","163","492611","0.0-124.0-0.0","17447552","wem/bandit_either_3","A3QJNTSPNMMA31","either","3","510","","","","","","","0","0","1","0.5733990252","","0.4","0.6","0.8","0.2","","","","","0.7584930438","0.5733990252","0.2781329454","0.8998840018","","","","","","","","74","J","1","","","84","main_expt",""
"","bandit","164","494326","0.0-125.0-0.0","17447552","wem/bandit_either_3","A3QJNTSPNMMA31","either","3","207","","","","","","","0","0","1","","0.7727946294","0.4","0.6","0.8","0.2","0.7727946294","0.4719695616","0.3013149798","0.9102188985","","","","","","","","","","","","72","H","0","img/none_selected.jpg","","85","main_expt",""
"","bandit","165","496267","0.0-126.0-0.0","17447552","wem/bandit_either_3","A3QJNTSPNMMA31","either","3","426","","","","","","","1","0","0","0.3231836659","","0.4","0.6","0.8","0.2","","","","","0.8216594778","0.6941651786","0.3231836659","0.9000055418","","","","","","","","75","K","2","","","86","main_expt",""
"","bandit","166","498080","0.0-127.0-0.0","17447552","wem/bandit_either_3","A3QJNTSPNMMA31","either","3","297","","","","","","","0","0","1","","0.8563468124","0.4","0.6","0.8","0.2","0.7833884788","0.5408952125","0.3986379136","0.8563468124","","","","","","","","","","","","76","L","3","","","87","main_expt",""
"","bandit","167","499699","0.0-128.0-0.0","17447552","wem/bandit_either_3","A3QJNTSPNMMA31","either","3","102","","","","","","","1","0","0","0.4230151841","","0.4","0.6","0.8","0.2","","","","","0.7804426693","0.5438891422","0.4230151841","0.7349543302","","","","","","","","75","K","2","","","88","main_expt",""
"","bandit","168","501822","0.0-129.0-0.0","17447552","wem/bandit_either_3","A3QJNTSPNMMA31","either","3","608","","","","","","","1","0","0","0.3761858397","","0.4","0.6","0.8","0.2","","","","","0.7930928848","0.4294971294","0.3761858397","0.7907967515","","","","","","","","75","K","2","","","89","main_expt",""
"","bandit","169","504469","0.0-130.0-0.0","17447552","wem/bandit_either_3","A3QJNTSPNMMA31","either","3","1130","","","","","","","0","0","1","0.4799086841","","0.4","0.6","0.8","0.2","","","","","0.7683039237","0.4928337868","0.4799086841","0.7883246469","","","","","","","","75","K","2","","","90","main_expt",""
"","bandit","170","506125","0.0-131.0-0.0","17447552","wem/bandit_either_3","A3QJNTSPNMMA31","either","3","137","","","","","","","1","0","0","0.8072091422","","0.4","0.6","0.8","0.2","","","","","0.8072091422","0.5655090935","0.4558425901","0.8389096604","","","","","","","","72","H","0","img/none_selected.jpg","","91","main_expt",""
"","bandit","171","508046","0.0-132.0-0.0","17447552","wem/bandit_either_3","A3QJNTSPNMMA31","either","3","407","","","","","","","0","1","0","","0.6154818033","0.4","0.6","0.8","0.2","0.7791444337","0.6154818033","0.3781515597","0.8064187158","","","","","","","","","","","","74","J","1","","","92","main_expt",""
"","bandit","172","509831","0.0-133.0-0.0","17447552","wem/bandit_either_3","A3QJNTSPNMMA31","either","3","265","","","","","","","0","1","0","","0.8498372391","0.4","0.6","0.8","0.2","0.8498372391","0.7381217307","0.2858753042","0.7542368763","","","","","","","","","","","","72","H","0","img/none_selected.jpg","","93","main_expt",""
"","bandit","173","511860","0.0-134.0-0.0","17447552","wem/bandit_either_3","A3QJNTSPNMMA31","either","3","514","","","","","","","1","0","0","0.7776388333","","0.4","0.6","0.8","0.2","","","","","0.8440610374","0.7776388333","0.3914428564","0.6932487021","","","","","","","","74","J","1","","","94","main_expt",""
"","bandit","174","513918","0.0-135.0-0.0","17447552","wem/bandit_either_3","A3QJNTSPNMMA31","either","3","542","","","","","","","1","0","0","0.8092418145","","0.4","0.6","0.8","0.2","","","","","0.8092418145","0.8299152283","0.3800018616","0.6706070003","","","","","","","","72","H","0","img/none_selected.jpg","","95","main_expt",""
"","bandit","175","515741","0.0-136.0-0.0","17447552","wem/bandit_either_3","A3QJNTSPNMMA31","either","3","306","","","","","","","0","0","1","","0.7697811485","0.4","0.6","0.8","0.2","0.8655172998","0.7697811485","0.3078584031","0.6670251336","","","","","","","","","","","","74","J","1","","","96","main_expt",""
"","bandit","176","517344","0.0-137.0-0.0","17447552","wem/bandit_either_3","A3QJNTSPNMMA31","either","3","89","","","","","","","0","1","0","","0.8735151232","0.4","0.6","0.8","0.2","0.8735151232","0.7487724405","0.218486712","0.7023758817","","","","","","","","","","","","72","H","0","img/none_selected.jpg","","97","main_expt",""
"","bandit","177","519558","0.0-138.0-0.0","17447552","wem/bandit_either_3","A3QJNTSPNMMA31","either","3","700","","","","","","","0","1","0","","0.84409386","0.4","0.6","0.8","0.2","0.84409386","0.7450583294","0.2037628256","0.7036518389","","","","","","","","","","","","72","H","0","img/none_selected.jpg","","98","main_expt",""
"","bandit","178","522078","0.0-139.0-0.0","17447552","wem/bandit_either_3","A3QJNTSPNMMA31","either","3","1004","","","","","","","0","1","0","","0.7227120129","0.4","0.6","0.8","0.2","0.8089648913","0.7227120129","0.2400196326","0.8401346726","","","","","","","","","","","","74","J","1","","","99","main_expt",""
"","bandit","179","523954","0.0-140.0-0.0","17447552","wem/bandit_either_3","A3QJNTSPNMMA31","either","3","365","","","","","","","0","0","1","0.7259557377","","0.4","0.6","0.8","0.2","","","","","0.7259557377","0.5872141049","0.3298222115","0.8640782416","","","","","","","","72","H","0","img/none_selected.jpg","","100","main_expt",""
"","bandit","180","525998","0.0-141.0-0.0","17447552","wem/bandit_either_3","A3QJNTSPNMMA31","either","3","535","","","","","","","0","0","1","0.6432213136","","0.4","0.6","0.8","0.2","","","","","0.6332869741","0.6432213136","0.3108047587","0.8232172207","","","","","","","","74","J","1","","","101","main_expt",""
"","bandit","181","527811","0.0-142.0-0.0","17447552","wem/bandit_either_3","A3QJNTSPNMMA31","either","3","301","","","","","","","1","0","0","0.8451901448","","0.4","0.6","0.8","0.2","","","","","0.659443461","0.6009476408","0.2869381514","0.8451901448","","","","","","","","76","L","3","","","102","main_expt",""
"","bandit","182","529955","0.0-143.0-0.0","17447552","wem/bandit_either_3","A3QJNTSPNMMA31","either","3","626","","","","","","","0","1","0","","0.8792283932","0.4","0.6","0.8","0.2","0.5959971703","0.6120105745","0.246485708","0.8792283932","","","","","","","","","","","","76","L","3","","","103","main_expt",""
"","bandit","183","532201","0.0-144.0-0.0","17447552","wem/bandit_either_3","A3QJNTSPNMMA31","either","3","731","","","","","","","0","1","0","","0.8887181638","0.4","0.6","0.8","0.2","0.5643630141","0.6821098495","0.2175667678","0.8887181638","","","","","","","","","","","","76","L","3","","","104","main_expt",""
"","bandit","184","534554","0.0-145.0-0.0","17447552","wem/bandit_either_3","A3QJNTSPNMMA31","either","3","839","","","","","","","0","1","0","","0.8013578166","0.4","0.6","0.8","0.2","0.5489079514","0.7228510016","0.2645808036","0.8013578166","","","","","","","","","","","","76","L","3","","","105","main_expt",""
"","bandit","185","538816","0.0-146.0-0.0","17447552","wem/bandit_either_3","A3QJNTSPNMMA31","either","3","2751","","","","","","","0","1","0","","0.7307006529","0.4","0.6","0.8","0.2","0.4336033326","0.6639212405","0.2652424516","0.7307006529","","","","","","","","","","","","76","L","3","","","106","main_expt",""
"","bandit","186","541182","0.0-147.0-0.0","17447552","wem/bandit_either_3","A3QJNTSPNMMA31","either","3","843","","","","","","","0","1","0","","0.7519500851","0.4","0.6","0.8","0.2","0.4779201531","0.6237034742","0.2481661544","0.7519500851","","","","","","","","","","","","76","L","3","","","107","main_expt",""
"","bandit","187","545291","0.0-148.0-0.0","17447552","wem/bandit_either_3","A3QJNTSPNMMA31","either","3","2590","","","","","","","0","0","1","","0.7457577851","0.4","0.6","0.8","0.2","0.5075294874","0.5847293191","0.2361720859","0.7457577851","","","","","","","","","","","","76","L","3","","","108","main_expt",""
"","bandit","188","546863","0.0-149.0-0.0","17447552","wem/bandit_either_3","A3QJNTSPNMMA31","either","3","59","","","","","","","0","0","1","0.2799679389","","0.4","0.6","0.8","0.2","","","","","0.522842385","0.6260859175","0.2799679389","0.77583868","","","","","","","","75","K","2","","","109","main_expt",""
"","bandit","189","548809","0.0-150.0-0.0","17447552","wem/bandit_either_3","A3QJNTSPNMMA31","either","3","431","","","","","","","0","0","1","","0.4788227383","0.4","0.6","0.8","0.2","0.419893696","0.4788227383","0.3333098602","0.7520827962","","","","","","","","","","","","74","J","1","","","110","main_expt",""
"","bandit","190","550661","0.0-151.0-0.0","17447552","wem/bandit_either_3","A3QJNTSPNMMA31","either","3","336","","","","","","","1","0","0","0.431092028","","0.4","0.6","0.8","0.2","","","","","0.431092028","0.6019778282","0.3669732535","0.6512809768","","","","","","","","72","H","0","img/none_selected.jpg","","111","main_expt",""
"","bandit","191","553107","0.0-152.0-0.0","17447552","wem/bandit_either_3","A3QJNTSPNMMA31","either","3","931","","","","","","","0","1","0","","0.3590071368","0.4","0.6","0.8","0.2","0.3590071368","0.546445977","0.389765336","0.5891937939","","","","","","","","","","","","72","H","0","img/none_selected.jpg","","112","main_expt",""
"","bandit","192","557500","0.0-153.0-0.0","17447552","wem/bandit_either_3","A3QJNTSPNMMA31","either","3","2879","","","","","","","0","1","0","","0.4498419114","0.4","0.6","0.8","0.2","0.4498419114","0.6256092846","0.3191506652","0.6490525038","","","","","","","","","","","","72","H","0","img/none_selected.jpg","","113","main_expt",""
"","bandit","193","559956","0.0-154.0-0.0","17447552","wem/bandit_either_3","A3QJNTSPNMMA31","either","3","946","","","","","","","0","0","1","0.4829831469","","0.4","0.6","0.8","0.2","","","","","0.4829831469","0.6577617598","0.2090321438","0.6283680234","","","","","","","","72","H","0","img/none_selected.jpg","","114","main_expt",""
"","bandit","194","561688","0.0-155.0-0.0","17447552","wem/bandit_either_3","A3QJNTSPNMMA31","either","3","214","","","","","","","1","0","0","0.6064224059","","0.4","0.6","0.8","0.2","","","","","0.4846695964","0.7140476354","0.2094439124","0.6064224059","","","","","","","","76","L","3","","","115","main_expt",""
"","bandit","195","565896","0.0-156.0-0.0","17447552","wem/bandit_either_3","A3QJNTSPNMMA31","either","3","2692","","","","","","","0","0","1","","0.545813367","0.4","0.6","0.8","0.2","0.5396909338","0.6589976567","0.2695181069","0.545813367","","","","","","","","","","","","76","L","3","","","116","main_expt",""
"","bandit","196","567819","0.0-157.0-0.0","17447552","wem/bandit_either_3","A3QJNTSPNMMA31","either","3","407","","","","","","","0","0","1","0.3402036285","","0.4","0.6","0.8","0.2","","","","","0.5378282835","0.6937703341","0.3402036285","0.5179373022","","","","","","","","75","K","2","","","117","main_expt",""
"","bandit","197","569734","0.0-158.0-0.0","17447552","wem/bandit_either_3","A3QJNTSPNMMA31","either","3","402","","","","","","","1","0","0","0.77114399","","0.4","0.6","0.8","0.2","","","","","0.5729988564","0.77114399","0.3101634078","0.4014157923","","","","","","","","74","J","1","","","118","main_expt",""
"","bandit","198","572168","0.0-159.0-0.0","17447552","wem/bandit_either_3","A3QJNTSPNMMA31","either","3","915","","","","","","","0","1","0","","0.710000291","0.4","0.6","0.8","0.2","0.5630251564","0.710000291","0.3242193616","0.4360264599","","","","","","","","","","","","74","J","1","","","119","main_expt",""
"","bandit","199","575148","0.0-160.0-0.0","17447552","wem/bandit_either_3","A3QJNTSPNMMA31","either","3","1466","","","","","","","0","1","0","","0.6767982245","0.4","0.6","0.8","0.2","0.6482115929","0.6767982245","0.3334277272","0.3297853269","","","","","","","","","","","","74","J","1","","","120","main_expt",""
"","bandit","200","578043","0.0-161.0-0.0","17447552","wem/bandit_either_3","A3QJNTSPNMMA31","either","3","1380","","","","","","","1","0","0","0.7360115258","","0.4","0.6","0.8","0.2","","","","","0.5688505083","0.7360115258","0.4066521311","0.3767442019","","","","","","","","74","J","1","","","121","main_expt",""
"","bandit","201","580273","0.0-162.0-0.0","17447552","wem/bandit_either_3","A3QJNTSPNMMA31","either","3","714","","","","","","","1","0","0","0.7258716992","","0.4","0.6","0.8","0.2","","","","","0.5349597204","0.7258716992","0.5193034213","0.3589515546","","","","","","","","74","J","1","","","122","main_expt",""
"","bandit","202","582324","0.0-163.0-0.0","17447552","wem/bandit_either_3","A3QJNTSPNMMA31","either","3","537","","","","","","","0","0","1","0.7848203729","","0.4","0.6","0.8","0.2","","","","","0.412887176","0.7848203729","0.5594962391","0.3461890545","","","","","","","","74","J","1","","","123","main_expt",""
"","bandit","203","584401","0.0-164.0-0.0","17447552","wem/bandit_either_3","A3QJNTSPNMMA31","either","3","566","","","","","","","1","0","0","0.7673004895","","0.4","0.6","0.8","0.2","","","","","0.4137060999","0.7673004895","0.6876014299","0.2287340519","","","","","","","","74","J","1","","","124","main_expt",""
"","bandit","204","586700","0.0-165.0-0.0","17447552","wem/bandit_either_3","A3QJNTSPNMMA31","either","3","780","","","","","","","1","0","0","0.8020703208","","0.4","0.6","0.8","0.2","","","","","0.3226696341","0.8020703208","0.7354493796","0.2900718705","","","","","","","","74","J","1","","","125","main_expt",""
"","bandit","205","588924","0.0-166.0-0.0","17447552","wem/bandit_either_3","A3QJNTSPNMMA31","either","3","705","","","","","","","0","1","0","","0.8196031782","0.4","0.6","0.8","0.2","0.3904211026","0.8196031782","0.76840964","0.2880997441","","","","","","","","","","","","74","J","1","","","126","main_expt",""
"","bandit","206","590852","0.0-167.0-0.0","17447552","wem/bandit_either_3","A3QJNTSPNMMA31","either","3","410","","","","","","","0","0","1","","0.7095492128","0.4","0.6","0.8","0.2","0.4227014292","0.7095492128","0.7310750685","0.3451069126","","","","","","","","","","","","74","J","1","","","127","main_expt",""
"","bandit","207","592888","0.0-168.0-0.0","17447552","wem/bandit_either_3","A3QJNTSPNMMA31","either","3","523","","","","","","","0","1","0","","0.543317668","0.4","0.6","0.8","0.2","0.543317668","0.711577854","0.6582635175","0.3129298861","","","","","","","","","","","","72","H","0","img/none_selected.jpg","","128","main_expt",""
"","bandit","208","594923","0.0-169.0-0.0","17447552","wem/bandit_either_3","A3QJNTSPNMMA31","either","3","521","","","","","","","0","0","1","0.5906282681","","0.4","0.6","0.8","0.2","","","","","0.5906282681","0.7022761705","0.7529887683","0.3507055597","","","","","","","","72","H","0","img/none_selected.jpg","","129","main_expt",""
"","bandit","209","596697","0.0-170.0-0.0","17447552","wem/bandit_either_3","A3QJNTSPNMMA31","either","3","260","","","","","","","1","0","0","0.3753424236","","0.4","0.6","0.8","0.2","","","","","0.6636268631","0.7309419319","0.7929301986","0.3753424236","","","","","","","","76","L","3","","","130","main_expt",""
"","bandit","210","598777","0.0-171.0-0.0","17447552","wem/bandit_either_3","A3QJNTSPNMMA31","either","3","563","","","","","","","0","0","1","","0.3473486375","0.4","0.6","0.8","0.2","0.5686699027","0.6904825683","0.8149544693","0.3473486375","","","","","","","","","","","","76","L","3","","","131","main_expt",""
"","bandit","211","600611","0.0-172.0-0.0","17447552","wem/bandit_either_3","A3QJNTSPNMMA31","either","3","319","","","","","","","0","0","1","","0.7626544417","0.4","0.6","0.8","0.2","0.6564012045","0.7153166113","0.7626544417","0.303679922","","","","","","","","","","","","75","K","2","","","132","main_expt",""
"","bandit","212","602528","0.0-173.0-0.0","17447552","wem/bandit_either_3","A3QJNTSPNMMA31","either","3","405","","","","","","","1","0","0","0.8135501627","","0.4","0.6","0.8","0.2","","","","","0.5876654864","0.8135501627","0.7584501248","0.3385565331","","","","","","","","74","J","1","","","133","main_expt",""
"","bandit","213","604390","0.0-174.0-0.0","17447552","wem/bandit_either_3","A3QJNTSPNMMA31","either","3","349","","","","","","","0","0","1","0.7707892239","","0.4","0.6","0.8","0.2","","","","","0.5299368298","0.7707892239","0.7905015291","0.3686406913","","","","","","","","74","J","1","","","134","main_expt",""
"","bandit","214","606190","0.0-175.0-0.0","17447552","wem/bandit_either_3","A3QJNTSPNMMA31","either","3","284","","","","","","","0","1","0","","0.3672202126","0.4","0.6","0.8","0.2","0.4547966061","0.7689088841","0.7515189777","0.3672202126","","","","","","","","","","","","76","L","3","","","135","main_expt",""
"","bandit","215","608056","0.0-176.0-0.0","17447552","wem/bandit_either_3","A3QJNTSPNMMA31","either","3","353","","","","","","","1","0","0","0.4064769993","","0.4","0.6","0.8","0.2","","","","","0.5290841583","0.6641324257","0.7293518859","0.4064769993","","","","","","","","76","L","3","","","136","main_expt",""
"","bandit","216","609927","0.0-177.0-0.0","17447552","wem/bandit_either_3","A3QJNTSPNMMA31","either","3","361","","","","","","","0","0","1","","0.3492503667","0.4","0.6","0.8","0.2","0.419904672","0.635388201","0.7286216209","0.3492503667","","","","","","","","","","","","76","L","3","","","137","main_expt",""
"","bandit","217","611699","0.0-178.0-0.0","17447552","wem/bandit_either_3","A3QJNTSPNMMA31","either","3","261","","","","","","","0","1","0","","0.4532768315","0.4","0.6","0.8","0.2","0.4532768315","0.6889508363","0.7425921641","0.3315752647","","","","","","","","","","","","72","H","0","img/none_selected.jpg","","138","main_expt",""
"","bandit","218","613505","0.0-179.0-0.0","17447552","wem/bandit_either_3","A3QJNTSPNMMA31","either","3","295","","","","","","","0","1","0","","0.7356638012","0.4","0.6","0.8","0.2","0.4194835996","0.6481427694","0.7356638012","0.3080831972","","","","","","","","","","","","75","K","2","","","139","main_expt",""
"","bandit","219","615248","0.0-180.0-0.0","17447552","wem/bandit_either_3","A3QJNTSPNMMA31","either","3","226","","","","","","","0","1","0","","0.6497449761","0.4","0.6","0.8","0.2","0.420008375","0.6497449761","0.7334346803","0.3254670704","","","","","","","","","","","","74","J","1","","","140","main_expt",""
"","bandit","220","617166","0.0-181.0-0.0","17447552","wem/bandit_either_3","A3QJNTSPNMMA31","either","3","396","","","","","","","0","1","0","","0.7328205829","0.4","0.6","0.8","0.2","0.3908595681","0.7328205829","0.7737071977","0.3452870884","","","","","","","","","","","","74","J","1","","","141","main_expt",""
"","bandit","221","618992","0.0-182.0-0.0","17447552","wem/bandit_either_3","A3QJNTSPNMMA31","either","3","314","","","","","","","1","0","0","0.6396752577","","0.4","0.6","0.8","0.2","","","","","0.3994278682","0.6396752577","0.7912630164","0.2659846132","","","","","","","","74","J","1","","","142","main_expt",""
"","bandit","222","620982","0.0-183.0-0.0","17447552","wem/bandit_either_3","A3QJNTSPNMMA31","either","3","474","","","","","","","0","0","1","","0.5974809775","0.4","0.6","0.8","0.2","0.3137486051","0.5974809775","0.7709923268","0.2549781044","","","","","","","","","","","","74","J","1","","","143","main_expt",""
"","bandit","223","622623","0.0-184.0-0.0","17447552","wem/bandit_either_3","A3QJNTSPNMMA31","either","3","127","","","","","","","0","0","1","","0.3603981418","0.4","0.6","0.8","0.2","0.3961992406","0.5953980303","0.7492848764","0.3603981418","","","","","","","","","","","","76","L","3","","","144","main_expt",""
"","bandit","224","624377","0.0-185.0-0.0","17447552","wem/bandit_either_3","A3QJNTSPNMMA31","either","3","240","","","","","","","1","0","0","0.6215671736","","0.4","0.6","0.8","0.2","","","","","0.3186856111","0.6215671736","0.7343485297","0.3682949958","","","","","","","","74","J","1","","","145","main_expt",""
"","bandit","225","626216","0.0-186.0-0.0","17447552","wem/bandit_either_3","A3QJNTSPNMMA31","either","3","321","","","","","","","1","0","0","0.5766937592","","0.4","0.6","0.8","0.2","","","","","0.2724247948","0.5766937592","0.7701032705","0.5028772858","","","","","","","","74","J","1","","","146","main_expt",""
"","bandit","226","628078","0.0-187.0-0.0","17447552","wem/bandit_either_3","A3QJNTSPNMMA31","either","3","345","","","","","","","1","0","0","0.4600492943","","0.4","0.6","0.8","0.2","","","","","0.2844288079","0.4600492943","0.7521601774","0.4186890645","","","","","","","","74","J","1","","","147","main_expt",""
"","bandit","227","629912","0.0-188.0-0.0","17447552","wem/bandit_either_3","A3QJNTSPNMMA31","either","3","321","","","","","","","0","0","1","","0.4575448178","0.4","0.6","0.8","0.2","0.3095389551","0.4575448178","0.7762143641","0.3928328601","","","","","","","","","","","","74","J","1","","","148","main_expt",""
"","bandit","228","631599","0.0-189.0-0.0","17447552","wem/bandit_either_3","A3QJNTSPNMMA31","either","3","172","","","","","","","1","0","0","0.716016993","","0.4","0.6","0.8","0.2","","","","","0.2464654743","0.3840278576","0.716016993","0.4220063763","","","","","","","","75","K","2","","","149","main_expt",""
"","bandit","229","633589","0.0-190.0-0.0","17447552","wem/bandit_either_3","A3QJNTSPNMMA31","either","3","478","","","","","","","0","1","0","","0.7182774931","0.4","0.6","0.8","0.2","0.2088091358","0.3004406684","0.7182774931","0.3206822378","","","","","","","","","","","","75","K","2","","","150","main_expt",""
"","bandit","230","635350","0.0-191.0-0.0","17447552","wem/bandit_either_3","A3QJNTSPNMMA31","either","3","253","","","","","","","0","0","1","","0.2769981479","0.4","0.6","0.8","0.2","0.2670014618","0.2769981479","0.8028216805","0.3380172956","","","","","","","","","","","","74","J","1","","","151","main_expt",""
"","bandit","231","637163","0.0-192.0-0.0","17447552","wem/bandit_either_3","A3QJNTSPNMMA31","either","3","301","","","","","","","1","0","0","0.8634692279","","0.4","0.6","0.8","0.2","","","","","0.3100930243","0.40565407","0.8634692279","0.2461440624","","","","","","","","75","K","2","","","152","main_expt",""
"","bandit","232","639227","0.0-193.0-0.0","17447552","wem/bandit_either_3","A3QJNTSPNMMA31","either","3","546","","","","","","","1","0","0","0.7719190238","","0.4","0.6","0.8","0.2","","","","","0.3796096158","0.3829351634","0.7719190238","0.1852716423","","","","","","","","75","K","2","","","153","main_expt",""
"","bandit","233","641013","0.0-194.0-0.0","17447552","wem/bandit_either_3","A3QJNTSPNMMA31","either","3","269","","","","","","","1","0","0","0.8343429945","","0.4","0.6","0.8","0.2","","","","","0.2265028128","0.4912137185","0.8343429945","0.1660439368","","","","","","","","75","K","2","","","154","main_expt",""
"","bandit","234","642853","0.0-195.0-0.0","17447552","wem/bandit_either_3","A3QJNTSPNMMA31","either","3","321","","","","","","","0","0","1","0.7908731232","","0.4","0.6","0.8","0.2","","","","","0.2135741777","0.5312535156","0.7908731232","0.2241607793","","","","","","","","75","K","2","","","155","main_expt",""
"","bandit","235","644603","0.0-196.0-0.0","17447552","wem/bandit_either_3","A3QJNTSPNMMA31","either","3","239","","","","","","","0","0","1","","0.1338357519","0.4","0.6","0.8","0.2","0.1338357519","0.5747898199","0.7848911391","0.1566338899","","","","","","","","","","","","72","H","0","img/none_selected.jpg","","156","main_expt",""
"","bandit","236","646805","0.0-197.0-0.0","17447552","wem/bandit_either_3","A3QJNTSPNMMA31","either","3","688","","","","","","","1","0","0","0.7467155263","","0.4","0.6","0.8","0.2","","","","","0.1344370697","0.5948125822","0.7467155263","0.1839373886","","","","","","","","75","K","2","","","157","main_expt",""
"","bandit","237","648598","0.0-198.0-0.0","17447552","wem/bandit_either_3","A3QJNTSPNMMA31","either","3","281","","","","","","","0","0","1","","0.6533804049","0.4","0.6","0.8","0.2","0.1217930933","0.6533804049","0.7413618202","0.155802242","","","","","","","","","","","","74","J","1","","","158","main_expt",""
"","bandit","238","650376","0.0-199.0-0.0","17447552","wem/bandit_either_3","A3QJNTSPNMMA31","either","3","266","","","","","","","1","0","0","0.6882043704","","0.4","0.6","0.8","0.2","","","","","0.08524485746","0.5777198579","0.6882043704","0.2304237345","","","","","","","","75","K","2","","","159","main_expt",""
"","bandit","239","652549","0.0-200.0-0.0","17447552","wem/bandit_either_3","A3QJNTSPNMMA31","either","3","653","","","","","","","1","0","0","0.7253096401","","0.4","0.6","0.8","0.2","","","","","0.07332219892","0.6777741118","0.7253096401","0.2242026456","","","","","","","","75","K","2","","","160","main_expt",""
"","bandit","240","654481","0.0-201.0-0.0","17447552","wem/bandit_either_3","A3QJNTSPNMMA31","either","3","417","","","","","","","1","0","0","0.6989182833","","0.4","0.6","0.8","0.2","","","","","0.1063489691","0.6249074267","0.6989182833","0.2708915048","","","","","","","","75","K","2","","","161","main_expt",""
"","bandit","241","656543","0.0-202.0-0.0","17447552","wem/bandit_either_3","A3QJNTSPNMMA31","either","3","541","","","","","","","0","0","1","","0.7679575172","0.4","0.6","0.8","0.2","0.09670310095","0.6755041601","0.7679575172","0.2921592604","","","","","","","","","","","","75","K","2","","","162","main_expt",""
"","bandit","242","658185","0.0-203.0-0.0","17447552","wem/bandit_either_3","A3QJNTSPNMMA31","either","3","133","","","","","","","0","0","1","","0.2050535257","0.4","0.6","0.8","0.2","0.1266359811","0.6461818487","0.6877390752","0.2050535257","","","","","","","","","","","","76","L","3","","","163","main_expt",""
"","bandit","243","659949","0.0-204.0-0.0","17447552","wem/bandit_either_3","A3QJNTSPNMMA31","either","3","248","","","","","","","0","1","0","","0.6957575266","0.4","0.6","0.8","0.2","0.1212611996","0.76368027","0.6957575266","0.1998759094","","","","","","","","","","","","75","K","2","","","164","main_expt",""
"","bandit","244","662166","0.0-205.0-0.0","17447552","wem/bandit_either_3","A3QJNTSPNMMA31","either","3","699","","","","","","","1","0","0","0.6760148625","","0.4","0.6","0.8","0.2","","","","","0.1917887173","0.8400099296","0.6760148625","0.1821974317","","","","","","","","75","K","2","","","165","main_expt",""
"","bandit","245","664181","0.0-206.0-0.0","17447552","wem/bandit_either_3","A3QJNTSPNMMA31","either","3","496","","","","","","","1","0","0","0.6463317238","","0.4","0.6","0.8","0.2","","","","","0.1560613016","0.8573275969","0.6463317238","0.2916844583","","","","","","","","75","K","2","","","166","main_expt",""
"","bandit","246","666003","0.0-207.0-0.0","17447552","wem/bandit_either_3","A3QJNTSPNMMA31","either","3","303","","","","","","","0","0","1","0.5613055562","","0.4","0.6","0.8","0.2","","","","","0.2214887095","0.7735369509","0.5613055562","0.3087465624","","","","","","","","75","K","2","","","167","main_expt",""
"","bandit","247","668219","0.0-208.0-0.0","17447552","wem/bandit_either_3","A3QJNTSPNMMA31","either","3","708","","","","","","","1","0","0","0.8091314607","","0.4","0.6","0.8","0.2","","","","","0.3463453368","0.8091314607","0.5586162784","0.3896626528","","","","","","","","74","J","1","","","168","main_expt",""
"","bandit","248","670150","0.0-209.0-0.0","17447552","wem/bandit_either_3","A3QJNTSPNMMA31","either","3","417","","","","","","","1","0","0","0.597448185","","0.4","0.6","0.8","0.2","","","","","0.3222551453","0.8364166478","0.597448185","0.4458805252","","","","","","","","75","K","2","","","169","main_expt",""
"","bandit","249","671998","0.0-210.0-0.0","17447552","wem/bandit_either_3","A3QJNTSPNMMA31","either","3","329","","","","","","","0","0","1","","0.7867883415","0.4","0.6","0.8","0.2","0.2556410415","0.7867883415","0.5351242352","0.4844269655","","","","","","","","","","","","74","J","1","","","170","main_expt",""
"","bandit","250","673821","0.0-211.0-0.0","17447552","wem/bandit_either_3","A3QJNTSPNMMA31","either","3","303","","","","","","","1","0","0","0.4819966971","","0.4","0.6","0.8","0.2","","","","","0.2248109201","0.8728822524","0.4819966971","0.4858642724","","","","","","","","75","K","2","","","171","main_expt",""
"","bandit","251","675876","0.0-212.0-0.0","17447552","wem/bandit_either_3","A3QJNTSPNMMA31","either","3","533","","","","","","","0","0","1","0.4038669266","","0.4","0.6","0.8","0.2","","","","","0.3468742366","0.7804912391","0.4038669266","0.5060245996","","","","","","","","75","K","2","","","172","main_expt",""
"","bandit","252","677733","0.0-213.0-0.0","17447552","wem/bandit_either_3","A3QJNTSPNMMA31","either","3","338","","","","","","","0","0","1","0.234408543","","0.4","0.6","0.8","0.2","","","","","0.234408543","0.7728490534","0.3102533384","0.5413528159","","","","","","","","72","H","0","img/none_selected.jpg","","173","main_expt",""
"","bandit","253","679502","0.0-214.0-0.0","17447552","wem/bandit_either_3","A3QJNTSPNMMA31","either","3","252","","","","","","","0","1","0","","0.6505326818","0.4","0.6","0.8","0.2","0.1404050277","0.814185781","0.3818943333","0.6505326818","","","","","","","","","","","","76","L","3","","","174","main_expt",""
"","bandit","254","681381","0.0-215.0-0.0","17447552","wem/bandit_either_3","A3QJNTSPNMMA31","either","3","364","","","","","","","0","0","1","0.2893198216","","0.4","0.6","0.8","0.2","","","","","0.1081611795","0.8010682597","0.2893198216","0.6470977149","","","","","","","","75","K","2","","","175","main_expt",""
"","bandit","255","683161","0.0-216.0-0.0","17447552","wem/bandit_either_3","A3QJNTSPNMMA31","either","3","268","","","","","","","0","1","0","","0.7083228223","0.4","0.6","0.8","0.2","0.0730283124","0.7083228223","0.226416223","0.6844229635","","","","","","","","","","","","74","J","1","","","176","main_expt",""
"","bandit","256","685006","0.0-217.0-0.0","17447552","wem/bandit_either_3","A3QJNTSPNMMA31","either","3","331","","","","","","","0","0","1","","0.6883244284","0.4","0.6","0.8","0.2","0.07044941978","0.7408938443","0.2786676386","0.6883244284","","","","","","","","","","","","76","L","3","","","177","main_expt",""
"","bandit","257","686786","0.0-218.0-0.0","17447552","wem/bandit_either_3","A3QJNTSPNMMA31","either","3","264","","","","","","","0","1","0","","0.6621187214","0.4","0.6","0.8","0.2","0.06886985111","0.6621187214","0.2279078815","0.6098590842","","","","","","","","","","","","74","J","1","","","178","main_expt",""
"","bandit","258","689071","0.0-219.0-0.0","17447552","wem/bandit_either_3","A3QJNTSPNMMA31","either","3","767","","","","","","","1","0","0","0.6765487854","","0.4","0.6","0.8","0.2","","","","","0.07254371148","0.6765487854","0.1690126781","0.5924449164","","","","","","","","74","J","1","","","179","main_expt",""
"","bandit","259","691141","0.0-220.0-0.0","17447552","wem/bandit_either_3","A3QJNTSPNMMA31","either","3","552","","","","","","","0","0","1","0.1356066944","","0.4","0.6","0.8","0.2","","","","","0.055057054","0.7276027883","0.1356066944","0.4915111467","","","","","","","","75","K","2","","","180","main_expt",""
"","bandit","260","693306","0.0-221.0-0.0","17447552","wem/bandit_either_3","A3QJNTSPNMMA31","either","3","643","","","","","","","1","0","0","0.7083410305","","0.4","0.6","0.8","0.2","","","","","0.1187845962","0.7083410305","0.1889441784","0.4713933083","","","","","","","","74","J","1","","","181","main_expt",""
"","bandit","261","695507","0.0-222.0-0.0","17447552","wem/bandit_either_3","A3QJNTSPNMMA31","either","3","675","","","","","","","0","0","1","0.6489729838","","0.4","0.6","0.8","0.2","","","","","0.1304227184","0.6489729838","0.2163976064","0.500114893","","","","","","","","74","J","1","","","182","main_expt",""
"","bandit","262","697307","0.0-223.0-0.0","17447552","wem/bandit_either_3","A3QJNTSPNMMA31","either","3","288","","","","","","","1","0","0","0.4949273894","","0.4","0.6","0.8","0.2","","","","","0.1374638341","0.6956751073","0.1902524086","0.4949273894","","","","","","","","76","L","3","","","183","main_expt",""
"","bandit","263","699079","0.0-224.0-0.0","17447552","wem/bandit_either_3","A3QJNTSPNMMA31","either","3","256","","","","","","","0","0","1","","0.6066537109","0.4","0.6","0.8","0.2","0.1914365344","0.6066537109","0.2265805791","0.4271361476","","","","","","","","","","","","74","J","1","","","184","main_expt",""
"","bandit","264","700866","0.0-225.0-0.0","17447552","wem/bandit_either_3","A3QJNTSPNMMA31","either","3","270","","","","","","","0","0","1","0.4558255176","","0.4","0.6","0.8","0.2","","","","","0.1939872458","0.6337362372","0.1843452782","0.4558255176","","","","","","","","76","L","3","","","185","main_expt",""
"","bandit","265","702687","0.0-226.0-0.0","17447552","wem/bandit_either_3","A3QJNTSPNMMA31","either","3","304","","","","","","","0","1","0","","0.2219937035","0.4","0.6","0.8","0.2","0.2219937035","0.5908962551","0.1898387663","0.4031301461","","","","","","","","","","","","72","H","0","img/none_selected.jpg","","186","main_expt",""
"","bandit","266","704678","0.0-227.0-0.0","17447552","wem/bandit_either_3","A3QJNTSPNMMA31","either","3","470","","","","","","","0","0","1","0.2024523472","","0.4","0.6","0.8","0.2","","","","","0.2024523472","0.7651761031","0.210498268","0.3993697366","","","","","","","","72","H","0","img/none_selected.jpg","","187","main_expt",""
"","bandit","267","706493","0.0-228.0-0.0","17447552","wem/bandit_either_3","A3QJNTSPNMMA31","either","3","293","","","","","","","0","0","1","","0.4478687375","0.4","0.6","0.8","0.2","0.1930401344","0.7928336054","0.2368649008","0.4478687375","","","","","","","","","","","","76","L","3","","","188","main_expt",""
"","bandit","268","708558","0.0-229.0-0.0","17447552","wem/bandit_either_3","A3QJNTSPNMMA31","either","3","545","","","","","","","0","1","0","","0.8917358491","0.4","0.6","0.8","0.2","0.3255404916","0.8917358491","0.291591963","0.3699601256","","","","","","","","","","","","74","J","1","","","189","main_expt",""
"","bandit","269","710404","0.0-230.0-0.0","17447552","wem/bandit_either_3","A3QJNTSPNMMA31","either","3","328","","","","","","","0","0","1","0.4411779124","","0.4","0.6","0.8","0.2","","","","","0.2364063212","0.898448025","0.4411779124","0.3723251068","","","","","","","","75","K","2","","","190","main_expt",""
"","bandit","270","712236","0.0-231.0-0.0","17447552","wem/bandit_either_3","A3QJNTSPNMMA31","either","3","308","","","","","","","0","1","0","","0.9186708851","0.4","0.6","0.8","0.2","0.2662767285","0.9186708851","0.3968704403","0.3309849287","","","","","","","","","","","","74","J","1","","","191","main_expt",""
"","bandit","271","714055","0.0-232.0-0.0","17447552","wem/bandit_either_3","A3QJNTSPNMMA31","either","3","298","","","","","","","0","0","1","","0.2815174114","0.4","0.6","0.8","0.2","0.2815174114","0.9314477517","0.4512817608","0.2865625263","","","","","","","","","","","","72","H","0","img/none_selected.jpg","","192","main_expt",""
"","bandit","272","715958","0.0-233.0-0.0","17447552","wem/bandit_either_3","A3QJNTSPNMMA31","either","3","387","","","","","","","0","1","0","","0.9090465067","0.4","0.6","0.8","0.2","0.3461293965","0.9090465067","0.4788006455","0.2862811746","","","","","","","","","","","","74","J","1","","","193","main_expt",""
"","bandit","273","717891","0.0-234.0-0.0","17447552","wem/bandit_either_3","A3QJNTSPNMMA31","either","3","414","","","","","","","0","1","0","","0.8762249788","0.4","0.6","0.8","0.2","0.3303735913","0.8762249788","0.4651889587","0.2785288642","","","","","","","","","","","","74","J","1","","","194","main_expt",""
"","bandit","274","719768","0.0-235.0-0.0","17447552","wem/bandit_either_3","A3QJNTSPNMMA31","either","3","359","","","","","","","0","1","0","","0.8623185747","0.4","0.6","0.8","0.2","0.3194565039","0.8623185747","0.4718629942","0.2283941808","","","","","","","","","","","","74","J","1","","","195","main_expt",""
"","bandit","275","721898","0.0-236.0-0.0","17447552","wem/bandit_either_3","A3QJNTSPNMMA31","either","3","611","","","","","","","1","0","0","0.7745977574","","0.4","0.6","0.8","0.2","","","","","0.4103944464","0.7745977574","0.3825708332","0.214282227","","","","","","","","74","J","1","","","196","main_expt",""
"","bandit","276","723849","0.0-237.0-0.0","17447552","wem/bandit_either_3","A3QJNTSPNMMA31","either","3","433","","","","","","","1","0","0","0.7723069829","","0.4","0.6","0.8","0.2","","","","","0.4445726534","0.7723069829","0.4530864699","0.1422959513","","","","","","","","74","J","1","","","197","main_expt",""
"","bandit","277","725621","0.0-238.0-0.0","17447552","wem/bandit_either_3","A3QJNTSPNMMA31","either","3","247","","","","","","","1","0","0","0.7084082875","","0.4","0.6","0.8","0.2","","","","","0.4351718099","0.7084082875","0.4337652667","0.1126324943","","","","","","","","74","J","1","","","198","main_expt",""
"","bandit","278","727625","0.0-239.0-0.0","17447552","wem/bandit_either_3","A3QJNTSPNMMA31","either","3","485","","","","","","","0","1","0","","0.7016883558","0.4","0.6","0.8","0.2","0.4641294157","0.7016883558","0.4138332966","0.1144166609","","","","","","","","","","","","74","J","1","","","199","main_expt",""
"","bandit","279","729450","0.0-240.0-0.0","17447552","wem/bandit_either_3","A3QJNTSPNMMA31","either","3","303","","","","","","","0","0","1","","0.6504384346","0.4","0.6","0.8","0.2","0.4468687069","0.6504384346","0.5005175686","0.1518003708","","","","","","","","","","","","74","J","1","","","200","main_expt",""
"","bandit","280","731294","0.0-241.0-0.0","17447552","wem/bandit_either_3","A3QJNTSPNMMA31","either","3","324","","","","","","","0","0","1","0.5122642399","","0.4","0.6","0.8","0.2","","","","","0.5087435212","0.7904945102","0.5122642399","0.1974433607","","","","","","","","75","K","2","","","201","main_expt",""
"","bandit","281","733168","0.0-242.0-0.0","17447552","wem/bandit_either_3","A3QJNTSPNMMA31","either","3","353","","","","","","","1","0","0","0.7039472437","","0.4","0.6","0.8","0.2","","","","","0.4992132835","0.7039472437","0.5414597976","0.2000842809","","","","","","","","74","J","1","","","202","main_expt",""
"","bandit","282","735056","0.0-243.0-0.0","17447552","wem/bandit_either_3","A3QJNTSPNMMA31","either","3","372","","","","","","","0","0","1","0.1715580826","","0.4","0.6","0.8","0.2","","","","","0.4859842053","0.7478807213","0.4993649945","0.1715580826","","","","","","","","76","L","3","","","203","main_expt",""
"","bandit","283","736853","0.0-244.0-0.0","17447552","wem/bandit_either_3","A3QJNTSPNMMA31","either","3","275","","","","","","","0","0","1","","0.7346150791","0.4","0.6","0.8","0.2","0.6162755314","0.7346150791","0.4056752737","0.3028604286","","","","","","","","","","","","74","J","1","","","204","main_expt",""
"","bandit","284","738661","0.0-245.0-0.0","17447552","wem/bandit_either_3","A3QJNTSPNMMA31","either","3","291","","","","","","","1","0","0","0.6204906845","","0.4","0.6","0.8","0.2","","","","","0.6204906845","0.7240623961","0.4174768156","0.3714949669","","","","","","","","72","H","0","img/none_selected.jpg","","205","main_expt",""
"","bandit","285","740742","0.0-246.0-0.0","17447552","wem/bandit_either_3","A3QJNTSPNMMA31","either","3","563","","","","","","","0","1","0","","0.6390595606","0.4","0.6","0.8","0.2","0.6390595606","0.733657826","0.4364097613","0.3034865557","","","","","","","","","","","","72","H","0","img/none_selected.jpg","","206","main_expt",""
"","bandit","286","743581","0.0-247.0-0.0","17447552","wem/bandit_either_3","A3QJNTSPNMMA31","either","3","1320","","","","","","","0","0","1","","0.6022157482","0.4","0.6","0.8","0.2","0.6022157482","0.6797091947","0.4666062126","0.2688105372","","","","","","","","","","","","72","H","0","img/none_selected.jpg","","207","main_expt",""
"","bandit","287","745144","0.0-248.0-0.0","17447552","wem/bandit_either_3","A3QJNTSPNMMA31","either","3","50","","","","","","","1","0","0","0.4594719295","","0.4","0.6","0.8","0.2","","","","","0.6598502583","0.472157919","0.4594719295","0.2240001326","","","","","","","","75","K","2","","","208","main_expt",""
"","bandit","288","747132","0.0-249.0-0.0","17447552","wem/bandit_either_3","A3QJNTSPNMMA31","either","3","462","","","","","","","0","1","0","","0.6329069529","0.4","0.6","0.8","0.2","0.6329069529","0.4993955773","0.5415101973","0.3284172364","","","","","","","","","","","","72","H","0","img/none_selected.jpg","","209","main_expt",""
"","bandit","289","748910","0.0-250.0-0.0","17447552","wem/bandit_either_3","A3QJNTSPNMMA31","either","3","263","","","","","","","0","0","1","0.3923888982","","0.4","0.6","0.8","0.2","","","","","0.5418549626","0.3923888982","0.5627952802","0.3178667136","","","","","","","","74","J","1","","","210","main_expt",""
"","bandit","290","750697","0.0-251.0-0.0","17447552","wem/bandit_either_3","A3QJNTSPNMMA31","either","3","265","","","","","","","1","0","0","0.5779033475","","0.4","0.6","0.8","0.2","","","","","0.7265410197","0.4183885941","0.5779033475","0.278360526","","","","","","","","75","K","2","","","211","main_expt",""
"","bandit","291","752567","0.0-252.0-0.0","17447552","wem/bandit_either_3","A3QJNTSPNMMA31","either","3","351","","","","","","","0","0","1","0.6550819281","","0.4","0.6","0.8","0.2","","","","","0.6550819281","0.5367383083","0.6169713091","0.2720231684","","","","","","","","72","H","0","img/none_selected.jpg","","212","main_expt",""
"","bandit","292","754403","0.0-253.0-0.0","17447552","wem/bandit_either_3","A3QJNTSPNMMA31","either","3","315","","","","","","","1","0","0","0.5688165975","","0.4","0.6","0.8","0.2","","","","","0.5812500281","0.5779451767","0.5688165975","0.3445332441","","","","","","","","75","K","2","","","213","main_expt",""
"","bandit","293","756378","0.0-254.0-0.0","17447552","wem/bandit_either_3","A3QJNTSPNMMA31","either","3","454","","","","","","","1","0","0","0.5354690829","","0.4","0.6","0.8","0.2","","","","","0.6912727382","0.5615700258","0.5354690829","0.331154659","","","","","","","","75","K","2","","","214","main_expt",""
"","bandit","294","758279","0.0-255.0-0.0","17447552","wem/bandit_either_3","A3QJNTSPNMMA31","either","3","381","","","","","","","1","0","0","0.4395706401","","0.4","0.6","0.8","0.2","","","","","0.695573978","0.5361399643","0.4395706401","0.3168016653","","","","","","","","75","K","2","","","215","main_expt",""
"","bandit","295","760372","0.0-256.0-0.0","17447552","wem/bandit_either_3","A3QJNTSPNMMA31","either","3","571","","","","","","","0","0","1","0.4522294324","","0.4","0.6","0.8","0.2","","","","","0.6531454011","0.620750855","0.4522294324","0.2870858596","","","","","","","","75","K","2","","","216","main_expt",""
"","bandit","296","762050","0.0-257.0-0.0","17447552","wem/bandit_either_3","A3QJNTSPNMMA31","either","3","153","","","","","","","0","1","0","","0.2877345098","0.4","0.6","0.8","0.2","0.6459690495","0.4812239037","0.4141575353","0.2877345098","","","","","","","","","","","","76","L","3","","","217","main_expt",""
"","bandit","297","763900","0.0-258.0-0.0","17447552","wem/bandit_either_3","A3QJNTSPNMMA31","either","3","337","","","","","","","0","0","1","0.3009722504","","0.4","0.6","0.8","0.2","","","","","0.6679944541","0.4028497994","0.3009722504","0.3608492067","","","","","","","","75","K","2","","","218","main_expt",""
"","bandit","298","765486","0.0-259.0-0.0","17447552","wem/bandit_either_3","A3QJNTSPNMMA31","either","3","66","","","","","","","0","1","0","","0.4380407461","0.4","0.6","0.8","0.2","0.7159195147","0.4441021312","0.2706893249","0.4380407461","","","","","","","","","","","","76","L","3","","","219","main_expt",""
"","bandit","299","767332","0.0-260.0-0.0","17447552","wem/bandit_either_3","A3QJNTSPNMMA31","either","3","328","","","","","","","0","0","1","0.6874484601","","0.4","0.6","0.8","0.2","","","","","0.6874484601","0.4867825248","0.3821277721","0.4769938592","","","","","","","","72","H","0","img/none_selected.jpg","","220","main_expt",""
"","bandit","300","769088","0.0-261.0-0.0","17447552","wem/bandit_either_3","A3QJNTSPNMMA31","either","3","233","","","","","","","0","1","0","","0.5428062785","0.4","0.6","0.8","0.2","0.6528128226","0.5428062785","0.4534214389","0.4612627877","","","","","","","","","","","","74","J","1","","","221","main_expt",""
"","bandit","301","770917","0.0-262.0-0.0","17447552","wem/bandit_either_3","A3QJNTSPNMMA31","either","3","309","","","","","","","0","0","1","0.6049712458","","0.4","0.6","0.8","0.2","","","","","0.6836467719","0.5993321864","0.6049712458","0.4192901336","","","","","","","","75","K","2","","","222","main_expt",""
"","bandit","302","772705","0.0-263.0-0.0","17447552","wem/bandit_either_3","A3QJNTSPNMMA31","either","3","269","","","","","","","0","1","0","","0.5559965486","0.4","0.6","0.8","0.2","0.7820879334","0.4920604154","0.6389506418","0.5559965486","","","","","","","","","","","","76","L","3","","","223","main_expt",""
"","bandit","303","774500","0.0-264.0-0.0","17447552","wem/bandit_either_3","A3QJNTSPNMMA31","either","3","272","","","","","","","0","0","1","0.5344282052","","0.4","0.6","0.8","0.2","","","","","0.763226653","0.5344282052","0.6677375732","0.6687933923","","","","","","","","74","J","1","","","224","main_expt",""
"","bandit","304","776401","0.0-265.0-0.0","17447552","wem/bandit_either_3","A3QJNTSPNMMA31","either","3","391","","","","","","","1","0","0","0.5954484576","","0.4","0.6","0.8","0.2","","","","","0.6931961842","0.5583452501","0.7706853934","0.5954484576","","","","","","","","76","L","3","","","225","main_expt",""
"","bandit","305","778584","0.0-266.0-0.0","17447552","wem/bandit_either_3","A3QJNTSPNMMA31","either","3","664","","","","","","","0","1","0","","0.6152447968","0.4","0.6","0.8","0.2","0.6633974694","0.5126042404","0.7624197083","0.6152447968","","","","","","","","","","","","76","L","3","","","226","main_expt",""
"","bandit","306","780956","0.0-267.0-0.0","17447552","wem/bandit_either_3","A3QJNTSPNMMA31","either","3","852","","","","","","","0","1","0","","0.6597553912","0.4","0.6","0.8","0.2","0.6567175756","0.5720595628","0.7287840805","0.6597553912","","","","","","","","","","","","76","L","3","","","227","main_expt",""
"","bandit","307","783355","0.0-268.0-0.0","17447552","wem/bandit_either_3","A3QJNTSPNMMA31","either","3","878","","","","","","","0","1","0","","0.594895186","0.4","0.6","0.8","0.2","0.6052730858","0.6134710885","0.7993891034","0.594895186","","","","","","","","","","","","76","L","3","","","228","main_expt",""
"","bandit","308","786726","0.0-269.0-0.0","17447552","wem/bandit_either_3","A3QJNTSPNMMA31","either","3","1851","","","","","","","0","1","0","","0.5722559027","0.4","0.6","0.8","0.2","0.5548990383","0.5669106804","0.8374027748","0.5722559027","","","","","","","","","","","","76","L","3","","","229","main_expt",""
"","bandit","309","788899","0.0-270.0-0.0","17447552","wem/bandit_either_3","A3QJNTSPNMMA31","either","3","652","","","","","","","1","0","0","0.5409090622","","0.4","0.6","0.8","0.2","","","","","0.6017114108","0.6286782819","0.8414873787","0.5409090622","","","","","","","","76","L","3","","","230","main_expt",""
"","bandit","310","791012","0.0-271.0-0.0","17447552","wem/bandit_either_3","A3QJNTSPNMMA31","either","3","590","","","","","","","0","0","1","0.518727512","","0.4","0.6","0.8","0.2","","","","","0.5525336349","0.5594948871","0.8531648874","0.518727512","","","","","","","","76","L","3","","","231","main_expt",""
"","bandit","311","792680","0.0-272.0-0.0","17447552","wem/bandit_either_3","A3QJNTSPNMMA31","either","3","144","","","","","","","0","0","1","0.4493361955","","0.4","0.6","0.8","0.2","","","","","0.4493361955","0.5817998964","0.8813812612","0.5200298571","","","","","","","","72","H","0","img/none_selected.jpg","","232","main_expt",""
"","bandit","312","794342","0.0-273.0-0.0","17447552","wem/bandit_either_3","A3QJNTSPNMMA31","either","3","137","","","","","","","0","1","0","","0.5971875981","0.4","0.6","0.8","0.2","0.5280832246","0.5971875981","0.8916766345","0.4564343731","","","","","","","","","","","","74","J","1","","","233","main_expt",""
"","bandit","313","796184","0.0-274.0-0.0","17447552","wem/bandit_either_3","A3QJNTSPNMMA31","either","3","323","","","","","","","1","0","0","0.842820862","","0.4","0.6","0.8","0.2","","","","","0.6814540918","0.5227237997","0.842820862","0.4168065644","","","","","","","","75","K","2","","","234","main_expt",""
"","bandit","314","798047","0.0-275.0-0.0","17447552","wem/bandit_either_3","A3QJNTSPNMMA31","either","3","346","","","","","","","0","0","1","","0.6231997156","0.4","0.6","0.8","0.2","0.5518959403","0.6231997156","0.7856269381","0.4340770274","","","","","","","","","","","","74","J","1","","","235","main_expt",""
"","bandit","315","799709","0.0-276.0-0.0","17447552","wem/bandit_either_3","A3QJNTSPNMMA31","either","3","142","","","","","","","1","0","0","0.8092971262","","0.4","0.6","0.8","0.2","","","","","0.4965619817","0.558272317","0.8092971262","0.4489205242","","","","","","","","75","K","2","","","236","main_expt",""
"","bandit","316","801568","0.0-277.0-0.0","17447552","wem/bandit_either_3","A3QJNTSPNMMA31","either","3","339","","","","","","","1","0","0","0.8125536838","","0.4","0.6","0.8","0.2","","","","","0.4762879104","0.6118965497","0.8125536838","0.4838648791","","","","","","","","75","K","2","","","237","main_expt",""
"","bandit","317","803390","0.0-278.0-0.0","17447552","wem/bandit_either_3","A3QJNTSPNMMA31","either","3","304","","","","","","","1","0","0","0.8684257659","","0.4","0.6","0.8","0.2","","","","","0.4991976808","0.7415542647","0.8684257659","0.4615645545","","","","","","","","75","K","2","","","238","main_expt",""
"","bandit","318","805219","0.0-279.0-0.0","17447552","wem/bandit_either_3","A3QJNTSPNMMA31","either","3","303","","","","","","","1","0","0","0.8891050988","","0.4","0.6","0.8","0.2","","","","","0.4627972202","0.794517608","0.8891050988","0.4263497721","","","","","","","","75","K","2","","","239","main_expt",""
"","bandit","319","806833","0.0-280.0-0.0","17447552","wem/bandit_either_3","A3QJNTSPNMMA31","either","3","93","","","","","","","1","0","0","0.8983693474","","0.4","0.6","0.8","0.2","","","","","0.484486763","0.7966429163","0.8983693474","0.4372282776","","","","","","","","75","K","2","","","240","main_expt",""
"","bandit","320","808551","0.0-281.0-0.0","17447552","wem/bandit_either_3","A3QJNTSPNMMA31","either","3","197","","","","","","","0","1","0","","0.8608109038","0.4","0.6","0.8","0.2","0.3450886106","0.7827696357","0.8608109038","0.5558093781","","","","","","","","","","","","75","K","2","","","241","main_expt",""
"","bandit","321","810316","0.0-282.0-0.0","17447552","wem/bandit_either_3","A3QJNTSPNMMA31","either","3","252","","","","","","","1","0","0","0.8807376199","","0.4","0.6","0.8","0.2","","","","","0.4066884652","0.8077769827","0.8807376199","0.654661817","","","","","","","","75","K","2","","","242","main_expt",""
"","bandit","322","812038","0.0-283.0-0.0","17447552","wem/bandit_either_3","A3QJNTSPNMMA31","either","3","202","","","","","","","1","0","0","0.8782163565","","0.4","0.6","0.8","0.2","","","","","0.3574054959","0.7680675523","0.8782163565","0.5869565726","","","","","","","","75","K","2","","","243","main_expt",""
"","bandit","323","813818","0.0-284.0-0.0","17447552","wem/bandit_either_3","A3QJNTSPNMMA31","either","3","265","","","","","","","1","0","0","0.8691088863","","0.4","0.6","0.8","0.2","","","","","0.4200458239","0.6802465609","0.8691088863","0.6282978891","","","","","","","","75","K","2","","","244","main_expt",""
