"consent","trial_type","trial_index","time_elapsed","internal_node_id","subjID","study","MID","cond","drift","rt","responses","key_press","expt_phase","like","value","connected","gems","bombs","no_reward","GemPrChosen","BombPrChosen","GainOverPainPr_0","GainOverPainPr_1","GainOverPainPr_2","GainOverPainPr_3","LosePr_0","LosePr_1","LosePr_2","LosePr_3","WinPr_0","WinPr_1","WinPr_2","WinPr_3","Q0","Q1","Q2","gender","age","ethnicity","target","respCharCode","respKey","respChoiceNum","respChoice","practice","trial_counter","trial_label","button_pressed"
"INL_behavioral_consent_30min_online.html","consent","0","35440","0.0-0.0","19350277","wem/bandit_either_3","A52FUUEDGSZT9","either","1","","","","","","","","","","","","","","","","","","","","","","","","","","","","","","","","","","","","","","",""
"","survey-text","1","46662","0.0-1.0","19350277","wem/bandit_either_3","A52FUUEDGSZT9","either","1","10209","{""Q0"":""A52FUUEDGSZT9""}","","","","","","","","","","","","","","","","","","","","","","","","","","","","","","","","","","","","",""
"","text","2","60691","0.0-2.0","19350277","wem/bandit_either_3","A52FUUEDGSZT9","either","1","13023","","32","","","","","","","","","","","","","","","","","","","","","","","","","","","","","","","","","","","",""
"","text","3","69366","0.0-3.0","19350277","wem/bandit_either_3","A52FUUEDGSZT9","either","1","8672","","32","","","","","","","","","","","","","","","","","","","","","","","","","","","","","","","","","","","",""
"","text","4","91660","0.0-4.0","19350277","wem/bandit_either_3","A52FUUEDGSZT9","either","1","22289","","32","","","","","","","","","","","","","","","","","","","","","","","","","","","","","","","","","","","",""
"","text","5","107883","0.0-5.0","19350277","wem/bandit_either_3","A52FUUEDGSZT9","either","1","16216","","32","","","","","","","","","","","","","","","","","","","","","","","","","","","","","","","","","","","",""
"","text","6","124745","0.0-6.0","19350277","wem/bandit_either_3","A52FUUEDGSZT9","either","1","16858","","32","","","","","","","","","","","","","","","","","","","","","","","","","","","","","","","","","","","",""
"","text","7","132890","0.0-7.0","19350277","wem/bandit_either_3","A52FUUEDGSZT9","either","1","8140","","32","","","","","","","","","","","","","","","","","","","","","","","","","","","","","","","","","","","",""
"","text","8","137602","0.0-8.0","19350277","wem/bandit_either_3","A52FUUEDGSZT9","either","1","4709","","32","","","","","","","","","","","","","","","","","","","","","","","","","","","","","","","","","","","",""
"","identification","9","154868","0.0-9.0-0.0","19350277","wem/bandit_either_3","A52FUUEDGSZT9","either","1","17220","","","","2","2","1","","","","","","","","","","","","","","","","","","","","","","","","the village of Zur","","","","","","","",""
"","identification","10","171138","0.0-9.0-1.0","19350277","wem/bandit_either_3","A52FUUEDGSZT9","either","1","15231","","","","3","3","4","","","","","","","","","","","","","","","","","","","","","","","","the village of Nyx","","","","","","","",""
"","text","11","178204","0.0-10.0","19350277","wem/bandit_either_3","A52FUUEDGSZT9","either","1","6061","","32","","","","","","","","","","","","","","","","","","","","","","","","","","","","","","","","","","","",""
"","text","12","181393","0.0-11.0","19350277","wem/bandit_either_3","A52FUUEDGSZT9","either","1","3184","","32","","","","","","","","","","","","","","","","","","","","","","","","","","","","","","","","","","","",""
"","text","13","183143","0.0-12.0","19350277","wem/bandit_either_3","A52FUUEDGSZT9","either","1","1745","","32","","","","","","","","","","","","","","","","","","","","","","","","","","","","","","","","","","","",""
"","text","14","188799","0.0-13.0","19350277","wem/bandit_either_3","A52FUUEDGSZT9","either","1","5653","","32","","","","","","","","","","","","","","","","","","","","","","","","","","","","","","","","","","","",""
"","bandit","15","198401","0.0-14.0-0.0","19350277","wem/bandit_either_3","A52FUUEDGSZT9","either","1","8064","","","","","","","0","0","1","0","0","","","","","0","","","","0","","","","","","","","","","","74","J","0","img/none_selected_demo.jpg","true","0","",""
"","bandit","16","201730","0.0-15.0-0.0","19350277","wem/bandit_either_3","A52FUUEDGSZT9","either","1","1801","","","","","","","0","0","1","0","0","","","","","0","","","","0","","","","","","","","","","","75","K","0","img/none_selected_demo.jpg","true","0","",""
"","text","17","214013","0.0-16.0","19350277","wem/bandit_either_3","A52FUUEDGSZT9","either","1","12278","","32","","","","","","","","","","","","","","","","","","","","","","","","","","","","","","","","","","","",""
"","text","18","224987","0.0-17.0","19350277","wem/bandit_either_3","A52FUUEDGSZT9","either","1","10967","","32","","","","","","","","","","","","","","","","","","","","","","","","","","","","","","","","","","","",""
"","text","19","233604","0.0-18.0","19350277","wem/bandit_either_3","A52FUUEDGSZT9","either","1","8608","","32","","","","","","","","","","","","","","","","","","","","","","","","","","","","","","","","","","","",""
"","text","20","241714","0.0-19.0","19350277","wem/bandit_either_3","A52FUUEDGSZT9","either","1","8104","","32","","","","","","","","","","","","","","","","","","","","","","","","","","","","","","","","","","","",""
"","bandit","21","244452","0.0-20.0-0.0","19350277","wem/bandit_either_3","A52FUUEDGSZT9","either","1","1195","","","","","","","1","0","0","0.8","","0.5","0.5","","","","","","","0.8","0.2","","","","","","","","","","74","J","0","img/none_selected_demo.jpg","true","0","80_20_practice",""
"","bandit","22","246600","0.0-20.0-1.0","19350277","wem/bandit_either_3","A52FUUEDGSZT9","either","1","613","","","","","","","0","0","1","","0.8","0.5","0.5","","","0.8","0.2","","","","","","","","","","","","","","74","J","0","img/none_selected_demo.jpg","true","0","80_20_practice",""
"","bandit","23","248763","0.0-20.0-2.0","19350277","wem/bandit_either_3","A52FUUEDGSZT9","either","1","627","","","","","","","0","1","0","","0.8","0.5","0.5","","","0.8","0.2","","","","","","","","","","","","","","74","J","0","img/none_selected_demo.jpg","true","0","80_20_practice",""
"","bandit","24","250973","0.0-20.0-3.0","19350277","wem/bandit_either_3","A52FUUEDGSZT9","either","1","686","","","","","","","0","0","1","0.8","","0.5","0.5","","","","","","","0.8","0.2","","","","","","","","","","74","J","0","img/none_selected_demo.jpg","true","0","80_20_practice",""
"","bandit","25","253027","0.0-20.0-4.0","19350277","wem/bandit_either_3","A52FUUEDGSZT9","either","1","531","","","","","","","1","0","0","0.8","","0.5","0.5","","","","","","","0.8","0.2","","","","","","","","","","74","J","0","img/none_selected_demo.jpg","true","0","80_20_practice",""
"","bandit","26","255498","0.0-20.0-5.0","19350277","wem/bandit_either_3","A52FUUEDGSZT9","either","1","928","","","","","","","1","0","0","0.8","","0.5","0.5","","","","","","","0.8","0.2","","","","","","","","","","74","J","0","img/none_selected_demo.jpg","true","0","80_20_practice",""
"","bandit","27","257540","0.0-20.0-6.0","19350277","wem/bandit_either_3","A52FUUEDGSZT9","either","1","517","","","","","","","0","0","1","0.8","","0.5","0.5","","","","","","","0.8","0.2","","","","","","","","","","74","J","0","img/none_selected_demo.jpg","true","0","80_20_practice",""
"","bandit","28","259494","0.0-20.0-7.0","19350277","wem/bandit_either_3","A52FUUEDGSZT9","either","1","424","","","","","","","1","0","0","0.8","","0.5","0.5","","","","","","","0.8","0.2","","","","","","","","","","74","J","0","img/none_selected_demo.jpg","true","0","80_20_practice",""
"","bandit","29","261452","0.0-20.0-8.0","19350277","wem/bandit_either_3","A52FUUEDGSZT9","either","1","421","","","","","","","0","1","0","","0.8","0.5","0.5","","","0.8","0.2","","","","","","","","","","","","","","74","J","0","img/none_selected_demo.jpg","true","0","80_20_practice",""
"","bandit","30","263385","0.0-20.0-9.0","19350277","wem/bandit_either_3","A52FUUEDGSZT9","either","1","400","","","","","","","0","1","0","","0.8","0.5","0.5","","","0.8","0.2","","","","","","","","","","","","","","74","J","0","img/none_selected_demo.jpg","true","0","80_20_practice",""
"","bandit","31","265215","0.0-20.0-10.0","19350277","wem/bandit_either_3","A52FUUEDGSZT9","either","1","301","","","","","","","0","1","0","","0.8","0.5","0.5","","","0.8","0.2","","","","","","","","","","","","","","74","J","0","img/none_selected_demo.jpg","true","0","80_20_practice",""
"","bandit","32","267270","0.0-20.0-11.0","19350277","wem/bandit_either_3","A52FUUEDGSZT9","either","1","529","","","","","","","1","0","0","0.8","","0.5","0.5","","","","","","","0.8","0.2","","","","","","","","","","74","J","0","img/none_selected_demo.jpg","true","0","80_20_practice",""
"","bandit","33","269121","0.0-20.0-12.0","19350277","wem/bandit_either_3","A52FUUEDGSZT9","either","1","317","","","","","","","0","1","0","","0.8","0.5","0.5","","","0.8","0.2","","","","","","","","","","","","","","74","J","0","img/none_selected_demo.jpg","true","0","80_20_practice",""
"","bandit","34","271007","0.0-20.0-13.0","19350277","wem/bandit_either_3","A52FUUEDGSZT9","either","1","363","","","","","","","1","0","0","0.8","","0.5","0.5","","","","","","","0.8","0.2","","","","","","","","","","74","J","0","img/none_selected_demo.jpg","true","0","80_20_practice",""
"","bandit","35","272844","0.0-20.0-14.0","19350277","wem/bandit_either_3","A52FUUEDGSZT9","either","1","292","","","","","","","0","0","1","0.8","","0.5","0.5","","","","","","","0.8","0.2","","","","","","","","","","74","J","0","img/none_selected_demo.jpg","true","0","80_20_practice",""
"","bandit","36","274681","0.0-20.0-15.0","19350277","wem/bandit_either_3","A52FUUEDGSZT9","either","1","311","","","","","","","1","0","0","0.8","","0.5","0.5","","","","","","","0.8","0.2","","","","","","","","","","74","J","0","img/none_selected_demo.jpg","true","0","80_20_practice",""
"","bandit","37","276666","0.0-20.0-16.0","19350277","wem/bandit_either_3","A52FUUEDGSZT9","either","1","458","","","","","","","1","0","0","0.8","","0.5","0.5","","","","","","","0.8","0.2","","","","","","","","","","74","J","0","img/none_selected_demo.jpg","true","0","80_20_practice",""
"","bandit","38","278433","0.0-20.0-17.0","19350277","wem/bandit_either_3","A52FUUEDGSZT9","either","1","222","","","","","","","0","1","0","","0.8","0.5","0.5","","","0.8","0.2","","","","","","","","","","","","","","74","J","0","img/none_selected_demo.jpg","true","0","80_20_practice",""
"","bandit","39","280718","0.0-20.0-18.0","19350277","wem/bandit_either_3","A52FUUEDGSZT9","either","1","746","","","","","","","0","1","0","","0.8","0.5","0.5","","","0.8","0.2","","","","","","","","","","","","","","74","J","0","img/none_selected_demo.jpg","true","0","80_20_practice",""
"","bandit","40","282705","0.0-20.0-19.0","19350277","wem/bandit_either_3","A52FUUEDGSZT9","either","1","450","","","","","","","1","0","0","0.8","","0.5","0.5","","","","","","","0.8","0.2","","","","","","","","","","74","J","0","img/none_selected_demo.jpg","true","0","80_20_practice",""
"","text","41","287143","0.0-21.0","19350277","wem/bandit_either_3","A52FUUEDGSZT9","either","1","4433","","32","","","","","","","","","","","","","","","","","","","","","","","","","","","","","","","","","","","",""
"","bandit","42","289687","0.0-22.0-0.0","19350277","wem/bandit_either_3","A52FUUEDGSZT9","either","1","987","","","","","","","1","0","0","1","0","","","","","0","1","","","1","0","","","","","","","","","","74","J","0","img/none_selected_demo.jpg","true","0","",""
"","text","43","295071","0.0-23.0","19350277","wem/bandit_either_3","A52FUUEDGSZT9","either","1","5373","","32","","","","","","","","","","","","","","","","","","","","","","","","","","","","","","","","","","","",""
"","text","44","300273","0.0-24.0","19350277","wem/bandit_either_3","A52FUUEDGSZT9","either","1","5193","","32","","","","","","","","","","","","","","","","","","","","","","","","","","","","","","","","","","","",""
"","text","45","303250","0.0-25.0","19350277","wem/bandit_either_3","A52FUUEDGSZT9","either","1","2965","","32","","","","","","","","","","","","","","","","","","","","","","","","","","","","","","","","","","","",""
"","text","46","307018","0.0-26.0","19350277","wem/bandit_either_3","A52FUUEDGSZT9","either","1","3759","","32","","","","","","","","","","","","","","","","","","","","","","","","","","","","","","","","","","","",""
"","text","47","319813","0.0-27.0","19350277","wem/bandit_either_3","A52FUUEDGSZT9","either","1","12785","","32","","","","","","","","","","","","","","","","","","","","","","","","","","","","","","","","","","","",""
"","text","48","325701","0.0-28.0","19350277","wem/bandit_either_3","A52FUUEDGSZT9","either","1","5881","","32","","","","","","","","","","","","","","","","","","","","","","","","","","","","","","","","","","","",""
"","text","49","332937","0.0-29.0","19350277","wem/bandit_either_3","A52FUUEDGSZT9","either","1","7227","","32","","","","","","","","","","","","","","","","","","","","","","","","","","","","","","","","","","","",""
"","text","50","336740","0.0-30.0","19350277","wem/bandit_either_3","A52FUUEDGSZT9","either","1","3797","","32","","","","","","","","","","","","","","","","","","","","","","","","","","","","","","","","","","","",""
"","text","51","341217","0.0-31.0","19350277","wem/bandit_either_3","A52FUUEDGSZT9","either","1","4474","","32","","","","","","","","","","","","","","","","","","","","","","","","","","","","","","","","","","","",""
"","text","52","343540","0.0-32.0","19350277","wem/bandit_either_3","A52FUUEDGSZT9","either","1","2320","","32","","","","","","","","","","","","","","","","","","","","","","","","","","","","","","","","","","","",""
"","text","53","346435","0.0-33.0","19350277","wem/bandit_either_3","A52FUUEDGSZT9","either","1","2892","","32","","","","","","","","","","","","","","","","","","","","","","","","","","","","","","","","","","","",""
"","bandit","54","348701","0.0-34.0-0.0","19350277","wem/bandit_either_3","A52FUUEDGSZT9","either","1","721","","","","","","","0","0","1","0.8","","0.5","0.5","0.5","0.5","","","","","0.8","0.2","0.6","0.2","","","","","","","","72","H","0","img/none_selected.jpg","true","0","full_practice",""
"","bandit","55","350687","0.0-34.0-1.0","19350277","wem/bandit_either_3","A52FUUEDGSZT9","either","1","445","","","","","","","0","0","1","","0.2","0.5","0.5","0.5","0.5","0.8","0.2","0.6","0.2","","","","","","","","","","","","74","J","1","","true","0","full_practice",""
"","bandit","56","352501","0.0-34.0-2.0","19350277","wem/bandit_either_3","A52FUUEDGSZT9","either","1","282","","","","","","","0","0","1","0.6","","0.5","0.5","0.5","0.5","","","","","0.8","0.2","0.6","0.2","","","","","","","","75","K","2","","true","0","full_practice",""
"","bandit","57","354384","0.0-34.0-3.0","19350277","wem/bandit_either_3","A52FUUEDGSZT9","either","1","352","","","","","","","0","0","1","0.2","","0.5","0.5","0.5","0.5","","","","","0.8","0.2","0.6","0.2","","","","","","","","76","L","3","","true","0","full_practice",""
"","bandit","58","356437","0.0-34.0-4.0","19350277","wem/bandit_either_3","A52FUUEDGSZT9","either","1","526","","","","","","","0","1","0","","0.8","0.5","0.5","0.5","0.5","0.8","0.2","0.6","0.2","","","","","","","","","","","","72","H","0","img/none_selected.jpg","true","0","full_practice",""
"","bandit","59","358288","0.0-34.0-5.0","19350277","wem/bandit_either_3","A52FUUEDGSZT9","either","1","327","","","","","","","0","0","1","0.2","","0.5","0.5","0.5","0.5","","","","","0.8","0.2","0.6","0.2","","","","","","","","74","J","1","","true","0","full_practice",""
"","bandit","60","359838","0.0-34.0-6.0","19350277","wem/bandit_either_3","A52FUUEDGSZT9","either","1","27","","","","","","","0","1","0","","0.8","0.5","0.5","0.5","0.5","0.8","0.2","0.6","0.2","","","","","","","","","","","","72","H","0","img/none_selected.jpg","true","0","full_practice",""
"","bandit","61","361792","0.0-34.0-7.0","19350277","wem/bandit_either_3","A52FUUEDGSZT9","either","1","419","","","","","","","0","0","1","0.8","","0.5","0.5","0.5","0.5","","","","","0.8","0.2","0.6","0.2","","","","","","","","72","H","0","img/none_selected.jpg","true","0","full_practice",""
"","bandit","62","363649","0.0-34.0-8.0","19350277","wem/bandit_either_3","A52FUUEDGSZT9","either","1","316","","","","","","","0","1","0","","0.8","0.5","0.5","0.5","0.5","0.8","0.2","0.6","0.2","","","","","","","","","","","","72","H","0","img/none_selected.jpg","true","0","full_practice",""
"","bandit","63","365566","0.0-34.0-9.0","19350277","wem/bandit_either_3","A52FUUEDGSZT9","either","1","386","","","","","","","0","1","0","","0.8","0.5","0.5","0.5","0.5","0.8","0.2","0.6","0.2","","","","","","","","","","","","72","H","0","img/none_selected.jpg","true","0","full_practice",""
"","bandit","64","367408","0.0-34.0-10.0","19350277","wem/bandit_either_3","A52FUUEDGSZT9","either","1","290","","","","","","","1","0","0","0.6","","0.5","0.5","0.5","0.5","","","","","0.8","0.2","0.6","0.2","","","","","","","","75","K","2","","true","0","full_practice",""
"","bandit","65","369286","0.0-34.0-11.0","19350277","wem/bandit_either_3","A52FUUEDGSZT9","either","1","311","","","","","","","1","0","0","0.2","","0.5","0.5","0.5","0.5","","","","","0.8","0.2","0.6","0.2","","","","","","","","76","L","3","","true","0","full_practice",""
"","bandit","66","371198","0.0-34.0-12.0","19350277","wem/bandit_either_3","A52FUUEDGSZT9","either","1","355","","","","","","","0","0","1","0.6","","0.5","0.5","0.5","0.5","","","","","0.8","0.2","0.6","0.2","","","","","","","","75","K","2","","true","0","full_practice",""
"","bandit","67","373005","0.0-34.0-13.0","19350277","wem/bandit_either_3","A52FUUEDGSZT9","either","1","272","","","","","","","0","0","1","0.2","","0.5","0.5","0.5","0.5","","","","","0.8","0.2","0.6","0.2","","","","","","","","76","L","3","","true","0","full_practice",""
"","bandit","68","374692","0.0-34.0-14.0","19350277","wem/bandit_either_3","A52FUUEDGSZT9","either","1","152","","","","","","","0","1","0","","0.8","0.5","0.5","0.5","0.5","0.8","0.2","0.6","0.2","","","","","","","","","","","","72","H","0","img/none_selected.jpg","true","0","full_practice",""
"","bandit","69","376638","0.0-34.0-15.0","19350277","wem/bandit_either_3","A52FUUEDGSZT9","either","1","397","","","","","","","0","1","0","","0.8","0.5","0.5","0.5","0.5","0.8","0.2","0.6","0.2","","","","","","","","","","","","72","H","0","img/none_selected.jpg","true","0","full_practice",""
"","bandit","70","378477","0.0-34.0-16.0","19350277","wem/bandit_either_3","A52FUUEDGSZT9","either","1","288","","","","","","","1","0","0","0.8","","0.5","0.5","0.5","0.5","","","","","0.8","0.2","0.6","0.2","","","","","","","","72","H","0","img/none_selected.jpg","true","0","full_practice",""
"","bandit","71","380329","0.0-34.0-17.0","19350277","wem/bandit_either_3","A52FUUEDGSZT9","either","1","308","","","","","","","0","1","0","","0.8","0.5","0.5","0.5","0.5","0.8","0.2","0.6","0.2","","","","","","","","","","","","72","H","0","img/none_selected.jpg","true","0","full_practice",""
"","bandit","72","382214","0.0-34.0-18.0","19350277","wem/bandit_either_3","A52FUUEDGSZT9","either","1","349","","","","","","","0","1","0","","0.8","0.5","0.5","0.5","0.5","0.8","0.2","0.6","0.2","","","","","","","","","","","","72","H","0","img/none_selected.jpg","true","0","full_practice",""
"","bandit","73","384106","0.0-34.0-19.0","19350277","wem/bandit_either_3","A52FUUEDGSZT9","either","1","340","","","","","","","1","0","0","0.8","","0.5","0.5","0.5","0.5","","","","","0.8","0.2","0.6","0.2","","","","","","","","72","H","0","img/none_selected.jpg","true","0","full_practice",""
"","text","74","387321","0.0-35.0","19350277","wem/bandit_either_3","A52FUUEDGSZT9","either","1","3201","","32","","","","","","","","","","","","","","","","","","","","","","","","","","","","","","","","","","","",""
"","text","75","402300","0.0-36.0","19350277","wem/bandit_either_3","A52FUUEDGSZT9","either","1","13971","","32","","","","","","","","","","","","","","","","","","","","","","","","","","","","","","","","","","","",""
"","text","76","416237","0.0-37.0","19350277","wem/bandit_either_3","A52FUUEDGSZT9","either","1","13926","","32","","","","","","","","","","","","","","","","","","","","","","","","","","","","","","","","","","","",""
"","text","77","421519","0.0-38.0","19350277","wem/bandit_either_3","A52FUUEDGSZT9","either","1","5271","","32","","","","","","","","","","","","","","","","","","","","","","","","","","","","","","","","","","","",""
"","text","78","428183","0.0-39.0","19350277","wem/bandit_either_3","A52FUUEDGSZT9","either","1","6656","","32","","","","","","","","","","","","","","","","","","","","","","","","","","","","","","","","","","","",""
"","text","79","433370","0.0-40.0","19350277","wem/bandit_either_3","A52FUUEDGSZT9","either","1","5178","","32","","","","","","","","","","","","","","","","","","","","","","","","","","","","","","","","","","","",""
"","bandit","80","435957","0.0-41.0-0.0","19350277","wem/bandit_either_3","A52FUUEDGSZT9","either","1","1010","","","","","","","0","1","0","","0.8101107889","0.2","0.8","0.4","0.6","0.8101107889","0.5202783506","0.7674833066","0.4995060561","","","","","","","","","","","","72","H","0","img/none_selected.jpg","","1","main_expt",""
"","bandit","81","437983","0.0-42.0-0.0","19350277","wem/bandit_either_3","A52FUUEDGSZT9","either","1","487","","","","","","","1","0","0","0.8827976921","","0.2","0.8","0.4","0.6","","","","","0.8827976921","0.4559554218","0.7786696111","0.4452888422","","","","","","","","72","H","0","img/none_selected.jpg","","2","main_expt",""
"","bandit","82","439891","0.0-43.0-0.0","19350277","wem/bandit_either_3","A52FUUEDGSZT9","either","1","375","","","","","","","0","1","0","","0.918633781","0.2","0.8","0.4","0.6","0.918633781","0.3791335739","0.7883912796","0.4956599627","","","","","","","","","","","","72","H","0","img/none_selected.jpg","","3","main_expt",""
"","bandit","83","441895","0.0-44.0-0.0","19350277","wem/bandit_either_3","A52FUUEDGSZT9","either","1","465","","","","","","","0","1","0","","0.8961075186","0.2","0.8","0.4","0.6","0.8961075186","0.362446662","0.8311681014","0.3939226057","","","","","","","","","","","","72","H","0","img/none_selected.jpg","","4","main_expt",""
"","bandit","84","443739","0.0-45.0-0.0","19350277","wem/bandit_either_3","A52FUUEDGSZT9","either","1","315","","","","","","","0","0","1","","0.9065038385","0.2","0.8","0.4","0.6","0.9065038385","0.4337427147","0.706748425","0.4737796053","","","","","","","","","","","","72","H","0","img/none_selected.jpg","","5","main_expt",""
"","bandit","85","445729","0.0-46.0-0.0","19350277","wem/bandit_either_3","A52FUUEDGSZT9","either","1","457","","","","","","","0","1","0","","0.9628954729","0.2","0.8","0.4","0.6","0.9628954729","0.4260566605","0.7246132019","0.5798080576","","","","","","","","","","","","72","H","0","img/none_selected.jpg","","6","main_expt",""
"","bandit","86","447686","0.0-47.0-0.0","19350277","wem/bandit_either_3","A52FUUEDGSZT9","either","1","420","","","","","","","0","1","0","","0.9244273404","0.2","0.8","0.4","0.6","0.9244273404","0.5595739282","0.822103072","0.6184433593","","","","","","","","","","","","72","H","0","img/none_selected.jpg","","7","main_expt",""
"","bandit","87","449671","0.0-48.0-0.0","19350277","wem/bandit_either_3","A52FUUEDGSZT9","either","1","449","","","","","","","0","1","0","","0.9214665689","0.2","0.8","0.4","0.6","0.9214665689","0.5757792393","0.8176183596","0.5380809204","","","","","","","","","","","","72","H","0","img/none_selected.jpg","","8","main_expt",""
"","bandit","88","451686","0.0-49.0-0.0","19350277","wem/bandit_either_3","A52FUUEDGSZT9","either","1","489","","","","","","","0","1","0","","0.9604963414","0.2","0.8","0.4","0.6","0.9604963414","0.5508288143","0.7421782695","0.4884558296","","","","","","","","","","","","72","H","0","img/none_selected.jpg","","9","main_expt",""
"","bandit","89","453904","0.0-50.0-0.0","19350277","wem/bandit_either_3","A52FUUEDGSZT9","either","1","693","","","","","","","1","0","0","0.973544224","","0.2","0.8","0.4","0.6","","","","","0.973544224","0.4615344473","0.7112185725","0.6062827564","","","","","","","","72","H","0","img/none_selected.jpg","","10","main_expt",""
"","bandit","90","455984","0.0-51.0-0.0","19350277","wem/bandit_either_3","A52FUUEDGSZT9","either","1","539","","","","","","","0","1","0","","0.9756729976","0.2","0.8","0.4","0.6","0.9756729976","0.4731032433","0.6656122322","0.6618996933","","","","","","","","","","","","72","H","0","img/none_selected.jpg","","11","main_expt",""
"","bandit","91","458125","0.0-52.0-0.0","19350277","wem/bandit_either_3","A52FUUEDGSZT9","either","1","614","","","","","","","0","1","0","","0.9824084628","0.2","0.8","0.4","0.6","0.9824084628","0.5028989732","0.632951522","0.6589688621","","","","","","","","","","","","72","H","0","img/none_selected.jpg","","12","main_expt",""
"","bandit","92","460651","0.0-53.0-0.0","19350277","wem/bandit_either_3","A52FUUEDGSZT9","either","1","993","","","","","","","0","1","0","","0.9852841122","0.2","0.8","0.4","0.6","0.9852841122","0.5252386458","0.6428643634","0.7483501345","","","","","","","","","","","","72","H","0","img/none_selected.jpg","","13","main_expt",""
"","bandit","93","462773","0.0-54.0-0.0","19350277","wem/bandit_either_3","A52FUUEDGSZT9","either","1","595","","","","","","","0","1","0","","0.9844185579","0.2","0.8","0.4","0.6","0.9844185579","0.4883642101","0.5693663763","0.7642220585","","","","","","","","","","","","72","H","0","img/none_selected.jpg","","14","main_expt",""
"","bandit","94","464825","0.0-55.0-0.0","19350277","wem/bandit_either_3","A52FUUEDGSZT9","either","1","522","","","","","","","0","1","0","","0.9716790186","0.2","0.8","0.4","0.6","0.9716790186","0.5125695872","0.6354763258","0.8255663415","","","","","","","","","","","","72","H","0","img/none_selected.jpg","","15","main_expt",""
"","bandit","95","466718","0.0-56.0-0.0","19350277","wem/bandit_either_3","A52FUUEDGSZT9","either","1","322","","","","","","","0","1","0","","0.9724226268","0.2","0.8","0.4","0.6","0.9724226268","0.483313844","0.6074668868","0.8262734196","","","","","","","","","","","","72","H","0","img/none_selected.jpg","","16","main_expt",""
"","bandit","96","469068","0.0-57.0-0.0","19350277","wem/bandit_either_3","A52FUUEDGSZT9","either","1","825","","","","","","","0","1","0","","0.969397438","0.2","0.8","0.4","0.6","0.969397438","0.4764119597","0.634379517","0.8957105494","","","","","","","","","","","","72","H","0","img/none_selected.jpg","","17","main_expt",""
"","bandit","97","471122","0.0-58.0-0.0","19350277","wem/bandit_either_3","A52FUUEDGSZT9","either","1","523","","","","","","","0","1","0","","0.9487821198","0.2","0.8","0.4","0.6","0.9487821198","0.4742144938","0.7399013172","0.8243017832","","","","","","","","","","","","72","H","0","img/none_selected.jpg","","18","main_expt",""
"","bandit","98","473490","0.0-59.0-0.0","19350277","wem/bandit_either_3","A52FUUEDGSZT9","either","1","836","","","","","","","0","1","0","","0.8822386923","0.2","0.8","0.4","0.6","0.8822386923","0.5445729057","0.6892422428","0.8174393347","","","","","","","","","","","","72","H","0","img/none_selected.jpg","","19","main_expt",""
"","bandit","99","476147","0.0-60.0-0.0","19350277","wem/bandit_either_3","A52FUUEDGSZT9","either","1","1126","","","","","","","0","1","0","","0.8658452863","0.2","0.8","0.4","0.6","0.8658452863","0.5114357523","0.5544472153","0.8457625901","","","","","","","","","","","","72","H","0","img/none_selected.jpg","","20","main_expt",""
"","bandit","100","478456","0.0-61.0-0.0","19350277","wem/bandit_either_3","A52FUUEDGSZT9","either","1","763","","","","","","","0","0","1","0.8597265301","","0.2","0.8","0.4","0.6","","","","","0.8597265301","0.4948626968","0.4705077418","0.8565453533","","","","","","","","72","H","0","img/none_selected.jpg","","21","main_expt",""
"","bandit","101","480386","0.0-62.0-0.0","19350277","wem/bandit_either_3","A52FUUEDGSZT9","either","1","403","","","","","","","0","1","0","","0.929530396","0.2","0.8","0.4","0.6","0.929530396","0.3750889156","0.5364913494","0.8821281293","","","","","","","","","","","","72","H","0","img/none_selected.jpg","","22","main_expt",""
"","bandit","102","482511","0.0-63.0-0.0","19350277","wem/bandit_either_3","A52FUUEDGSZT9","either","1","593","","","","","","","0","1","0","","0.9149061772","0.2","0.8","0.4","0.6","0.9149061772","0.3874093852","0.5450887529","0.8253896901","","","","","","","","","","","","72","H","0","img/none_selected.jpg","","23","main_expt",""
"","bandit","103","484900","0.0-64.0-0.0","19350277","wem/bandit_either_3","A52FUUEDGSZT9","either","1","859","","","","","","","0","1","0","","0.9389899916","0.2","0.8","0.4","0.6","0.9389899916","0.4126546177","0.6013055931","0.8682133559","","","","","","","","","","","","72","H","0","img/none_selected.jpg","","24","main_expt",""
"","bandit","104","487239","0.0-65.0-0.0","19350277","wem/bandit_either_3","A52FUUEDGSZT9","either","1","793","","","","","","","0","1","0","","0.9583062328","0.2","0.8","0.4","0.6","0.9583062328","0.3871809826","0.7116226269","0.8186134727","","","","","","","","","","","","72","H","0","img/none_selected.jpg","","25","main_expt",""
"","bandit","105","489318","0.0-66.0-0.0","19350277","wem/bandit_either_3","A52FUUEDGSZT9","either","1","539","","","","","","","0","1","0","","0.9349434311","0.2","0.8","0.4","0.6","0.9349434311","0.4162773602","0.7284905038","0.841170918","","","","","","","","","","","","72","H","0","img/none_selected.jpg","","26","main_expt",""
"","bandit","106","491639","0.0-67.0-0.0","19350277","wem/bandit_either_3","A52FUUEDGSZT9","either","1","784","","","","","","","0","1","0","","0.9147743466","0.2","0.8","0.4","0.6","0.9147743466","0.4153433109","0.7007901837","0.8332298301","","","","","","","","","","","","72","H","0","img/none_selected.jpg","","27","main_expt",""
"","bandit","107","493657","0.0-68.0-0.0","19350277","wem/bandit_either_3","A52FUUEDGSZT9","either","1","488","","","","","","","0","1","0","","0.8913744663","0.2","0.8","0.4","0.6","0.8913744663","0.3083156359","0.7197690037","0.8340804883","","","","","","","","","","","","72","H","0","img/none_selected.jpg","","28","main_expt",""
"","bandit","108","495649","0.0-69.0-0.0","19350277","wem/bandit_either_3","A52FUUEDGSZT9","either","1","453","","","","","","","0","0","1","0.4048150761","","0.2","0.8","0.4","0.6","","","","","0.9004815278","0.4048150761","0.7569205749","0.8800986549","","","","","","","","74","J","1","","","29","main_expt",""
"","bandit","109","497466","0.0-70.0-0.0","19350277","wem/bandit_either_3","A52FUUEDGSZT9","either","1","283","","","","","","","0","1","0","","0.7007062976","0.2","0.8","0.4","0.6","0.8335499875","0.5604470694","0.7007062976","0.800988266","","","","","","","","","","","","75","K","2","","","30","main_expt",""
"","bandit","110","499309","0.0-71.0-0.0","19350277","wem/bandit_either_3","A52FUUEDGSZT9","either","1","311","","","","","","","0","0","1","","0.8092707987","0.2","0.8","0.4","0.6","0.7904098286","0.5114456598","0.6218809145","0.8092707987","","","","","","","","","","","","76","L","3","","","31","main_expt",""
"","bandit","111","501091","0.0-72.0-0.0","19350277","wem/bandit_either_3","A52FUUEDGSZT9","either","1","260","","","","","","","0","0","1","","0.8156470634","0.2","0.8","0.4","0.6","0.8156470634","0.5195843055","0.5448888872","0.7600689364","","","","","","","","","","","","72","H","0","img/none_selected.jpg","","32","main_expt",""
"","bandit","112","502880","0.0-73.0-0.0","19350277","wem/bandit_either_3","A52FUUEDGSZT9","either","1","259","","","","","","","1","0","0","0.7458483223","","0.2","0.8","0.4","0.6","","","","","0.7458483223","0.4278216128","0.4396040002","0.7268405739","","","","","","","","72","H","0","img/none_selected.jpg","","33","main_expt",""
"","bandit","113","504697","0.0-74.0-0.0","19350277","wem/bandit_either_3","A52FUUEDGSZT9","either","1","291","","","","","","","0","1","0","","0.8745519215","0.2","0.8","0.4","0.6","0.8745519215","0.4581725564","0.3418027302","0.7867385379","","","","","","","","","","","","72","H","0","img/none_selected.jpg","","34","main_expt",""
"","bandit","114","506484","0.0-75.0-0.0","19350277","wem/bandit_either_3","A52FUUEDGSZT9","either","1","254","","","","","","","0","1","0","","0.8761773117","0.2","0.8","0.4","0.6","0.8761773117","0.5170179058","0.3770378826","0.7776722478","","","","","","","","","","","","72","H","0","img/none_selected.jpg","","35","main_expt",""
"","bandit","115","508377","0.0-76.0-0.0","19350277","wem/bandit_either_3","A52FUUEDGSZT9","either","1","361","","","","","","","0","1","0","","0.8898579413","0.2","0.8","0.4","0.6","0.8898579413","0.5761285305","0.3264650107","0.8110731924","","","","","","","","","","","","72","H","0","img/none_selected.jpg","","36","main_expt",""
"","bandit","116","510237","0.0-77.0-0.0","19350277","wem/bandit_either_3","A52FUUEDGSZT9","either","1","330","","","","","","","0","1","0","","0.9189960073","0.2","0.8","0.4","0.6","0.9189960073","0.5824592389","0.1696248696","0.8371501114","","","","","","","","","","","","72","H","0","img/none_selected.jpg","","37","main_expt",""
"","bandit","117","512093","0.0-78.0-0.0","19350277","wem/bandit_either_3","A52FUUEDGSZT9","either","1","321","","","","","","","1","0","0","0.9429067042","","0.2","0.8","0.4","0.6","","","","","0.9429067042","0.5039158184","0.3008725236","0.801984358","","","","","","","","72","H","0","img/none_selected.jpg","","38","main_expt",""
"","bandit","118","513644","0.0-79.0-0.0","19350277","wem/bandit_either_3","A52FUUEDGSZT9","either","1","19","","","","","","","0","1","0","","0.8860185862","0.2","0.8","0.4","0.6","0.8860185862","0.4906961915","0.3612597963","0.836760671","","","","","","","","","","","","72","H","0","img/none_selected.jpg","","39","main_expt",""
"","bandit","119","515605","0.0-80.0-0.0","19350277","wem/bandit_either_3","A52FUUEDGSZT9","either","1","425","","","","","","","0","1","0","","0.8958725565","0.2","0.8","0.4","0.6","0.8958725565","0.5118773476","0.3316001813","0.7930168878","","","","","","","","","","","","72","H","0","img/none_selected.jpg","","40","main_expt",""
"","bandit","120","517638","0.0-81.0-0.0","19350277","wem/bandit_either_3","A52FUUEDGSZT9","either","1","446","","","","","","","0","0","1","","0.8369757826","0.2","0.8","0.4","0.6","0.8369757826","0.5207000815","0.251761063","0.6758505439","","","","","","","","","","","","72","H","0","img/none_selected.jpg","","41","main_expt",""
"","bandit","121","519615","0.0-82.0-0.0","19350277","wem/bandit_either_3","A52FUUEDGSZT9","either","1","434","","","","","","","0","1","0","","0.8724413244","0.2","0.8","0.4","0.6","0.8724413244","0.6208632684","0.3764367217","0.669091732","","","","","","","","","","","","72","H","0","img/none_selected.jpg","","42","main_expt",""
"","bandit","122","521822","0.0-83.0-0.0","19350277","wem/bandit_either_3","A52FUUEDGSZT9","either","1","661","","","","","","","1","0","0","0.8721156492","","0.2","0.8","0.4","0.6","","","","","0.8721156492","0.6736877605","0.4280411123","0.5774386383","","","","","","","","72","H","0","img/none_selected.jpg","","43","main_expt",""
"","bandit","123","524055","0.0-84.0-0.0","19350277","wem/bandit_either_3","A52FUUEDGSZT9","either","1","699","","","","","","","0","1","0","","0.874486911","0.2","0.8","0.4","0.6","0.874486911","0.6770598463","0.4250007774","0.5402750746","","","","","","","","","","","","72","H","0","img/none_selected.jpg","","44","main_expt",""
"","bandit","124","526519","0.0-85.0-0.0","19350277","wem/bandit_either_3","A52FUUEDGSZT9","either","1","924","","","","","","","1","0","0","0.7653026016","","0.2","0.8","0.4","0.6","","","","","0.7653026016","0.6811336834","0.3964774122","0.4769525635","","","","","","","","72","H","0","img/none_selected.jpg","","45","main_expt",""
"","bandit","125","528938","0.0-86.0-0.0","19350277","wem/bandit_either_3","A52FUUEDGSZT9","either","1","878","","","","","","","0","0","1","","0.6884850605","0.2","0.8","0.4","0.6","0.6884850605","0.7409040253","0.3755541509","0.460739512","","","","","","","","","","","","72","H","0","img/none_selected.jpg","","46","main_expt",""
"","bandit","126","531076","0.0-87.0-0.0","19350277","wem/bandit_either_3","A52FUUEDGSZT9","either","1","590","","","","","","","0","0","1","","0.6869729855","0.2","0.8","0.4","0.6","0.6869729855","0.8602274841","0.3698766084","0.3953603582","","","","","","","","","","","","72","H","0","img/none_selected.jpg","","47","main_expt",""
"","bandit","127","532919","0.0-88.0-0.0","19350277","wem/bandit_either_3","A52FUUEDGSZT9","either","1","306","","","","","","","0","0","1","0.2924141828","","0.2","0.8","0.4","0.6","","","","","0.624749708","0.8947369126","0.2924141828","0.5194217752","","","","","","","","75","K","2","","","48","main_expt",""
"","bandit","128","534676","0.0-89.0-0.0","19350277","wem/bandit_either_3","A52FUUEDGSZT9","either","1","215","","","","","","","1","0","0","0.9071052574","","0.2","0.8","0.4","0.6","","","","","0.6269608649","0.9071052574","0.2506794134","0.5015721984","","","","","","","","74","J","1","","","49","main_expt",""
"","bandit","129","536533","0.0-90.0-0.0","19350277","wem/bandit_either_3","A52FUUEDGSZT9","either","1","314","","","","","","","1","0","0","0.8569531155","","0.2","0.8","0.4","0.6","","","","","0.5394470416","0.8569531155","0.2200095001","0.4427204185","","","","","","","","74","J","1","","","50","main_expt",""
"","bandit","130","538377","0.0-91.0-0.0","19350277","wem/bandit_either_3","A52FUUEDGSZT9","either","1","310","","","","","","","1","0","0","0.8728609703","","0.2","0.8","0.4","0.6","","","","","0.4991806479","0.8728609703","0.2703780474","0.5194544998","","","","","","","","74","J","1","","","51","main_expt",""
"","bandit","131","540256","0.0-92.0-0.0","19350277","wem/bandit_either_3","A52FUUEDGSZT9","either","1","350","","","","","","","1","0","0","0.902184381","","0.2","0.8","0.4","0.6","","","","","0.5431464126","0.902184381","0.3215640211","0.4420680866","","","","","","","","74","J","1","","","52","main_expt",""
"","bandit","132","542217","0.0-93.0-0.0","19350277","wem/bandit_either_3","A52FUUEDGSZT9","either","1","420","","","","","","","0","0","1","0.8975054296","","0.2","0.8","0.4","0.6","","","","","0.4799783957","0.8975054296","0.2918797996","0.5541791803","","","","","","","","74","J","1","","","53","main_expt",""
"","bandit","133","544036","0.0-94.0-0.0","19350277","wem/bandit_either_3","A52FUUEDGSZT9","either","1","284","","","","","","","1","0","0","0.9436546011","","0.2","0.8","0.4","0.6","","","","","0.3946877269","0.9436546011","0.2432815539","0.6187664305","","","","","","","","74","J","1","","","54","main_expt",""
"","bandit","134","545913","0.0-95.0-0.0","19350277","wem/bandit_either_3","A52FUUEDGSZT9","either","1","346","","","","","","","1","0","0","0.9411334538","","0.2","0.8","0.4","0.6","","","","","0.3892466866","0.9411334538","0.1993500609","0.538030076","","","","","","","","74","J","1","","","55","main_expt",""
"","bandit","135","547814","0.0-96.0-0.0","19350277","wem/bandit_either_3","A52FUUEDGSZT9","either","1","377","","","","","","","0","0","1","0.862285227","","0.2","0.8","0.4","0.6","","","","","0.347268188","0.862285227","0.1832364248","0.5137881872","","","","","","","","74","J","1","","","56","main_expt",""
"","bandit","136","549673","0.0-97.0-0.0","19350277","wem/bandit_either_3","A52FUUEDGSZT9","either","1","327","","","","","","","1","0","0","0.9034803314","","0.2","0.8","0.4","0.6","","","","","0.3462231845","0.9034803314","0.1703919496","0.6274604021","","","","","","","","74","J","1","","","57","main_expt",""
"","bandit","137","551810","0.0-98.0-0.0","19350277","wem/bandit_either_3","A52FUUEDGSZT9","either","1","584","","","","","","","1","0","0","0.9062052911","","0.2","0.8","0.4","0.6","","","","","0.3707442777","0.9062052911","0.2146973212","0.5636132077","","","","","","","","74","J","1","","","58","main_expt",""
"","bandit","138","553742","0.0-99.0-0.0","19350277","wem/bandit_either_3","A52FUUEDGSZT9","either","1","371","","","","","","","1","0","0","0.9169546289","","0.2","0.8","0.4","0.6","","","","","0.4530366532","0.9169546289","0.2118107272","0.6555757088","","","","","","","","74","J","1","","","59","main_expt",""
"","bandit","139","555687","0.0-100.0-0.0","19350277","wem/bandit_either_3","A52FUUEDGSZT9","either","1","399","","","","","","","1","0","0","0.9048679239","","0.2","0.8","0.4","0.6","","","","","0.4335409142","0.9048679239","0.2096036334","0.6555481193","","","","","","","","74","J","1","","","60","main_expt",""
"","bandit","140","557698","0.0-101.0-0.0","19350277","wem/bandit_either_3","A52FUUEDGSZT9","either","1","441","","","","","","","1","0","0","0.9346572725","","0.2","0.8","0.4","0.6","","","","","0.3601573371","0.9346572725","0.1985607356","0.6988977931","","","","","","","","74","J","1","","","61","main_expt",""
"","bandit","141","559676","0.0-102.0-0.0","19350277","wem/bandit_either_3","A52FUUEDGSZT9","either","1","432","","","","","","","0","0","1","0.9332729597","","0.2","0.8","0.4","0.6","","","","","0.3187004912","0.9332729597","0.2352246004","0.6124712875","","","","","","","","74","J","1","","","62","main_expt",""
"","bandit","142","561447","0.0-103.0-0.0","19350277","wem/bandit_either_3","A52FUUEDGSZT9","either","1","210","","","","","","","1","0","0","0.9300142507","","0.2","0.8","0.4","0.6","","","","","0.331276396","0.9300142507","0.1989126294","0.4881994696","","","","","","","","74","J","1","","","63","main_expt",""
"","bandit","143","563535","0.0-104.0-0.0","19350277","wem/bandit_either_3","A52FUUEDGSZT9","either","1","529","","","","","","","0","0","1","0.8992917639","","0.2","0.8","0.4","0.6","","","","","0.3984677","0.8992917639","0.2231035509","0.5007509184","","","","","","","","74","J","1","","","64","main_expt",""
"","bandit","144","565447","0.0-105.0-0.0","19350277","wem/bandit_either_3","A52FUUEDGSZT9","either","1","372","","","","","","","1","0","0","0.7939475476","","0.2","0.8","0.4","0.6","","","","","0.3012021372","0.7939475476","0.174077904","0.6077525222","","","","","","","","74","J","1","","","65","main_expt",""
"","bandit","145","567646","0.0-106.0-0.0","19350277","wem/bandit_either_3","A52FUUEDGSZT9","either","1","653","","","","","","","0","0","1","0.7848839068","","0.2","0.8","0.4","0.6","","","","","0.2848395029","0.7848839068","0.1505104035","0.4876759876","","","","","","","","74","J","1","","","66","main_expt",""
"","bandit","146","569457","0.0-107.0-0.0","19350277","wem/bandit_either_3","A52FUUEDGSZT9","either","1","261","","","","","","","1","0","0","0.7712869283","","0.2","0.8","0.4","0.6","","","","","0.2908363747","0.7712869283","0.1706094741","0.4705728971","","","","","","","","74","J","1","","","67","main_expt",""
"","bandit","147","571306","0.0-108.0-0.0","19350277","wem/bandit_either_3","A52FUUEDGSZT9","either","1","302","","","","","","","1","0","0","0.7426915226","","0.2","0.8","0.4","0.6","","","","","0.3226378352","0.7426915226","0.193375558","0.5822594153","","","","","","","","74","J","1","","","68","main_expt",""
"","bandit","148","573290","0.0-109.0-0.0","19350277","wem/bandit_either_3","A52FUUEDGSZT9","either","1","446","","","","","","","1","0","0","0.592712881","","0.2","0.8","0.4","0.6","","","","","0.4490581071","0.592712881","0.226811003","0.6189715015","","","","","","","","74","J","1","","","69","main_expt",""
"","bandit","149","575332","0.0-110.0-0.0","19350277","wem/bandit_either_3","A52FUUEDGSZT9","either","1","483","","","","","","","1","0","0","0.6587085967","","0.2","0.8","0.4","0.6","","","","","0.42365523","0.6587085967","0.191142909","0.5307799745","","","","","","","","74","J","1","","","70","main_expt",""
"","bandit","150","577649","0.0-111.0-0.0","19350277","wem/bandit_either_3","A52FUUEDGSZT9","either","1","766","","","","","","","0","1","0","","0.7562029562","0.2","0.8","0.4","0.6","0.427101634","0.7562029562","0.2371486809","0.5205551237","","","","","","","","","","","","74","J","1","","","71","main_expt",""
"","bandit","151","579767","0.0-112.0-0.0","19350277","wem/bandit_either_3","A52FUUEDGSZT9","either","1","575","","","","","","","0","0","1","","0.670676276","0.2","0.8","0.4","0.6","0.5387899421","0.670676276","0.2602117984","0.5913901284","","","","","","","","","","","","74","J","1","","","72","main_expt",""
"","bandit","152","581657","0.0-113.0-0.0","19350277","wem/bandit_either_3","A52FUUEDGSZT9","either","1","344","","","","","","","0","0","1","0.6870219419","","0.2","0.8","0.4","0.6","","","","","0.4931252492","0.6870219419","0.1837165363","0.7127465592","","","","","","","","74","J","1","","","73","main_expt",""
"","bandit","153","583642","0.0-114.0-0.0","19350277","wem/bandit_either_3","A52FUUEDGSZT9","either","1","430","","","","","","","0","0","1","","0.2032334464","0.2","0.8","0.4","0.6","0.3888626504","0.582898469","0.2032334464","0.7804212289","","","","","","","","","","","","75","K","2","","","74","main_expt",""
"","bandit","154","585494","0.0-115.0-0.0","19350277","wem/bandit_either_3","A52FUUEDGSZT9","either","1","290","","","","","","","0","1","0","","0.7966502287","0.2","0.8","0.4","0.6","0.3866429177","0.6452442043","0.2782751631","0.7966502287","","","","","","","","","","","","76","L","3","","","75","main_expt",""
"","bandit","155","587272","0.0-116.0-0.0","19350277","wem/bandit_either_3","A52FUUEDGSZT9","either","1","240","","","","","","","0","1","0","","0.7775959854","0.2","0.8","0.4","0.6","0.3948468247","0.7031137023","0.3318782676","0.7775959854","","","","","","","","","","","","76","L","3","","","76","main_expt",""
"","bandit","156","589108","0.0-117.0-0.0","19350277","wem/bandit_either_3","A52FUUEDGSZT9","either","1","284","","","","","","","1","0","0","0.8523583745","","0.2","0.8","0.4","0.6","","","","","0.4853082722","0.6096498107","0.312607664","0.8523583745","","","","","","","","76","L","3","","","77","main_expt",""
"","bandit","157","590935","0.0-118.0-0.0","19350277","wem/bandit_either_3","A52FUUEDGSZT9","either","1","271","","","","","","","0","1","0","","0.7707034136","0.2","0.8","0.4","0.6","0.4971609959","0.532302087","0.3250695504","0.7707034136","","","","","","","","","","","","76","L","3","","","78","main_expt",""
"","bandit","158","592716","0.0-119.0-0.0","19350277","wem/bandit_either_3","A52FUUEDGSZT9","either","1","219","","","","","","","0","1","0","","0.7919080975","0.2","0.8","0.4","0.6","0.5349041547","0.4448734945","0.277144637","0.7919080975","","","","","","","","","","","","76","L","3","","","79","main_expt",""
"","bandit","159","594559","0.0-120.0-0.0","19350277","wem/bandit_either_3","A52FUUEDGSZT9","either","1","302","","","","","","","0","0","1","","0.8107458935","0.2","0.8","0.4","0.6","0.4713204996","0.34513516","0.293018971","0.8107458935","","","","","","","","","","","","76","L","3","","","80","main_expt",""
"","bandit","160","596382","0.0-121.0-0.0","19350277","wem/bandit_either_3","A52FUUEDGSZT9","either","1","279","","","","","","","1","0","0","0.7851591746","","0.2","0.8","0.4","0.6","","","","","0.4132476049","0.406584365","0.2730851157","0.7851591746","","","","","","","","76","L","3","","","81","main_expt",""
"","bandit","161","598230","0.0-122.0-0.0","19350277","wem/bandit_either_3","A52FUUEDGSZT9","either","1","294","","","","","","","0","1","0","","0.8067558171","0.2","0.8","0.4","0.6","0.4640808921","0.5068312928","0.2436011542","0.8067558171","","","","","","","","","","","","76","L","3","","","82","main_expt",""
"","bandit","162","600116","0.0-123.0-0.0","19350277","wem/bandit_either_3","A52FUUEDGSZT9","either","1","333","","","","","","","0","0","1","0.7777816444","","0.2","0.8","0.4","0.6","","","","","0.442115463","0.5209063211","0.2009218657","0.7777816444","","","","","","","","76","L","3","","","83","main_expt",""
"","bandit","163","602004","0.0-124.0-0.0","19350277","wem/bandit_either_3","A52FUUEDGSZT9","either","1","341","","","","","","","0","0","1","","0.7801041195","0.2","0.8","0.4","0.6","0.5117806844","0.6221591745","0.1550904625","0.7801041195","","","","","","","","","","","","76","L","3","","","84","main_expt",""
"","bandit","164","603852","0.0-125.0-0.0","19350277","wem/bandit_either_3","A52FUUEDGSZT9","either","1","308","","","","","","","0","1","0","","0.5309627618","0.2","0.8","0.4","0.6","0.5309627618","0.6939346182","0.1193398435","0.7593249252","","","","","","","","","","","","72","H","0","img/none_selected.jpg","","85","main_expt",""
"","bandit","165","605703","0.0-126.0-0.0","19350277","wem/bandit_either_3","A52FUUEDGSZT9","either","1","301","","","","","","","0","1","0","","0.5482659382","0.2","0.8","0.4","0.6","0.5482659382","0.7533471596","0.1398572341","0.7911667705","","","","","","","","","","","","72","H","0","img/none_selected.jpg","","86","main_expt",""
"","bandit","166","607552","0.0-127.0-0.0","19350277","wem/bandit_either_3","A52FUUEDGSZT9","either","1","312","","","","","","","0","0","1","0.4772076429","","0.2","0.8","0.4","0.6","","","","","0.4772076429","0.8040573679","0.1941505275","0.8480662183","","","","","","","","72","H","0","img/none_selected.jpg","","87","main_expt",""
"","bandit","167","609433","0.0-128.0-0.0","19350277","wem/bandit_either_3","A52FUUEDGSZT9","either","1","355","","","","","","","0","1","0","","0.5202977678","0.2","0.8","0.4","0.6","0.5202977678","0.7800800897","0.09645570925","0.8110462569","","","","","","","","","","","","72","H","0","img/none_selected.jpg","","88","main_expt",""
"","bandit","168","611464","0.0-129.0-0.0","19350277","wem/bandit_either_3","A52FUUEDGSZT9","either","1","493","","","","","","","0","0","1","","0.4970482359","0.2","0.8","0.4","0.6","0.4970482359","0.7329239748","0.1304326216","0.7924414871","","","","","","","","","","","","72","H","0","img/none_selected.jpg","","89","main_expt",""
"","bandit","169","613184","0.0-130.0-0.0","19350277","wem/bandit_either_3","A52FUUEDGSZT9","either","1","158","","","","","","","0","1","0","","0.4671205494","0.2","0.8","0.4","0.6","0.4671205494","0.7202813078","0.1410434261","0.8190855249","","","","","","","","","","","","72","H","0","img/none_selected.jpg","","90","main_expt",""
"","bandit","170","615004","0.0-131.0-0.0","19350277","wem/bandit_either_3","A52FUUEDGSZT9","either","1","263","","","","","","","0","1","0","","0.5518401665","0.2","0.8","0.4","0.6","0.5518401665","0.698586111","0.1277095213","0.858270253","","","","","","","","","","","","72","H","0","img/none_selected.jpg","","91","main_expt",""
"","bandit","171","617018","0.0-132.0-0.0","19350277","wem/bandit_either_3","A52FUUEDGSZT9","either","1","473","","","","","","","0","1","0","","0.620788192","0.2","0.8","0.4","0.6","0.620788192","0.6054304462","0.08596821216","0.8583259383","","","","","","","","","","","","72","H","0","img/none_selected.jpg","","92","main_expt",""
"","bandit","172","619086","0.0-133.0-0.0","19350277","wem/bandit_either_3","A52FUUEDGSZT9","either","1","516","","","","","","","1","0","0","0.679669404","","0.2","0.8","0.4","0.6","","","","","0.679669404","0.6829204303","0.05652587691","0.8335107661","","","","","","","","72","H","0","img/none_selected.jpg","","93","main_expt",""
"","bandit","173","620689","0.0-134.0-0.0","19350277","wem/bandit_either_3","A52FUUEDGSZT9","either","1","46","","","","","","","0","0","1","0.6726581754","","0.2","0.8","0.4","0.6","","","","","0.6726581754","0.6084783934","0.07490457358","0.8849423118","","","","","","","","72","H","0","img/none_selected.jpg","","94","main_expt",""
"","bandit","174","622582","0.0-135.0-0.0","19350277","wem/bandit_either_3","A52FUUEDGSZT9","either","1","334","","","","","","","0","1","0","","0.5983950962","0.2","0.8","0.4","0.6","0.5983950962","0.51962455","0.05201682933","0.9175662658","","","","","","","","","","","","72","H","0","img/none_selected.jpg","","95","main_expt",""
"","bandit","175","624560","0.0-136.0-0.0","19350277","wem/bandit_either_3","A52FUUEDGSZT9","either","1","427","","","","","","","0","1","0","","0.6316158747","0.2","0.8","0.4","0.6","0.6316158747","0.453067158","0.0353667714","0.8726153548","","","","","","","","","","","","72","H","0","img/none_selected.jpg","","96","main_expt",""
"","bandit","176","626413","0.0-137.0-0.0","19350277","wem/bandit_either_3","A52FUUEDGSZT9","either","1","309","","","","","","","0","1","0","","0.6660601513","0.2","0.8","0.4","0.6","0.6660601513","0.4090095009","0.04301306848","0.7260562137","","","","","","","","","","","","72","H","0","img/none_selected.jpg","","97","main_expt",""
"","bandit","177","628401","0.0-138.0-0.0","19350277","wem/bandit_either_3","A52FUUEDGSZT9","either","1","442","","","","","","","0","1","0","","0.6185462561","0.2","0.8","0.4","0.6","0.6185462561","0.360727585","0.03950067624","0.6506148609","","","","","","","","","","","","72","H","0","img/none_selected.jpg","","98","main_expt",""
"","bandit","178","630753","0.0-139.0-0.0","19350277","wem/bandit_either_3","A52FUUEDGSZT9","either","1","813","","","","","","","1","0","0","0.581128502","","0.2","0.8","0.4","0.6","","","","","0.581128502","0.3351327477","0.03156699585","0.5816342488","","","","","","","","72","H","0","img/none_selected.jpg","","99","main_expt",""
"","bandit","179","632712","0.0-140.0-0.0","19350277","wem/bandit_either_3","A52FUUEDGSZT9","either","1","425","","","","","","","0","1","0","","0.479775063","0.2","0.8","0.4","0.6","0.479775063","0.3491912274","0.0248161238","0.5521464449","","","","","","","","","","","","72","H","0","img/none_selected.jpg","","100","main_expt",""
"","bandit","180","634566","0.0-141.0-0.0","19350277","wem/bandit_either_3","A52FUUEDGSZT9","either","1","316","","","","","","","0","0","1","0.5114647241","","0.2","0.8","0.4","0.6","","","","","0.5114647241","0.4105375765","0.02218075004","0.6063232436","","","","","","","","72","H","0","img/none_selected.jpg","","101","main_expt",""
"","bandit","181","636351","0.0-142.0-0.0","19350277","wem/bandit_either_3","A52FUUEDGSZT9","either","1","248","","","","","","","0","1","0","","0.4718740674","0.2","0.8","0.4","0.6","0.4718740674","0.438632671","0.01802152149","0.5636213764","","","","","","","","","","","","72","H","0","img/none_selected.jpg","","102","main_expt",""
"","bandit","182","638523","0.0-143.0-0.0","19350277","wem/bandit_either_3","A52FUUEDGSZT9","either","1","618","","","","","","","0","0","1","0.5245129891","","0.2","0.8","0.4","0.6","","","","","0.5245129891","0.372838406","0.01877214671","0.5370473259","","","","","","","","72","H","0","img/none_selected.jpg","","103","main_expt",""
"","bandit","183","640385","0.0-144.0-0.0","19350277","wem/bandit_either_3","A52FUUEDGSZT9","either","1","336","","","","","","","0","1","0","","0.5170751474","0.2","0.8","0.4","0.6","0.5170751474","0.3057692375","0.01556743346","0.549647281","","","","","","","","","","","","72","H","0","img/none_selected.jpg","","104","main_expt",""
"","bandit","184","642273","0.0-145.0-0.0","19350277","wem/bandit_either_3","A52FUUEDGSZT9","either","1","362","","","","","","","0","0","1","","0.472330124","0.2","0.8","0.4","0.6","0.472330124","0.37369274","0.03717147126","0.4225976111","","","","","","","","","","","","72","H","0","img/none_selected.jpg","","105","main_expt",""
"","bandit","185","644025","0.0-146.0-0.0","19350277","wem/bandit_either_3","A52FUUEDGSZT9","either","1","224","","","","","","","0","0","1","0.3179799449","","0.2","0.8","0.4","0.6","","","","","0.568133852","0.3179799449","0.07687033395","0.5005163425","","","","","","","","74","J","1","","","106","main_expt",""
"","bandit","186","645835","0.0-147.0-0.0","19350277","wem/bandit_either_3","A52FUUEDGSZT9","either","1","251","","","","","","","0","0","1","0.07659049968","","0.2","0.8","0.4","0.6","","","","","0.536018559","0.3053765494","0.07659049968","0.3995396385","","","","","","","","75","K","2","","","107","main_expt",""
"","bandit","187","647764","0.0-148.0-0.0","19350277","wem/bandit_either_3","A52FUUEDGSZT9","either","1","394","","","","","","","0","0","1","0.3855926336","","0.2","0.8","0.4","0.6","","","","","0.3880888981","0.2732860947","0.07827602418","0.3855926336","","","","","","","","76","L","3","","","108","main_expt",""
"","bandit","188","649582","0.0-149.0-0.0","19350277","wem/bandit_either_3","A52FUUEDGSZT9","either","1","284","","","","","","","1","0","0","0.3675045314","","0.2","0.8","0.4","0.6","","","","","0.3675045314","0.2624197952","0.1352418701","0.3059937163","","","","","","","","72","H","0","img/none_selected.jpg","","109","main_expt",""
"","bandit","189","651388","0.0-150.0-0.0","19350277","wem/bandit_either_3","A52FUUEDGSZT9","either","1","251","","","","","","","0","0","1","","0.4560700489","0.2","0.8","0.4","0.6","0.4560700489","0.3303210632","0.1705666919","0.2752892785","","","","","","","","","","","","72","H","0","img/none_selected.jpg","","110","main_expt",""
"","bandit","190","653149","0.0-151.0-0.0","19350277","wem/bandit_either_3","A52FUUEDGSZT9","either","1","233","","","","","","","0","0","1","","0.5366389876","0.2","0.8","0.4","0.6","0.5366389876","0.3541452024","0.2202970635","0.3038626008","","","","","","","","","","","","72","H","0","img/none_selected.jpg","","111","main_expt",""
"","bandit","191","655202","0.0-152.0-0.0","19350277","wem/bandit_either_3","A52FUUEDGSZT9","either","1","522","","","","","","","0","0","1","","0.5742054707","0.2","0.8","0.4","0.6","0.5742054707","0.4468573219","0.2368742277","0.2308866464","","","","","","","","","","","","72","H","0","img/none_selected.jpg","","112","main_expt",""
"","bandit","192","657084","0.0-153.0-0.0","19350277","wem/bandit_either_3","A52FUUEDGSZT9","either","1","354","","","","","","","1","0","0","0.5163231944","","0.2","0.8","0.4","0.6","","","","","0.6014260319","0.5163231944","0.2487241586","0.2420052043","","","","","","","","74","J","1","","","113","main_expt",""
"","bandit","193","658935","0.0-154.0-0.0","19350277","wem/bandit_either_3","A52FUUEDGSZT9","either","1","328","","","","","","","1","0","0","0.4064640458","","0.2","0.8","0.4","0.6","","","","","0.5398035654","0.4064640458","0.238824581","0.3277817495","","","","","","","","74","J","1","","","114","main_expt",""
"","bandit","194","660987","0.0-155.0-0.0","19350277","wem/bandit_either_3","A52FUUEDGSZT9","either","1","505","","","","","","","0","0","1","0.4085425191","","0.2","0.8","0.4","0.6","","","","","0.5008208772","0.4085425191","0.1480638281","0.3280884562","","","","","","","","74","J","1","","","115","main_expt",""
"","bandit","195","662719","0.0-156.0-0.0","19350277","wem/bandit_either_3","A52FUUEDGSZT9","either","1","200","","","","","","","1","0","0","0.4412864427","","0.2","0.8","0.4","0.6","","","","","0.4200837231","0.4412864427","0.1246447603","0.4137256642","","","","","","","","74","J","1","","","116","main_expt",""
"","bandit","196","664576","0.0-157.0-0.0","19350277","wem/bandit_either_3","A52FUUEDGSZT9","either","1","313","","","","","","","0","1","0","","0.5188885271","0.2","0.8","0.4","0.6","0.4094987027","0.5188885271","0.1308085784","0.372751341","","","","","","","","","","","","74","J","1","","","117","main_expt",""
"","bandit","197","666458","0.0-158.0-0.0","19350277","wem/bandit_either_3","A52FUUEDGSZT9","either","1","348","","","","","","","1","0","0","0.5728151575","","0.2","0.8","0.4","0.6","","","","","0.3862907493","0.5728151575","0.09076242324","0.4225631273","","","","","","","","74","J","1","","","118","main_expt",""
"","bandit","198","668289","0.0-159.0-0.0","19350277","wem/bandit_either_3","A52FUUEDGSZT9","either","1","300","","","","","","","1","0","0","0.5065624602","","0.2","0.8","0.4","0.6","","","","","0.4437318585","0.5065624602","0.09057925276","0.4188482812","","","","","","","","74","J","1","","","119","main_expt",""
"","bandit","199","670164","0.0-160.0-0.0","19350277","wem/bandit_either_3","A52FUUEDGSZT9","either","1","341","","","","","","","0","0","1","0.4064427813","","0.2","0.8","0.4","0.6","","","","","0.293469011","0.4064427813","0.1288926122","0.3729077829","","","","","","","","74","J","1","","","120","main_expt",""
"","bandit","200","672113","0.0-161.0-0.0","19350277","wem/bandit_either_3","A52FUUEDGSZT9","either","1","412","","","","","","","0","0","1","0.3948988447","","0.2","0.8","0.4","0.6","","","","","0.2141601759","0.3948988447","0.1479701512","0.3817262037","","","","","","","","74","J","1","","","121","main_expt",""
"","bandit","201","674344","0.0-162.0-0.0","19350277","wem/bandit_either_3","A52FUUEDGSZT9","either","1","697","","","","","","","0","0","1","","0.1663524813","0.2","0.8","0.4","0.6","0.2594293103","0.316823658","0.1663524813","0.3537210734","","","","","","","","","","","","75","K","2","","","122","main_expt",""
"","bandit","202","675963","0.0-163.0-0.0","19350277","wem/bandit_either_3","A52FUUEDGSZT9","either","1","57","","","","","","","0","0","1","0.3633727708","","0.2","0.8","0.4","0.6","","","","","0.1519240937","0.3045978244","0.1993917655","0.3633727708","","","","","","","","76","L","3","","","123","main_expt",""
"","bandit","203","677615","0.0-164.0-0.0","19350277","wem/bandit_either_3","A52FUUEDGSZT9","either","1","114","","","","","","","0","0","1","","0.2311656533","0.2","0.8","0.4","0.6","0.2311656533","0.2389028675","0.2948689786","0.4139908316","","","","","","","","","","","","72","H","0","img/none_selected.jpg","","124","main_expt",""
"","bandit","204","679541","0.0-165.0-0.0","19350277","wem/bandit_either_3","A52FUUEDGSZT9","either","1","256","","","","","","","0","0","1","0.2166803268","","0.2","0.8","0.4","0.6","","","","","0.1956748967","0.2166803268","0.4054398129","0.3619800754","","","","","","","","74","J","1","","","125","main_expt",""
"","bandit","205","681546","0.0-166.0-0.0","19350277","wem/bandit_either_3","A52FUUEDGSZT9","either","1","471","","","","","","","0","0","1","0.1613674106","","0.2","0.8","0.4","0.6","","","","","0.1419383156","0.1613674106","0.5337661481","0.353362548","","","","","","","","74","J","1","","","126","main_expt",""
"","bandit","206","683342","0.0-167.0-0.0","19350277","wem/bandit_either_3","A52FUUEDGSZT9","either","1","252","","","","","","","0","0","1","0.5510518781","","0.2","0.8","0.4","0.6","","","","","0.1768105291","0.1682412955","0.5510518781","0.2888217425","","","","","","","","75","K","2","","","127","main_expt",""
"","bandit","207","685170","0.0-168.0-0.0","19350277","wem/bandit_either_3","A52FUUEDGSZT9","either","1","262","","","","","","","1","0","0","0.3131893798","","0.2","0.8","0.4","0.6","","","","","0.1187699492","0.1655910943","0.4746642732","0.3131893798","","","","","","","","76","L","3","","","128","main_expt",""
"","bandit","208","687064","0.0-169.0-0.0","19350277","wem/bandit_either_3","A52FUUEDGSZT9","either","1","334","","","","","","","0","0","1","","0.2826861836","0.2","0.8","0.4","0.6","0.1860330609","0.1845506081","0.5345142674","0.2826861836","","","","","","","","","","","","76","L","3","","","129","main_expt",""
"","bandit","209","688908","0.0-170.0-0.0","19350277","wem/bandit_either_3","A52FUUEDGSZT9","either","1","309","","","","","","","1","0","0","0.3434973012","","0.2","0.8","0.4","0.6","","","","","0.09722607165","0.1548240476","0.6617219445","0.3434973012","","","","","","","","76","L","3","","","130","main_expt",""
"","bandit","210","690825","0.0-171.0-0.0","19350277","wem/bandit_either_3","A52FUUEDGSZT9","either","1","378","","","","","","","0","1","0","","0.3848082556","0.2","0.8","0.4","0.6","0.05626421391","0.1503989","0.6183560712","0.3848082556","","","","","","","","","","","","76","L","3","","","131","main_expt",""
"","bandit","211","692641","0.0-172.0-0.0","19350277","wem/bandit_either_3","A52FUUEDGSZT9","either","1","282","","","","","","","0","0","1","","0.4140069858","0.2","0.8","0.4","0.6","0.1149854728","0.1199593994","0.7009512511","0.4140069858","","","","","","","","","","","","76","L","3","","","132","main_expt",""
"","bandit","212","694488","0.0-173.0-0.0","19350277","wem/bandit_either_3","A52FUUEDGSZT9","either","1","267","","","","","","","1","0","0","0.3745017877","","0.2","0.8","0.4","0.6","","","","","0.1698175541","0.1518383839","0.5838974895","0.3745017877","","","","","","","","76","L","3","","","133","main_expt",""
"","bandit","213","696325","0.0-174.0-0.0","19350277","wem/bandit_either_3","A52FUUEDGSZT9","either","1","279","","","","","","","0","0","1","0.3918835711","","0.2","0.8","0.4","0.6","","","","","0.1925371395","0.1855528241","0.6628563986","0.3918835711","","","","","","","","76","L","3","","","134","main_expt",""
"","bandit","214","698179","0.0-175.0-0.0","19350277","wem/bandit_either_3","A52FUUEDGSZT9","either","1","299","","","","","","","1","0","0","0.3405764209","","0.2","0.8","0.4","0.6","","","","","0.246136332","0.2187769305","0.5610912218","0.3405764209","","","","","","","","76","L","3","","","135","main_expt",""
"","bandit","215","700067","0.0-176.0-0.0","19350277","wem/bandit_either_3","A52FUUEDGSZT9","either","1","336","","","","","","","0","0","1","0.4155430462","","0.2","0.8","0.4","0.6","","","","","0.2277518718","0.2001534018","0.4834649218","0.4155430462","","","","","","","","76","L","3","","","136","main_expt",""
"","bandit","216","701816","0.0-177.0-0.0","19350277","wem/bandit_either_3","A52FUUEDGSZT9","either","1","204","","","","","","","1","0","0","0.3389252929","","0.2","0.8","0.4","0.6","","","","","0.252962458","0.176995917","0.513072369","0.3389252929","","","","","","","","76","L","3","","","137","main_expt",""
"","bandit","217","703666","0.0-178.0-0.0","19350277","wem/bandit_either_3","A52FUUEDGSZT9","either","1","310","","","","","","","0","0","1","0.2698753193","","0.2","0.8","0.4","0.6","","","","","0.3018696236","0.1460019238","0.5502636267","0.2698753193","","","","","","","","76","L","3","","","138","main_expt",""
"","bandit","218","705449","0.0-179.0-0.0","19350277","wem/bandit_either_3","A52FUUEDGSZT9","either","1","250","","","","","","","0","0","1","","0.2821570394","0.2","0.8","0.4","0.6","0.347353107","0.06707115951","0.4564922144","0.2821570394","","","","","","","","","","","","76","L","3","","","139","main_expt",""
"","bandit","219","707198","0.0-180.0-0.0","19350277","wem/bandit_either_3","A52FUUEDGSZT9","either","1","178","","","","","","","0","0","1","","0.4116013625","0.2","0.8","0.4","0.6","0.2477375586","0.1071331831","0.4116013625","0.3577533322","","","","","","","","","","","","75","K","2","","","140","main_expt",""
"","bandit","220","709023","0.0-181.0-0.0","19350277","wem/bandit_either_3","A52FUUEDGSZT9","either","1","277","","","","","","","0","0","1","0.1224459691","","0.2","0.8","0.4","0.6","","","","","0.2880826197","0.1224459691","0.4498847811","0.4250900652","","","","","","","","74","J","1","","","141","main_expt",""
"","bandit","221","710803","0.0-182.0-0.0","19350277","wem/bandit_either_3","A52FUUEDGSZT9","either","1","198","","","","","","","0","0","1","","0.2287108423","0.2","0.8","0.4","0.6","0.2287108423","0.1127900777","0.4822150968","0.3451055681","","","","","","","","","","","","72","H","0","img/none_selected.jpg","","142","main_expt",""
"","bandit","222","712525","0.0-183.0-0.0","19350277","wem/bandit_either_3","A52FUUEDGSZT9","either","1","182","","","","","","","0","1","0","","0.2096850542","0.2","0.8","0.4","0.6","0.2096850542","0.1736101882","0.513506041","0.4661026996","","","","","","","","","","","","72","H","0","img/none_selected.jpg","","143","main_expt",""
"","bandit","223","714344","0.0-184.0-0.0","19350277","wem/bandit_either_3","A52FUUEDGSZT9","either","1","276","","","","","","","0","0","1","","0.2214165798","0.2","0.8","0.4","0.6","0.2214165798","0.1231714597","0.556822441","0.4683168179","","","","","","","","","","","","72","H","0","img/none_selected.jpg","","144","main_expt",""
"","bandit","224","716166","0.0-185.0-0.0","19350277","wem/bandit_either_3","A52FUUEDGSZT9","either","1","265","","","","","","","0","0","1","","0.10514291","0.2","0.8","0.4","0.6","0.2412424024","0.10514291","0.5633269006","0.448697065","","","","","","","","","","","","74","J","1","","","145","main_expt",""
"","bandit","225","717886","0.0-186.0-0.0","19350277","wem/bandit_either_3","A52FUUEDGSZT9","either","1","159","","","","","","","0","1","0","","0.6482805244","0.2","0.8","0.4","0.6","0.1841611904","0.0972381369","0.6482805244","0.4560677512","","","","","","","","","","","","75","K","2","","","146","main_expt",""
"","bandit","226","719662","0.0-187.0-0.0","19350277","wem/bandit_either_3","A52FUUEDGSZT9","either","1","234","","","","","","","0","0","1","0.6036290043","","0.2","0.8","0.4","0.6","","","","","0.1577922033","0.1897119627","0.6036290043","0.513472809","","","","","","","","75","K","2","","","147","main_expt",""
"","bandit","227","721382","0.0-188.0-0.0","19350277","wem/bandit_either_3","A52FUUEDGSZT9","either","1","178","","","","","","","1","0","0","0.6110248825","","0.2","0.8","0.4","0.6","","","","","0.1663963597","0.1759094881","0.6110248825","0.3820674583","","","","","","","","75","K","2","","","148","main_expt",""
"","bandit","228","723204","0.0-189.0-0.0","19350277","wem/bandit_either_3","A52FUUEDGSZT9","either","1","260","","","","","","","0","1","0","","0.6453676348","0.2","0.8","0.4","0.6","0.319747154","0.2204336569","0.6453676348","0.3116557105","","","","","","","","","","","","75","K","2","","","149","main_expt",""
"","bandit","229","725023","0.0-190.0-0.0","19350277","wem/bandit_either_3","A52FUUEDGSZT9","either","1","269","","","","","","","1","0","0","0.66235511","","0.2","0.8","0.4","0.6","","","","","0.5410110608","0.2328853871","0.66235511","0.3039338698","","","","","","","","75","K","2","","","150","main_expt",""
"","bandit","230","727142","0.0-191.0-0.0","19350277","wem/bandit_either_3","A52FUUEDGSZT9","either","1","564","","","","","","","0","0","1","0.5547575852","","0.2","0.8","0.4","0.6","","","","","0.5584745132","0.2652525627","0.5547575852","0.3092958796","","","","","","","","75","K","2","","","151","main_expt",""
"","bandit","231","729100","0.0-192.0-0.0","19350277","wem/bandit_either_3","A52FUUEDGSZT9","either","1","404","","","","","","","1","0","0","0.5223098228","","0.2","0.8","0.4","0.6","","","","","0.5709378499","0.2654363334","0.5223098228","0.3097370874","","","","","","","","75","K","2","","","152","main_expt",""
"","bandit","232","731900","0.0-193.0-0.0","19350277","wem/bandit_either_3","A52FUUEDGSZT9","either","1","1231","","","","","","","0","0","1","","0.5137303037","0.2","0.8","0.4","0.6","0.6314515046","0.3505589273","0.5137303037","0.2955649657","","","","","","","","","","","","75","K","2","","","153","main_expt",""
"","bandit","233","734966","0.0-194.0-0.0","19350277","wem/bandit_either_3","A52FUUEDGSZT9","either","1","1509","","","","","","","1","0","0","0.5193194566","","0.2","0.8","0.4","0.6","","","","","0.6734276465","0.39889796","0.5193194566","0.221553637","","","","","","","","75","K","2","","","154","main_expt",""
"","bandit","234","737914","0.0-195.0-0.0","19350277","wem/bandit_either_3","A52FUUEDGSZT9","either","1","1402","","","","","","","0","0","1","","0.4736812385","0.2","0.8","0.4","0.6","0.7019144477","0.4202606707","0.4736812385","0.2231547498","","","","","","","","","","","","75","K","2","","","155","main_expt",""
"","bandit","235","740039","0.0-196.0-0.0","19350277","wem/bandit_either_3","A52FUUEDGSZT9","either","1","563","","","","","","","0","0","1","0.4616442501","","0.2","0.8","0.4","0.6","","","","","0.6695455193","0.4814159609","0.4616442501","0.2750957943","","","","","","","","75","K","2","","","156","main_expt",""
"","bandit","236","741833","0.0-197.0-0.0","19350277","wem/bandit_either_3","A52FUUEDGSZT9","either","1","246","","","","","","","0","0","1","0.2005793054","","0.2","0.8","0.4","0.6","","","","","0.6179864128","0.5316807058","0.5025740222","0.2005793054","","","","","","","","76","L","3","","","157","main_expt",""
"","bandit","237","743627","0.0-198.0-0.0","19350277","wem/bandit_either_3","A52FUUEDGSZT9","either","1","225","","","","","","","0","0","1","","0.7380689997","0.2","0.8","0.4","0.6","0.7380689997","0.5429668589","0.4548105643","0.2502080146","","","","","","","","","","","","72","H","0","img/none_selected.jpg","","158","main_expt",""
"","bandit","238","745328","0.0-199.0-0.0","19350277","wem/bandit_either_3","A52FUUEDGSZT9","either","1","155","","","","","","","1","0","0","0.5991419929","","0.2","0.8","0.4","0.6","","","","","0.7632184112","0.5991419929","0.4622667215","0.2729805177","","","","","","","","74","J","1","","","159","main_expt",""
"","bandit","239","747189","0.0-200.0-0.0","19350277","wem/bandit_either_3","A52FUUEDGSZT9","either","1","310","","","","","","","1","0","0","0.6480894682","","0.2","0.8","0.4","0.6","","","","","0.6917664031","0.6480894682","0.4600517474","0.2801697818","","","","","","","","74","J","1","","","160","main_expt",""
"","bandit","240","749406","0.0-201.0-0.0","19350277","wem/bandit_either_3","A52FUUEDGSZT9","either","1","667","","","","","","","1","0","0","0.6776161973","","0.2","0.8","0.4","0.6","","","","","0.7106531984","0.6776161973","0.481388234","0.2437938608","","","","","","","","74","J","1","","","161","main_expt",""
"","bandit","241","751335","0.0-202.0-0.0","19350277","wem/bandit_either_3","A52FUUEDGSZT9","either","1","332","","","","","","","1","0","0","0.7134031715","","0.2","0.8","0.4","0.6","","","","","0.809310282","0.7134031715","0.3850106192","0.2687553501","","","","","","","","74","J","1","","","162","main_expt",""
"","bandit","242","753378","0.0-203.0-0.0","19350277","wem/bandit_either_3","A52FUUEDGSZT9","either","1","508","","","","","","","0","1","0","","0.6215635068","0.2","0.8","0.4","0.6","0.7492875705","0.6215635068","0.3498723973","0.245991677","","","","","","","","","","","","74","J","1","","","163","main_expt",""
"","bandit","243","755274","0.0-204.0-0.0","19350277","wem/bandit_either_3","A52FUUEDGSZT9","either","1","357","","","","","","","1","0","0","0.5219240024","","0.2","0.8","0.4","0.6","","","","","0.7561394707","0.5219240024","0.4287417444","0.270385563","","","","","","","","74","J","1","","","164","main_expt",""
"","bandit","244","757501","0.0-205.0-0.0","19350277","wem/bandit_either_3","A52FUUEDGSZT9","either","1","669","","","","","","","0","0","1","0.4727302842","","0.2","0.8","0.4","0.6","","","","","0.8111415702","0.4727302842","0.3150145745","0.3037855967","","","","","","","","74","J","1","","","165","main_expt",""
"","bandit","245","759623","0.0-206.0-0.0","19350277","wem/bandit_either_3","A52FUUEDGSZT9","either","1","551","","","","","","","1","0","0","0.5181018645","","0.2","0.8","0.4","0.6","","","","","0.7759938205","0.5181018645","0.2927018344","0.3395577104","","","","","","","","74","J","1","","","166","main_expt",""
"","bandit","246","761500","0.0-207.0-0.0","19350277","wem/bandit_either_3","A52FUUEDGSZT9","either","1","327","","","","","","","0","1","0","","0.5280433419","0.2","0.8","0.4","0.6","0.8267633335","0.5280433419","0.3610256338","0.3443901906","","","","","","","","","","","","74","J","1","","","167","main_expt",""
"","bandit","247","764060","0.0-208.0-0.0","19350277","wem/bandit_either_3","A52FUUEDGSZT9","either","1","987","","","","","","","0","0","1","","0.5470010145","0.2","0.8","0.4","0.6","0.8136073627","0.5470010145","0.3137127159","0.2552323567","","","","","","","","","","","","74","J","1","","","168","main_expt",""
"","bandit","248","766084","0.0-209.0-0.0","19350277","wem/bandit_either_3","A52FUUEDGSZT9","either","1","492","","","","","","","1","0","0","0.5558845962","","0.2","0.8","0.4","0.6","","","","","0.7308533614","0.5558845962","0.2292796242","0.289352286","","","","","","","","74","J","1","","","169","main_expt",""
"","bandit","249","768007","0.0-210.0-0.0","19350277","wem/bandit_either_3","A52FUUEDGSZT9","either","1","382","","","","","","","1","0","0","0.5799309324","","0.2","0.8","0.4","0.6","","","","","0.7090730391","0.5799309324","0.221948569","0.2262743404","","","","","","","","74","J","1","","","170","main_expt",""
"","bandit","250","770005","0.0-211.0-0.0","19350277","wem/bandit_either_3","A52FUUEDGSZT9","either","1","450","","","","","","","0","1","0","","0.6643953266","0.2","0.8","0.4","0.6","0.7229684446","0.6643953266","0.159615594","0.2644351609","","","","","","","","","","","","74","J","1","","","171","main_expt",""
"","bandit","251","771815","0.0-212.0-0.0","19350277","wem/bandit_either_3","A52FUUEDGSZT9","either","1","264","","","","","","","1","0","0","0.7610666705","","0.2","0.8","0.4","0.6","","","","","0.6612043244","0.7610666705","0.1303854457","0.4136296373","","","","","","","","74","J","1","","","172","main_expt",""
"","bandit","252","774326","0.0-213.0-0.0","19350277","wem/bandit_either_3","A52FUUEDGSZT9","either","1","971","","","","","","","1","0","0","0.8006149786","","0.2","0.8","0.4","0.6","","","","","0.7669021743","0.8006149786","0.07729024622","0.491318492","","","","","","","","74","J","1","","","173","main_expt",""
"","bandit","253","776489","0.0-214.0-0.0","19350277","wem/bandit_either_3","A52FUUEDGSZT9","either","1","624","","","","","","","1","0","0","0.791095403","","0.2","0.8","0.4","0.6","","","","","0.8111867287","0.791095403","0.1227026474","0.4966763124","","","","","","","","74","J","1","","","174","main_expt",""
"","bandit","254","778961","0.0-215.0-0.0","19350277","wem/bandit_either_3","A52FUUEDGSZT9","either","1","913","","","","","","","1","0","0","0.8572088762","","0.2","0.8","0.4","0.6","","","","","0.8192498968","0.8572088762","0.09483306355","0.5109350621","","","","","","","","74","J","1","","","175","main_expt",""
"","bandit","255","781371","0.0-216.0-0.0","19350277","wem/bandit_either_3","A52FUUEDGSZT9","either","1","875","","","","","","","0","1","0","","0.8576080684","0.2","0.8","0.4","0.6","0.8371283275","0.8576080684","0.143069758","0.6321295754","","","","","","","","","","","","74","J","1","","","176","main_expt",""
"","bandit","256","783737","0.0-217.0-0.0","19350277","wem/bandit_either_3","A52FUUEDGSZT9","either","1","824","","","","","","","1","0","0","0.8678158231","","0.2","0.8","0.4","0.6","","","","","0.8545140947","0.8678158231","0.1741656422","0.5515755996","","","","","","","","74","J","1","","","177","main_expt",""
"","bandit","257","786562","0.0-218.0-0.0","19350277","wem/bandit_either_3","A52FUUEDGSZT9","either","1","1258","","","","","","","1","0","0","0.8820542777","","0.2","0.8","0.4","0.6","","","","","0.8794893657","0.8820542777","0.1904086474","0.5086275016","","","","","","","","74","J","1","","","178","main_expt",""
"","bandit","258","789220","0.0-219.0-0.0","19350277","wem/bandit_either_3","A52FUUEDGSZT9","either","1","1127","","","","","","","1","0","0","0.8907334788","","0.2","0.8","0.4","0.6","","","","","0.8939587296","0.8907334788","0.1778905233","0.5215192908","","","","","","","","74","J","1","","","179","main_expt",""
"","bandit","259","791485","0.0-220.0-0.0","19350277","wem/bandit_either_3","A52FUUEDGSZT9","either","1","717","","","","","","","1","0","0","0.9161653667","","0.2","0.8","0.4","0.6","","","","","0.868077767","0.9161653667","0.2112817454","0.5193414217","","","","","","","","74","J","1","","","180","main_expt",""
"","bandit","260","793937","0.0-221.0-0.0","19350277","wem/bandit_either_3","A52FUUEDGSZT9","either","1","913","","","","","","","1","0","0","0.9327112184","","0.2","0.8","0.4","0.6","","","","","0.9295405476","0.9327112184","0.2236312472","0.4613460131","","","","","","","","74","J","1","","","181","main_expt",""
"","bandit","261","796295","0.0-222.0-0.0","19350277","wem/bandit_either_3","A52FUUEDGSZT9","either","1","812","","","","","","","1","0","0","0.9284398706","","0.2","0.8","0.4","0.6","","","","","0.9213574857","0.9284398706","0.264467441","0.4468633868","","","","","","","","74","J","1","","","182","main_expt",""
"","bandit","262","798511","0.0-223.0-0.0","19350277","wem/bandit_either_3","A52FUUEDGSZT9","either","1","647","","","","","","","0","0","1","0.89591471","","0.2","0.8","0.4","0.6","","","","","0.9374560388","0.89591471","0.2240632979","0.4985091709","","","","","","","","74","J","1","","","183","main_expt",""
"","bandit","263","800841","0.0-224.0-0.0","19350277","wem/bandit_either_3","A52FUUEDGSZT9","either","1","790","","","","","","","1","0","0","0.9146434193","","0.2","0.8","0.4","0.6","","","","","0.9120054929","0.9146434193","0.1671404848","0.6057575335","","","","","","","","74","J","1","","","184","main_expt",""
"","bandit","264","803761","0.0-225.0-0.0","19350277","wem/bandit_either_3","A52FUUEDGSZT9","either","1","1384","","","","","","","1","0","0","0.8575823977","","0.2","0.8","0.4","0.6","","","","","0.8428471033","0.8575823977","0.1932257563","0.4915456485","","","","","","","","74","J","1","","","185","main_expt",""
"","bandit","265","807136","0.0-226.0-0.0","19350277","wem/bandit_either_3","A52FUUEDGSZT9","either","1","1839","","","","","","","1","0","0","0.8487952361","","0.2","0.8","0.4","0.6","","","","","0.7734335662","0.8487952361","0.155472597","0.5976273718","","","","","","","","74","J","1","","","186","main_expt",""
"","bandit","266","810919","0.0-227.0-0.0","19350277","wem/bandit_either_3","A52FUUEDGSZT9","either","1","2236","","","","","","","1","0","0","0.8603972339","","0.2","0.8","0.4","0.6","","","","","0.7667319261","0.8603972339","0.1895871356","0.5743595779","","","","","","","","74","J","1","","","187","main_expt",""
"","bandit","267","814632","0.0-228.0-0.0","19350277","wem/bandit_either_3","A52FUUEDGSZT9","either","1","2163","","","","","","","1","0","0","0.8834510925","","0.2","0.8","0.4","0.6","","","","","0.5945875292","0.8834510925","0.2119556673","0.6833173747","","","","","","","","74","J","1","","","188","main_expt",""
"","bandit","268","816563","0.0-229.0-0.0","19350277","wem/bandit_either_3","A52FUUEDGSZT9","either","1","383","","","","","","","0","1","0","","0.8973947779","0.2","0.8","0.4","0.6","0.7406569186","0.8973947779","0.2255007403","0.651089354","","","","","","","","","","","","74","J","1","","","189","main_expt",""
"","bandit","269","818447","0.0-230.0-0.0","19350277","wem/bandit_either_3","A52FUUEDGSZT9","either","1","335","","","","","","","1","0","0","0.8824587855","","0.2","0.8","0.4","0.6","","","","","0.7371931777","0.8824587855","0.1754842532","0.6599652607","","","","","","","","74","J","1","","","190","main_expt",""
"","bandit","270","820348","0.0-231.0-0.0","19350277","wem/bandit_either_3","A52FUUEDGSZT9","either","1","331","","","","","","","0","1","0","","0.9076431997","0.2","0.8","0.4","0.6","0.7019705866","0.9076431997","0.1936311571","0.6960236584","","","","","","","","","","","","74","J","1","","","191","main_expt",""
"","bandit","271","822359","0.0-232.0-0.0","19350277","wem/bandit_either_3","A52FUUEDGSZT9","either","1","458","","","","","","","1","0","0","0.8673165995","","0.2","0.8","0.4","0.6","","","","","0.6198122665","0.8673165995","0.215612591","0.6713911156","","","","","","","","74","J","1","","","192","main_expt",""
"","bandit","272","824301","0.0-233.0-0.0","19350277","wem/bandit_either_3","A52FUUEDGSZT9","either","1","403","","","","","","","1","0","0","0.8264401474","","0.2","0.8","0.4","0.6","","","","","0.6100930929","0.8264401474","0.2818734505","0.7244072205","","","","","","","","74","J","1","","","193","main_expt",""
"","bandit","273","826431","0.0-234.0-0.0","19350277","wem/bandit_either_3","A52FUUEDGSZT9","either","1","562","","","","","","","1","0","0","0.8546086414","","0.2","0.8","0.4","0.6","","","","","0.6332739585","0.8546086414","0.3616108755","0.7397798508","","","","","","","","74","J","1","","","194","main_expt",""
"","bandit","274","828584","0.0-235.0-0.0","19350277","wem/bandit_either_3","A52FUUEDGSZT9","either","1","605","","","","","","","1","0","0","0.7914914872","","0.2","0.8","0.4","0.6","","","","","0.609207161","0.7914914872","0.3979961615","0.7602069811","","","","","","","","74","J","1","","","195","main_expt",""
"","bandit","275","830637","0.0-236.0-0.0","19350277","wem/bandit_either_3","A52FUUEDGSZT9","either","1","498","","","","","","","0","0","1","0.7608346536","","0.2","0.8","0.4","0.6","","","","","0.6560649547","0.7608346536","0.4366641927","0.7114092524","","","","","","","","74","J","1","","","196","main_expt",""
"","bandit","276","832619","0.0-237.0-0.0","19350277","wem/bandit_either_3","A52FUUEDGSZT9","either","1","437","","","","","","","1","0","0","0.7003784325","","0.2","0.8","0.4","0.6","","","","","0.6656533059","0.7003784325","0.560782874","0.6917424169","","","","","","","","74","J","1","","","197","main_expt",""
"","bandit","277","834580","0.0-238.0-0.0","19350277","wem/bandit_either_3","A52FUUEDGSZT9","either","1","394","","","","","","","1","0","0","0.6036075577","","0.2","0.8","0.4","0.6","","","","","0.6841747727","0.6036075577","0.5649388288","0.6561069913","","","","","","","","74","J","1","","","198","main_expt",""
"","bandit","278","836496","0.0-239.0-0.0","19350277","wem/bandit_either_3","A52FUUEDGSZT9","either","1","357","","","","","","","1","0","0","0.5843314555","","0.2","0.8","0.4","0.6","","","","","0.7105065455","0.5843314555","0.5375892324","0.6948346643","","","","","","","","74","J","1","","","199","main_expt",""
"","bandit","279","838786","0.0-240.0-0.0","19350277","wem/bandit_either_3","A52FUUEDGSZT9","either","1","742","","","","","","","0","0","1","0.539414212","","0.2","0.8","0.4","0.6","","","","","0.7380433654","0.539414212","0.5625167851","0.7369743936","","","","","","","","74","J","1","","","200","main_expt",""
"","bandit","280","840709","0.0-241.0-0.0","19350277","wem/bandit_either_3","A52FUUEDGSZT9","either","1","385","","","","","","","1","0","0","0.3774065742","","0.2","0.8","0.4","0.6","","","","","0.6432951689","0.3774065742","0.6266810217","0.8347268415","","","","","","","","74","J","1","","","201","main_expt",""
"","bandit","281","842848","0.0-242.0-0.0","19350277","wem/bandit_either_3","A52FUUEDGSZT9","either","1","578","","","","","","","0","0","1","0.2824615609","","0.2","0.8","0.4","0.6","","","","","0.4995879772","0.2824615609","0.6661075828","0.7612264534","","","","","","","","74","J","1","","","202","main_expt",""
"","bandit","282","844850","0.0-243.0-0.0","19350277","wem/bandit_either_3","A52FUUEDGSZT9","either","1","455","","","","","","","0","0","1","0.210170224","","0.2","0.8","0.4","0.6","","","","","0.4767352753","0.210170224","0.7534099026","0.6904596671","","","","","","","","74","J","1","","","203","main_expt",""
"","bandit","283","846552","0.0-244.0-0.0","19350277","wem/bandit_either_3","A52FUUEDGSZT9","either","1","142","","","","","","","0","1","0","","0.7033522103","0.2","0.8","0.4","0.6","0.3680612217","0.2708138581","0.7033522103","0.6855485072","","","","","","","","","","","","75","K","2","","","204","main_expt",""
"","bandit","284","848388","0.0-245.0-0.0","19350277","wem/bandit_either_3","A52FUUEDGSZT9","either","1","288","","","","","","","1","0","0","0.6105989365","","0.2","0.8","0.4","0.6","","","","","0.3404512965","0.3319820794","0.6105989365","0.7006332368","","","","","","","","75","K","2","","","205","main_expt",""
"","bandit","285","850426","0.0-246.0-0.0","19350277","wem/bandit_either_3","A52FUUEDGSZT9","either","1","479","","","","","","","1","0","0","0.725137222","","0.2","0.8","0.4","0.6","","","","","0.2774568564","0.3517339603","0.725137222","0.7533130943","","","","","","","","75","K","2","","","206","main_expt",""
"","bandit","286","852417","0.0-247.0-0.0","19350277","wem/bandit_either_3","A52FUUEDGSZT9","either","1","441","","","","","","","1","0","0","0.5888984072","","0.2","0.8","0.4","0.6","","","","","0.2228883469","0.2871079035","0.5888984072","0.7191760557","","","","","","","","75","K","2","","","207","main_expt",""
"","bandit","287","854361","0.0-248.0-0.0","19350277","wem/bandit_either_3","A52FUUEDGSZT9","either","1","394","","","","","","","0","0","1","","0.4650323514","0.2","0.8","0.4","0.6","0.2829247412","0.2642306377","0.4650323514","0.6264293856","","","","","","","","","","","","75","K","2","","","208","main_expt",""
"","bandit","288","856167","0.0-249.0-0.0","19350277","wem/bandit_either_3","A52FUUEDGSZT9","either","1","243","","","","","","","0","0","1","0.4100719568","","0.2","0.8","0.4","0.6","","","","","0.3169104167","0.3587725811","0.4100719568","0.6500478562","","","","","","","","75","K","2","","","209","main_expt",""
"","bandit","289","858001","0.0-250.0-0.0","19350277","wem/bandit_either_3","A52FUUEDGSZT9","either","1","286","","","","","","","0","1","0","","0.6498865343","0.2","0.8","0.4","0.6","0.2090062306","0.3103342645","0.5177296744","0.6498865343","","","","","","","","","","","","76","L","3","","","210","main_expt",""
"","bandit","290","859820","0.0-251.0-0.0","19350277","wem/bandit_either_3","A52FUUEDGSZT9","either","1","277","","","","","","","0","1","0","","0.6056301442","0.2","0.8","0.4","0.6","0.1481662818","0.3760595068","0.5950812693","0.6056301442","","","","","","","","","","","","76","L","3","","","211","main_expt",""
"","bandit","291","861817","0.0-252.0-0.0","19350277","wem/bandit_either_3","A52FUUEDGSZT9","either","1","445","","","","","","","0","0","1","0.5524844402","","0.2","0.8","0.4","0.6","","","","","0.2114888193","0.447023013","0.7169745983","0.5524844402","","","","","","","","76","L","3","","","212","main_expt",""
"","bandit","292","863761","0.0-253.0-0.0","19350277","wem/bandit_either_3","A52FUUEDGSZT9","either","1","397","","","","","","","0","0","1","0.6984249358","","0.2","0.8","0.4","0.6","","","","","0.2234642754","0.4529182837","0.6766124197","0.6984249358","","","","","","","","76","L","3","","","213","main_expt",""
"","bandit","293","865555","0.0-254.0-0.0","19350277","wem/bandit_either_3","A52FUUEDGSZT9","either","1","222","","","","","","","0","1","0","","0.2315139555","0.2","0.8","0.4","0.6","0.2315139555","0.4306534983","0.8005648136","0.5996975418","","","","","","","","","","","","72","H","0","img/none_selected.jpg","","214","main_expt",""
"","bandit","294","867327","0.0-255.0-0.0","19350277","wem/bandit_either_3","A52FUUEDGSZT9","either","1","230","","","","","","","0","0","1","","0.1949488974","0.2","0.8","0.4","0.6","0.1949488974","0.4314469479","0.8487964291","0.6067129047","","","","","","","","","","","","72","H","0","img/none_selected.jpg","","215","main_expt",""
"","bandit","295","869324","0.0-256.0-0.0","19350277","wem/bandit_either_3","A52FUUEDGSZT9","either","1","442","","","","","","","0","0","1","","0.2333303883","0.2","0.8","0.4","0.6","0.2333303883","0.45439575","0.8674123454","0.6297976658","","","","","","","","","","","","72","H","0","img/none_selected.jpg","","216","main_expt",""
"","bandit","296","871036","0.0-257.0-0.0","19350277","wem/bandit_either_3","A52FUUEDGSZT9","either","1","162","","","","","","","0","0","1","","0.5228861726","0.2","0.8","0.4","0.6","0.2027763819","0.5228861726","0.8774404243","0.6095272491","","","","","","","","","","","","74","J","1","","","217","main_expt",""
"","bandit","297","872796","0.0-258.0-0.0","19350277","wem/bandit_either_3","A52FUUEDGSZT9","either","1","211","","","","","","","0","1","0","","0.8836448068","0.2","0.8","0.4","0.6","0.1895874514","0.463703458","0.8836448068","0.7058099393","","","","","","","","","","","","75","K","2","","","218","main_expt",""
"","bandit","298","874610","0.0-259.0-0.0","19350277","wem/bandit_either_3","A52FUUEDGSZT9","either","1","266","","","","","","","0","0","1","","0.880498508","0.2","0.8","0.4","0.6","0.1537120117","0.4522864467","0.880498508","0.7396246451","","","","","","","","","","","","75","K","2","","","219","main_expt",""
"","bandit","299","876418","0.0-260.0-0.0","19350277","wem/bandit_either_3","A52FUUEDGSZT9","either","1","244","","","","","","","0","1","0","","0.8740874997","0.2","0.8","0.4","0.6","0.2022747423","0.4561576612","0.8740874997","0.7091968036","","","","","","","","","","","","75","K","2","","","220","main_expt",""
"","bandit","300","878104","0.0-261.0-0.0","19350277","wem/bandit_either_3","A52FUUEDGSZT9","either","1","114","","","","","","","1","0","0","0.8527830905","","0.2","0.8","0.4","0.6","","","","","0.3174413427","0.4264657168","0.8527830905","0.7116308873","","","","","","","","75","K","2","","","221","main_expt",""
"","bandit","301","879970","0.0-262.0-0.0","19350277","wem/bandit_either_3","A52FUUEDGSZT9","either","1","315","","","","","","","1","0","0","0.7717907476","","0.2","0.8","0.4","0.6","","","","","0.2315667073","0.3055141729","0.7717907476","0.769465391","","","","","","","","75","K","2","","","222","main_expt",""
"","bandit","302","881751","0.0-263.0-0.0","19350277","wem/bandit_either_3","A52FUUEDGSZT9","either","1","229","","","","","","","0","1","0","","0.8359700354","0.2","0.8","0.4","0.6","0.2261006122","0.2868954791","0.8359700354","0.7509006974","","","","","","","","","","","","75","K","2","","","223","main_expt",""
"","bandit","303","883566","0.0-264.0-0.0","19350277","wem/bandit_either_3","A52FUUEDGSZT9","either","1","269","","","","","","","1","0","0","0.819670806","","0.2","0.8","0.4","0.6","","","","","0.2662378096","0.2698185242","0.819670806","0.7007688409","","","","","","","","75","K","2","","","224","main_expt",""
"","bandit","304","885542","0.0-265.0-0.0","19350277","wem/bandit_either_3","A52FUUEDGSZT9","either","1","420","","","","","","","0","1","0","","0.8512382749","0.2","0.8","0.4","0.6","0.2163280173","0.213842325","0.8512382749","0.7409020096","","","","","","","","","","","","75","K","2","","","225","main_expt",""
"","bandit","305","887339","0.0-266.0-0.0","19350277","wem/bandit_either_3","A52FUUEDGSZT9","either","1","237","","","","","","","1","0","0","0.8342861847","","0.2","0.8","0.4","0.6","","","","","0.2809353625","0.1616408491","0.8342861847","0.7052945704","","","","","","","","75","K","2","","","226","main_expt",""
"","bandit","306","889221","0.0-267.0-0.0","19350277","wem/bandit_either_3","A52FUUEDGSZT9","either","1","331","","","","","","","0","1","0","","0.7736041865","0.2","0.8","0.4","0.6","0.2396571279","0.1777599287","0.7736041865","0.606091252","","","","","","","","","","","","75","K","2","","","227","main_expt",""
"","bandit","307","891076","0.0-268.0-0.0","19350277","wem/bandit_either_3","A52FUUEDGSZT9","either","1","313","","","","","","","0","1","0","","0.8094350608","0.2","0.8","0.4","0.6","0.3430446928","0.2866543064","0.8094350608","0.5834203199","","","","","","","","","","","","75","K","2","","","228","main_expt",""
"","bandit","308","892827","0.0-269.0-0.0","19350277","wem/bandit_either_3","A52FUUEDGSZT9","either","1","212","","","","","","","1","0","0","0.8078722129","","0.2","0.8","0.4","0.6","","","","","0.2886233194","0.3948293382","0.8078722129","0.5466214007","","","","","","","","75","K","2","","","229","main_expt",""
"","bandit","309","894726","0.0-270.0-0.0","19350277","wem/bandit_either_3","A52FUUEDGSZT9","either","1","355","","","","","","","0","1","0","","0.7719043616","0.2","0.8","0.4","0.6","0.3213731463","0.3291786684","0.7719043616","0.5519014059","","","","","","","","","","","","75","K","2","","","230","main_expt",""
"","bandit","310","896629","0.0-271.0-0.0","19350277","wem/bandit_either_3","A52FUUEDGSZT9","either","1","361","","","","","","","0","1","0","","0.8049264475","0.2","0.8","0.4","0.6","0.2771614906","0.2378236032","0.8049264475","0.4527164215","","","","","","","","","","","","75","K","2","","","231","main_expt",""
"","bandit","311","898247","0.0-272.0-0.0","19350277","wem/bandit_either_3","A52FUUEDGSZT9","either","1","78","","","","","","","0","1","0","","0.8850589997","0.2","0.8","0.4","0.6","0.2249105956","0.246393804","0.8850589997","0.5135082398","","","","","","","","","","","","75","K","2","","","232","main_expt",""
"","bandit","312","900331","0.0-273.0-0.0","19350277","wem/bandit_either_3","A52FUUEDGSZT9","either","1","543","","","","","","","1","0","0","0.9183615156","","0.2","0.8","0.4","0.6","","","","","0.2447973041","0.2141634692","0.9183615156","0.5502454751","","","","","","","","75","K","2","","","233","main_expt",""
"","bandit","313","902256","0.0-274.0-0.0","19350277","wem/bandit_either_3","A52FUUEDGSZT9","either","1","379","","","","","","","1","0","0","0.9639410842","","0.2","0.8","0.4","0.6","","","","","0.24601643","0.2876436191","0.9639410842","0.3783923662","","","","","","","","75","K","2","","","234","main_expt",""
"","bandit","314","904101","0.0-275.0-0.0","19350277","wem/bandit_either_3","A52FUUEDGSZT9","either","1","312","","","","","","","0","1","0","","0.9697187448","0.2","0.8","0.4","0.6","0.1629844561","0.2769077257","0.9697187448","0.2814299379","","","","","","","","","","","","75","K","2","","","235","main_expt",""
"","bandit","315","905966","0.0-276.0-0.0","19350277","wem/bandit_either_3","A52FUUEDGSZT9","either","1","314","","","","","","","0","1","0","","0.9571573523","0.2","0.8","0.4","0.6","0.1929455839","0.136865198","0.9571573523","0.3106100538","","","","","","","","","","","","75","K","2","","","236","main_expt",""
"","bandit","316","907885","0.0-277.0-0.0","19350277","wem/bandit_either_3","A52FUUEDGSZT9","either","1","372","","","","","","","0","1","0","","0.9170696074","0.2","0.8","0.4","0.6","0.1497712966","0.1123790732","0.9170696074","0.3152445528","","","","","","","","","","","","75","K","2","","","237","main_expt",""
"","bandit","317","909719","0.0-278.0-0.0","19350277","wem/bandit_either_3","A52FUUEDGSZT9","either","1","305","","","","","","","0","1","0","","0.9207491077","0.2","0.8","0.4","0.6","0.1526491196","0.09027024906","0.9207491077","0.2637175197","","","","","","","","","","","","75","K","2","","","238","main_expt",""
"","bandit","318","911780","0.0-279.0-0.0","19350277","wem/bandit_either_3","A52FUUEDGSZT9","either","1","527","","","","","","","1","0","0","0.9211301165","","0.2","0.8","0.4","0.6","","","","","0.1745924244","0.08323179304","0.9211301165","0.1889878372","","","","","","","","75","K","2","","","239","main_expt",""
"","bandit","319","913693","0.0-280.0-0.0","19350277","wem/bandit_either_3","A52FUUEDGSZT9","either","1","365","","","","","","","0","1","0","","0.8992774771","0.2","0.8","0.4","0.6","0.1159399908","0.08130265934","0.8992774771","0.1710885746","","","","","","","","","","","","75","K","2","","","240","main_expt",""
"","bandit","320","915629","0.0-281.0-0.0","19350277","wem/bandit_either_3","A52FUUEDGSZT9","either","1","385","","","","","","","0","1","0","","0.8977441673","0.2","0.8","0.4","0.6","0.1682101231","0.1424736114","0.8977441673","0.1232632504","","","","","","","","","","","","75","K","2","","","241","main_expt",""
"","bandit","321","917566","0.0-282.0-0.0","19350277","wem/bandit_either_3","A52FUUEDGSZT9","either","1","400","","","","","","","1","0","0","0.853076495","","0.2","0.8","0.4","0.6","","","","","0.1643169396","0.2433221762","0.853076495","0.210295675","","","","","","","","75","K","2","","","242","main_expt",""
"","bandit","322","919759","0.0-283.0-0.0","19350277","wem/bandit_either_3","A52FUUEDGSZT9","either","1","643","","","","","","","0","1","0","","0.8942427246","0.2","0.8","0.4","0.6","0.1355776028","0.3185073654","0.8942427246","0.289349801","","","","","","","","","","","","75","K","2","","","243","main_expt",""
"","bandit","323","921628","0.0-284.0-0.0","19350277","wem/bandit_either_3","A52FUUEDGSZT9","either","1","311","","","","","","","0","1","0","","0.8701402288","0.2","0.8","0.4","0.6","0.1311829495","0.3533170098","0.8701402288","0.4071614743","","","","","","","","","","","","75","K","2","","","244","main_expt",""
