"consent","trial_type","trial_index","time_elapsed","internal_node_id","subjID","study","MID","cond","drift","rt","responses","key_press","expt_phase","like","value","connected","gems","bombs","no_reward","GemPrChosen","BombPrChosen","GainOverPainPr_0","GainOverPainPr_1","GainOverPainPr_2","GainOverPainPr_3","LosePr_0","LosePr_1","LosePr_2","LosePr_3","WinPr_0","WinPr_1","WinPr_2","WinPr_3","Q0","Q1","Q2","gender","age","ethnicity","target","respCharCode","respKey","respChoiceNum","respChoice","practice","trial_counter","trial_label","button_pressed"
"INL_behavioral_consent_30min_online.html","consent","0","12104","0.0-0.0","20757599","wem/bandit_either_3","A1VC85P4XYKS4D","either","7","","","","","","","","","","","","","","","","","","","","","","","","","","","","","","","","","","","","","","",""
"","survey-text","1","16107","0.0-1.0","20757599","wem/bandit_either_3","A1VC85P4XYKS4D","either","7","2995","{""Q0"":""A1VC85P4XYKS4D""}","","","","","","","","","","","","","","","","","","","","","","","","","","","","","","","","","","","","",""
"","text","2","68029","0.0-2.0","20757599","wem/bandit_either_3","A1VC85P4XYKS4D","either","7","50917","","32","","","","","","","","","","","","","","","","","","","","","","","","","","","","","","","","","","","",""
"","text","3","81762","0.0-3.0","20757599","wem/bandit_either_3","A1VC85P4XYKS4D","either","7","13731","","32","","","","","","","","","","","","","","","","","","","","","","","","","","","","","","","","","","","",""
"","text","4","90616","0.0-4.0","20757599","wem/bandit_either_3","A1VC85P4XYKS4D","either","7","8853","","32","","","","","","","","","","","","","","","","","","","","","","","","","","","","","","","","","","","",""
"","text","5","95273","0.0-5.0","20757599","wem/bandit_either_3","A1VC85P4XYKS4D","either","7","4655","","32","","","","","","","","","","","","","","","","","","","","","","","","","","","","","","","","","","","",""
"","text","6","97482","0.0-6.0","20757599","wem/bandit_either_3","A1VC85P4XYKS4D","either","7","2204","","32","","","","","","","","","","","","","","","","","","","","","","","","","","","","","","","","","","","",""
"","text","7","104930","0.0-7.0","20757599","wem/bandit_either_3","A1VC85P4XYKS4D","either","7","7446","","32","","","","","","","","","","","","","","","","","","","","","","","","","","","","","","","","","","","",""
"","text","8","111497","0.0-8.0","20757599","wem/bandit_either_3","A1VC85P4XYKS4D","either","7","6565","","32","","","","","","","","","","","","","","","","","","","","","","","","","","","","","","","","","","","",""
"","identification","9","171007","0.0-9.0-0.0","20757599","wem/bandit_either_3","A1VC85P4XYKS4D","either","7","59475","","","","6","5","5","","","","","","","","","","","","","","","","","","","","","","","","the village of Zur","","","","","","","",""
"","identification","10","180323","0.0-9.0-1.0","20757599","wem/bandit_either_3","A1VC85P4XYKS4D","either","7","8304","","","","1","1","1","","","","","","","","","","","","","","","","","","","","","","","","the village of Nyx","","","","","","","",""
"","text","11","190906","0.0-10.0","20757599","wem/bandit_either_3","A1VC85P4XYKS4D","either","7","9579","","32","","","","","","","","","","","","","","","","","","","","","","","","","","","","","","","","","","","",""
"","text","12","193778","0.0-11.0","20757599","wem/bandit_either_3","A1VC85P4XYKS4D","either","7","2869","","32","","","","","","","","","","","","","","","","","","","","","","","","","","","","","","","","","","","",""
"","text","13","197274","0.0-12.0","20757599","wem/bandit_either_3","A1VC85P4XYKS4D","either","7","3494","","32","","","","","","","","","","","","","","","","","","","","","","","","","","","","","","","","","","","",""
"","text","14","200393","0.0-13.0","20757599","wem/bandit_either_3","A1VC85P4XYKS4D","either","7","3116","","32","","","","","","","","","","","","","","","","","","","","","","","","","","","","","","","","","","","",""
"","bandit","15","206725","0.0-14.0-0.0","20757599","wem/bandit_either_3","A1VC85P4XYKS4D","either","7","4817","","","","","","","0","0","1","0","0","","","","","0","","","","0","","","","","","","","","","","74","J","0","img/none_selected_demo.jpg","true","0","",""
"","bandit","16","209378","0.0-15.0-0.0","20757599","wem/bandit_either_3","A1VC85P4XYKS4D","either","7","1144","","","","","","","0","0","1","0","0","","","","","0","","","","0","","","","","","","","","","","75","K","0","img/none_selected_demo.jpg","true","0","",""
"","text","17","211315","0.0-16.0","20757599","wem/bandit_either_3","A1VC85P4XYKS4D","either","7","1934","","32","","","","","","","","","","","","","","","","","","","","","","","","","","","","","","","","","","","",""
"","text","18","218608","0.0-17.0","20757599","wem/bandit_either_3","A1VC85P4XYKS4D","either","7","7292","","32","","","","","","","","","","","","","","","","","","","","","","","","","","","","","","","","","","","",""
"","text","19","228737","0.0-18.0","20757599","wem/bandit_either_3","A1VC85P4XYKS4D","either","7","10129","","32","","","","","","","","","","","","","","","","","","","","","","","","","","","","","","","","","","","",""
"","text","20","231723","0.0-19.0","20757599","wem/bandit_either_3","A1VC85P4XYKS4D","either","7","2981","","32","","","","","","","","","","","","","","","","","","","","","","","","","","","","","","","","","","","",""
"","bandit","21","234818","0.0-20.0-0.0","20757599","wem/bandit_either_3","A1VC85P4XYKS4D","either","7","1586","","","","","","","0","1","0","","0.8","0.5","0.5","","","0.8","0.2","","","","","","","","","","","","","","74","J","0","img/none_selected_demo.jpg","true","0","80_20_practice",""
"","bandit","22","236786","0.0-20.0-1.0","20757599","wem/bandit_either_3","A1VC85P4XYKS4D","either","7","458","","","","","","","0","0","1","0.2","","0.5","0.5","","","","","","","0.8","0.2","","","","","","","","","","75","K","1","","true","0","80_20_practice",""
"","bandit","23","238625","0.0-20.0-2.0","20757599","wem/bandit_either_3","A1VC85P4XYKS4D","either","7","330","","","","","","","0","0","1","","0.8","0.5","0.5","","","0.8","0.2","","","","","","","","","","","","","","74","J","0","img/none_selected_demo.jpg","true","0","80_20_practice",""
"","bandit","24","240475","0.0-20.0-3.0","20757599","wem/bandit_either_3","A1VC85P4XYKS4D","either","7","340","","","","","","","0","0","1","0.2","","0.5","0.5","","","","","","","0.8","0.2","","","","","","","","","","75","K","1","","true","0","80_20_practice",""
"","bandit","25","242185","0.0-20.0-4.0","20757599","wem/bandit_either_3","A1VC85P4XYKS4D","either","7","202","","","","","","","0","0","1","0.2","","0.5","0.5","","","","","","","0.8","0.2","","","","","","","","","","75","K","1","","true","0","80_20_practice",""
"","bandit","26","243858","0.0-20.0-5.0","20757599","wem/bandit_either_3","A1VC85P4XYKS4D","either","7","164","","","","","","","0","0","1","","0.8","0.5","0.5","","","0.8","0.2","","","","","","","","","","","","","","74","J","0","img/none_selected_demo.jpg","true","0","80_20_practice",""
"","bandit","27","245633","0.0-20.0-6.0","20757599","wem/bandit_either_3","A1VC85P4XYKS4D","either","7","266","","","","","","","1","0","0","0.8","","0.5","0.5","","","","","","","0.8","0.2","","","","","","","","","","74","J","0","img/none_selected_demo.jpg","true","0","80_20_practice",""
"","bandit","28","247506","0.0-20.0-7.0","20757599","wem/bandit_either_3","A1VC85P4XYKS4D","either","7","364","","","","","","","0","1","0","","0.8","0.5","0.5","","","0.8","0.2","","","","","","","","","","","","","","74","J","0","img/none_selected_demo.jpg","true","0","80_20_practice",""
"","bandit","29","249098","0.0-20.0-8.0","20757599","wem/bandit_either_3","A1VC85P4XYKS4D","either","7","82","","","","","","","0","0","1","","0.2","0.5","0.5","","","0.8","0.2","","","","","","","","","","","","","","75","K","1","","true","0","80_20_practice",""
"","bandit","30","251033","0.0-20.0-9.0","20757599","wem/bandit_either_3","A1VC85P4XYKS4D","either","7","427","","","","","","","0","1","0","","0.2","0.5","0.5","","","0.8","0.2","","","","","","","","","","","","","","75","K","1","","true","0","80_20_practice",""
"","bandit","31","252816","0.0-20.0-10.0","20757599","wem/bandit_either_3","A1VC85P4XYKS4D","either","7","275","","","","","","","0","0","1","0.2","","0.5","0.5","","","","","","","0.8","0.2","","","","","","","","","","75","K","1","","true","0","80_20_practice",""
"","bandit","32","254401","0.0-20.0-11.0","20757599","wem/bandit_either_3","A1VC85P4XYKS4D","either","7","76","","","","","","","0","1","0","","0.8","0.5","0.5","","","0.8","0.2","","","","","","","","","","","","","","74","J","0","img/none_selected_demo.jpg","true","0","80_20_practice",""
"","bandit","33","256160","0.0-20.0-12.0","20757599","wem/bandit_either_3","A1VC85P4XYKS4D","either","7","251","","","","","","","1","0","0","0.8","","0.5","0.5","","","","","","","0.8","0.2","","","","","","","","","","74","J","0","img/none_selected_demo.jpg","true","0","80_20_practice",""
"","bandit","34","257930","0.0-20.0-13.0","20757599","wem/bandit_either_3","A1VC85P4XYKS4D","either","7","260","","","","","","","1","0","0","0.8","","0.5","0.5","","","","","","","0.8","0.2","","","","","","","","","","74","J","0","img/none_selected_demo.jpg","true","0","80_20_practice",""
"","bandit","35","259657","0.0-20.0-14.0","20757599","wem/bandit_either_3","A1VC85P4XYKS4D","either","7","220","","","","","","","1","0","0","0.8","","0.5","0.5","","","","","","","0.8","0.2","","","","","","","","","","74","J","0","img/none_selected_demo.jpg","true","0","80_20_practice",""
"","bandit","36","261274","0.0-20.0-15.0","20757599","wem/bandit_either_3","A1VC85P4XYKS4D","either","7","109","","","","","","","0","1","0","","0.8","0.5","0.5","","","0.8","0.2","","","","","","","","","","","","","","74","J","0","img/none_selected_demo.jpg","true","0","80_20_practice",""
"","bandit","37","263905","0.0-20.0-16.0","20757599","wem/bandit_either_3","A1VC85P4XYKS4D","either","7","1126","","","","","","","1","0","0","0.8","","0.5","0.5","","","","","","","0.8","0.2","","","","","","","","","","74","J","0","img/none_selected_demo.jpg","true","0","80_20_practice",""
"","bandit","38","266282","0.0-20.0-17.0","20757599","wem/bandit_either_3","A1VC85P4XYKS4D","either","7","868","","","","","","","0","1","0","","0.8","0.5","0.5","","","0.8","0.2","","","","","","","","","","","","","","74","J","0","img/none_selected_demo.jpg","true","0","80_20_practice",""
"","bandit","39","268681","0.0-20.0-18.0","20757599","wem/bandit_either_3","A1VC85P4XYKS4D","either","7","892","","","","","","","0","1","0","","0.8","0.5","0.5","","","0.8","0.2","","","","","","","","","","","","","","74","J","0","img/none_selected_demo.jpg","true","0","80_20_practice",""
"","bandit","40","271442","0.0-20.0-19.0","20757599","wem/bandit_either_3","A1VC85P4XYKS4D","either","7","1252","","","","","","","0","1","0","","0.8","0.5","0.5","","","0.8","0.2","","","","","","","","","","","","","","74","J","0","img/none_selected_demo.jpg","true","0","80_20_practice",""
"","text","41","278139","0.0-21.0","20757599","wem/bandit_either_3","A1VC85P4XYKS4D","either","7","6693","","32","","","","","","","","","","","","","","","","","","","","","","","","","","","","","","","","","","","",""
"","bandit","42","280808","0.0-22.0-0.0","20757599","wem/bandit_either_3","A1VC85P4XYKS4D","either","7","1160","","","","","","","1","0","0","1","0","","","","","0","1","","","1","0","","","","","","","","","","74","J","0","img/none_selected_demo.jpg","true","0","",""
"","text","43","283753","0.0-23.0","20757599","wem/bandit_either_3","A1VC85P4XYKS4D","either","7","2943","","32","","","","","","","","","","","","","","","","","","","","","","","","","","","","","","","","","","","",""
"","text","44","285650","0.0-24.0","20757599","wem/bandit_either_3","A1VC85P4XYKS4D","either","7","1895","","32","","","","","","","","","","","","","","","","","","","","","","","","","","","","","","","","","","","",""
"","text","45","287202","0.0-25.0","20757599","wem/bandit_either_3","A1VC85P4XYKS4D","either","7","1549","","32","","","","","","","","","","","","","","","","","","","","","","","","","","","","","","","","","","","",""
"","text","46","288881","0.0-26.0","20757599","wem/bandit_either_3","A1VC85P4XYKS4D","either","7","1677","","32","","","","","","","","","","","","","","","","","","","","","","","","","","","","","","","","","","","",""
"","text","47","290457","0.0-27.0","20757599","wem/bandit_either_3","A1VC85P4XYKS4D","either","7","1573","","32","","","","","","","","","","","","","","","","","","","","","","","","","","","","","","","","","","","",""
"","text","48","291521","0.0-28.0","20757599","wem/bandit_either_3","A1VC85P4XYKS4D","either","7","1060","","32","","","","","","","","","","","","","","","","","","","","","","","","","","","","","","","","","","","",""
"","text","49","292442","0.0-29.0","20757599","wem/bandit_either_3","A1VC85P4XYKS4D","either","7","919","","32","","","","","","","","","","","","","","","","","","","","","","","","","","","","","","","","","","","",""
"","text","50","293362","0.0-30.0","20757599","wem/bandit_either_3","A1VC85P4XYKS4D","either","7","917","","32","","","","","","","","","","","","","","","","","","","","","","","","","","","","","","","","","","","",""
"","text","51","293914","0.0-31.0","20757599","wem/bandit_either_3","A1VC85P4XYKS4D","either","7","551","","32","","","","","","","","","","","","","","","","","","","","","","","","","","","","","","","","","","","",""
"","text","52","294506","0.0-32.0","20757599","wem/bandit_either_3","A1VC85P4XYKS4D","either","7","588","","32","","","","","","","","","","","","","","","","","","","","","","","","","","","","","","","","","","","",""
"","text","53","299010","0.0-33.0","20757599","wem/bandit_either_3","A1VC85P4XYKS4D","either","7","4501","","32","","","","","","","","","","","","","","","","","","","","","","","","","","","","","","","","","","","",""
"","bandit","54","304482","0.0-34.0-0.0","20757599","wem/bandit_either_3","A1VC85P4XYKS4D","either","7","3962","","","","","","","0","0","1","","0.6","0.5","0.5","0.5","0.5","0.8","0.2","0.6","0.2","","","","","","","","","","","","75","K","2","","true","0","full_practice",""
"","bandit","55","306442","0.0-34.0-1.0","20757599","wem/bandit_either_3","A1VC85P4XYKS4D","either","7","450","","","","","","","0","0","1","0.2","","0.5","0.5","0.5","0.5","","","","","0.8","0.2","0.6","0.2","","","","","","","","74","J","1","","true","0","full_practice",""
"","bandit","56","308113","0.0-34.0-2.0","20757599","wem/bandit_either_3","A1VC85P4XYKS4D","either","7","161","","","","","","","0","0","1","","0.2","0.5","0.5","0.5","0.5","0.8","0.2","0.6","0.2","","","","","","","","","","","","76","L","3","","true","0","full_practice",""
"","bandit","57","309944","0.0-34.0-3.0","20757599","wem/bandit_either_3","A1VC85P4XYKS4D","either","7","323","","","","","","","1","0","0","0.8","","0.5","0.5","0.5","0.5","","","","","0.8","0.2","0.6","0.2","","","","","","","","72","H","0","img/none_selected.jpg","true","0","full_practice",""
"","bandit","58","311738","0.0-34.0-4.0","20757599","wem/bandit_either_3","A1VC85P4XYKS4D","either","7","287","","","","","","","0","1","0","","0.8","0.5","0.5","0.5","0.5","0.8","0.2","0.6","0.2","","","","","","","","","","","","72","H","0","img/none_selected.jpg","true","0","full_practice",""
"","bandit","59","313520","0.0-34.0-5.0","20757599","wem/bandit_either_3","A1VC85P4XYKS4D","either","7","272","","","","","","","1","0","0","0.8","","0.5","0.5","0.5","0.5","","","","","0.8","0.2","0.6","0.2","","","","","","","","72","H","0","img/none_selected.jpg","true","0","full_practice",""
"","bandit","60","315274","0.0-34.0-6.0","20757599","wem/bandit_either_3","A1VC85P4XYKS4D","either","7","246","","","","","","","1","0","0","0.8","","0.5","0.5","0.5","0.5","","","","","0.8","0.2","0.6","0.2","","","","","","","","72","H","0","img/none_selected.jpg","true","0","full_practice",""
"","bandit","61","317032","0.0-34.0-7.0","20757599","wem/bandit_either_3","A1VC85P4XYKS4D","either","7","250","","","","","","","0","0","1","0.8","","0.5","0.5","0.5","0.5","","","","","0.8","0.2","0.6","0.2","","","","","","","","72","H","0","img/none_selected.jpg","true","0","full_practice",""
"","bandit","62","318754","0.0-34.0-8.0","20757599","wem/bandit_either_3","A1VC85P4XYKS4D","either","7","212","","","","","","","0","1","0","","0.8","0.5","0.5","0.5","0.5","0.8","0.2","0.6","0.2","","","","","","","","","","","","72","H","0","img/none_selected.jpg","true","0","full_practice",""
"","bandit","63","320353","0.0-34.0-9.0","20757599","wem/bandit_either_3","A1VC85P4XYKS4D","either","7","90","","","","","","","0","0","1","0.8","","0.5","0.5","0.5","0.5","","","","","0.8","0.2","0.6","0.2","","","","","","","","72","H","0","img/none_selected.jpg","true","0","full_practice",""
"","bandit","64","323616","0.0-34.0-10.0","20757599","wem/bandit_either_3","A1VC85P4XYKS4D","either","7","1758","","","","","","","1","0","0","0.2","","0.5","0.5","0.5","0.5","","","","","0.8","0.2","0.6","0.2","","","","","","","","74","J","1","","true","0","full_practice",""
"","bandit","65","325353","0.0-34.0-11.0","20757599","wem/bandit_either_3","A1VC85P4XYKS4D","either","7","227","","","","","","","1","0","0","0.6","","0.5","0.5","0.5","0.5","","","","","0.8","0.2","0.6","0.2","","","","","","","","75","K","2","","true","0","full_practice",""
"","bandit","66","327051","0.0-34.0-12.0","20757599","wem/bandit_either_3","A1VC85P4XYKS4D","either","7","187","","","","","","","0","0","1","","0.2","0.5","0.5","0.5","0.5","0.8","0.2","0.6","0.2","","","","","","","","","","","","74","J","1","","true","0","full_practice",""
"","bandit","67","328953","0.0-34.0-13.0","20757599","wem/bandit_either_3","A1VC85P4XYKS4D","either","7","397","","","","","","","1","0","0","0.6","","0.5","0.5","0.5","0.5","","","","","0.8","0.2","0.6","0.2","","","","","","","","75","K","2","","true","0","full_practice",""
"","bandit","68","331113","0.0-34.0-14.0","20757599","wem/bandit_either_3","A1VC85P4XYKS4D","either","7","650","","","","","","","0","0","1","","0.2","0.5","0.5","0.5","0.5","0.8","0.2","0.6","0.2","","","","","","","","","","","","76","L","3","","true","0","full_practice",""
"","bandit","69","333927","0.0-34.0-15.0","20757599","wem/bandit_either_3","A1VC85P4XYKS4D","either","7","1306","","","","","","","1","0","0","0.6","","0.5","0.5","0.5","0.5","","","","","0.8","0.2","0.6","0.2","","","","","","","","75","K","2","","true","0","full_practice",""
"","bandit","70","335929","0.0-34.0-16.0","20757599","wem/bandit_either_3","A1VC85P4XYKS4D","either","7","486","","","","","","","0","0","1","","0.6","0.5","0.5","0.5","0.5","0.8","0.2","0.6","0.2","","","","","","","","","","","","75","K","2","","true","0","full_practice",""
"","bandit","71","337594","0.0-34.0-17.0","20757599","wem/bandit_either_3","A1VC85P4XYKS4D","either","7","154","","","","","","","0","0","1","0.2","","0.5","0.5","0.5","0.5","","","","","0.8","0.2","0.6","0.2","","","","","","","","74","J","1","","true","0","full_practice",""
"","bandit","72","339393","0.0-34.0-18.0","20757599","wem/bandit_either_3","A1VC85P4XYKS4D","either","7","290","","","","","","","0","0","1","0.6","","0.5","0.5","0.5","0.5","","","","","0.8","0.2","0.6","0.2","","","","","","","","75","K","2","","true","0","full_practice",""
"","bandit","73","341233","0.0-34.0-19.0","20757599","wem/bandit_either_3","A1VC85P4XYKS4D","either","7","331","","","","","","","0","1","0","","0.8","0.5","0.5","0.5","0.5","0.8","0.2","0.6","0.2","","","","","","","","","","","","72","H","0","img/none_selected.jpg","true","0","full_practice",""
"","text","74","343400","0.0-35.0","20757599","wem/bandit_either_3","A1VC85P4XYKS4D","either","7","2157","","32","","","","","","","","","","","","","","","","","","","","","","","","","","","","","","","","","","","",""
"","text","75","352226","0.0-36.0","20757599","wem/bandit_either_3","A1VC85P4XYKS4D","either","7","7823","","32","","","","","","","","","","","","","","","","","","","","","","","","","","","","","","","","","","","",""
"","text","76","357746","0.0-37.0","20757599","wem/bandit_either_3","A1VC85P4XYKS4D","either","7","5515","","32","","","","","","","","","","","","","","","","","","","","","","","","","","","","","","","","","","","",""
"","text","77","362394","0.0-38.0","20757599","wem/bandit_either_3","A1VC85P4XYKS4D","either","7","4643","","32","","","","","","","","","","","","","","","","","","","","","","","","","","","","","","","","","","","",""
"","text","78","368138","0.0-39.0","20757599","wem/bandit_either_3","A1VC85P4XYKS4D","either","7","5739","","32","","","","","","","","","","","","","","","","","","","","","","","","","","","","","","","","","","","",""
"","text","79","371474","0.0-40.0","20757599","wem/bandit_either_3","A1VC85P4XYKS4D","either","7","3332","","32","","","","","","","","","","","","","","","","","","","","","","","","","","","","","","","","","","","",""
"","bandit","80","376137","0.0-41.0-0.0","20757599","wem/bandit_either_3","A1VC85P4XYKS4D","either","7","3153","","","","","","","0","1","0","","0.7088318221","0.8","0.4","0.6","0.2","0.5514722813","0.7088318221","0.2888626749","0.1731741302","","","","","","","","","","","","74","J","1","","","1","main_expt",""
"","bandit","81","378058","0.0-42.0-0.0","20757599","wem/bandit_either_3","A1VC85P4XYKS4D","either","7","414","","","","","","","1","0","0","0.6292935488","","0.8","0.4","0.6","0.2","","","","","0.5039303977","0.6292935488","0.3999538902","0.2874485847","","","","","","","","74","J","1","","","2","main_expt",""
"","bandit","82","380057","0.0-43.0-0.0","20757599","wem/bandit_either_3","A1VC85P4XYKS4D","either","7","488","","","","","","","0","1","0","","0.5285482983","0.8","0.4","0.6","0.2","0.5527877924","0.5285482983","0.4126831114","0.2683250969","","","","","","","","","","","","74","J","1","","","3","main_expt",""
"","bandit","83","381610","0.0-44.0-0.0","20757599","wem/bandit_either_3","A1VC85P4XYKS4D","either","7","43","","","","","","","1","0","0","0.6744491701","","0.8","0.4","0.6","0.2","","","","","0.6336700584","0.6744491701","0.3923803367","0.3988631097","","","","","","","","74","J","1","","","4","main_expt",""
"","bandit","84","383473","0.0-45.0-0.0","20757599","wem/bandit_either_3","A1VC85P4XYKS4D","either","7","351","","","","","","","0","0","1","0.6340088104","","0.8","0.4","0.6","0.2","","","","","0.6340088104","0.7922285807","0.3803283439","0.3568799457","","","","","","","","72","H","0","img/none_selected.jpg","","5","main_expt",""
"","bandit","85","385073","0.0-46.0-0.0","20757599","wem/bandit_either_3","A1VC85P4XYKS4D","either","7","93","","","","","","","0","0","1","","0.3188731731","0.8","0.4","0.6","0.2","0.5784181907","0.7459441126","0.4214296899","0.3188731731","","","","","","","","","","","","76","L","3","","","6","main_expt",""
"","bandit","86","387890","0.0-47.0-0.0","20757599","wem/bandit_either_3","A1VC85P4XYKS4D","either","7","1307","","","","","","","0","0","1","","0.7681481668","0.8","0.4","0.6","0.2","0.6727083857","0.7681481668","0.4755968838","0.4574196012","","","","","","","","","","","","74","J","1","","","7","main_expt",""
"","bandit","87","389626","0.0-48.0-0.0","20757599","wem/bandit_either_3","A1VC85P4XYKS4D","either","7","224","","","","","","","1","0","0","0.7251609313","","0.8","0.4","0.6","0.2","","","","","0.7574508858","0.7251609313","0.5353568537","0.5037884951","","","","","","","","74","J","1","","","8","main_expt",""
"","bandit","88","391857","0.0-49.0-0.0","20757599","wem/bandit_either_3","A1VC85P4XYKS4D","either","7","720","","","","","","","0","1","0","","0.7403055102","0.8","0.4","0.6","0.2","0.8280759311","0.7403055102","0.6246831942","0.5750013994","","","","","","","","","","","","74","J","1","","","9","main_expt",""
"","bandit","89","393385","0.0-50.0-0.0","20757599","wem/bandit_either_3","A1VC85P4XYKS4D","either","7","19","","","","","","","0","0","1","","0.722944265","0.8","0.4","0.6","0.2","0.859726102","0.722944265","0.4475954046","0.5399040382","","","","","","","","","","","","74","J","1","","","10","main_expt",""
"","bandit","90","395024","0.0-51.0-0.0","20757599","wem/bandit_either_3","A1VC85P4XYKS4D","either","7","128","","","","","","","0","1","0","","0.6833847698","0.8","0.4","0.6","0.2","0.877956501","0.6833847698","0.4514702697","0.5181098662","","","","","","","","","","","","74","J","1","","","11","main_expt",""
"","bandit","91","397273","0.0-52.0-0.0","20757599","wem/bandit_either_3","A1VC85P4XYKS4D","either","7","738","","","","","","","0","0","1","0.689227163","","0.8","0.4","0.6","0.2","","","","","0.8883669707","0.689227163","0.4873058782","0.5489165229","","","","","","","","74","J","1","","","12","main_expt",""
"","bandit","92","399034","0.0-53.0-0.0","20757599","wem/bandit_either_3","A1VC85P4XYKS4D","either","7","254","","","","","","","1","0","0","0.817149195","","0.8","0.4","0.6","0.2","","","","","0.817149195","0.5178623456","0.4862469224","0.6186986429","","","","","","","","72","H","0","img/none_selected.jpg","","13","main_expt",""
"","bandit","93","402201","0.0-54.0-0.0","20757599","wem/bandit_either_3","A1VC85P4XYKS4D","either","7","1657","","","","","","","1","0","0","0.8589139609","","0.8","0.4","0.6","0.2","","","","","0.8589139609","0.4768489018","0.360908092","0.4944095791","","","","","","","","72","H","0","img/none_selected.jpg","","14","main_expt",""
"","bandit","94","404257","0.0-55.0-0.0","20757599","wem/bandit_either_3","A1VC85P4XYKS4D","either","7","550","","","","","","","1","0","0","0.7955781648","","0.8","0.4","0.6","0.2","","","","","0.7955781648","0.5201849276","0.4126647893","0.4820951366","","","","","","","","72","H","0","img/none_selected.jpg","","15","main_expt",""
"","bandit","95","406874","0.0-56.0-0.0","20757599","wem/bandit_either_3","A1VC85P4XYKS4D","either","7","1106","","","","","","","1","0","0","0.8864445785","","0.8","0.4","0.6","0.2","","","","","0.8864445785","0.6862231469","0.4930686601","0.4888848296","","","","","","","","72","H","0","img/none_selected.jpg","","16","main_expt",""
"","bandit","96","409272","0.0-57.0-0.0","20757599","wem/bandit_either_3","A1VC85P4XYKS4D","either","7","887","","","","","","","0","1","0","","0.8746062981","0.8","0.4","0.6","0.2","0.8746062981","0.7297328357","0.5162343008","0.381306026","","","","","","","","","","","","72","H","0","img/none_selected.jpg","","17","main_expt",""
"","bandit","97","411240","0.0-58.0-0.0","20757599","wem/bandit_either_3","A1VC85P4XYKS4D","either","7","459","","","","","","","0","1","0","","0.8910236512","0.8","0.4","0.6","0.2","0.8910236512","0.6686287009","0.5627456494","0.3537135189","","","","","","","","","","","","72","H","0","img/none_selected.jpg","","18","main_expt",""
"","bandit","98","413305","0.0-59.0-0.0","20757599","wem/bandit_either_3","A1VC85P4XYKS4D","either","7","555","","","","","","","0","1","0","","0.8932054573","0.8","0.4","0.6","0.2","0.8932054573","0.7885428456","0.4478227807","0.4891458502","","","","","","","","","","","","72","H","0","img/none_selected.jpg","","19","main_expt",""
"","bandit","99","416038","0.0-60.0-0.0","20757599","wem/bandit_either_3","A1VC85P4XYKS4D","either","7","1214","","","","","","","1","0","0","0.8900063933","","0.8","0.4","0.6","0.2","","","","","0.8900063933","0.7442236049","0.5306796692","0.5440957398","","","","","","","","72","H","0","img/none_selected.jpg","","20","main_expt",""
"","bandit","100","421675","0.0-61.0-0.0","20757599","wem/bandit_either_3","A1VC85P4XYKS4D","either","7","4121","","","","","","","0","1","0","","0.7908218503","0.8","0.4","0.6","0.2","0.8748704397","0.7908218503","0.5423611418","0.5621313733","","","","","","","","","","","","74","J","1","","","21","main_expt",""
"","bandit","101","423458","0.0-62.0-0.0","20757599","wem/bandit_either_3","A1VC85P4XYKS4D","either","7","272","","","","","","","1","0","0","0.8498769136","","0.8","0.4","0.6","0.2","","","","","0.8498769136","0.7163236006","0.4190568807","0.5296345876","","","","","","","","72","H","0","img/none_selected.jpg","","22","main_expt",""
"","bandit","102","425488","0.0-63.0-0.0","20757599","wem/bandit_either_3","A1VC85P4XYKS4D","either","7","520","","","","","","","0","1","0","","0.8357449374","0.8","0.4","0.6","0.2","0.8357449374","0.7061190667","0.4329937009","0.5187107172","","","","","","","","","","","","72","H","0","img/none_selected.jpg","","23","main_expt",""
"","bandit","103","427450","0.0-64.0-0.0","20757599","wem/bandit_either_3","A1VC85P4XYKS4D","either","7","451","","","","","","","0","1","0","","0.8431908073","0.8","0.4","0.6","0.2","0.8431908073","0.7470556917","0.4298879426","0.6000521927","","","","","","","","","","","","72","H","0","img/none_selected.jpg","","24","main_expt",""
"","bandit","104","429353","0.0-65.0-0.0","20757599","wem/bandit_either_3","A1VC85P4XYKS4D","either","7","392","","","","","","","0","1","0","","0.8154180688","0.8","0.4","0.6","0.2","0.8741885854","0.8154180688","0.2992323157","0.5443047256","","","","","","","","","","","","74","J","1","","","25","main_expt",""
"","bandit","105","431288","0.0-66.0-0.0","20757599","wem/bandit_either_3","A1VC85P4XYKS4D","either","7","425","","","","","","","1","0","0","0.8940719671","","0.8","0.4","0.6","0.2","","","","","0.8940719671","0.8395379789","0.3857263224","0.592493964","","","","","","","","72","H","0","img/none_selected.jpg","","26","main_expt",""
"","bandit","106","433401","0.0-67.0-0.0","20757599","wem/bandit_either_3","A1VC85P4XYKS4D","either","7","602","","","","","","","1","0","0","0.8733378856","","0.8","0.4","0.6","0.2","","","","","0.8733378856","0.8023078409","0.3715251318","0.5779569403","","","","","","","","72","H","0","img/none_selected.jpg","","27","main_expt",""
"","bandit","107","435609","0.0-68.0-0.0","20757599","wem/bandit_either_3","A1VC85P4XYKS4D","either","7","698","","","","","","","1","0","0","0.8695586723","","0.8","0.4","0.6","0.2","","","","","0.8695586723","0.8248968235","0.3387808014","0.7077223562","","","","","","","","72","H","0","img/none_selected.jpg","","28","main_expt",""
"","bandit","108","438074","0.0-69.0-0.0","20757599","wem/bandit_either_3","A1VC85P4XYKS4D","either","7","958","","","","","","","1","0","0","0.7908290088","","0.8","0.4","0.6","0.2","","","","","0.7908290088","0.8621011303","0.3737397218","0.7070353494","","","","","","","","72","H","0","img/none_selected.jpg","","29","main_expt",""
"","bandit","109","440537","0.0-70.0-0.0","20757599","wem/bandit_either_3","A1VC85P4XYKS4D","either","7","951","","","","","","","1","0","0","0.8518997755","","0.8","0.4","0.6","0.2","","","","","0.8518997755","0.8873668535","0.3232047389","0.6585428656","","","","","","","","72","H","0","img/none_selected.jpg","","30","main_expt",""
"","bandit","110","442810","0.0-71.0-0.0","20757599","wem/bandit_either_3","A1VC85P4XYKS4D","either","7","764","","","","","","","1","0","0","0.9318975106","","0.8","0.4","0.6","0.2","","","","","0.8509842625","0.9318975106","0.4130267239","0.6724088618","","","","","","","","74","J","1","","","31","main_expt",""
"","bandit","111","444984","0.0-72.0-0.0","20757599","wem/bandit_either_3","A1VC85P4XYKS4D","either","7","664","","","","","","","0","0","1","0.4167758813","","0.8","0.4","0.6","0.2","","","","","0.872996121","0.9013609786","0.4167758813","0.6416581209","","","","","","","","75","K","2","","","32","main_expt",""
"","bandit","112","446874","0.0-73.0-0.0","20757599","wem/bandit_either_3","A1VC85P4XYKS4D","either","7","383","","","","","","","0","1","0","","0.9041531295","0.8","0.4","0.6","0.2","0.8571046391","0.9041531295","0.4546052232","0.7055802426","","","","","","","","","","","","74","J","1","","","33","main_expt",""
"","bandit","113","448705","0.0-74.0-0.0","20757599","wem/bandit_either_3","A1VC85P4XYKS4D","either","7","320","","","","","","","1","0","0","0.9175819521","","0.8","0.4","0.6","0.2","","","","","0.9175819521","0.9386104272","0.5231803088","0.7554114371","","","","","","","","72","H","0","img/none_selected.jpg","","34","main_expt",""
"","bandit","114","450631","0.0-75.0-0.0","20757599","wem/bandit_either_3","A1VC85P4XYKS4D","either","7","417","","","","","","","1","0","0","0.9503165686","","0.8","0.4","0.6","0.2","","","","","0.9503165686","0.9180645683","0.4661188593","0.8008095759","","","","","","","","72","H","0","img/none_selected.jpg","","35","main_expt",""
"","bandit","115","452472","0.0-76.0-0.0","20757599","wem/bandit_either_3","A1VC85P4XYKS4D","either","7","335","","","","","","","0","1","0","","0.9095107155","0.8","0.4","0.6","0.2","0.9327615424","0.9095107155","0.4106027186","0.6925109639","","","","","","","","","","","","74","J","1","","","36","main_expt",""
"","bandit","116","454570","0.0-77.0-0.0","20757599","wem/bandit_either_3","A1VC85P4XYKS4D","either","7","585","","","","","","","1","0","0","0.9196494001","","0.8","0.4","0.6","0.2","","","","","0.9196494001","0.9405648028","0.5021263718","0.7764255689","","","","","","","","72","H","0","img/none_selected.jpg","","37","main_expt",""
"","bandit","117","456546","0.0-78.0-0.0","20757599","wem/bandit_either_3","A1VC85P4XYKS4D","either","7","465","","","","","","","0","0","1","","0.9058459248","0.8","0.4","0.6","0.2","0.928530414","0.9058459248","0.5065313343","0.8392953971","","","","","","","","","","","","74","J","1","","","38","main_expt",""
"","bandit","118","458815","0.0-79.0-0.0","20757599","wem/bandit_either_3","A1VC85P4XYKS4D","either","7","749","","","","","","","0","0","1","0.9001545702","","0.8","0.4","0.6","0.2","","","","","0.9001545702","0.8784462517","0.6098243774","0.7614495855","","","","","","","","72","H","0","img/none_selected.jpg","","39","main_expt",""
"","bandit","119","461361","0.0-80.0-0.0","20757599","wem/bandit_either_3","A1VC85P4XYKS4D","either","7","1036","","","","","","","0","1","0","","0.8432481254","0.8","0.4","0.6","0.2","0.8432481254","0.8408568766","0.679699592","0.8060705796","","","","","","","","","","","","72","H","0","img/none_selected.jpg","","40","main_expt",""
"","bandit","120","463098","0.0-81.0-0.0","20757599","wem/bandit_either_3","A1VC85P4XYKS4D","either","7","224","","","","","","","0","1","0","","0.8326479564","0.8","0.4","0.6","0.2","0.8326479564","0.811342849","0.616488607","0.7539991053","","","","","","","","","","","","72","H","0","img/none_selected.jpg","","41","main_expt",""
"","bandit","121","465161","0.0-82.0-0.0","20757599","wem/bandit_either_3","A1VC85P4XYKS4D","either","7","552","","","","","","","1","0","0","0.8602810298","","0.8","0.4","0.6","0.2","","","","","0.8602810298","0.8058808774","0.6307104111","0.7717369324","","","","","","","","72","H","0","img/none_selected.jpg","","42","main_expt",""
"","bandit","122","468228","0.0-83.0-0.0","20757599","wem/bandit_either_3","A1VC85P4XYKS4D","either","7","1559","","","","","","","0","0","1","0.7899844578","","0.8","0.4","0.6","0.2","","","","","0.894365654","0.7899844578","0.554567591","0.7625968551","","","","","","","","74","J","1","","","43","main_expt",""
"","bandit","123","470194","0.0-84.0-0.0","20757599","wem/bandit_either_3","A1VC85P4XYKS4D","either","7","460","","","","","","","1","0","0","0.9033664713","","0.8","0.4","0.6","0.2","","","","","0.9033664713","0.7654486741","0.5281861223","0.8488621298","","","","","","","","72","H","0","img/none_selected.jpg","","44","main_expt",""
"","bandit","124","472073","0.0-85.0-0.0","20757599","wem/bandit_either_3","A1VC85P4XYKS4D","either","7","367","","","","","","","0","0","1","0.7674111825","","0.8","0.4","0.6","0.2","","","","","0.8829964613","0.7674111825","0.5043334007","0.8522077325","","","","","","","","74","J","1","","","45","main_expt",""
"","bandit","125","473706","0.0-86.0-0.0","20757599","wem/bandit_either_3","A1VC85P4XYKS4D","either","7","127","","","","","","","0","1","0","","0.8674694879","0.8","0.4","0.6","0.2","0.8674694879","0.6301273516","0.5426256613","0.8618589195","","","","","","","","","","","","72","H","0","img/none_selected.jpg","","46","main_expt",""
"","bandit","126","475385","0.0-87.0-0.0","20757599","wem/bandit_either_3","A1VC85P4XYKS4D","either","7","167","","","","","","","1","0","0","0.8886720039","","0.8","0.4","0.6","0.2","","","","","0.8886720039","0.7885969413","0.5024796093","0.905897833","","","","","","","","72","H","0","img/none_selected.jpg","","47","main_expt",""
"","bandit","127","477218","0.0-88.0-0.0","20757599","wem/bandit_either_3","A1VC85P4XYKS4D","either","7","326","","","","","","","1","0","0","0.9229902905","","0.8","0.4","0.6","0.2","","","","","0.9229902905","0.7983786211","0.4689138593","0.8929468812","","","","","","","","72","H","0","img/none_selected.jpg","","48","main_expt",""
"","bandit","128","479602","0.0-89.0-0.0","20757599","wem/bandit_either_3","A1VC85P4XYKS4D","either","7","870","","","","","","","0","1","0","","0.9141434128","0.8","0.4","0.6","0.2","0.9141434128","0.8249867574","0.4439560463","0.854905512","","","","","","","","","","","","72","H","0","img/none_selected.jpg","","49","main_expt",""
"","bandit","129","481353","0.0-90.0-0.0","20757599","wem/bandit_either_3","A1VC85P4XYKS4D","either","7","239","","","","","","","1","0","0","0.9181160336","","0.8","0.4","0.6","0.2","","","","","0.9181160336","0.7532301684","0.4079842927","0.8363103738","","","","","","","","72","H","0","img/none_selected.jpg","","50","main_expt",""
"","bandit","130","484240","0.0-91.0-0.0","20757599","wem/bandit_either_3","A1VC85P4XYKS4D","either","7","1376","","","","","","","1","0","0","0.9266489825","","0.8","0.4","0.6","0.2","","","","","0.9266489825","0.6750909554","0.4675199832","0.7168506975","","","","","","","","72","H","0","img/none_selected.jpg","","51","main_expt",""
"","bandit","131","488081","0.0-92.0-0.0","20757599","wem/bandit_either_3","A1VC85P4XYKS4D","either","7","2334","","","","","","","1","0","0","0.9285581488","","0.8","0.4","0.6","0.2","","","","","0.9285581488","0.6762079337","0.4368052975","0.6507986152","","","","","","","","72","H","0","img/none_selected.jpg","","52","main_expt",""
"","bandit","132","489944","0.0-93.0-0.0","20757599","wem/bandit_either_3","A1VC85P4XYKS4D","either","7","357","","","","","","","1","0","0","0.9171724481","","0.8","0.4","0.6","0.2","","","","","0.9171724481","0.7882030045","0.4967902672","0.6531867096","","","","","","","","72","H","0","img/none_selected.jpg","","53","main_expt",""
"","bandit","133","491521","0.0-94.0-0.0","20757599","wem/bandit_either_3","A1VC85P4XYKS4D","either","7","71","","","","","","","0","1","0","","0.8709862684","0.8","0.4","0.6","0.2","0.8709862684","0.8759533557","0.5321533453","0.6178049746","","","","","","","","","","","","72","H","0","img/none_selected.jpg","","54","main_expt",""
"","bandit","134","494208","0.0-95.0-0.0","20757599","wem/bandit_either_3","A1VC85P4XYKS4D","either","7","1175","","","","","","","1","0","0","0.9016108676","","0.8","0.4","0.6","0.2","","","","","0.9016108676","0.9307112091","0.593251847","0.5501477499","","","","","","","","72","H","0","img/none_selected.jpg","","55","main_expt",""
"","bandit","135","496098","0.0-96.0-0.0","20757599","wem/bandit_either_3","A1VC85P4XYKS4D","either","7","383","","","","","","","1","0","0","0.9123335035","","0.8","0.4","0.6","0.2","","","","","0.9123335035","0.9486344027","0.602347159","0.5181914202","","","","","","","","72","H","0","img/none_selected.jpg","","56","main_expt",""
"","bandit","136","498023","0.0-97.0-0.0","20757599","wem/bandit_either_3","A1VC85P4XYKS4D","either","7","420","","","","","","","1","0","0","0.9338523698","","0.8","0.4","0.6","0.2","","","","","0.9338523698","0.9450559811","0.736851976","0.5052283364","","","","","","","","72","H","0","img/none_selected.jpg","","57","main_expt",""
"","bandit","137","500993","0.0-98.0-0.0","20757599","wem/bandit_either_3","A1VC85P4XYKS4D","either","7","1461","","","","","","","1","0","0","0.9023069914","","0.8","0.4","0.6","0.2","","","","","0.9023069914","0.960587128","0.7112026436","0.4494585665","","","","","","","","72","H","0","img/none_selected.jpg","","58","main_expt",""
"","bandit","138","504827","0.0-99.0-0.0","20757599","wem/bandit_either_3","A1VC85P4XYKS4D","either","7","2322","","","","","","","1","0","0","0.9272570312","","0.8","0.4","0.6","0.2","","","","","0.903153386","0.9272570312","0.7605469626","0.4431029696","","","","","","","","74","J","1","","","59","main_expt",""
"","bandit","139","506769","0.0-100.0-0.0","20757599","wem/bandit_either_3","A1VC85P4XYKS4D","either","7","432","","","","","","","1","0","0","0.8975643475","","0.8","0.4","0.6","0.2","","","","","0.8975643475","0.9075075979","0.6504737249","0.4213069188","","","","","","","","72","H","0","img/none_selected.jpg","","60","main_expt",""
"","bandit","140","508986","0.0-101.0-0.0","20757599","wem/bandit_either_3","A1VC85P4XYKS4D","either","7","702","","","","","","","1","0","0","0.9011961695","","0.8","0.4","0.6","0.2","","","","","0.8455107238","0.9011961695","0.7417300409","0.4735464544","","","","","","","","74","J","1","","","61","main_expt",""
"","bandit","141","511104","0.0-102.0-0.0","20757599","wem/bandit_either_3","A1VC85P4XYKS4D","either","7","611","","","","","","","1","0","0","0.8423106617","","0.8","0.4","0.6","0.2","","","","","0.8423106617","0.9025442902","0.6889655243","0.4260239588","","","","","","","","72","H","0","img/none_selected.jpg","","62","main_expt",""
"","bandit","142","513016","0.0-103.0-0.0","20757599","wem/bandit_either_3","A1VC85P4XYKS4D","either","7","404","","","","","","","1","0","0","0.900711875","","0.8","0.4","0.6","0.2","","","","","0.6997676278","0.900711875","0.7532165261","0.4048641732","","","","","","","","74","J","1","","","63","main_expt",""
"","bandit","143","514561","0.0-104.0-0.0","20757599","wem/bandit_either_3","A1VC85P4XYKS4D","either","7","32","","","","","","","0","1","0","","0.8033841581","0.8","0.4","0.6","0.2","0.8033841581","0.8445511995","0.7614619666","0.261135461","","","","","","","","","","","","72","H","0","img/none_selected.jpg","","64","main_expt",""
"","bandit","144","516337","0.0-105.0-0.0","20757599","wem/bandit_either_3","A1VC85P4XYKS4D","either","7","268","","","","","","","0","0","1","0.8458775523","","0.8","0.4","0.6","0.2","","","","","0.8458775523","0.7838665633","0.7474824059","0.4398785507","","","","","","","","72","H","0","img/none_selected.jpg","","65","main_expt",""
"","bandit","145","519698","0.0-106.0-0.0","20757599","wem/bandit_either_3","A1VC85P4XYKS4D","either","7","1845","","","","","","","0","1","0","","0.8399866527","0.8","0.4","0.6","0.2","0.8612648572","0.8399866527","0.7083026918","0.4549930047","","","","","","","","","","","","74","J","1","","","66","main_expt",""
"","bandit","146","521249","0.0-107.0-0.0","20757599","wem/bandit_either_3","A1VC85P4XYKS4D","either","7","37","","","","","","","1","0","0","0.8686018104","","0.8","0.4","0.6","0.2","","","","","0.8686018104","0.9109535201","0.6535093674","0.5565794079","","","","","","","","72","H","0","img/none_selected.jpg","","67","main_expt",""
"","bandit","147","523993","0.0-108.0-0.0","20757599","wem/bandit_either_3","A1VC85P4XYKS4D","either","7","1231","","","","","","","1","0","0","0.9064065477","","0.8","0.4","0.6","0.2","","","","","0.8693437115","0.9064065477","0.4923739087","0.4211802827","","","","","","","","74","J","1","","","68","main_expt",""
"","bandit","148","525603","0.0-109.0-0.0","20757599","wem/bandit_either_3","A1VC85P4XYKS4D","either","7","93","","","","","","","1","0","0","0.9315833469","","0.8","0.4","0.6","0.2","","","","","0.9168970181","0.9315833469","0.4898097669","0.3687693293","","","","","","","","74","J","1","","","69","main_expt",""
"","bandit","149","527401","0.0-110.0-0.0","20757599","wem/bandit_either_3","A1VC85P4XYKS4D","either","7","285","","","","","","","0","1","0","","0.9393923483","0.8","0.4","0.6","0.2","0.9293527272","0.9393923483","0.4369614599","0.3460903474","","","","","","","","","","","","74","J","1","","","70","main_expt",""
"","bandit","150","529616","0.0-111.0-0.0","20757599","wem/bandit_either_3","A1VC85P4XYKS4D","either","7","703","","","","","","","1","0","0","0.949087413","","0.8","0.4","0.6","0.2","","","","","0.949087413","0.9568343035","0.5031037484","0.3278112836","","","","","","","","72","H","0","img/none_selected.jpg","","71","main_expt",""
"","bandit","151","531425","0.0-112.0-0.0","20757599","wem/bandit_either_3","A1VC85P4XYKS4D","either","7","302","","","","","","","1","0","0","0.947758434","","0.8","0.4","0.6","0.2","","","","","0.906373323","0.947758434","0.5397903688","0.2720469766","","","","","","","","74","J","1","","","72","main_expt",""
"","bandit","152","533407","0.0-113.0-0.0","20757599","wem/bandit_either_3","A1VC85P4XYKS4D","either","7","468","","","","","","","1","0","0","0.93965919","","0.8","0.4","0.6","0.2","","","","","0.93965919","0.9052010222","0.5540652028","0.2451019773","","","","","","","","72","H","0","img/none_selected.jpg","","73","main_expt",""
"","bandit","153","534915","0.0-114.0-0.0","20757599","wem/bandit_either_3","A1VC85P4XYKS4D","either","7","1","","","","","","","1","0","0","0.9416319858","","0.8","0.4","0.6","0.2","","","","","0.9416319858","0.927704936","0.61733434","0.2645862521","","","","","","","","72","H","0","img/none_selected.jpg","","74","main_expt",""
"","bandit","154","537136","0.0-115.0-0.0","20757599","wem/bandit_either_3","A1VC85P4XYKS4D","either","7","710","","","","","","","0","1","0","","0.8769567517","0.8","0.4","0.6","0.2","0.9535384208","0.8769567517","0.6341908543","0.2298582","","","","","","","","","","","","74","J","1","","","75","main_expt",""
"","bandit","155","539361","0.0-116.0-0.0","20757599","wem/bandit_either_3","A1VC85P4XYKS4D","either","7","718","","","","","","","1","0","0","0.9585479729","","0.8","0.4","0.6","0.2","","","","","0.9585479729","0.8456064169","0.6355577018","0.3460043445","","","","","","","","72","H","0","img/none_selected.jpg","","76","main_expt",""
"","bandit","156","541146","0.0-117.0-0.0","20757599","wem/bandit_either_3","A1VC85P4XYKS4D","either","7","278","","","","","","","0","1","0","","0.8325595713","0.8","0.4","0.6","0.2","0.9610253773","0.8325595713","0.7055426269","0.2526488818","","","","","","","","","","","","74","J","1","","","77","main_expt",""
"","bandit","157","542986","0.0-118.0-0.0","20757599","wem/bandit_either_3","A1VC85P4XYKS4D","either","7","326","","","","","","","0","1","0","","0.9580320452","0.8","0.4","0.6","0.2","0.9580320452","0.9128982172","0.6137882531","0.2625396382","","","","","","","","","","","","72","H","0","img/none_selected.jpg","","78","main_expt",""
"","bandit","158","545869","0.0-119.0-0.0","20757599","wem/bandit_either_3","A1VC85P4XYKS4D","either","7","1369","","","","","","","1","0","0","0.9213349282","","0.8","0.4","0.6","0.2","","","","","0.9403834825","0.9213349282","0.668392527","0.2957535945","","","","","","","","74","J","1","","","79","main_expt",""
"","bandit","159","547463","0.0-120.0-0.0","20757599","wem/bandit_either_3","A1VC85P4XYKS4D","either","7","84","","","","","","","0","1","0","","0.8935563746","0.8","0.4","0.6","0.2","0.946171157","0.8935563746","0.7457361895","0.1831261498","","","","","","","","","","","","74","J","1","","","80","main_expt",""
"","bandit","160","549514","0.0-121.0-0.0","20757599","wem/bandit_either_3","A1VC85P4XYKS4D","either","7","544","","","","","","","1","0","0","0.9800092583","","0.8","0.4","0.6","0.2","","","","","0.9800092583","0.932831263","0.8028050151","0.1450659425","","","","","","","","72","H","0","img/none_selected.jpg","","81","main_expt",""
"","bandit","161","552774","0.0-122.0-0.0","20757599","wem/bandit_either_3","A1VC85P4XYKS4D","either","7","1755","","","","","","","0","0","1","0.9403650082","","0.8","0.4","0.6","0.2","","","","","0.9666397243","0.9403650082","0.8727424511","0.1486641529","","","","","","","","74","J","1","","","82","main_expt",""
"","bandit","162","555703","0.0-123.0-0.0","20757599","wem/bandit_either_3","A1VC85P4XYKS4D","either","7","1422","","","","","","","1","0","0","0.9637330664","","0.8","0.4","0.6","0.2","","","","","0.9637330664","0.9066396881","0.8283068274","0.1567811066","","","","","","","","72","H","0","img/none_selected.jpg","","83","main_expt",""
"","bandit","163","557295","0.0-124.0-0.0","20757599","wem/bandit_either_3","A1VC85P4XYKS4D","either","7","87","","","","","","","0","1","0","","0.8962006295","0.8","0.4","0.6","0.2","0.9617949183","0.8962006295","0.8030064341","0.196091916","","","","","","","","","","","","74","J","1","","","84","main_expt",""
"","bandit","164","559375","0.0-125.0-0.0","20757599","wem/bandit_either_3","A1VC85P4XYKS4D","either","7","575","","","","","","","1","0","0","0.9561985801","","0.8","0.4","0.6","0.2","","","","","0.9561985801","0.9093999993","0.8622567251","0.1512390112","","","","","","","","72","H","0","img/none_selected.jpg","","85","main_expt",""
"","bandit","165","561255","0.0-126.0-0.0","20757599","wem/bandit_either_3","A1VC85P4XYKS4D","either","7","375","","","","","","","1","0","0","0.9422505668","","0.8","0.4","0.6","0.2","","","","","0.9422505668","0.9326862648","0.896584634","0.1486491559","","","","","","","","72","H","0","img/none_selected.jpg","","86","main_expt",""
"","bandit","166","562975","0.0-127.0-0.0","20757599","wem/bandit_either_3","A1VC85P4XYKS4D","either","7","214","","","","","","","0","0","1","","0.9039434857","0.8","0.4","0.6","0.2","0.926711091","0.9039434857","0.9208758521","0.1047878604","","","","","","","","","","","","74","J","1","","","87","main_expt",""
"","bandit","167","565326","0.0-128.0-0.0","20757599","wem/bandit_either_3","A1VC85P4XYKS4D","either","7","846","","","","","","","0","1","0","","0.9195127861","0.8","0.4","0.6","0.2","0.9092576496","0.9195127861","0.9266301883","0.07038149384","","","","","","","","","","","","74","J","1","","","88","main_expt",""
"","bandit","168","567471","0.0-129.0-0.0","20757599","wem/bandit_either_3","A1VC85P4XYKS4D","either","7","639","","","","","","","1","0","0","0.8948591238","","0.8","0.4","0.6","0.2","","","","","0.8948591238","0.9225053559","0.9259215542","0.1311535074","","","","","","","","72","H","0","img/none_selected.jpg","","89","main_expt",""
"","bandit","169","574784","0.0-130.0-0.0","20757599","wem/bandit_either_3","A1VC85P4XYKS4D","either","7","5807","","","","","","","0","1","0","","0.9014563988","0.8","0.4","0.6","0.2","0.8716727139","0.9014563988","0.9400480964","0.1241310956","","","","","","","","","","","","74","J","1","","","90","main_expt",""
"","bandit","170","576512","0.0-131.0-0.0","20757599","wem/bandit_either_3","A1VC85P4XYKS4D","either","7","222","","","","","","","1","0","0","0.8969144331","","0.8","0.4","0.6","0.2","","","","","0.8969144331","0.9162570652","0.8961855863","0.09664170694","","","","","","","","72","H","0","img/none_selected.jpg","","91","main_expt",""
"","bandit","171","578247","0.0-132.0-0.0","20757599","wem/bandit_either_3","A1VC85P4XYKS4D","either","7","229","","","","","","","0","1","0","","0.9171199264","0.8","0.4","0.6","0.2","0.9171199264","0.9171553871","0.9211437923","0.09586364307","","","","","","","","","","","","72","H","0","img/none_selected.jpg","","92","main_expt",""
"","bandit","172","579839","0.0-133.0-0.0","20757599","wem/bandit_either_3","A1VC85P4XYKS4D","either","7","87","","","","","","","0","1","0","","0.9463284029","0.8","0.4","0.6","0.2","0.9593171332","0.9463284029","0.8947860396","0.08304118766","","","","","","","","","","","","74","J","1","","","93","main_expt",""
"","bandit","173","582295","0.0-134.0-0.0","20757599","wem/bandit_either_3","A1VC85P4XYKS4D","either","7","951","","","","","","","1","0","0","0.959226596","","0.8","0.4","0.6","0.2","","","","","0.959226596","0.9477079066","0.822540961","0.1222865453","","","","","","","","72","H","0","img/none_selected.jpg","","94","main_expt",""
"","bandit","174","583903","0.0-135.0-0.0","20757599","wem/bandit_either_3","A1VC85P4XYKS4D","either","7","101","","","","","","","0","1","0","","0.9474919074","0.8","0.4","0.6","0.2","0.947105423","0.9474919074","0.8288041746","0.211460517","","","","","","","","","","","","74","J","1","","","95","main_expt",""
"","bandit","175","585919","0.0-136.0-0.0","20757599","wem/bandit_either_3","A1VC85P4XYKS4D","either","7","509","","","","","","","0","1","0","","0.937205139","0.8","0.4","0.6","0.2","0.937205139","0.9722490369","0.8217366877","0.2757920232","","","","","","","","","","","","72","H","0","img/none_selected.jpg","","96","main_expt",""
"","bandit","176","587822","0.0-137.0-0.0","20757599","wem/bandit_either_3","A1VC85P4XYKS4D","either","7","398","","","","","","","0","1","0","","0.980822097","0.8","0.4","0.6","0.2","0.9472767204","0.980822097","0.725285089","0.2646876298","","","","","","","","","","","","74","J","1","","","97","main_expt",""
"","bandit","177","590711","0.0-138.0-0.0","20757599","wem/bandit_either_3","A1VC85P4XYKS4D","either","7","1382","","","","","","","1","0","0","0.962959595","","0.8","0.4","0.6","0.2","","","","","0.962959595","0.9761591307","0.7958966199","0.3278454636","","","","","","","","72","H","0","img/none_selected.jpg","","98","main_expt",""
"","bandit","178","594138","0.0-139.0-0.0","20757599","wem/bandit_either_3","A1VC85P4XYKS4D","either","7","1918","","","","","","","1","0","0","0.9597391097","","0.8","0.4","0.6","0.2","","","","","0.9720903607","0.9597391097","0.7741840332","0.4641870332","","","","","","","","74","J","1","","","99","main_expt",""
"","bandit","179","596120","0.0-140.0-0.0","20757599","wem/bandit_either_3","A1VC85P4XYKS4D","either","7","476","","","","","","","1","0","0","0.9737169538","","0.8","0.4","0.6","0.2","","","","","0.9737169538","0.9557148533","0.7934767162","0.3972344865","","","","","","","","72","H","0","img/none_selected.jpg","","100","main_expt",""
"","bandit","180","598335","0.0-141.0-0.0","20757599","wem/bandit_either_3","A1VC85P4XYKS4D","either","7","708","","","","","","","0","1","0","","0.986468331","0.8","0.4","0.6","0.2","0.986468331","0.9687934467","0.8307638242","0.4395304924","","","","","","","","","","","","72","H","0","img/none_selected.jpg","","101","main_expt",""
"","bandit","181","602967","0.0-142.0-0.0","20757599","wem/bandit_either_3","A1VC85P4XYKS4D","either","7","3126","","","","","","","1","0","0","0.9713318577","","0.8","0.4","0.6","0.2","","","","","0.9859557102","0.9713318577","0.7737236933","0.5248298482","","","","","","","","74","J","1","","","102","main_expt",""
"","bandit","182","604910","0.0-143.0-0.0","20757599","wem/bandit_either_3","A1VC85P4XYKS4D","either","7","438","","","","","","","1","0","0","0.9828698412","","0.8","0.4","0.6","0.2","","","","","0.9828698412","0.9768128314","0.8168427084","0.6218364577","","","","","","","","72","H","0","img/none_selected.jpg","","103","main_expt",""
"","bandit","183","607599","0.0-144.0-0.0","20757599","wem/bandit_either_3","A1VC85P4XYKS4D","either","7","1182","","","","","","","0","1","0","","0.9566706727","0.8","0.4","0.6","0.2","0.9655029871","0.9566706727","0.7020104164","0.5528563194","","","","","","","","","","","","74","J","1","","","104","main_expt",""
"","bandit","184","609519","0.0-145.0-0.0","20757599","wem/bandit_either_3","A1VC85P4XYKS4D","either","7","415","","","","","","","1","0","0","0.9587067199","","0.8","0.4","0.6","0.2","","","","","0.9587067199","0.9352711559","0.6750414237","0.515821512","","","","","","","","72","H","0","img/none_selected.jpg","","105","main_expt",""
"","bandit","185","611439","0.0-146.0-0.0","20757599","wem/bandit_either_3","A1VC85P4XYKS4D","either","7","414","","","","","","","1","0","0","0.8980036198","","0.8","0.4","0.6","0.2","","","","","0.9358961366","0.8980036198","0.5886413089","0.5380341879","","","","","","","","74","J","1","","","106","main_expt",""
"","bandit","186","613408","0.0-147.0-0.0","20757599","wem/bandit_either_3","A1VC85P4XYKS4D","either","7","461","","","","","","","1","0","0","0.8829949032","","0.8","0.4","0.6","0.2","","","","","0.8829949032","0.9175797088","0.5507707533","0.3291998873","","","","","","","","72","H","0","img/none_selected.jpg","","107","main_expt",""
"","bandit","187","614983","0.0-148.0-0.0","20757599","wem/bandit_either_3","A1VC85P4XYKS4D","either","7","69","","","","","","","0","0","1","","0.8966825343","0.8","0.4","0.6","0.2","0.7668100276","0.8966825343","0.4325904974","0.3608627265","","","","","","","","","","","","74","J","1","","","108","main_expt",""
"","bandit","188","616519","0.0-149.0-0.0","20757599","wem/bandit_either_3","A1VC85P4XYKS4D","either","7","29","","","","","","","1","0","0","0.7652463225","","0.8","0.4","0.6","0.2","","","","","0.7652463225","0.8883819791","0.3735159861","0.3837942066","","","","","","","","72","H","0","img/none_selected.jpg","","109","main_expt",""
"","bandit","189","618127","0.0-150.0-0.0","20757599","wem/bandit_either_3","A1VC85P4XYKS4D","either","7","101","","","","","","","0","0","1","","0.9087011364","0.8","0.4","0.6","0.2","0.7974745759","0.9087011364","0.3704440872","0.3019365294","","","","","","","","","","","","74","J","1","","","110","main_expt",""
"","bandit","190","619967","0.0-151.0-0.0","20757599","wem/bandit_either_3","A1VC85P4XYKS4D","either","7","333","","","","","","","1","0","0","0.812352323","","0.8","0.4","0.6","0.2","","","","","0.812352323","0.9337026812","0.2749067499","0.3483008865","","","","","","","","72","H","0","img/none_selected.jpg","","111","main_expt",""
"","bandit","191","621871","0.0-152.0-0.0","20757599","wem/bandit_either_3","A1VC85P4XYKS4D","either","7","398","","","","","","","0","1","0","","0.9113388615","0.8","0.4","0.6","0.2","0.7428975936","0.9113388615","0.2734667401","0.4342302697","","","","","","","","","","","","74","J","1","","","112","main_expt",""
"","bandit","192","623502","0.0-153.0-0.0","20757599","wem/bandit_either_3","A1VC85P4XYKS4D","either","7","125","","","","","","","0","1","0","","0.8980528729","0.8","0.4","0.6","0.2","0.7139653514","0.8980528729","0.2291946885","0.5187246657","","","","","","","","","","","","74","J","1","","","113","main_expt",""
"","bandit","193","625256","0.0-154.0-0.0","20757599","wem/bandit_either_3","A1VC85P4XYKS4D","either","7","247","","","","","","","0","1","0","","0.7945657698","0.8","0.4","0.6","0.2","0.7945657698","0.8036326458","0.2413339081","0.5381742134","","","","","","","","","","","","72","H","0","img/none_selected.jpg","","114","main_expt",""
"","bandit","194","627672","0.0-155.0-0.0","20757599","wem/bandit_either_3","A1VC85P4XYKS4D","either","7","909","","","","","","","0","1","0","","0.8700945717","0.8","0.4","0.6","0.2","0.8405588069","0.8700945717","0.3092826039","0.4785029821","","","","","","","","","","","","74","J","1","","","115","main_expt",""
"","bandit","195","629631","0.0-156.0-0.0","20757599","wem/bandit_either_3","A1VC85P4XYKS4D","either","7","454","","","","","","","0","0","1","","0.8641798474","0.8","0.4","0.6","0.2","0.8641798474","0.8895114993","0.2361366225","0.4654757386","","","","","","","","","","","","72","H","0","img/none_selected.jpg","","116","main_expt",""
"","bandit","196","631159","0.0-157.0-0.0","20757599","wem/bandit_either_3","A1VC85P4XYKS4D","either","7","21","","","","","","","0","1","0","","0.8936856952","0.8","0.4","0.6","0.2","0.8756768431","0.8936856952","0.218402711","0.4578633225","","","","","","","","","","","","74","J","1","","","117","main_expt",""
"","bandit","197","633000","0.0-158.0-0.0","20757599","wem/bandit_either_3","A1VC85P4XYKS4D","either","7","333","","","","","","","0","1","0","","0.9015269718","0.8","0.4","0.6","0.2","0.9015269718","0.8077127093","0.2003641109","0.4773941538","","","","","","","","","","","","72","H","0","img/none_selected.jpg","","118","main_expt",""
"","bandit","198","634727","0.0-159.0-0.0","20757599","wem/bandit_either_3","A1VC85P4XYKS4D","either","7","220","","","","","","","1","0","0","0.8901108642","","0.8","0.4","0.6","0.2","","","","","0.8709738884","0.8901108642","0.1375137305","0.508374463","","","","","","","","74","J","1","","","119","main_expt",""
"","bandit","199","636447","0.0-160.0-0.0","20757599","wem/bandit_either_3","A1VC85P4XYKS4D","either","7","214","","","","","","","1","0","0","0.8268338002","","0.8","0.4","0.6","0.2","","","","","0.8268338002","0.8731124259","0.08656631556","0.4294310012","","","","","","","","72","H","0","img/none_selected.jpg","","120","main_expt",""
"","bandit","200","638135","0.0-161.0-0.0","20757599","wem/bandit_either_3","A1VC85P4XYKS4D","either","7","178","","","","","","","0","1","0","","0.8509174952","0.8","0.4","0.6","0.2","0.8432616236","0.8509174952","0.07812634859","0.3933985885","","","","","","","","","","","","74","J","1","","","121","main_expt",""
"","bandit","201","639990","0.0-162.0-0.0","20757599","wem/bandit_either_3","A1VC85P4XYKS4D","either","7","350","","","","","","","1","0","0","0.8128728295","","0.8","0.4","0.6","0.2","","","","","0.8128728295","0.8707856005","0.09046411854","0.2641409089","","","","","","","","72","H","0","img/none_selected.jpg","","122","main_expt",""
"","bandit","202","641991","0.0-163.0-0.0","20757599","wem/bandit_either_3","A1VC85P4XYKS4D","either","7","494","","","","","","","0","1","0","","0.7592524618","0.8","0.4","0.6","0.2","0.752198112","0.7592524618","0.1132512529","0.2491349268","","","","","","","","","","","","74","J","1","","","123","main_expt",""
"","bandit","203","644207","0.0-164.0-0.0","20757599","wem/bandit_either_3","A1VC85P4XYKS4D","either","7","711","","","","","","","1","0","0","0.7117781612","","0.8","0.4","0.6","0.2","","","","","0.7117781612","0.7330206325","0.09419269712","0.2587226179","","","","","","","","72","H","0","img/none_selected.jpg","","124","main_expt",""
"","bandit","204","645967","0.0-165.0-0.0","20757599","wem/bandit_either_3","A1VC85P4XYKS4D","either","7","255","","","","","","","1","0","0","0.6903693331","","0.8","0.4","0.6","0.2","","","","","0.7177409252","0.6903693331","0.110513045","0.2925679814","","","","","","","","74","J","1","","","125","main_expt",""
"","bandit","205","647503","0.0-166.0-0.0","20757599","wem/bandit_either_3","A1VC85P4XYKS4D","either","7","30","","","","","","","0","1","0","","0.7240917845","0.8","0.4","0.6","0.2","0.7240917845","0.6370641568","0.07088043536","0.3997536411","","","","","","","","","","","","72","H","0","img/none_selected.jpg","","126","main_expt",""
"","bandit","206","649128","0.0-167.0-0.0","20757599","wem/bandit_either_3","A1VC85P4XYKS4D","either","7","117","","","","","","","0","1","0","","0.6192694325","0.8","0.4","0.6","0.2","0.6788578752","0.6192694325","0.1041728595","0.4120812041","","","","","","","","","","","","74","J","1","","","127","main_expt",""
"","bandit","207","650735","0.0-168.0-0.0","20757599","wem/bandit_either_3","A1VC85P4XYKS4D","either","7","99","","","","","","","0","0","1","0.6257789885","","0.8","0.4","0.6","0.2","","","","","0.6257789885","0.559348281","0.1006708935","0.3731276689","","","","","","","","72","H","0","img/none_selected.jpg","","128","main_expt",""
"","bandit","208","652378","0.0-169.0-0.0","20757599","wem/bandit_either_3","A1VC85P4XYKS4D","either","7","134","","","","","","","0","0","1","0.4761868647","","0.8","0.4","0.6","0.2","","","","","0.4761868647","0.610360397","0.1336488566","0.3263017501","","","","","","","","72","H","0","img/none_selected.jpg","","129","main_expt",""
"","bandit","209","655231","0.0-170.0-0.0","20757599","wem/bandit_either_3","A1VC85P4XYKS4D","either","7","1347","","","","","","","1","0","0","0.5737783772","","0.8","0.4","0.6","0.2","","","","","0.4745188583","0.5737783772","0.1271550391","0.3226142564","","","","","","","","74","J","1","","","130","main_expt",""
"","bandit","210","657783","0.0-171.0-0.0","20757599","wem/bandit_either_3","A1VC85P4XYKS4D","either","7","1046","","","","","","","0","1","0","","0.4674409752","0.8","0.4","0.6","0.2","0.4674409752","0.6252154127","0.1594360192","0.3907136596","","","","","","","","","","","","72","H","0","img/none_selected.jpg","","131","main_expt",""
"","bandit","211","659663","0.0-172.0-0.0","20757599","wem/bandit_either_3","A1VC85P4XYKS4D","either","7","373","","","","","","","0","1","0","","0.6473056352","0.8","0.4","0.6","0.2","0.368649462","0.6473056352","0.1027658661","0.4983036492","","","","","","","","","","","","74","J","1","","","132","main_expt",""
"","bandit","212","662167","0.0-173.0-0.0","20757599","wem/bandit_either_3","A1VC85P4XYKS4D","either","7","999","","","","","","","1","0","0","0.4313577514","","0.8","0.4","0.6","0.2","","","","","0.4313577514","0.4595123468","0.1223548883","0.6347393695","","","","","","","","72","H","0","img/none_selected.jpg","","133","main_expt",""
"","bandit","213","664007","0.0-174.0-0.0","20757599","wem/bandit_either_3","A1VC85P4XYKS4D","either","7","335","","","","","","","0","0","1","","0.3043385566","0.8","0.4","0.6","0.2","0.3692150919","0.3043385566","0.1063029331","0.6037412299","","","","","","","","","","","","74","J","1","","","134","main_expt",""
"","bandit","214","666224","0.0-175.0-0.0","20757599","wem/bandit_either_3","A1VC85P4XYKS4D","either","7","711","","","","","","","1","0","0","0.340857567","","0.8","0.4","0.6","0.2","","","","","0.3077662431","0.340857567","0.080644856","0.5511090861","","","","","","","","74","J","1","","","135","main_expt",""
"","bandit","215","668423","0.0-176.0-0.0","20757599","wem/bandit_either_3","A1VC85P4XYKS4D","either","7","694","","","","","","","1","0","0","0.2655810755","","0.8","0.4","0.6","0.2","","","","","0.314969588","0.2655810755","0.1359867045","0.585911414","","","","","","","","74","J","1","","","136","main_expt",""
"","bandit","216","670263","0.0-177.0-0.0","20757599","wem/bandit_either_3","A1VC85P4XYKS4D","either","7","333","","","","","","","1","0","0","0.3590847215","","0.8","0.4","0.6","0.2","","","","","0.3590847215","0.3025530854","0.168344283","0.5805905743","","","","","","","","72","H","0","img/none_selected.jpg","","137","main_expt",""
"","bandit","217","673719","0.0-178.0-0.0","20757599","wem/bandit_either_3","A1VC85P4XYKS4D","either","7","1950","","","","","","","0","0","1","","0.2888348812","0.8","0.4","0.6","0.2","0.3588584756","0.2888348812","0.1867455324","0.6357737786","","","","","","","","","","","","74","J","1","","","138","main_expt",""
"","bandit","218","675414","0.0-179.0-0.0","20757599","wem/bandit_either_3","A1VC85P4XYKS4D","either","7","189","","","","","","","0","1","0","","0.4289761638","0.8","0.4","0.6","0.2","0.4289761638","0.2463208975","0.2277874407","0.66639317","","","","","","","","","","","","72","H","0","img/none_selected.jpg","","139","main_expt",""
"","bandit","219","677231","0.0-180.0-0.0","20757599","wem/bandit_either_3","A1VC85P4XYKS4D","either","7","311","","","","","","","0","0","1","0.273109751","","0.8","0.4","0.6","0.2","","","","","0.3801639999","0.273109751","0.2577820179","0.6365789307","","","","","","","","74","J","1","","","140","main_expt",""
"","bandit","220","679311","0.0-181.0-0.0","20757599","wem/bandit_either_3","A1VC85P4XYKS4D","either","7","574","","","","","","","0","0","1","0.2445936549","","0.8","0.4","0.6","0.2","","","","","0.2445936549","0.3355442787","0.3674069736","0.6045632144","","","","","","","","72","H","0","img/none_selected.jpg","","141","main_expt",""
"","bandit","221","681031","0.0-182.0-0.0","20757599","wem/bandit_either_3","A1VC85P4XYKS4D","either","7","215","","","","","","","0","0","1","0.2781999234","","0.8","0.4","0.6","0.2","","","","","0.3394066497","0.2781999234","0.4345417514","0.5148607161","","","","","","","","74","J","1","","","142","main_expt",""
"","bandit","222","682873","0.0-183.0-0.0","20757599","wem/bandit_either_3","A1VC85P4XYKS4D","either","7","333","","","","","","","0","0","1","0.2899754881","","0.8","0.4","0.6","0.2","","","","","0.2899754881","0.2599467226","0.3811672827","0.4754154836","","","","","","","","72","H","0","img/none_selected.jpg","","143","main_expt",""
"","bandit","223","684757","0.0-184.0-0.0","20757599","wem/bandit_either_3","A1VC85P4XYKS4D","either","7","372","","","","","","","0","0","1","0.2353144144","","0.8","0.4","0.6","0.2","","","","","0.3701332444","0.2353144144","0.2754059391","0.516029258","","","","","","","","74","J","1","","","144","main_expt",""
"","bandit","224","686567","0.0-185.0-0.0","20757599","wem/bandit_either_3","A1VC85P4XYKS4D","either","7","303","","","","","","","0","0","1","","0.2773400324","0.8","0.4","0.6","0.2","0.3322753171","0.2120114759","0.2773400324","0.6646605279","","","","","","","","","","","","75","K","2","","","145","main_expt",""
"","bandit","225","688416","0.0-186.0-0.0","20757599","wem/bandit_either_3","A1VC85P4XYKS4D","either","7","342","","","","","","","0","0","1","","0.6331546467","0.8","0.4","0.6","0.2","0.3203507811","0.176067728","0.2780426824","0.6331546467","","","","","","","","","","","","76","L","3","","","146","main_expt",""
"","bandit","226","690664","0.0-187.0-0.0","20757599","wem/bandit_either_3","A1VC85P4XYKS4D","either","7","741","","","","","","","0","0","1","0.3373608721","","0.8","0.4","0.6","0.2","","","","","0.304761248","0.1329453439","0.3373608721","0.6356747602","","","","","","","","75","K","2","","","147","main_expt",""
"","bandit","227","693775","0.0-188.0-0.0","20757599","wem/bandit_either_3","A1VC85P4XYKS4D","either","7","1604","","","","","","","0","0","1","0.1465103875","","0.8","0.4","0.6","0.2","","","","","0.3809280674","0.1465103875","0.3529594122","0.6301772709","","","","","","","","74","J","1","","","148","main_expt",""
"","bandit","228","697744","0.0-189.0-0.0","20757599","wem/bandit_either_3","A1VC85P4XYKS4D","either","7","2463","","","","","","","1","0","0","0.3997986218","","0.8","0.4","0.6","0.2","","","","","0.3997986218","0.1190451538","0.3878328211","0.6640591829","","","","","","","","72","H","0","img/none_selected.jpg","","149","main_expt",""
"","bandit","229","700433","0.0-190.0-0.0","20757599","wem/bandit_either_3","A1VC85P4XYKS4D","either","7","1183","","","","","","","0","0","1","0.3159341416","","0.8","0.4","0.6","0.2","","","","","0.3159341416","0.1195570164","0.42943501","0.6592717552","","","","","","","","72","H","0","img/none_selected.jpg","","150","main_expt",""
"","bandit","230","702752","0.0-191.0-0.0","20757599","wem/bandit_either_3","A1VC85P4XYKS4D","either","7","814","","","","","","","1","0","0","0.3052853957","","0.8","0.4","0.6","0.2","","","","","0.3052853957","0.100492686","0.5142681232","0.5928743102","","","","","","","","72","H","0","img/none_selected.jpg","","151","main_expt",""
"","bandit","231","704832","0.0-192.0-0.0","20757599","wem/bandit_either_3","A1VC85P4XYKS4D","either","7","574","","","","","","","0","0","1","0.1896018403","","0.8","0.4","0.6","0.2","","","","","0.1896018403","0.1030367897","0.6321073962","0.6822187145","","","","","","","","72","H","0","img/none_selected.jpg","","152","main_expt",""
"","bandit","232","706992","0.0-193.0-0.0","20757599","wem/bandit_either_3","A1VC85P4XYKS4D","either","7","653","","","","","","","0","0","1","0.2059045691","","0.8","0.4","0.6","0.2","","","","","0.2439656658","0.2059045691","0.6965670792","0.6832005509","","","","","","","","74","J","1","","","153","main_expt",""
"","bandit","233","709080","0.0-194.0-0.0","20757599","wem/bandit_either_3","A1VC85P4XYKS4D","either","7","581","","","","","","","0","1","0","","0.3068434149","0.8","0.4","0.6","0.2","0.3068434149","0.2921647579","0.6516005735","0.7109729062","","","","","","","","","","","","72","H","0","img/none_selected.jpg","","154","main_expt",""
"","bandit","234","710856","0.0-195.0-0.0","20757599","wem/bandit_either_3","A1VC85P4XYKS4D","either","7","269","","","","","","","0","0","1","","0.1789694193","0.8","0.4","0.6","0.2","0.2314644909","0.1789694193","0.7291318088","0.6975465092","","","","","","","","","","","","74","J","1","","","155","main_expt",""
"","bandit","235","712736","0.0-196.0-0.0","20757599","wem/bandit_either_3","A1VC85P4XYKS4D","either","7","373","","","","","","","0","0","1","0.2154001061","","0.8","0.4","0.6","0.2","","","","","0.2154001061","0.2187195075","0.6273572288","0.6580608271","","","","","","","","72","H","0","img/none_selected.jpg","","156","main_expt",""
"","bandit","236","714568","0.0-197.0-0.0","20757599","wem/bandit_either_3","A1VC85P4XYKS4D","either","7","327","","","","","","","1","0","0","0.566197257","","0.8","0.4","0.6","0.2","","","","","0.1648135251","0.2669834713","0.566197257","0.5695802138","","","","","","","","75","K","2","","","157","main_expt",""
"","bandit","237","716568","0.0-198.0-0.0","20757599","wem/bandit_either_3","A1VC85P4XYKS4D","either","7","494","","","","","","","0","0","1","","0.4523642269","0.8","0.4","0.6","0.2","0.2215973425","0.4240307821","0.4523642269","0.4733954301","","","","","","","","","","","","75","K","2","","","158","main_expt",""
"","bandit","238","718280","0.0-199.0-0.0","20757599","wem/bandit_either_3","A1VC85P4XYKS4D","either","7","206","","","","","","","1","0","0","0.3991212054","","0.8","0.4","0.6","0.2","","","","","0.2243274726","0.3840951437","0.3991212054","0.5619817243","","","","","","","","75","K","2","","","159","main_expt",""
"","bandit","239","720145","0.0-200.0-0.0","20757599","wem/bandit_either_3","A1VC85P4XYKS4D","either","7","357","","","","","","","0","0","1","0.3566558104","","0.8","0.4","0.6","0.2","","","","","0.2061161075","0.4098147986","0.3566558104","0.4701658979","","","","","","","","75","K","2","","","160","main_expt",""
"","bandit","240","721937","0.0-201.0-0.0","20757599","wem/bandit_either_3","A1VC85P4XYKS4D","either","7","284","","","","","","","0","0","1","","0.4430908041","0.8","0.4","0.6","0.2","0.209200141","0.4027252302","0.4430908041","0.5673671472","","","","","","","","","","","","75","K","2","","","161","main_expt",""
"","bandit","241","723697","0.0-202.0-0.0","20757599","wem/bandit_either_3","A1VC85P4XYKS4D","either","7","253","","","","","","","0","0","1","0.3966098285","","0.8","0.4","0.6","0.2","","","","","0.1477343718","0.3824170733","0.3966098285","0.4921809208","","","","","","","","75","K","2","","","162","main_expt",""
"","bandit","242","725519","0.0-203.0-0.0","20757599","wem/bandit_either_3","A1VC85P4XYKS4D","either","7","316","","","","","","","0","0","1","0.3352280924","","0.8","0.4","0.6","0.2","","","","","0.1525050104","0.3352280924","0.3455868331","0.4204505308","","","","","","","","74","J","1","","","163","main_expt",""
"","bandit","243","728063","0.0-204.0-0.0","20757599","wem/bandit_either_3","A1VC85P4XYKS4D","either","7","1037","","","","","","","0","1","0","","0.3379187571","0.8","0.4","0.6","0.2","0.08831047354","0.3379187571","0.3368969945","0.534748173","","","","","","","","","","","","74","J","1","","","164","main_expt",""
"","bandit","244","730889","0.0-205.0-0.0","20757599","wem/bandit_either_3","A1VC85P4XYKS4D","either","7","1319","","","","","","","1","0","0","0.1035482763","","0.8","0.4","0.6","0.2","","","","","0.1035482763","0.3160546663","0.3767562303","0.4724966102","","","","","","","","72","H","0","img/none_selected.jpg","","165","main_expt",""
"","bandit","245","732624","0.0-206.0-0.0","20757599","wem/bandit_either_3","A1VC85P4XYKS4D","either","7","229","","","","","","","0","0","1","","0.3058359067","0.8","0.4","0.6","0.2","0.06888190676","0.3058359067","0.4727650462","0.5280505203","","","","","","","","","","","","74","J","1","","","166","main_expt",""
"","bandit","246","734560","0.0-207.0-0.0","20757599","wem/bandit_either_3","A1VC85P4XYKS4D","either","7","430","","","","","","","0","0","1","0.6140635231","","0.8","0.4","0.6","0.2","","","","","0.06051452263","0.2561334246","0.6140635231","0.589670135","","","","","","","","75","K","2","","","167","main_expt",""
"","bandit","247","736618","0.0-208.0-0.0","20757599","wem/bandit_either_3","A1VC85P4XYKS4D","either","7","551","","","","","","","0","0","1","","0.2459084815","0.8","0.4","0.6","0.2","0.07905307949","0.2459084815","0.5629225295","0.5058201204","","","","","","","","","","","","74","J","1","","","168","main_expt",""
"","bandit","248","738146","0.0-209.0-0.0","20757599","wem/bandit_either_3","A1VC85P4XYKS4D","either","7","21","","","","","","","0","0","1","0.2138460752","","0.8","0.4","0.6","0.2","","","","","0.07051596905","0.2138460752","0.6456076899","0.4102709571","","","","","","","","74","J","1","","","169","main_expt",""
"","bandit","249","740833","0.0-210.0-0.0","20757599","wem/bandit_either_3","A1VC85P4XYKS4D","either","7","1181","","","","","","","0","0","1","0.1056762318","","0.8","0.4","0.6","0.2","","","","","0.1056762318","0.1642406351","0.719827795","0.5061826445","","","","","","","","72","H","0","img/none_selected.jpg","","170","main_expt",""
"","bandit","250","743088","0.0-211.0-0.0","20757599","wem/bandit_either_3","A1VC85P4XYKS4D","either","7","748","","","","","","","0","1","0","","0.6092158501","0.8","0.4","0.6","0.2","0.1513980822","0.2337150112","0.6716280274","0.6092158501","","","","","","","","","","","","76","L","3","","","171","main_expt",""
"","bandit","251","745352","0.0-212.0-0.0","20757599","wem/bandit_either_3","A1VC85P4XYKS4D","either","7","758","","","","","","","0","0","1","0.691496366","","0.8","0.4","0.6","0.2","","","","","0.1552293495","0.3128682212","0.5683226388","0.691496366","","","","","","","","76","L","3","","","172","main_expt",""
"","bandit","252","747304","0.0-213.0-0.0","20757599","wem/bandit_either_3","A1VC85P4XYKS4D","either","7","445","","","","","","","0","1","0","","0.4581357746","0.8","0.4","0.6","0.2","0.1325975083","0.2775517843","0.4581357746","0.7402253768","","","","","","","","","","","","75","K","2","","","173","main_expt",""
"","bandit","253","749353","0.0-214.0-0.0","20757599","wem/bandit_either_3","A1VC85P4XYKS4D","either","7","541","","","","","","","0","0","1","","0.4159305855","0.8","0.4","0.6","0.2","0.09024892351","0.4159305855","0.5903479164","0.6601004511","","","","","","","","","","","","74","J","1","","","174","main_expt",""
"","bandit","254","752008","0.0-215.0-0.0","20757599","wem/bandit_either_3","A1VC85P4XYKS4D","either","7","1149","","","","","","","0","1","0","","0.6781732273","0.8","0.4","0.6","0.2","0.06963745108","0.4471770837","0.5658285383","0.6781732273","","","","","","","","","","","","76","L","3","","","175","main_expt",""
"","bandit","255","754031","0.0-216.0-0.0","20757599","wem/bandit_either_3","A1VC85P4XYKS4D","either","7","517","","","","","","","1","0","0","0.5313506173","","0.8","0.4","0.6","0.2","","","","","0.07897043431","0.5162211083","0.5313506173","0.6932650799","","","","","","","","75","K","2","","","176","main_expt",""
"","bandit","256","757351","0.0-217.0-0.0","20757599","wem/bandit_either_3","A1VC85P4XYKS4D","either","7","1812","","","","","","","1","0","0","0.4231289234","","0.8","0.4","0.6","0.2","","","","","0.09469685393","0.6372676231","0.4231289234","0.6803850572","","","","","","","","75","K","2","","","177","main_expt",""
"","bandit","257","759287","0.0-218.0-0.0","20757599","wem/bandit_either_3","A1VC85P4XYKS4D","either","7","428","","","","","","","0","0","1","0.580807006","","0.8","0.4","0.6","0.2","","","","","0.1486386852","0.6295749113","0.580807006","0.5407017663","","","","","","","","75","K","2","","","178","main_expt",""
"","bandit","258","761559","0.0-219.0-0.0","20757599","wem/bandit_either_3","A1VC85P4XYKS4D","either","7","765","","","","","","","0","1","0","","0.5499948007","0.8","0.4","0.6","0.2","0.1965095934","0.4126066341","0.5499948007","0.5931576708","","","","","","","","","","","","75","K","2","","","179","main_expt",""
"","bandit","259","763846","0.0-220.0-0.0","20757599","wem/bandit_either_3","A1VC85P4XYKS4D","either","7","781","","","","","","","0","0","1","","0.4918200669","0.8","0.4","0.6","0.2","0.1749048096","0.516991344","0.4918200669","0.5390819372","","","","","","","","","","","","75","K","2","","","180","main_expt",""
"","bandit","260","765960","0.0-221.0-0.0","20757599","wem/bandit_either_3","A1VC85P4XYKS4D","either","7","605","","","","","","","0","0","1","0.5428702931","","0.8","0.4","0.6","0.2","","","","","0.232896561","0.4239603033","0.5428702931","0.4929910299","","","","","","","","75","K","2","","","181","main_expt",""
"","bandit","261","767927","0.0-222.0-0.0","20757599","wem/bandit_either_3","A1VC85P4XYKS4D","either","7","460","","","","","","","0","0","1","","0.3961891141","0.8","0.4","0.6","0.2","0.2561822725","0.3961891141","0.5870547156","0.458433212","","","","","","","","","","","","74","J","1","","","182","main_expt",""
"","bandit","262","770015","0.0-223.0-0.0","20757599","wem/bandit_either_3","A1VC85P4XYKS4D","either","7","581","","","","","","","0","1","0","","0.4364601233","0.8","0.4","0.6","0.2","0.2713883962","0.4364601233","0.5031908535","0.5725449786","","","","","","","","","","","","74","J","1","","","183","main_expt",""
"","bandit","263","771815","0.0-224.0-0.0","20757599","wem/bandit_either_3","A1VC85P4XYKS4D","either","7","293","","","","","","","1","0","0","0.3543557679","","0.8","0.4","0.6","0.2","","","","","0.3543557679","0.4826964198","0.4239978994","0.4878383732","","","","","","","","72","H","0","img/none_selected.jpg","","184","main_expt",""
"","bandit","264","773791","0.0-225.0-0.0","20757599","wem/bandit_either_3","A1VC85P4XYKS4D","either","7","470","","","","","","","0","0","1","0.2974533566","","0.8","0.4","0.6","0.2","","","","","0.2974533566","0.4448789548","0.3425545299","0.5189350158","","","","","","","","72","H","0","img/none_selected.jpg","","185","main_expt",""
"","bandit","265","775575","0.0-226.0-0.0","20757599","wem/bandit_either_3","A1VC85P4XYKS4D","either","7","276","","","","","","","0","0","1","","0.4585835861","0.8","0.4","0.6","0.2","0.3295130888","0.4585835861","0.2594221554","0.4310300585","","","","","","","","","","","","74","J","1","","","186","main_expt",""
"","bandit","266","777583","0.0-227.0-0.0","20757599","wem/bandit_either_3","A1VC85P4XYKS4D","either","7","501","","","","","","","0","0","1","0.3440574025","","0.8","0.4","0.6","0.2","","","","","0.3440574025","0.5470412386","0.350747246","0.4005994516","","","","","","","","72","H","0","img/none_selected.jpg","","187","main_expt",""
"","bandit","267","779327","0.0-228.0-0.0","20757599","wem/bandit_either_3","A1VC85P4XYKS4D","either","7","235","","","","","","","0","1","0","","0.5485419855","0.8","0.4","0.6","0.2","0.3176863717","0.5485419855","0.3667816541","0.5684333967","","","","","","","","","","","","74","J","1","","","188","main_expt",""
"","bandit","268","781863","0.0-229.0-0.0","20757599","wem/bandit_either_3","A1VC85P4XYKS4D","either","7","1028","","","","","","","0","0","1","0.6161015427","","0.8","0.4","0.6","0.2","","","","","0.3194332301","0.6161015427","0.3129240978","0.5768443477","","","","","","","","74","J","1","","","189","main_expt",""
"","bandit","269","783663","0.0-230.0-0.0","20757599","wem/bandit_either_3","A1VC85P4XYKS4D","either","7","294","","","","","","","0","1","0","","0.3681084497","0.8","0.4","0.6","0.2","0.3585260795","0.5145576236","0.3681084497","0.6091254975","","","","","","","","","","","","75","K","2","","","190","main_expt",""
"","bandit","270","786095","0.0-231.0-0.0","20757599","wem/bandit_either_3","A1VC85P4XYKS4D","either","7","924","","","","","","","0","0","1","0.3284994938","","0.8","0.4","0.6","0.2","","","","","0.4438822556","0.4447609651","0.3284994938","0.6355225437","","","","","","","","75","K","2","","","191","main_expt",""
"","bandit","271","788423","0.0-232.0-0.0","20757599","wem/bandit_either_3","A1VC85P4XYKS4D","either","7","822","","","","","","","0","0","1","0.2913335268","","0.8","0.4","0.6","0.2","","","","","0.6336907385","0.4273979598","0.2913335268","0.7449996868","","","","","","","","75","K","2","","","192","main_expt",""
"","bandit","272","790559","0.0-233.0-0.0","20757599","wem/bandit_either_3","A1VC85P4XYKS4D","either","7","629","","","","","","","0","0","1","","0.3614904019","0.8","0.4","0.6","0.2","0.5871300795","0.4382354048","0.3614904019","0.7645281636","","","","","","","","","","","","75","K","2","","","193","main_expt",""
"","bandit","273","793479","0.0-234.0-0.0","20757599","wem/bandit_either_3","A1VC85P4XYKS4D","either","7","1413","","","","","","","0","0","1","0.4180963095","","0.8","0.4","0.6","0.2","","","","","0.5919999684","0.4367950698","0.4180963095","0.7417458559","","","","","","","","75","K","2","","","194","main_expt",""
"","bandit","274","795480","0.0-235.0-0.0","20757599","wem/bandit_either_3","A1VC85P4XYKS4D","either","7","491","","","","","","","0","0","1","0.4129416526","","0.8","0.4","0.6","0.2","","","","","0.5599221581","0.4306922929","0.4129416526","0.7102393491","","","","","","","","75","K","2","","","195","main_expt",""
"","bandit","275","797534","0.0-236.0-0.0","20757599","wem/bandit_either_3","A1VC85P4XYKS4D","either","7","547","","","","","","","1","0","0","0.4436260943","","0.8","0.4","0.6","0.2","","","","","0.4552797342","0.4436260943","0.6027995291","0.6846894693","","","","","","","","74","J","1","","","196","main_expt",""
"","bandit","276","799368","0.0-237.0-0.0","20757599","wem/bandit_either_3","A1VC85P4XYKS4D","either","7","327","","","","","","","0","0","1","0.6174547511","","0.8","0.4","0.6","0.2","","","","","0.3045440077","0.4547077395","0.6174547511","0.6573901597","","","","","","","","75","K","2","","","197","main_expt",""
"","bandit","277","801327","0.0-238.0-0.0","20757599","wem/bandit_either_3","A1VC85P4XYKS4D","either","7","452","","","","","","","0","1","0","","0.4061180554","0.8","0.4","0.6","0.2","0.4061180554","0.545148617","0.5727893511","0.7020762336","","","","","","","","","","","","72","H","0","img/none_selected.jpg","","198","main_expt",""
"","bandit","278","803696","0.0-239.0-0.0","20757599","wem/bandit_either_3","A1VC85P4XYKS4D","either","7","861","","","","","","","0","0","1","0.3406873398","","0.8","0.4","0.6","0.2","","","","","0.3406873398","0.5838562778","0.5803616598","0.7749867965","","","","","","","","72","H","0","img/none_selected.jpg","","199","main_expt",""
"","bandit","279","805247","0.0-240.0-0.0","20757599","wem/bandit_either_3","A1VC85P4XYKS4D","either","7","44","","","","","","","0","1","0","","0.6569131065","0.8","0.4","0.6","0.2","0.2810551981","0.6569131065","0.5109940584","0.7971262248","","","","","","","","","","","","74","J","1","","","200","main_expt",""
"","bandit","280","806856","0.0-241.0-0.0","20757599","wem/bandit_either_3","A1VC85P4XYKS4D","either","7","101","","","","","","","0","0","1","0.444158281","","0.8","0.4","0.6","0.2","","","","","0.2295892347","0.6559739125","0.444158281","0.6431063495","","","","","","","","75","K","2","","","201","main_expt",""
"","bandit","281","808495","0.0-242.0-0.0","20757599","wem/bandit_either_3","A1VC85P4XYKS4D","either","7","131","","","","","","","0","1","0","","0.5940698896","0.8","0.4","0.6","0.2","0.2134833186","0.5940698896","0.3774362348","0.6153479028","","","","","","","","","","","","74","J","1","","","202","main_expt",""
"","bandit","282","810247","0.0-243.0-0.0","20757599","wem/bandit_either_3","A1VC85P4XYKS4D","either","7","245","","","","","","","0","0","1","0.1538434825","","0.8","0.4","0.6","0.2","","","","","0.1538434825","0.6288005559","0.2852638898","0.6107921693","","","","","","","","72","H","0","img/none_selected.jpg","","203","main_expt",""
"","bandit","283","811920","0.0-244.0-0.0","20757599","wem/bandit_either_3","A1VC85P4XYKS4D","either","7","165","","","","","","","0","0","1","0.7483345684","","0.8","0.4","0.6","0.2","","","","","0.08629221539","0.7483345684","0.3900316507","0.6364312764","","","","","","","","74","J","1","","","204","main_expt",""
"","bandit","284","813874","0.0-245.0-0.0","20757599","wem/bandit_either_3","A1VC85P4XYKS4D","either","7","443","","","","","","","1","0","0","0.3334674042","","0.8","0.4","0.6","0.2","","","","","0.1303029892","0.7823609999","0.3334674042","0.7098325313","","","","","","","","75","K","2","","","205","main_expt",""
"","bandit","285","815381","0.0-246.0-0.0","20757599","wem/bandit_either_3","A1VC85P4XYKS4D","either","7","0","","","","","","","0","0","1","","0.6423198407","0.8","0.4","0.6","0.2","0.1290793888","0.7053347691","0.3997779834","0.6423198407","","","","","","","","","","","","76","L","3","","","206","main_expt",""
"","bandit","286","817431","0.0-247.0-0.0","20757599","wem/bandit_either_3","A1VC85P4XYKS4D","either","7","542","","","","","","","0","1","0","","0.1471003053","0.8","0.4","0.6","0.2","0.1471003053","0.692958529","0.2791746034","0.7196337679","","","","","","","","","","","","72","H","0","img/none_selected.jpg","","207","main_expt",""
"","bandit","287","819719","0.0-248.0-0.0","20757599","wem/bandit_either_3","A1VC85P4XYKS4D","either","7","782","","","","","","","0","0","1","","0.1204476287","0.8","0.4","0.6","0.2","0.1204476287","0.5726600787","0.3447420344","0.7273253538","","","","","","","","","","","","72","H","0","img/none_selected.jpg","","208","main_expt",""
"","bandit","288","821672","0.0-249.0-0.0","20757599","wem/bandit_either_3","A1VC85P4XYKS4D","either","7","444","","","","","","","1","0","0","0.7193759884","","0.8","0.4","0.6","0.2","","","","","0.1752658923","0.7193759884","0.2106944101","0.7701678217","","","","","","","","74","J","1","","","209","main_expt",""
"","bandit","289","823335","0.0-250.0-0.0","20757599","wem/bandit_either_3","A1VC85P4XYKS4D","either","7","156","","","","","","","0","0","1","0.5469619257","","0.8","0.4","0.6","0.2","","","","","0.2071456167","0.5469619257","0.2609791638","0.7673062315","","","","","","","","74","J","1","","","210","main_expt",""
"","bandit","290","825111","0.0-251.0-0.0","20757599","wem/bandit_either_3","A1VC85P4XYKS4D","either","7","269","","","","","","","1","0","0","0.1982577311","","0.8","0.4","0.6","0.2","","","","","0.1982577311","0.5432746348","0.3702243554","0.7733207599","","","","","","","","72","H","0","img/none_selected.jpg","","211","main_expt",""
"","bandit","291","826928","0.0-252.0-0.0","20757599","wem/bandit_either_3","A1VC85P4XYKS4D","either","7","308","","","","","","","0","1","0","","0.4070014152","0.8","0.4","0.6","0.2","0.2837026457","0.4857525371","0.4070014152","0.7176010575","","","","","","","","","","","","75","K","2","","","212","main_expt",""
"","bandit","292","828479","0.0-253.0-0.0","20757599","wem/bandit_either_3","A1VC85P4XYKS4D","either","7","44","","","","","","","0","0","1","0.4416723402","","0.8","0.4","0.6","0.2","","","","","0.2192955177","0.4416723402","0.5001351259","0.7241732444","","","","","","","","74","J","1","","","213","main_expt",""
"","bandit","293","830359","0.0-254.0-0.0","20757599","wem/bandit_either_3","A1VC85P4XYKS4D","either","7","372","","","","","","","0","0","1","","0.2885853396","0.8","0.4","0.6","0.2","0.2885853396","0.4231083207","0.5667049056","0.6696022014","","","","","","","","","","","","72","H","0","img/none_selected.jpg","","214","main_expt",""
"","bandit","294","832319","0.0-255.0-0.0","20757599","wem/bandit_either_3","A1VC85P4XYKS4D","either","7","452","","","","","","","0","1","0","","0.329019478","0.8","0.4","0.6","0.2","0.2451296471","0.329019478","0.5259574602","0.6255990046","","","","","","","","","","","","74","J","1","","","215","main_expt",""
"","bandit","295","833839","0.0-256.0-0.0","20757599","wem/bandit_either_3","A1VC85P4XYKS4D","either","7","12","","","","","","","0","0","1","","0.3469743373","0.8","0.4","0.6","0.2","0.1946790852","0.3469743373","0.5468860011","0.6771362935","","","","","","","","","","","","74","J","1","","","216","main_expt",""
"","bandit","296","835447","0.0-257.0-0.0","20757599","wem/bandit_either_3","A1VC85P4XYKS4D","either","7","101","","","","","","","0","0","1","0.6182745027","","0.8","0.4","0.6","0.2","","","","","0.2497229096","0.3618740044","0.6182745027","0.6918953154","","","","","","","","75","K","2","","","217","main_expt",""
"","bandit","297","837032","0.0-258.0-0.0","20757599","wem/bandit_either_3","A1VC85P4XYKS4D","either","7","77","","","","","","","0","1","0","","0.5726390237","0.8","0.4","0.6","0.2","0.3076421025","0.3574217595","0.5979125128","0.5726390237","","","","","","","","","","","","76","L","3","","","218","main_expt",""
"","bandit","298","838807","0.0-259.0-0.0","20757599","wem/bandit_either_3","A1VC85P4XYKS4D","either","7","267","","","","","","","1","0","0","0.3862686792","","0.8","0.4","0.6","0.2","","","","","0.3488941347","0.3862686792","0.5321687475","0.5179196303","","","","","","","","74","J","1","","","219","main_expt",""
"","bandit","299","841247","0.0-260.0-0.0","20757599","wem/bandit_either_3","A1VC85P4XYKS4D","either","7","933","","","","","","","1","0","0","0.306784001","","0.8","0.4","0.6","0.2","","","","","0.306784001","0.4432846828","0.6053830099","0.5578222379","","","","","","","","72","H","0","img/none_selected.jpg","","220","main_expt",""
"","bandit","300","843255","0.0-261.0-0.0","20757599","wem/bandit_either_3","A1VC85P4XYKS4D","either","7","501","","","","","","","1","0","0","0.69383498","","0.8","0.4","0.6","0.2","","","","","0.3786925452","0.432499938","0.69383498","0.6640911266","","","","","","","","75","K","2","","","221","main_expt",""
"","bandit","301","846311","0.0-262.0-0.0","20757599","wem/bandit_either_3","A1VC85P4XYKS4D","either","7","1548","","","","","","","0","0","1","0.783375317","","0.8","0.4","0.6","0.2","","","","","0.5014801557","0.4050903391","0.783375317","0.7340686256","","","","","","","","75","K","2","","","222","main_expt",""
"","bandit","302","847839","0.0-263.0-0.0","20757599","wem/bandit_either_3","A1VC85P4XYKS4D","either","7","19","","","","","","","1","0","0","0.8374489269","","0.8","0.4","0.6","0.2","","","","","0.4081704387","0.3282593462","0.8374489269","0.852862777","","","","","","","","75","K","2","","","223","main_expt",""
"","bandit","303","849599","0.0-264.0-0.0","20757599","wem/bandit_either_3","A1VC85P4XYKS4D","either","7","253","","","","","","","0","1","0","","0.7830506485","0.8","0.4","0.6","0.2","0.422296693","0.2465370002","0.7801262993","0.7830506485","","","","","","","","","","","","76","L","3","","","224","main_expt",""
"","bandit","304","851312","0.0-265.0-0.0","20757599","wem/bandit_either_3","A1VC85P4XYKS4D","either","7","204","","","","","","","0","0","1","0.3998144739","","0.8","0.4","0.6","0.2","","","","","0.3998144739","0.2260872052","0.7438235551","0.7447555501","","","","","","","","72","H","0","img/none_selected.jpg","","225","main_expt",""
"","bandit","305","853215","0.0-266.0-0.0","20757599","wem/bandit_either_3","A1VC85P4XYKS4D","either","7","396","","","","","","","0","0","1","","0.2573895518","0.8","0.4","0.6","0.2","0.2692780115","0.2573895518","0.7561714458","0.7331719472","","","","","","","","","","","","74","J","1","","","226","main_expt",""
"","bandit","306","854951","0.0-267.0-0.0","20757599","wem/bandit_either_3","A1VC85P4XYKS4D","either","7","229","","","","","","","0","0","1","0.268728261","","0.8","0.4","0.6","0.2","","","","","0.268728261","0.2134597582","0.7527106072","0.6417259928","","","","","","","","72","H","0","img/none_selected.jpg","","227","main_expt",""
"","bandit","307","856983","0.0-268.0-0.0","20757599","wem/bandit_either_3","A1VC85P4XYKS4D","either","7","524","","","","","","","0","0","1","","0.348479141","0.8","0.4","0.6","0.2","0.2211951924","0.348479141","0.6315627418","0.6050549784","","","","","","","","","","","","74","J","1","","","228","main_expt",""
"","bandit","308","859071","0.0-269.0-0.0","20757599","wem/bandit_either_3","A1VC85P4XYKS4D","either","7","581","","","","","","","0","0","1","0.5564086662","","0.8","0.4","0.6","0.2","","","","","0.219241791","0.3250735223","0.5564086662","0.5962230341","","","","","","","","75","K","2","","","229","main_expt",""
"","bandit","309","860960","0.0-270.0-0.0","20757599","wem/bandit_either_3","A1VC85P4XYKS4D","either","7","380","","","","","","","0","0","1","","0.5594933722","0.8","0.4","0.6","0.2","0.291585141","0.3395219718","0.5895813861","0.5594933722","","","","","","","","","","","","76","L","3","","","230","main_expt",""
"","bandit","310","863023","0.0-271.0-0.0","20757599","wem/bandit_either_3","A1VC85P4XYKS4D","either","7","555","","","","","","","0","1","0","","0.3315483329","0.8","0.4","0.6","0.2","0.2754541949","0.3315483329","0.6148213975","0.6411036761","","","","","","","","","","","","74","J","1","","","231","main_expt",""
"","bandit","311","864983","0.0-272.0-0.0","20757599","wem/bandit_either_3","A1VC85P4XYKS4D","either","7","452","","","","","","","0","0","1","0.3055336503","","0.8","0.4","0.6","0.2","","","","","0.3055336503","0.3876030756","0.5176988489","0.6653930637","","","","","","","","72","H","0","img/none_selected.jpg","","232","main_expt",""
"","bandit","312","866527","0.0-273.0-0.0","20757599","wem/bandit_either_3","A1VC85P4XYKS4D","either","7","36","","","","","","","0","0","1","0.4505666118","","0.8","0.4","0.6","0.2","","","","","0.3390100853","0.3696248546","0.4505666118","0.5426719569","","","","","","","","75","K","2","","","233","main_expt",""
"","bandit","313","868687","0.0-274.0-0.0","20757599","wem/bandit_either_3","A1VC85P4XYKS4D","either","7","651","","","","","","","1","0","0","0.3927474605","","0.8","0.4","0.6","0.2","","","","","0.3165323161","0.3927474605","0.4393496879","0.5581360181","","","","","","","","74","J","1","","","234","main_expt",""
"","bandit","314","870887","0.0-275.0-0.0","20757599","wem/bandit_either_3","A1VC85P4XYKS4D","either","7","692","","","","","","","0","0","1","0.2944333127","","0.8","0.4","0.6","0.2","","","","","0.2944333127","0.4734072524","0.3542725407","0.5299247183","","","","","","","","72","H","0","img/none_selected.jpg","","235","main_expt",""
"","bandit","315","873008","0.0-276.0-0.0","20757599","wem/bandit_either_3","A1VC85P4XYKS4D","either","7","612","","","","","","","1","0","0","0.4127469632","","0.8","0.4","0.6","0.2","","","","","0.4127469632","0.5857320117","0.452511288","0.4709954077","","","","","","","","72","H","0","img/none_selected.jpg","","236","main_expt",""
"","bandit","316","874607","0.0-277.0-0.0","20757599","wem/bandit_either_3","A1VC85P4XYKS4D","either","7","91","","","","","","","1","0","0","0.4353664578","","0.8","0.4","0.6","0.2","","","","","0.4353664578","0.5208556897","0.4743784035","0.4171051322","","","","","","","","72","H","0","img/none_selected.jpg","","237","main_expt",""
"","bandit","317","876415","0.0-278.0-0.0","20757599","wem/bandit_either_3","A1VC85P4XYKS4D","either","7","300","","","","","","","0","1","0","","0.4551370454","0.8","0.4","0.6","0.2","0.3871798792","0.4551370454","0.4666998134","0.40722148","","","","","","","","","","","","74","J","1","","","238","main_expt",""
"","bandit","318","878383","0.0-279.0-0.0","20757599","wem/bandit_either_3","A1VC85P4XYKS4D","either","7","460","","","","","","","0","0","1","","0.3244704863","0.8","0.4","0.6","0.2","0.3244704863","0.2979137516","0.4916456171","0.3113271407","","","","","","","","","","","","72","H","0","img/none_selected.jpg","","239","main_expt",""
"","bandit","319","880223","0.0-280.0-0.0","20757599","wem/bandit_either_3","A1VC85P4XYKS4D","either","7","332","","","","","","","0","0","1","","0.2453134511","0.8","0.4","0.6","0.2","0.3606581002","0.2453134511","0.7128417261","0.2505753432","","","","","","","","","","","","74","J","1","","","240","main_expt",""
"","bandit","320","881999","0.0-281.0-0.0","20757599","wem/bandit_either_3","A1VC85P4XYKS4D","either","7","268","","","","","","","1","0","0","0.7711562233","","0.8","0.4","0.6","0.2","","","","","0.3524522155","0.1984184333","0.7711562233","0.2015136922","","","","","","","","75","K","2","","","241","main_expt",""
"","bandit","321","883855","0.0-282.0-0.0","20757599","wem/bandit_either_3","A1VC85P4XYKS4D","either","7","347","","","","","","","0","1","0","","0.2405045743","0.8","0.4","0.6","0.2","0.3677191248","0.35553679","0.7503869254","0.2405045743","","","","","","","","","","","","76","L","3","","","242","main_expt",""
