"consent","trial_type","trial_index","time_elapsed","internal_node_id","subjID","study","MID","cond","drift","rt","responses","key_press","expt_phase","like","value","connected","gems","bombs","no_reward","GemPrChosen","BombPrChosen","GainOverPainPr_0","GainOverPainPr_1","GainOverPainPr_2","GainOverPainPr_3","LosePr_0","LosePr_1","LosePr_2","LosePr_3","WinPr_0","WinPr_1","WinPr_2","WinPr_3","Q0","Q1","Q2","gender","age","ethnicity","target","respCharCode","respKey","respChoiceNum","respChoice","practice","trial_counter","trial_label","button_pressed"
"INL_behavioral_consent_30min_online.html","consent","0","6170","0.0-0.0","23579773","wem/bandit_either_3","A2QMHQXR8K4VJ2","either","4","","","","","","","","","","","","","","","","","","","","","","","","","","","","","","","","","","","","","","",""
"","survey-text","1","8866","0.0-1.0","23579773","wem/bandit_either_3","A2QMHQXR8K4VJ2","either","4","1671","{""Q0"":""A2QMHQXR8K4VJ2""}","","","","","","","","","","","","","","","","","","","","","","","","","","","","","","","","","","","","",""
"","text","2","15056","0.0-2.0","23579773","wem/bandit_either_3","A2QMHQXR8K4VJ2","either","4","5185","","32","","","","","","","","","","","","","","","","","","","","","","","","","","","","","","","","","","","",""
"","text","3","15929","0.0-3.0","23579773","wem/bandit_either_3","A2QMHQXR8K4VJ2","either","4","869","","32","","","","","","","","","","","","","","","","","","","","","","","","","","","","","","","","","","","",""
"","text","4","16438","0.0-4.0","23579773","wem/bandit_either_3","A2QMHQXR8K4VJ2","either","4","506","","32","","","","","","","","","","","","","","","","","","","","","","","","","","","","","","","","","","","",""
"","text","5","16820","0.0-5.0","23579773","wem/bandit_either_3","A2QMHQXR8K4VJ2","either","4","380","","32","","","","","","","","","","","","","","","","","","","","","","","","","","","","","","","","","","","",""
"","text","6","17402","0.0-6.0","23579773","wem/bandit_either_3","A2QMHQXR8K4VJ2","either","4","578","","32","","","","","","","","","","","","","","","","","","","","","","","","","","","","","","","","","","","",""
"","text","7","17946","0.0-7.0","23579773","wem/bandit_either_3","A2QMHQXR8K4VJ2","either","4","542","","32","","","","","","","","","","","","","","","","","","","","","","","","","","","","","","","","","","","",""
"","text","8","18308","0.0-8.0","23579773","wem/bandit_either_3","A2QMHQXR8K4VJ2","either","4","358","","32","","","","","","","","","","","","","","","","","","","","","","","","","","","","","","","","","","","",""
"","identification","9","22524","0.0-9.0-0.0","23579773","wem/bandit_either_3","A2QMHQXR8K4VJ2","either","4","4186","","","","2","5","4","","","","","","","","","","","","","","","","","","","","","","","","the village of Zur","","","","","","","",""
"","identification","10","27230","0.0-9.0-1.0","23579773","wem/bandit_either_3","A2QMHQXR8K4VJ2","either","4","3671","","","","5","3","5","","","","","","","","","","","","","","","","","","","","","","","","the village of Nyx","","","","","","","",""
"","text","11","31720","0.0-10.0","23579773","wem/bandit_either_3","A2QMHQXR8K4VJ2","either","4","3486","","32","","","","","","","","","","","","","","","","","","","","","","","","","","","","","","","","","","","",""
"","text","12","32616","0.0-11.0","23579773","wem/bandit_either_3","A2QMHQXR8K4VJ2","either","4","893","","32","","","","","","","","","","","","","","","","","","","","","","","","","","","","","","","","","","","",""
"","text","13","34351","0.0-12.0","23579773","wem/bandit_either_3","A2QMHQXR8K4VJ2","either","4","1733","","32","","","","","","","","","","","","","","","","","","","","","","","","","","","","","","","","","","","",""
"","text","14","36563","0.0-13.0","23579773","wem/bandit_either_3","A2QMHQXR8K4VJ2","either","4","2208","","32","","","","","","","","","","","","","","","","","","","","","","","","","","","","","","","","","","","",""
"","bandit","15","40245","0.0-14.0-0.0","23579773","wem/bandit_either_3","A2QMHQXR8K4VJ2","either","4","2168","","","","","","","0","0","1","0","0","","","","","0","","","","0","","","","","","","","","","","74","J","0","img/none_selected_demo.jpg","true","0","",""
"","bandit","16","43703","0.0-15.0-0.0","23579773","wem/bandit_either_3","A2QMHQXR8K4VJ2","either","4","1948","","","","","","","0","0","1","0","0","","","","","0","","","","0","","","","","","","","","","","75","K","0","img/none_selected_demo.jpg","true","0","",""
"","text","17","44414","0.0-16.0","23579773","wem/bandit_either_3","A2QMHQXR8K4VJ2","either","4","709","","32","","","","","","","","","","","","","","","","","","","","","","","","","","","","","","","","","","","",""
"","text","18","44847","0.0-17.0","23579773","wem/bandit_either_3","A2QMHQXR8K4VJ2","either","4","428","","32","","","","","","","","","","","","","","","","","","","","","","","","","","","","","","","","","","","",""
"","text","19","45184","0.0-18.0","23579773","wem/bandit_either_3","A2QMHQXR8K4VJ2","either","4","335","","32","","","","","","","","","","","","","","","","","","","","","","","","","","","","","","","","","","","",""
"","text","20","45474","0.0-19.0","23579773","wem/bandit_either_3","A2QMHQXR8K4VJ2","either","4","287","","32","","","","","","","","","","","","","","","","","","","","","","","","","","","","","","","","","","","",""
"","bandit","21","47705","0.0-20.0-0.0","23579773","wem/bandit_either_3","A2QMHQXR8K4VJ2","either","4","723","","","","","","","1","0","0","0.8","","0.5","0.5","","","","","","","0.8","0.2","","","","","","","","","","74","J","0","img/none_selected_demo.jpg","true","0","80_20_practice",""
"","bandit","22","49531","0.0-20.0-1.0","23579773","wem/bandit_either_3","A2QMHQXR8K4VJ2","either","4","316","","","","","","","0","0","1","0.8","","0.5","0.5","","","","","","","0.8","0.2","","","","","","","","","","74","J","0","img/none_selected_demo.jpg","true","0","80_20_practice",""
"","bandit","23","51674","0.0-20.0-2.0","23579773","wem/bandit_either_3","A2QMHQXR8K4VJ2","either","4","633","","","","","","","0","0","1","0.2","","0.5","0.5","","","","","","","0.8","0.2","","","","","","","","","","75","K","1","","true","0","80_20_practice",""
"","bandit","24","53555","0.0-20.0-3.0","23579773","wem/bandit_either_3","A2QMHQXR8K4VJ2","either","4","370","","","","","","","0","0","1","0.2","","0.5","0.5","","","","","","","0.8","0.2","","","","","","","","","","75","K","1","","true","0","80_20_practice",""
"","bandit","25","55294","0.0-20.0-4.0","23579773","wem/bandit_either_3","A2QMHQXR8K4VJ2","either","4","229","","","","","","","0","0","1","0.2","","0.5","0.5","","","","","","","0.8","0.2","","","","","","","","","","75","K","1","","true","0","80_20_practice",""
"","bandit","26","56882","0.0-20.0-5.0","23579773","wem/bandit_either_3","A2QMHQXR8K4VJ2","either","4","78","","","","","","","0","1","0","","0.8","0.5","0.5","","","0.8","0.2","","","","","","","","","","","","","","74","J","0","img/none_selected_demo.jpg","true","0","80_20_practice",""
"","bandit","27","59068","0.0-20.0-6.0","23579773","wem/bandit_either_3","A2QMHQXR8K4VJ2","either","4","676","","","","","","","1","0","0","0.8","","0.5","0.5","","","","","","","0.8","0.2","","","","","","","","","","74","J","0","img/none_selected_demo.jpg","true","0","80_20_practice",""
"","bandit","28","60837","0.0-20.0-7.0","23579773","wem/bandit_either_3","A2QMHQXR8K4VJ2","either","4","260","","","","","","","0","0","1","0.2","","0.5","0.5","","","","","","","0.8","0.2","","","","","","","","","","75","K","1","","true","0","80_20_practice",""
"","bandit","29","62403","0.0-20.0-8.0","23579773","wem/bandit_either_3","A2QMHQXR8K4VJ2","either","4","57","","","","","","","0","1","0","","0.8","0.5","0.5","","","0.8","0.2","","","","","","","","","","","","","","74","J","0","img/none_selected_demo.jpg","true","0","80_20_practice",""
"","bandit","30","64324","0.0-20.0-9.0","23579773","wem/bandit_either_3","A2QMHQXR8K4VJ2","either","4","412","","","","","","","1","0","0","0.8","","0.5","0.5","","","","","","","0.8","0.2","","","","","","","","","","74","J","0","img/none_selected_demo.jpg","true","0","80_20_practice",""
"","bandit","31","66415","0.0-20.0-10.0","23579773","wem/bandit_either_3","A2QMHQXR8K4VJ2","either","4","581","","","","","","","0","1","0","","0.8","0.5","0.5","","","0.8","0.2","","","","","","","","","","","","","","74","J","0","img/none_selected_demo.jpg","true","0","80_20_practice",""
"","bandit","32","68144","0.0-20.0-11.0","23579773","wem/bandit_either_3","A2QMHQXR8K4VJ2","either","4","218","","","","","","","0","1","0","","0.8","0.5","0.5","","","0.8","0.2","","","","","","","","","","","","","","74","J","0","img/none_selected_demo.jpg","true","0","80_20_practice",""
"","bandit","33","69848","0.0-20.0-12.0","23579773","wem/bandit_either_3","A2QMHQXR8K4VJ2","either","4","195","","","","","","","0","1","0","","0.8","0.5","0.5","","","0.8","0.2","","","","","","","","","","","","","","74","J","0","img/none_selected_demo.jpg","true","0","80_20_practice",""
"","bandit","34","71562","0.0-20.0-13.0","23579773","wem/bandit_either_3","A2QMHQXR8K4VJ2","either","4","205","","","","","","","1","0","0","0.8","","0.5","0.5","","","","","","","0.8","0.2","","","","","","","","","","74","J","0","img/none_selected_demo.jpg","true","0","80_20_practice",""
"","bandit","35","73761","0.0-20.0-14.0","23579773","wem/bandit_either_3","A2QMHQXR8K4VJ2","either","4","691","","","","","","","0","1","0","","0.8","0.5","0.5","","","0.8","0.2","","","","","","","","","","","","","","74","J","0","img/none_selected_demo.jpg","true","0","80_20_practice",""
"","bandit","36","75507","0.0-20.0-15.0","23579773","wem/bandit_either_3","A2QMHQXR8K4VJ2","either","4","237","","","","","","","0","1","0","","0.8","0.5","0.5","","","0.8","0.2","","","","","","","","","","","","","","74","J","0","img/none_selected_demo.jpg","true","0","80_20_practice",""
"","bandit","37","77201","0.0-20.0-16.0","23579773","wem/bandit_either_3","A2QMHQXR8K4VJ2","either","4","185","","","","","","","0","1","0","","0.8","0.5","0.5","","","0.8","0.2","","","","","","","","","","","","","","74","J","0","img/none_selected_demo.jpg","true","0","80_20_practice",""
"","bandit","38","78842","0.0-20.0-17.0","23579773","wem/bandit_either_3","A2QMHQXR8K4VJ2","either","4","130","","","","","","","0","0","1","","0.2","0.5","0.5","","","0.8","0.2","","","","","","","","","","","","","","75","K","1","","true","0","80_20_practice",""
"","bandit","39","80423","0.0-20.0-18.0","23579773","wem/bandit_either_3","A2QMHQXR8K4VJ2","either","4","73","","","","","","","0","1","0","","0.8","0.5","0.5","","","0.8","0.2","","","","","","","","","","","","","","74","J","0","img/none_selected_demo.jpg","true","0","80_20_practice",""
"","bandit","40","82408","0.0-20.0-19.0","23579773","wem/bandit_either_3","A2QMHQXR8K4VJ2","either","4","476","","","","","","","0","1","0","","0.2","0.5","0.5","","","0.8","0.2","","","","","","","","","","","","","","75","K","1","","true","0","80_20_practice",""
"","text","41","87239","0.0-21.0","23579773","wem/bandit_either_3","A2QMHQXR8K4VJ2","either","4","4827","","32","","","","","","","","","","","","","","","","","","","","","","","","","","","","","","","","","","","",""
"","bandit","42","91170","0.0-22.0-0.0","23579773","wem/bandit_either_3","A2QMHQXR8K4VJ2","either","4","2422","","","","","","","1","0","0","1","0","","","","","0","1","","","1","0","","","","","","","","","","74","J","0","img/none_selected_demo.jpg","true","0","",""
"","text","43","92392","0.0-23.0","23579773","wem/bandit_either_3","A2QMHQXR8K4VJ2","either","4","1219","","32","","","","","","","","","","","","","","","","","","","","","","","","","","","","","","","","","","","",""
"","text","44","94727","0.0-24.0","23579773","wem/bandit_either_3","A2QMHQXR8K4VJ2","either","4","2329","","32","","","","","","","","","","","","","","","","","","","","","","","","","","","","","","","","","","","",""
"","text","45","96498","0.0-25.0","23579773","wem/bandit_either_3","A2QMHQXR8K4VJ2","either","4","1768","","32","","","","","","","","","","","","","","","","","","","","","","","","","","","","","","","","","","","",""
"","text","46","97111","0.0-26.0","23579773","wem/bandit_either_3","A2QMHQXR8K4VJ2","either","4","610","","32","","","","","","","","","","","","","","","","","","","","","","","","","","","","","","","","","","","",""
"","text","47","97514","0.0-27.0","23579773","wem/bandit_either_3","A2QMHQXR8K4VJ2","either","4","399","","32","","","","","","","","","","","","","","","","","","","","","","","","","","","","","","","","","","","",""
"","text","48","97858","0.0-28.0","23579773","wem/bandit_either_3","A2QMHQXR8K4VJ2","either","4","340","","32","","","","","","","","","","","","","","","","","","","","","","","","","","","","","","","","","","","",""
"","text","49","98210","0.0-29.0","23579773","wem/bandit_either_3","A2QMHQXR8K4VJ2","either","4","349","","32","","","","","","","","","","","","","","","","","","","","","","","","","","","","","","","","","","","",""
"","text","50","98541","0.0-30.0","23579773","wem/bandit_either_3","A2QMHQXR8K4VJ2","either","4","328","","32","","","","","","","","","","","","","","","","","","","","","","","","","","","","","","","","","","","",""
"","text","51","98851","0.0-31.0","23579773","wem/bandit_either_3","A2QMHQXR8K4VJ2","either","4","305","","32","","","","","","","","","","","","","","","","","","","","","","","","","","","","","","","","","","","",""
"","text","52","99146","0.0-32.0","23579773","wem/bandit_either_3","A2QMHQXR8K4VJ2","either","4","290","","32","","","","","","","","","","","","","","","","","","","","","","","","","","","","","","","","","","","",""
"","text","53","99402","0.0-33.0","23579773","wem/bandit_either_3","A2QMHQXR8K4VJ2","either","4","252","","32","","","","","","","","","","","","","","","","","","","","","","","","","","","","","","","","","","","",""
"","bandit","54","101418","0.0-34.0-0.0","23579773","wem/bandit_either_3","A2QMHQXR8K4VJ2","either","4","506","","","","","","","0","1","0","","0.8","0.5","0.5","0.5","0.5","0.8","0.2","0.6","0.2","","","","","","","","","","","","72","H","0","img/none_selected.jpg","true","0","full_practice",""
"","bandit","55","103829","0.0-34.0-1.0","23579773","wem/bandit_either_3","A2QMHQXR8K4VJ2","either","4","901","","","","","","","0","0","1","","0.2","0.5","0.5","0.5","0.5","0.8","0.2","0.6","0.2","","","","","","","","","","","","76","L","3","","true","0","full_practice",""
"","bandit","56","105601","0.0-34.0-2.0","23579773","wem/bandit_either_3","A2QMHQXR8K4VJ2","either","4","259","","","","","","","0","1","0","","0.6","0.5","0.5","0.5","0.5","0.8","0.2","0.6","0.2","","","","","","","","","","","","75","K","2","","true","0","full_practice",""
"","bandit","57","107335","0.0-34.0-3.0","23579773","wem/bandit_either_3","A2QMHQXR8K4VJ2","either","4","224","","","","","","","0","0","1","0.2","","0.5","0.5","0.5","0.5","","","","","0.8","0.2","0.6","0.2","","","","","","","","74","J","1","","true","0","full_practice",""
"","bandit","58","109862","0.0-34.0-4.0","23579773","wem/bandit_either_3","A2QMHQXR8K4VJ2","either","4","1019","","","","","","","0","0","1","0.8","","0.5","0.5","0.5","0.5","","","","","0.8","0.2","0.6","0.2","","","","","","","","72","H","0","img/none_selected.jpg","true","0","full_practice",""
"","bandit","59","111443","0.0-34.0-5.0","23579773","wem/bandit_either_3","A2QMHQXR8K4VJ2","either","4","69","","","","","","","0","1","0","","0.6","0.5","0.5","0.5","0.5","0.8","0.2","0.6","0.2","","","","","","","","","","","","75","K","2","","true","0","full_practice",""
"","bandit","60","113077","0.0-34.0-6.0","23579773","wem/bandit_either_3","A2QMHQXR8K4VJ2","either","4","124","","","","","","","0","0","1","0.2","","0.5","0.5","0.5","0.5","","","","","0.8","0.2","0.6","0.2","","","","","","","","74","J","1","","true","0","full_practice",""
"","bandit","61","115004","0.0-34.0-7.0","23579773","wem/bandit_either_3","A2QMHQXR8K4VJ2","either","4","415","","","","","","","0","1","0","","0.2","0.5","0.5","0.5","0.5","0.8","0.2","0.6","0.2","","","","","","","","","","","","76","L","3","","true","0","full_practice",""
"","bandit","62","116707","0.0-34.0-8.0","23579773","wem/bandit_either_3","A2QMHQXR8K4VJ2","either","4","194","","","","","","","0","1","0","","0.8","0.5","0.5","0.5","0.5","0.8","0.2","0.6","0.2","","","","","","","","","","","","72","H","0","img/none_selected.jpg","true","0","full_practice",""
"","bandit","63","118446","0.0-34.0-9.0","23579773","wem/bandit_either_3","A2QMHQXR8K4VJ2","either","4","229","","","","","","","0","0","1","","0.2","0.5","0.5","0.5","0.5","0.8","0.2","0.6","0.2","","","","","","","","","","","","76","L","3","","true","0","full_practice",""
"","bandit","64","120427","0.0-34.0-10.0","23579773","wem/bandit_either_3","A2QMHQXR8K4VJ2","either","4","471","","","","","","","0","0","1","0.2","","0.5","0.5","0.5","0.5","","","","","0.8","0.2","0.6","0.2","","","","","","","","74","J","1","","true","0","full_practice",""
"","bandit","65","122026","0.0-34.0-11.0","23579773","wem/bandit_either_3","A2QMHQXR8K4VJ2","either","4","86","","","","","","","0","0","1","","0.6","0.5","0.5","0.5","0.5","0.8","0.2","0.6","0.2","","","","","","","","","","","","75","K","2","","true","0","full_practice",""
"","bandit","66","123637","0.0-34.0-12.0","23579773","wem/bandit_either_3","A2QMHQXR8K4VJ2","either","4","101","","","","","","","1","0","0","0.2","","0.5","0.5","0.5","0.5","","","","","0.8","0.2","0.6","0.2","","","","","","","","76","L","3","","true","0","full_practice",""
"","bandit","67","125309","0.0-34.0-13.0","23579773","wem/bandit_either_3","A2QMHQXR8K4VJ2","either","4","161","","","","","","","0","1","0","","0.8","0.5","0.5","0.5","0.5","0.8","0.2","0.6","0.2","","","","","","","","","","","","72","H","0","img/none_selected.jpg","true","0","full_practice",""
"","bandit","68","127021","0.0-34.0-14.0","23579773","wem/bandit_either_3","A2QMHQXR8K4VJ2","either","4","202","","","","","","","1","0","0","0.6","","0.5","0.5","0.5","0.5","","","","","0.8","0.2","0.6","0.2","","","","","","","","75","K","2","","true","0","full_practice",""
"","bandit","69","128658","0.0-34.0-15.0","23579773","wem/bandit_either_3","A2QMHQXR8K4VJ2","either","4","125","","","","","","","0","1","0","","0.2","0.5","0.5","0.5","0.5","0.8","0.2","0.6","0.2","","","","","","","","","","","","74","J","1","","true","0","full_practice",""
"","bandit","70","130358","0.0-34.0-16.0","23579773","wem/bandit_either_3","A2QMHQXR8K4VJ2","either","4","189","","","","","","","1","0","0","0.6","","0.5","0.5","0.5","0.5","","","","","0.8","0.2","0.6","0.2","","","","","","","","75","K","2","","true","0","full_practice",""
"","bandit","71","132143","0.0-34.0-17.0","23579773","wem/bandit_either_3","A2QMHQXR8K4VJ2","either","4","267","","","","","","","0","0","1","0.2","","0.5","0.5","0.5","0.5","","","","","0.8","0.2","0.6","0.2","","","","","","","","76","L","3","","true","0","full_practice",""
"","bandit","72","133730","0.0-34.0-18.0","23579773","wem/bandit_either_3","A2QMHQXR8K4VJ2","either","4","78","","","","","","","0","0","1","0.8","","0.5","0.5","0.5","0.5","","","","","0.8","0.2","0.6","0.2","","","","","","","","72","H","0","img/none_selected.jpg","true","0","full_practice",""
"","bandit","73","135255","0.0-34.0-19.0","23579773","wem/bandit_either_3","A2QMHQXR8K4VJ2","either","4","15","","","","","","","0","0","1","","0.2","0.5","0.5","0.5","0.5","0.8","0.2","0.6","0.2","","","","","","","","","","","","76","L","3","","true","0","full_practice",""
"","text","74","137156","0.0-35.0","23579773","wem/bandit_either_3","A2QMHQXR8K4VJ2","either","4","1891","","32","","","","","","","","","","","","","","","","","","","","","","","","","","","","","","","","","","","",""
"","text","75","139585","0.0-36.0","23579773","wem/bandit_either_3","A2QMHQXR8K4VJ2","either","4","1422","","32","","","","","","","","","","","","","","","","","","","","","","","","","","","","","","","","","","","",""
"","text","76","139976","0.0-37.0","23579773","wem/bandit_either_3","A2QMHQXR8K4VJ2","either","4","386","","32","","","","","","","","","","","","","","","","","","","","","","","","","","","","","","","","","","","",""
"","text","77","140335","0.0-38.0","23579773","wem/bandit_either_3","A2QMHQXR8K4VJ2","either","4","354","","32","","","","","","","","","","","","","","","","","","","","","","","","","","","","","","","","","","","",""
"","text","78","140661","0.0-39.0","23579773","wem/bandit_either_3","A2QMHQXR8K4VJ2","either","4","320","","32","","","","","","","","","","","","","","","","","","","","","","","","","","","","","","","","","","","",""
"","text","79","141001","0.0-40.0","23579773","wem/bandit_either_3","A2QMHQXR8K4VJ2","either","4","335","","32","","","","","","","","","","","","","","","","","","","","","","","","","","","","","","","","","","","",""
"","bandit","80","143582","0.0-41.0-0.0","23579773","wem/bandit_either_3","A2QMHQXR8K4VJ2","either","4","1069","","","","","","","0","0","1","","0.2887693562","0.6","0.8","0.2","0.4","0.7267404998","0.8209843215","0.2887693562","0.9858900825","","","","","","","","","","","","75","K","2","","","1","main_expt",""
"","bandit","81","145523","0.0-42.0-0.0","23579773","wem/bandit_either_3","A2QMHQXR8K4VJ2","either","4","430","","","","","","","1","0","0","0.9854924354","","0.6","0.8","0.2","0.4","","","","","0.7034907646","0.8179122382","0.2986217167","0.9854924354","","","","","","","","76","L","3","","","2","main_expt",""
"","bandit","82","147454","0.0-43.0-0.0","23579773","wem/bandit_either_3","A2QMHQXR8K4VJ2","either","4","419","","","","","","","1","0","0","0.9789624529","","0.6","0.8","0.2","0.4","","","","","0.6574847675","0.8301291561","0.261346942","0.9789624529","","","","","","","","76","L","3","","","3","main_expt",""
"","bandit","83","149747","0.0-44.0-0.0","23579773","wem/bandit_either_3","A2QMHQXR8K4VJ2","either","4","780","","","","","","","0","0","1","0.5092805277","","0.6","0.8","0.2","0.4","","","","","0.5092805277","0.8219157537","0.2757740293","0.9565345184","","","","","","","","72","H","0","img/none_selected.jpg","","4","main_expt",""
"","bandit","84","151410","0.0-45.0-0.0","23579773","wem/bandit_either_3","A2QMHQXR8K4VJ2","either","4","152","","","","","","","0","1","0","","0.941194936","0.6","0.8","0.2","0.4","0.5952926025","0.7759220463","0.3329857669","0.941194936","","","","","","","","","","","","76","L","3","","","5","main_expt",""
"","bandit","85","153351","0.0-46.0-0.0","23579773","wem/bandit_either_3","A2QMHQXR8K4VJ2","either","4","430","","","","","","","0","1","0","","0.6160758637","0.6","0.8","0.2","0.4","0.6160758637","0.7495930044","0.331878758","0.9305219143","","","","","","","","","","","","72","H","0","img/none_selected.jpg","","6","main_expt",""
"","bandit","86","155055","0.0-47.0-0.0","23579773","wem/bandit_either_3","A2QMHQXR8K4VJ2","either","4","191","","","","","","","0","1","0","","0.937738562","0.6","0.8","0.2","0.4","0.6381806331","0.7078030286","0.3863389794","0.937738562","","","","","","","","","","","","76","L","3","","","7","main_expt",""
"","bandit","87","156696","0.0-48.0-0.0","23579773","wem/bandit_either_3","A2QMHQXR8K4VJ2","either","4","130","","","","","","","1","0","0","0.689407674","","0.6","0.8","0.2","0.4","","","","","0.7047831713","0.689407674","0.4242016385","0.8269671957","","","","","","","","74","J","1","","","8","main_expt",""
"","bandit","88","158441","0.0-49.0-0.0","23579773","wem/bandit_either_3","A2QMHQXR8K4VJ2","either","4","232","","","","","","","0","0","1","","0.379169242","0.6","0.8","0.2","0.4","0.6222923336","0.7848236408","0.379169242","0.7696709776","","","","","","","","","","","","75","K","2","","","9","main_expt",""
"","bandit","89","160147","0.0-50.0-0.0","23579773","wem/bandit_either_3","A2QMHQXR8K4VJ2","either","4","192","","","","","","","0","1","0","","0.7313552403","0.6","0.8","0.2","0.4","0.5629201009","0.791363481","0.40569916","0.7313552403","","","","","","","","","","","","76","L","3","","","10","main_expt",""
"","bandit","90","161826","0.0-51.0-0.0","23579773","wem/bandit_either_3","A2QMHQXR8K4VJ2","either","4","170","","","","","","","1","0","0","0.7800632456","","0.6","0.8","0.2","0.4","","","","","0.644159789","0.7800632456","0.4188021694","0.8129169819","","","","","","","","74","J","1","","","11","main_expt",""
"","bandit","91","163767","0.0-52.0-0.0","23579773","wem/bandit_either_3","A2QMHQXR8K4VJ2","either","4","433","","","","","","","1","0","0","0.6840372722","","0.6","0.8","0.2","0.4","","","","","0.6840372722","0.7559884596","0.3689559917","0.7611571711","","","","","","","","72","H","0","img/none_selected.jpg","","12","main_expt",""
"","bandit","92","165354","0.0-53.0-0.0","23579773","wem/bandit_either_3","A2QMHQXR8K4VJ2","either","4","74","","","","","","","1","0","0","0.7695577991","","0.6","0.8","0.2","0.4","","","","","0.6236151953","0.7695577991","0.4584943612","0.7628417147","","","","","","","","74","J","1","","","13","main_expt",""
"","bandit","93","167197","0.0-54.0-0.0","23579773","wem/bandit_either_3","A2QMHQXR8K4VJ2","either","4","331","","","","","","","0","1","0","","0.455083938","0.6","0.8","0.2","0.4","0.5388331182","0.8509931145","0.455083938","0.7436451733","","","","","","","","","","","","75","K","2","","","14","main_expt",""
"","bandit","94","168869","0.0-55.0-0.0","23579773","wem/bandit_either_3","A2QMHQXR8K4VJ2","either","4","161","","","","","","","1","0","0","0.4802769188","","0.6","0.8","0.2","0.4","","","","","0.4802769188","0.7745856811","0.5360112786","0.8256008488","","","","","","","","72","H","0","img/none_selected.jpg","","15","main_expt",""
"","bandit","95","170426","0.0-56.0-0.0","23579773","wem/bandit_either_3","A2QMHQXR8K4VJ2","either","4","43","","","","","","","0","0","1","0.7576521113","","0.6","0.8","0.2","0.4","","","","","0.4688000192","0.7576521113","0.4791571541","0.7683027423","","","","","","","","74","J","1","","","16","main_expt",""
"","bandit","96","172067","0.0-57.0-0.0","23579773","wem/bandit_either_3","A2QMHQXR8K4VJ2","either","4","130","","","","","","","1","0","0","0.6000602573","","0.6","0.8","0.2","0.4","","","","","0.6000602573","0.8099558365","0.5263630166","0.7857675768","","","","","","","","72","H","0","img/none_selected.jpg","","17","main_expt",""
"","bandit","97","173814","0.0-58.0-0.0","23579773","wem/bandit_either_3","A2QMHQXR8K4VJ2","either","4","237","","","","","","","0","0","1","0.6046592687","","0.6","0.8","0.2","0.4","","","","","0.6046592687","0.7535280451","0.543945959","0.7303419725","","","","","","","","72","H","0","img/none_selected.jpg","","18","main_expt",""
"","bandit","98","175379","0.0-59.0-0.0","23579773","wem/bandit_either_3","A2QMHQXR8K4VJ2","either","4","55","","","","","","","0","1","0","","0.7243255268","0.6","0.8","0.2","0.4","0.6177236116","0.7206444799","0.4579801682","0.7243255268","","","","","","","","","","","","76","L","3","","","19","main_expt",""
"","bandit","99","177115","0.0-60.0-0.0","23579773","wem/bandit_either_3","A2QMHQXR8K4VJ2","either","4","217","","","","","","","0","1","0","","0.5484637992","0.6","0.8","0.2","0.4","0.5484637992","0.6388551968","0.5439896582","0.7691283854","","","","","","","","","","","","72","H","0","img/none_selected.jpg","","20","main_expt",""
"","bandit","100","178752","0.0-61.0-0.0","23579773","wem/bandit_either_3","A2QMHQXR8K4VJ2","either","4","121","","","","","","","0","0","1","","0.7068464658","0.6","0.8","0.2","0.4","0.6646151354","0.4956822649","0.5796019833","0.7068464658","","","","","","","","","","","","76","L","3","","","21","main_expt",""
"","bandit","101","180293","0.0-62.0-0.0","23579773","wem/bandit_either_3","A2QMHQXR8K4VJ2","either","4","30","","","","","","","1","0","0","0.4316307404","","0.6","0.8","0.2","0.4","","","","","0.7223938077","0.4316307404","0.5885929095","0.7407239748","","","","","","","","74","J","1","","","22","main_expt",""
"","bandit","102","181805","0.0-63.0-0.0","23579773","wem/bandit_either_3","A2QMHQXR8K4VJ2","either","4","1","","","","","","","0","0","1","","0.4899642796","0.6","0.8","0.2","0.4","0.7548690184","0.4158022912","0.4899642796","0.7300920021","","","","","","","","","","","","75","K","2","","","23","main_expt",""
"","bandit","103","183565","0.0-64.0-0.0","23579773","wem/bandit_either_3","A2QMHQXR8K4VJ2","either","4","248","","","","","","","1","0","0","0.4099928258","","0.6","0.8","0.2","0.4","","","","","0.7794954679","0.4099928258","0.4984159311","0.7074307303","","","","","","","","74","J","1","","","24","main_expt",""
"","bandit","104","185226","0.0-65.0-0.0","23579773","wem/bandit_either_3","A2QMHQXR8K4VJ2","either","4","148","","","","","","","0","0","1","","0.4303724308","0.6","0.8","0.2","0.4","0.8029664172","0.4303724308","0.5885503773","0.6228099684","","","","","","","","","","","","74","J","1","","","25","main_expt",""
"","bandit","105","186741","0.0-66.0-0.0","23579773","wem/bandit_either_3","A2QMHQXR8K4VJ2","either","4","4","","","","","","","0","0","1","0.3291624114","","0.6","0.8","0.2","0.4","","","","","0.6980766755","0.3291624114","0.6978100054","0.5588879168","","","","","","","","74","J","1","","","26","main_expt",""
"","bandit","106","188886","0.0-67.0-0.0","23579773","wem/bandit_either_3","A2QMHQXR8K4VJ2","either","4","633","","","","","","","0","0","1","0.3795789415","","0.6","0.8","0.2","0.4","","","","","0.7021498626","0.3795789415","0.6442468271","0.5033257713","","","","","","","","74","J","1","","","27","main_expt",""
"","bandit","107","190479","0.0-68.0-0.0","23579773","wem/bandit_either_3","A2QMHQXR8K4VJ2","either","4","85","","","","","","","0","0","1","","0.4915102133","0.6","0.8","0.2","0.4","0.7802436781","0.3208573938","0.7399213538","0.4915102133","","","","","","","","","","","","76","L","3","","","28","main_expt",""
"","bandit","108","192088","0.0-69.0-0.0","23579773","wem/bandit_either_3","A2QMHQXR8K4VJ2","either","4","96","","","","","","","0","0","1","0.3352919619","","0.6","0.8","0.2","0.4","","","","","0.6907923131","0.3352919619","0.7520253205","0.4291187576","","","","","","","","74","J","1","","","29","main_expt",""
"","bandit","109","193870","0.0-70.0-0.0","23579773","wem/bandit_either_3","A2QMHQXR8K4VJ2","either","4","269","","","","","","","0","1","0","","0.7528469829","0.6","0.8","0.2","0.4","0.6771306444","0.3452717309","0.7528469829","0.5379907803","","","","","","","","","","","","75","K","2","","","30","main_expt",""
"","bandit","110","195673","0.0-71.0-0.0","23579773","wem/bandit_either_3","A2QMHQXR8K4VJ2","either","4","289","","","","","","","1","0","0","0.2967094522","","0.6","0.8","0.2","0.4","","","","","0.7130915948","0.2967094522","0.7571908429","0.646046857","","","","","","","","74","J","1","","","31","main_expt",""
"","bandit","111","197232","0.0-72.0-0.0","23579773","wem/bandit_either_3","A2QMHQXR8K4VJ2","either","4","47","","","","","","","1","0","0","0.6849190202","","0.6","0.8","0.2","0.4","","","","","0.6849190202","0.255781972","0.7530934884","0.5608885347","","","","","","","","72","H","0","img/none_selected.jpg","","32","main_expt",""
"","bandit","112","198909","0.0-73.0-0.0","23579773","wem/bandit_either_3","A2QMHQXR8K4VJ2","either","4","164","","","","","","","0","0","1","0.2703771925","","0.6","0.8","0.2","0.4","","","","","0.7392612035","0.2703771925","0.7163673585","0.5952322697","","","","","","","","74","J","1","","","33","main_expt",""
"","bandit","113","200770","0.0-74.0-0.0","23579773","wem/bandit_either_3","A2QMHQXR8K4VJ2","either","4","347","","","","","","","0","1","0","","0.7026009082","0.6","0.8","0.2","0.4","0.7026009082","0.3572673824","0.6817248107","0.6206609301","","","","","","","","","","","","72","H","0","img/none_selected.jpg","","34","main_expt",""
"","bandit","114","202377","0.0-75.0-0.0","23579773","wem/bandit_either_3","A2QMHQXR8K4VJ2","either","4","94","","","","","","","0","1","0","","0.6223058769","0.6","0.8","0.2","0.4","0.632003728","0.3237575066","0.6903641832","0.6223058769","","","","","","","","","","","","76","L","3","","","35","main_expt",""
"","bandit","115","204142","0.0-76.0-0.0","23579773","wem/bandit_either_3","A2QMHQXR8K4VJ2","either","4","250","","","","","","","1","0","0","0.7266912659","","0.6","0.8","0.2","0.4","","","","","0.7266912659","0.3724209237","0.6953747248","0.7304722347","","","","","","","","72","H","0","img/none_selected.jpg","","36","main_expt",""
"","bandit","116","205767","0.0-77.0-0.0","23579773","wem/bandit_either_3","A2QMHQXR8K4VJ2","either","4","112","","","","","","","0","1","0","","0.7552078918","0.6","0.8","0.2","0.4","0.5512211225","0.3848591071","0.7552078918","0.6789706255","","","","","","","","","","","","75","K","2","","","37","main_expt",""
"","bandit","117","207522","0.0-78.0-0.0","23579773","wem/bandit_either_3","A2QMHQXR8K4VJ2","either","4","239","","","","","","","0","0","1","0.4026628424","","0.6","0.8","0.2","0.4","","","","","0.5888446875","0.4026628424","0.7095976639","0.6758320082","","","","","","","","74","J","1","","","38","main_expt",""
"","bandit","118","211396","0.0-79.0-0.0","23579773","wem/bandit_either_3","A2QMHQXR8K4VJ2","either","4","1","","","","","","","0","1","0","","0.7349010221","0.6","0.8","0.2","0.4","0.7349010221","0.460229008","0.7813817897","0.753286291","","","","","","","","","","","","72","H","0","img/none_selected.jpg","","39","main_expt",""
"","bandit","119","213160","0.0-80.0-0.0","23579773","wem/bandit_either_3","A2QMHQXR8K4VJ2","either","4","251","","","","","","","0","1","0","","0.6715391024","0.6","0.8","0.2","0.4","0.6715391024","0.3392787789","0.7604460558","0.7527041006","","","","","","","","","","","","72","H","0","img/none_selected.jpg","","40","main_expt",""
"","bandit","120","214971","0.0-81.0-0.0","23579773","wem/bandit_either_3","A2QMHQXR8K4VJ2","either","4","299","","","","","","","0","0","1","0.2983701942","","0.6","0.8","0.2","0.4","","","","","0.688235262","0.2983701942","0.7588214983","0.7900808451","","","","","","","","74","J","1","","","41","main_expt",""
"","bandit","121","216767","0.0-82.0-0.0","23579773","wem/bandit_either_3","A2QMHQXR8K4VJ2","either","4","286","","","","","","","1","0","0","0.7261157662","","0.6","0.8","0.2","0.4","","","","","0.750516412","0.2390858253","0.8204813903","0.7261157662","","","","","","","","76","L","3","","","42","main_expt",""
"","bandit","122","218328","0.0-83.0-0.0","23579773","wem/bandit_either_3","A2QMHQXR8K4VJ2","either","4","49","","","","","","","0","0","1","","0.8310219988","0.6","0.8","0.2","0.4","0.775378891","0.1877526289","0.8310219988","0.772887471","","","","","","","","","","","","75","K","2","","","43","main_expt",""
"","bandit","123","219956","0.0-84.0-0.0","23579773","wem/bandit_either_3","A2QMHQXR8K4VJ2","either","4","114","","","","","","","0","1","0","","0.7359848823","0.6","0.8","0.2","0.4","0.5983035632","0.2713877418","0.8165903167","0.7359848823","","","","","","","","","","","","76","L","3","","","44","main_expt",""
"","bandit","124","221573","0.0-85.0-0.0","23579773","wem/bandit_either_3","A2QMHQXR8K4VJ2","either","4","105","","","","","","","0","0","1","0.6453890447","","0.6","0.8","0.2","0.4","","","","","0.6453890447","0.2600408605","0.6765015189","0.6223954065","","","","","","","","72","H","0","img/none_selected.jpg","","45","main_expt",""
"","bandit","125","223089","0.0-86.0-0.0","23579773","wem/bandit_either_3","A2QMHQXR8K4VJ2","either","4","2","","","","","","","0","1","0","","0.2435580982","0.6","0.8","0.2","0.4","0.4979639723","0.2435580982","0.6613510417","0.5963379238","","","","","","","","","","","","74","J","1","","","46","main_expt",""
"","bandit","126","224830","0.0-87.0-0.0","23579773","wem/bandit_either_3","A2QMHQXR8K4VJ2","either","4","230","","","","","","","0","1","0","","0.4475739324","0.6","0.8","0.2","0.4","0.4475739324","0.3258971046","0.7373034573","0.6161308884","","","","","","","","","","","","72","H","0","img/none_selected.jpg","","47","main_expt",""
"","bandit","127","226406","0.0-88.0-0.0","23579773","wem/bandit_either_3","A2QMHQXR8K4VJ2","either","4","61","","","","","","","1","0","0","0.6354722558","","0.6","0.8","0.2","0.4","","","","","0.570942939","0.2934977076","0.6580913366","0.6354722558","","","","","","","","76","L","3","","","48","main_expt",""
"","bandit","128","228036","0.0-89.0-0.0","23579773","wem/bandit_either_3","A2QMHQXR8K4VJ2","either","4","117","","","","","","","0","0","1","","0.6518545324","0.6","0.8","0.2","0.4","0.5943858444","0.3381222087","0.6518545324","0.5941747261","","","","","","","","","","","","75","K","2","","","49","main_expt",""
"","bandit","129","229659","0.0-90.0-0.0","23579773","wem/bandit_either_3","A2QMHQXR8K4VJ2","either","4","111","","","","","","","1","0","0","0.5510631732","","0.6","0.8","0.2","0.4","","","","","0.72156704","0.4149653651","0.6362385309","0.5510631732","","","","","","","","76","L","3","","","50","main_expt",""
"","bandit","130","231394","0.0-91.0-0.0","23579773","wem/bandit_either_3","A2QMHQXR8K4VJ2","either","4","223","","","","","","","1","0","0","0.6453884322","","0.6","0.8","0.2","0.4","","","","","0.6453884322","0.315936401","0.6673370403","0.5580995271","","","","","","","","72","H","0","img/none_selected.jpg","","51","main_expt",""
"","bandit","131","233033","0.0-92.0-0.0","23579773","wem/bandit_either_3","A2QMHQXR8K4VJ2","either","4","125","","","","","","","0","0","1","0.4492126091","","0.6","0.8","0.2","0.4","","","","","0.635653338","0.34776451","0.6614759556","0.4492126091","","","","","","","","76","L","3","","","52","main_expt",""
"","bandit","132","234585","0.0-93.0-0.0","23579773","wem/bandit_either_3","A2QMHQXR8K4VJ2","either","4","39","","","","","","","0","0","1","","0.2946288454","0.6","0.8","0.2","0.4","0.5700640027","0.2946288454","0.5099009019","0.4600129001","","","","","","","","","","","","74","J","1","","","53","main_expt",""
"","bandit","133","236435","0.0-94.0-0.0","23579773","wem/bandit_either_3","A2QMHQXR8K4VJ2","either","4","334","","","","","","","0","0","1","","0.4535518587","0.6","0.8","0.2","0.4","0.4535518587","0.3757560715","0.5323874036","0.4005354829","","","","","","","","","","","","72","H","0","img/none_selected.jpg","","54","main_expt",""
"","bandit","134","238114","0.0-95.0-0.0","23579773","wem/bandit_either_3","A2QMHQXR8K4VJ2","either","4","164","","","","","","","0","1","0","","0.3305694417","0.6","0.8","0.2","0.4","0.4271895083","0.3258455482","0.5410243768","0.3305694417","","","","","","","","","","","","76","L","3","","","55","main_expt",""
"","bandit","135","239643","0.0-96.0-0.0","23579773","wem/bandit_either_3","A2QMHQXR8K4VJ2","either","4","15","","","","","","","1","0","0","0.4350401219","","0.6","0.8","0.2","0.4","","","","","0.3506641683","0.4350401219","0.5594159285","0.3443449075","","","","","","","","74","J","1","","","56","main_expt",""
"","bandit","136","241469","0.0-97.0-0.0","23579773","wem/bandit_either_3","A2QMHQXR8K4VJ2","either","4","314","","","","","","","0","1","0","","0.5057935102","0.6","0.8","0.2","0.4","0.3266461122","0.3707313189","0.5057935102","0.3719720486","","","","","","","","","","","","75","K","2","","","57","main_expt",""
"","bandit","137","243162","0.0-98.0-0.0","23579773","wem/bandit_either_3","A2QMHQXR8K4VJ2","either","4","179","","","","","","","0","0","1","0.3024401834","","0.6","0.8","0.2","0.4","","","","","0.3024401834","0.5588799977","0.4921421838","0.2230753252","","","","","","","","72","H","0","img/none_selected.jpg","","58","main_expt",""
"","bandit","138","244868","0.0-99.0-0.0","23579773","wem/bandit_either_3","A2QMHQXR8K4VJ2","either","4","191","","","","","","","0","0","1","","0.2255195526","0.6","0.8","0.2","0.4","0.4306619987","0.6863198467","0.4740341295","0.2255195526","","","","","","","","","","","","76","L","3","","","59","main_expt",""
"","bandit","139","246651","0.0-100.0-0.0","23579773","wem/bandit_either_3","A2QMHQXR8K4VJ2","either","4","269","","","","","","","0","1","0","","0.6998437478","0.6","0.8","0.2","0.4","0.4710521126","0.6998437478","0.4853159436","0.2150487889","","","","","","","","","","","","74","J","1","","","60","main_expt",""
"","bandit","140","248250","0.0-101.0-0.0","23579773","wem/bandit_either_3","A2QMHQXR8K4VJ2","either","4","85","","","","","","","0","1","0","","0.4843563089","0.6","0.8","0.2","0.4","0.4797168847","0.7027468204","0.4843563089","0.2670703017","","","","","","","","","","","","75","K","2","","","61","main_expt",""
"","bandit","141","249882","0.0-102.0-0.0","23579773","wem/bandit_either_3","A2QMHQXR8K4VJ2","either","4","118","","","","","","","0","0","1","0.441351191","","0.6","0.8","0.2","0.4","","","","","0.441351191","0.7461433662","0.4970562682","0.1622034337","","","","","","","","72","H","0","img/none_selected.jpg","","62","main_expt",""
"","bandit","142","251428","0.0-103.0-0.0","23579773","wem/bandit_either_3","A2QMHQXR8K4VJ2","either","4","31","","","","","","","0","0","1","","0.1872430185","0.6","0.8","0.2","0.4","0.6405696824","0.7956877632","0.4870743105","0.1872430185","","","","","","","","","","","","76","L","3","","","63","main_expt",""
"","bandit","143","253108","0.0-104.0-0.0","23579773","wem/bandit_either_3","A2QMHQXR8K4VJ2","either","4","167","","","","","","","1","0","0","0.7533911137","","0.6","0.8","0.2","0.4","","","","","0.5093225209","0.7533911137","0.5297884171","0.1921602407","","","","","","","","74","J","1","","","64","main_expt",""
"","bandit","144","255312","0.0-105.0-0.0","23579773","wem/bandit_either_3","A2QMHQXR8K4VJ2","either","4","688","","","","","","","1","0","0","0.5190422554","","0.6","0.8","0.2","0.4","","","","","0.5190422554","0.8407665504","0.5510281753","0.1747679693","","","","","","","","72","H","0","img/none_selected.jpg","","65","main_expt",""
"","bandit","145","257496","0.0-106.0-0.0","23579773","wem/bandit_either_3","A2QMHQXR8K4VJ2","either","4","672","","","","","","","1","0","0","0.8392190168","","0.6","0.8","0.2","0.4","","","","","0.4367989657","0.8392190168","0.6548378986","0.149475979","","","","","","","","74","J","1","","","66","main_expt",""
"","bandit","146","259215","0.0-107.0-0.0","23579773","wem/bandit_either_3","A2QMHQXR8K4VJ2","either","4","205","","","","","","","0","0","1","0.4515976155","","0.6","0.8","0.2","0.4","","","","","0.4515976155","0.7998105719","0.7873643744","0.1340316754","","","","","","","","72","H","0","img/none_selected.jpg","","67","main_expt",""
"","bandit","147","261215","0.0-108.0-0.0","23579773","wem/bandit_either_3","A2QMHQXR8K4VJ2","either","4","491","","","","","","","0","0","1","0.1635100664","","0.6","0.8","0.2","0.4","","","","","0.4605235732","0.8055175736","0.8374830125","0.1635100664","","","","","","","","76","L","3","","","68","main_expt",""
"","bandit","148","262745","0.0-109.0-0.0","23579773","wem/bandit_either_3","A2QMHQXR8K4VJ2","either","4","15","","","","","","","1","0","0","0.9157616325","","0.6","0.8","0.2","0.4","","","","","0.3799115548","0.9157616325","0.7948054761","0.1227365859","","","","","","","","74","J","1","","","69","main_expt",""
"","bandit","149","264555","0.0-110.0-0.0","23579773","wem/bandit_either_3","A2QMHQXR8K4VJ2","either","4","295","","","","","","","0","1","0","","0.8257183208","0.6","0.8","0.2","0.4","0.4215965018","0.9575411193","0.8257183208","0.1248437045","","","","","","","","","","","","75","K","2","","","70","main_expt",""
"","bandit","150","266139","0.0-111.0-0.0","23579773","wem/bandit_either_3","A2QMHQXR8K4VJ2","either","4","71","","","","","","","1","0","0","0.4069040491","","0.6","0.8","0.2","0.4","","","","","0.4069040491","0.9604429572","0.7378076352","0.1153860856","","","","","","","","72","H","0","img/none_selected.jpg","","71","main_expt",""
"","bandit","151","267933","0.0-112.0-0.0","23579773","wem/bandit_either_3","A2QMHQXR8K4VJ2","either","4","280","","","","","","","1","0","0","0.4396577013","","0.6","0.8","0.2","0.4","","","","","0.4396577013","0.9598545795","0.7402058239","0.1355011504","","","","","","","","72","H","0","img/none_selected.jpg","","72","main_expt",""
"","bandit","152","269641","0.0-113.0-0.0","23579773","wem/bandit_either_3","A2QMHQXR8K4VJ2","either","4","195","","","","","","","0","1","0","","0.6562772762","0.6","0.8","0.2","0.4","0.6562772762","0.944667289","0.6976791507","0.05996807606","","","","","","","","","","","","72","H","0","img/none_selected.jpg","","73","main_expt",""
"","bandit","153","271288","0.0-114.0-0.0","23579773","wem/bandit_either_3","A2QMHQXR8K4VJ2","either","4","131","","","","","","","0","0","1","0.05405538329","","0.6","0.8","0.2","0.4","","","","","0.6973429816","0.9226304804","0.7918365236","0.05405538329","","","","","","","","76","L","3","","","74","main_expt",""
"","bandit","154","272962","0.0-115.0-0.0","23579773","wem/bandit_either_3","A2QMHQXR8K4VJ2","either","4","163","","","","","","","0","1","0","","0.9398646798","0.6","0.8","0.2","0.4","0.7736122178","0.9398646798","0.7822783488","0.02989929625","","","","","","","","","","","","74","J","1","","","75","main_expt",""
"","bandit","155","274713","0.0-116.0-0.0","23579773","wem/bandit_either_3","A2QMHQXR8K4VJ2","either","4","242","","","","","","","1","0","0","0.7290889389","","0.6","0.8","0.2","0.4","","","","","0.8130420724","0.9344412274","0.7290889389","0.0563551135","","","","","","","","75","K","2","","","76","main_expt",""
"","bandit","156","276293","0.0-117.0-0.0","23579773","wem/bandit_either_3","A2QMHQXR8K4VJ2","either","4","67","","","","","","","1","0","0","0.8182773084","","0.6","0.8","0.2","0.4","","","","","0.8182773084","0.9512527415","0.7903383215","0.0510075381","","","","","","","","72","H","0","img/none_selected.jpg","","77","main_expt",""
"","bandit","157","277911","0.0-118.0-0.0","23579773","wem/bandit_either_3","A2QMHQXR8K4VJ2","either","4","102","","","","","","","0","1","0","","0.8093770606","0.6","0.8","0.2","0.4","0.910984946","0.945324638","0.8093770606","0.07280641377","","","","","","","","","","","","75","K","2","","","78","main_expt",""
"","bandit","158","279477","0.0-119.0-0.0","23579773","wem/bandit_either_3","A2QMHQXR8K4VJ2","either","4","52","","","","","","","0","1","0","","0.9313693401","0.6","0.8","0.2","0.4","0.9303795674","0.9313693401","0.7310189459","0.06591604593","","","","","","","","","","","","74","J","1","","","79","main_expt",""
"","bandit","159","281348","0.0-120.0-0.0","23579773","wem/bandit_either_3","A2QMHQXR8K4VJ2","either","4","356","","","","","","","0","0","1","0.02790121052","","0.6","0.8","0.2","0.4","","","","","0.9581515868","0.9272018461","0.7915113188","0.02790121052","","","","","","","","76","L","3","","","80","main_expt",""
"","bandit","160","283063","0.0-121.0-0.0","23579773","wem/bandit_either_3","A2QMHQXR8K4VJ2","either","4","201","","","","","","","0","1","0","","0.9107397581","0.6","0.8","0.2","0.4","0.9107397581","0.9340165544","0.8463201033","0.03997429631","","","","","","","","","","","","72","H","0","img/none_selected.jpg","","81","main_expt",""
"","bandit","161","284693","0.0-122.0-0.0","23579773","wem/bandit_either_3","A2QMHQXR8K4VJ2","either","4","110","","","","","","","1","0","0","0.9778602254","","0.6","0.8","0.2","0.4","","","","","0.9531247327","0.9778602254","0.9043915002","0.03692483048","","","","","","","","74","J","1","","","82","main_expt",""
"","bandit","162","286438","0.0-123.0-0.0","23579773","wem/bandit_either_3","A2QMHQXR8K4VJ2","either","4","231","","","","","","","0","1","0","","0.922294541","0.6","0.8","0.2","0.4","0.91574064","0.9593015187","0.922294541","0.04167024954","","","","","","","","","","","","75","K","2","","","83","main_expt",""
"","bandit","163","287970","0.0-124.0-0.0","23579773","wem/bandit_either_3","A2QMHQXR8K4VJ2","either","4","19","","","","","","","1","0","0","0.9287460716","","0.6","0.8","0.2","0.4","","","","","0.9287460716","0.9398758864","0.9079954767","0.03449326924","","","","","","","","72","H","0","img/none_selected.jpg","","84","main_expt",""
"","bandit","164","289684","0.0-125.0-0.0","23579773","wem/bandit_either_3","A2QMHQXR8K4VJ2","either","4","205","","","","","","","0","1","0","","0.9817994773","0.6","0.8","0.2","0.4","0.9817994773","0.9256746213","0.92293493","0.07382848834","","","","","","","","","","","","72","H","0","img/none_selected.jpg","","85","main_expt",""
"","bandit","165","291518","0.0-126.0-0.0","23579773","wem/bandit_either_3","A2QMHQXR8K4VJ2","either","4","319","","","","","","","0","1","0","","0.8910640916","0.6","0.8","0.2","0.4","0.9651028603","0.8910640916","0.8831043051","0.08839198485","","","","","","","","","","","","74","J","1","","","86","main_expt",""
"","bandit","166","293161","0.0-127.0-0.0","23579773","wem/bandit_either_3","A2QMHQXR8K4VJ2","either","4","130","","","","","","","0","1","0","","0.9364705545","0.6","0.8","0.2","0.4","0.9364705545","0.8729480744","0.876749115","0.08767612821","","","","","","","","","","","","72","H","0","img/none_selected.jpg","","87","main_expt",""
"","bandit","167","294723","0.0-128.0-0.0","23579773","wem/bandit_either_3","A2QMHQXR8K4VJ2","either","4","51","","","","","","","0","0","1","","0.1606359608","0.6","0.8","0.2","0.4","0.9235767634","0.8780151739","0.9189432589","0.1606359608","","","","","","","","","","","","76","L","3","","","88","main_expt",""
"","bandit","168","296245","0.0-129.0-0.0","23579773","wem/bandit_either_3","A2QMHQXR8K4VJ2","either","4","6","","","","","","","0","1","0","","0.8770582065","0.6","0.8","0.2","0.4","0.9375107972","0.8856980863","0.8770582065","0.2051996915","","","","","","","","","","","","75","K","2","","","89","main_expt",""
"","bandit","169","298030","0.0-130.0-0.0","23579773","wem/bandit_either_3","A2QMHQXR8K4VJ2","either","4","272","","","","","","","1","0","0","0.8828292745","","0.6","0.8","0.2","0.4","","","","","0.9201099193","0.8828292745","0.9303780437","0.1757431166","","","","","","","","74","J","1","","","90","main_expt",""
"","bandit","170","299716","0.0-131.0-0.0","23579773","wem/bandit_either_3","A2QMHQXR8K4VJ2","either","4","172","","","","","","","1","0","0","0.9416722714","","0.6","0.8","0.2","0.4","","","","","0.9416722714","0.9016480115","0.8870296602","0.3470073597","","","","","","","","72","H","0","img/none_selected.jpg","","91","main_expt",""
"","bandit","171","301298","0.0-132.0-0.0","23579773","wem/bandit_either_3","A2QMHQXR8K4VJ2","either","4","67","","","","","","","1","0","0","0.9077272713","","0.6","0.8","0.2","0.4","","","","","0.943817784","0.9077272713","0.8466670433","0.4969118024","","","","","","","","74","J","1","","","92","main_expt",""
"","bandit","172","302985","0.0-133.0-0.0","23579773","wem/bandit_either_3","A2QMHQXR8K4VJ2","either","4","171","","","","","","","0","0","1","0.9078517942","","0.6","0.8","0.2","0.4","","","","","0.9078517942","0.875936713","0.850017275","0.5773598144","","","","","","","","72","H","0","img/none_selected.jpg","","93","main_expt",""
"","bandit","173","304511","0.0-134.0-0.0","23579773","wem/bandit_either_3","A2QMHQXR8K4VJ2","either","4","8","","","","","","","1","0","0","0.6893652978","","0.6","0.8","0.2","0.4","","","","","0.8983200186","0.8089346838","0.6893652978","0.5513550223","","","","","","","","75","K","2","","","94","main_expt",""
"","bandit","174","306484","0.0-135.0-0.0","23579773","wem/bandit_either_3","A2QMHQXR8K4VJ2","either","4","459","","","","","","","0","1","0","","0.6025630118","0.6","0.8","0.2","0.4","0.8744309931","0.7472177953","0.6025630118","0.5461825447","","","","","","","","","","","","75","K","2","","","95","main_expt",""
"","bandit","175","308267","0.0-136.0-0.0","23579773","wem/bandit_either_3","A2QMHQXR8K4VJ2","either","4","274","","","","","","","0","0","1","0.631257407","","0.6","0.8","0.2","0.4","","","","","0.8894212924","0.631257407","0.5565182624","0.5564841108","","","","","","","","74","J","1","","","96","main_expt",""
"","bandit","176","310065","0.0-137.0-0.0","23579773","wem/bandit_either_3","A2QMHQXR8K4VJ2","either","4","280","","","","","","","0","1","0","","0.6513715187","0.6","0.8","0.2","0.4","0.891162681","0.7474787878","0.4820287155","0.6513715187","","","","","","","","","","","","76","L","3","","","97","main_expt",""
"","bandit","177","311787","0.0-138.0-0.0","23579773","wem/bandit_either_3","A2QMHQXR8K4VJ2","either","4","206","","","","","","","1","0","0","0.8495400438","","0.6","0.8","0.2","0.4","","","","","0.8495400438","0.7753317291","0.4599621431","0.7004254565","","","","","","","","72","H","0","img/none_selected.jpg","","98","main_expt",""
"","bandit","178","313510","0.0-139.0-0.0","23579773","wem/bandit_either_3","A2QMHQXR8K4VJ2","either","4","206","","","","","","","0","0","1","","0.7088399779","0.6","0.8","0.2","0.4","0.8671572546","0.7088399779","0.4109144258","0.6473310623","","","","","","","","","","","","74","J","1","","","99","main_expt",""
"","bandit","179","315286","0.0-140.0-0.0","23579773","wem/bandit_either_3","A2QMHQXR8K4VJ2","either","4","261","","","","","","","1","0","0","0.8312294914","","0.6","0.8","0.2","0.4","","","","","0.8312294914","0.7328055719","0.3466085394","0.6160818326","","","","","","","","72","H","0","img/none_selected.jpg","","100","main_expt",""
"","bandit","180","317034","0.0-141.0-0.0","23579773","wem/bandit_either_3","A2QMHQXR8K4VJ2","either","4","233","","","","","","","0","0","1","","0.8135240708","0.6","0.8","0.2","0.4","0.8135240708","0.8183789849","0.3712289037","0.6963675268","","","","","","","","","","","","72","H","0","img/none_selected.jpg","","101","main_expt",""
"","bandit","181","318741","0.0-142.0-0.0","23579773","wem/bandit_either_3","A2QMHQXR8K4VJ2","either","4","190","","","","","","","1","0","0","0.3626324234","","0.6","0.8","0.2","0.4","","","","","0.8556055773","0.7854635714","0.3626324234","0.6339579424","","","","","","","","75","K","2","","","102","main_expt",""
"","bandit","182","320434","0.0-143.0-0.0","23579773","wem/bandit_either_3","A2QMHQXR8K4VJ2","either","4","176","","","","","","","1","0","0","0.8481411385","","0.6","0.8","0.2","0.4","","","","","0.7632006143","0.8481411385","0.2748825764","0.6908430899","","","","","","","","74","J","1","","","103","main_expt",""
"","bandit","183","322168","0.0-144.0-0.0","23579773","wem/bandit_either_3","A2QMHQXR8K4VJ2","either","4","217","","","","","","","0","1","0","","0.6866318891","0.6","0.8","0.2","0.4","0.8273213265","0.8129446485","0.2381725209","0.6866318891","","","","","","","","","","","","76","L","3","","","104","main_expt",""
"","bandit","184","323743","0.0-145.0-0.0","23579773","wem/bandit_either_3","A2QMHQXR8K4VJ2","either","4","58","","","","","","","0","1","0","","0.7930501456","0.6","0.8","0.2","0.4","0.7930501456","0.7898688037","0.1939551764","0.6749941214","","","","","","","","","","","","72","H","0","img/none_selected.jpg","","105","main_expt",""
"","bandit","185","325331","0.0-146.0-0.0","23579773","wem/bandit_either_3","A2QMHQXR8K4VJ2","either","4","71","","","","","","","0","0","1","","0.1884153881","0.6","0.8","0.2","0.4","0.7186603115","0.7810744832","0.1884153881","0.7300347885","","","","","","","","","","","","75","K","2","","","106","main_expt",""
"","bandit","186","327040","0.0-147.0-0.0","23579773","wem/bandit_either_3","A2QMHQXR8K4VJ2","either","4","194","","","","","","","1","0","0","0.7837395221","","0.6","0.8","0.2","0.4","","","","","0.7155595947","0.7837395221","0.1011451677","0.8133516847","","","","","","","","74","J","1","","","107","main_expt",""
"","bandit","187","328861","0.0-148.0-0.0","23579773","wem/bandit_either_3","A2QMHQXR8K4VJ2","either","4","299","","","","","","","1","0","0","0.7654707556","","0.6","0.8","0.2","0.4","","","","","0.7654707556","0.787971135","0.1500242655","0.8009432675","","","","","","","","72","H","0","img/none_selected.jpg","","108","main_expt",""
"","bandit","188","330500","0.0-149.0-0.0","23579773","wem/bandit_either_3","A2QMHQXR8K4VJ2","either","4","125","","","","","","","1","0","0","0.7379370491","","0.6","0.8","0.2","0.4","","","","","0.6288612937","0.6866525704","0.1285750889","0.7379370491","","","","","","","","76","L","3","","","109","main_expt",""
"","bandit","189","332024","0.0-150.0-0.0","23579773","wem/bandit_either_3","A2QMHQXR8K4VJ2","either","4","9","","","","","","","0","0","1","","0.06279291231","0.6","0.8","0.2","0.4","0.6309058105","0.5824748378","0.06279291231","0.7379992527","","","","","","","","","","","","75","K","2","","","110","main_expt",""
"","bandit","190","333835","0.0-151.0-0.0","23579773","wem/bandit_either_3","A2QMHQXR8K4VJ2","either","4","294","","","","","","","0","0","1","","0.6218965746","0.6","0.8","0.2","0.4","0.6218965746","0.659702805","0.07144278273","0.7464430213","","","","","","","","","","","","72","H","0","img/none_selected.jpg","","111","main_expt",""
"","bandit","191","335540","0.0-152.0-0.0","23579773","wem/bandit_either_3","A2QMHQXR8K4VJ2","either","4","190","","","","","","","0","0","1","0.5111205641","","0.6","0.8","0.2","0.4","","","","","0.6741482942","0.5111205641","0.06013221683","0.7736339118","","","","","","","","74","J","1","","","112","main_expt",""
"","bandit","192","337278","0.0-153.0-0.0","23579773","wem/bandit_either_3","A2QMHQXR8K4VJ2","either","4","222","","","","","","","1","0","0","0.8480767854","","0.6","0.8","0.2","0.4","","","","","0.7405202534","0.4852392648","0.1442356489","0.8480767854","","","","","","","","76","L","3","","","113","main_expt",""
"","bandit","193","338870","0.0-154.0-0.0","23579773","wem/bandit_either_3","A2QMHQXR8K4VJ2","either","4","71","","","","","","","0","1","0","","0.743157628","0.6","0.8","0.2","0.4","0.743157628","0.3531287621","0.1733870882","0.8016933152","","","","","","","","","","","","72","H","0","img/none_selected.jpg","","114","main_expt",""
"","bandit","194","340463","0.0-155.0-0.0","23579773","wem/bandit_either_3","A2QMHQXR8K4VJ2","either","4","79","","","","","","","0","1","0","","0.2198725907","0.6","0.8","0.2","0.4","0.7732583829","0.4090792957","0.2198725907","0.8200260584","","","","","","","","","","","","75","K","2","","","115","main_expt",""
"","bandit","195","342115","0.0-156.0-0.0","23579773","wem/bandit_either_3","A2QMHQXR8K4VJ2","either","4","137","","","","","","","1","0","0","0.4927933112","","0.6","0.8","0.2","0.4","","","","","0.6224016225","0.4927933112","0.2116870815","0.7761954976","","","","","","","","74","J","1","","","116","main_expt",""
"","bandit","196","343863","0.0-157.0-0.0","23579773","wem/bandit_either_3","A2QMHQXR8K4VJ2","either","4","231","","","","","","","0","1","0","","0.7722233998","0.6","0.8","0.2","0.4","0.6784399158","0.4255499736","0.1293815938","0.7722233998","","","","","","","","","","","","76","L","3","","","117","main_expt",""
"","bandit","197","345407","0.0-158.0-0.0","23579773","wem/bandit_either_3","A2QMHQXR8K4VJ2","either","4","30","","","","","","","0","1","0","","0.7499631032","0.6","0.8","0.2","0.4","0.7499631032","0.4073726931","0.1442073762","0.8049831996","","","","","","","","","","","","72","H","0","img/none_selected.jpg","","118","main_expt",""
"","bandit","198","347420","0.0-159.0-0.0","23579773","wem/bandit_either_3","A2QMHQXR8K4VJ2","either","4","494","","","","","","","0","0","1","0.2098334931","","0.6","0.8","0.2","0.4","","","","","0.6258432538","0.5447318884","0.2098334931","0.8469405197","","","","","","","","75","K","2","","","119","main_expt",""
"","bandit","199","349311","0.0-160.0-0.0","23579773","wem/bandit_either_3","A2QMHQXR8K4VJ2","either","4","376","","","","","","","0","0","1","0.5602994123","","0.6","0.8","0.2","0.4","","","","","0.5602994123","0.5336717705","0.243218138","0.783925966","","","","","","","","72","H","0","img/none_selected.jpg","","120","main_expt",""
"","bandit","200","351749","0.0-161.0-0.0","23579773","wem/bandit_either_3","A2QMHQXR8K4VJ2","either","4","917","","","","","","","1","0","0","0.8031476983","","0.6","0.8","0.2","0.4","","","","","0.5850644561","0.5621279662","0.1595445902","0.8031476983","","","","","","","","76","L","3","","","121","main_expt",""
"","bandit","201","353417","0.0-162.0-0.0","23579773","wem/bandit_either_3","A2QMHQXR8K4VJ2","either","4","161","","","","","","","1","0","0","0.5664238538","","0.6","0.8","0.2","0.4","","","","","0.6205732407","0.5664238538","0.1939767007","0.776878313","","","","","","","","74","J","1","","","122","main_expt",""
"","bandit","202","355087","0.0-163.0-0.0","23579773","wem/bandit_either_3","A2QMHQXR8K4VJ2","either","4","157","","","","","","","0","0","1","","0.2265728871","0.6","0.8","0.2","0.4","0.7954206102","0.6501842916","0.2265728871","0.7695343448","","","","","","","","","","","","75","K","2","","","123","main_expt",""
"","bandit","203","356613","0.0-164.0-0.0","23579773","wem/bandit_either_3","A2QMHQXR8K4VJ2","either","4","13","","","","","","","1","0","0","0.881213352","","0.6","0.8","0.2","0.4","","","","","0.881213352","0.5413703051","0.2027469411","0.6154230174","","","","","","","","72","H","0","img/none_selected.jpg","","124","main_expt",""
"","bandit","204","358377","0.0-165.0-0.0","23579773","wem/bandit_either_3","A2QMHQXR8K4VJ2","either","4","248","","","","","","","1","0","0","0.5191338098","","0.6","0.8","0.2","0.4","","","","","0.8598562332","0.5191338098","0.1506135949","0.4710930195","","","","","","","","74","J","1","","","125","main_expt",""
"","bandit","205","359920","0.0-166.0-0.0","23579773","wem/bandit_either_3","A2QMHQXR8K4VJ2","either","4","31","","","","","","","0","0","1","","0.5258886302","0.6","0.8","0.2","0.4","0.867144728","0.6232591378","0.1875851228","0.5258886302","","","","","","","","","","","","76","L","3","","","126","main_expt",""
"","bandit","206","361561","0.0-167.0-0.0","23579773","wem/bandit_either_3","A2QMHQXR8K4VJ2","either","4","122","","","","","","","0","0","1","0.601333273","","0.6","0.8","0.2","0.4","","","","","0.8677917819","0.601333273","0.2106184636","0.3996486754","","","","","","","","74","J","1","","","127","main_expt",""
"","bandit","207","363430","0.0-168.0-0.0","23579773","wem/bandit_either_3","A2QMHQXR8K4VJ2","either","4","355","","","","","","","0","0","1","0.1276240755","","0.6","0.8","0.2","0.4","","","","","0.8194058857","0.6312294041","0.1276240755","0.3557241191","","","","","","","","75","K","2","","","128","main_expt",""
"","bandit","208","365136","0.0-169.0-0.0","23579773","wem/bandit_either_3","A2QMHQXR8K4VJ2","either","4","194","","","","","","","0","1","0","","0.813940224","0.6","0.8","0.2","0.4","0.813940224","0.6655034733","0.2163335705","0.2432070908","","","","","","","","","","","","72","H","0","img/none_selected.jpg","","129","main_expt",""
"","bandit","209","366832","0.0-170.0-0.0","23579773","wem/bandit_either_3","A2QMHQXR8K4VJ2","either","4","181","","","","","","","0","0","1","","0.2448863899","0.6","0.8","0.2","0.4","0.7296764962","0.6882303755","0.2448863899","0.1722843937","","","","","","","","","","","","75","K","2","","","130","main_expt",""
"","bandit","210","368523","0.0-171.0-0.0","23579773","wem/bandit_either_3","A2QMHQXR8K4VJ2","either","4","174","","","","","","","1","0","0","0.6772884453","","0.6","0.8","0.2","0.4","","","","","0.614258276","0.6772884453","0.3447645787","0.1336027919","","","","","","","","74","J","1","","","131","main_expt",""
"","bandit","211","371047","0.0-172.0-0.0","23579773","wem/bandit_either_3","A2QMHQXR8K4VJ2","either","4","1009","","","","","","","1","0","0","0.5349540706","","0.6","0.8","0.2","0.4","","","","","0.5349540706","0.6773684555","0.3622527956","0.1351629047","","","","","","","","72","H","0","img/none_selected.jpg","","132","main_expt",""
"","bandit","212","372683","0.0-173.0-0.0","23579773","wem/bandit_either_3","A2QMHQXR8K4VJ2","either","4","116","","","","","","","0","0","1","0.2495029","","0.6","0.8","0.2","0.4","","","","","0.5449090787","0.7437755928","0.2961885878","0.2495029","","","","","","","","76","L","3","","","133","main_expt",""
"","bandit","213","374431","0.0-174.0-0.0","23579773","wem/bandit_either_3","A2QMHQXR8K4VJ2","either","4","234","","","","","","","0","1","0","","0.7423545867","0.6","0.8","0.2","0.4","0.5037108559","0.7423545867","0.2932126781","0.2118512663","","","","","","","","","","","","74","J","1","","","134","main_expt",""
"","bandit","214","375953","0.0-175.0-0.0","23579773","wem/bandit_either_3","A2QMHQXR8K4VJ2","either","4","15","","","","","","","0","1","0","","0.5131336393","0.6","0.8","0.2","0.4","0.5131336393","0.7462440124","0.2836439675","0.2474577379","","","","","","","","","","","","72","H","0","img/none_selected.jpg","","135","main_expt",""
"","bandit","215","377614","0.0-176.0-0.0","23579773","wem/bandit_either_3","A2QMHQXR8K4VJ2","either","4","152","","","","","","","1","0","0","0.6372772774","","0.6","0.8","0.2","0.4","","","","","0.5847952324","0.6372772774","0.1985775905","0.1496333288","","","","","","","","74","J","1","","","136","main_expt",""
"","bandit","216","379590","0.0-177.0-0.0","23579773","wem/bandit_either_3","A2QMHQXR8K4VJ2","either","4","458","","","","","","","1","0","0","0.164835495","","0.6","0.8","0.2","0.4","","","","","0.5191620222","0.6587707878","0.2655975","0.164835495","","","","","","","","76","L","3","","","137","main_expt",""
"","bandit","217","382145","0.0-178.0-0.0","23579773","wem/bandit_either_3","A2QMHQXR8K4VJ2","either","4","1040","","","","","","","0","1","0","","0.3830682141","0.6","0.8","0.2","0.4","0.3830682141","0.6545472314","0.4066298912","0.1629561883","","","","","","","","","","","","72","H","0","img/none_selected.jpg","","138","main_expt",""
"","bandit","218","384522","0.0-179.0-0.0","23579773","wem/bandit_either_3","A2QMHQXR8K4VJ2","either","4","859","","","","","","","0","0","1","0.5773899651","","0.6","0.8","0.2","0.4","","","","","0.3036015776","0.5773899651","0.4537429859","0.1162724323","","","","","","","","74","J","1","","","139","main_expt",""
"","bandit","219","386260","0.0-180.0-0.0","23579773","wem/bandit_either_3","A2QMHQXR8K4VJ2","either","4","222","","","","","","","0","0","1","","0.1262651596","0.6","0.8","0.2","0.4","0.2541790234","0.5786924042","0.410026376","0.1262651596","","","","","","","","","","","","76","L","3","","","140","main_expt",""
"","bandit","220","387890","0.0-181.0-0.0","23579773","wem/bandit_either_3","A2QMHQXR8K4VJ2","either","4","112","","","","","","","0","0","1","","0.1899663758","0.6","0.8","0.2","0.4","0.1899663758","0.4589731036","0.3978668086","0.1258799353","","","","","","","","","","","","72","H","0","img/none_selected.jpg","","141","main_expt",""
"","bandit","221","389472","0.0-182.0-0.0","23579773","wem/bandit_either_3","A2QMHQXR8K4VJ2","either","4","68","","","","","","","1","0","0","0.4096738096","","0.6","0.8","0.2","0.4","","","","","0.214868544","0.3667804619","0.4096738096","0.1220135665","","","","","","","","75","K","2","","","142","main_expt",""
"","bandit","222","391123","0.0-183.0-0.0","23579773","wem/bandit_either_3","A2QMHQXR8K4VJ2","either","4","138","","","","","","","0","0","1","","0.1549416237","0.6","0.8","0.2","0.4","0.1549416237","0.3563831379","0.5422751762","0.1600355681","","","","","","","","","","","","72","H","0","img/none_selected.jpg","","143","main_expt",""
"","bandit","223","393119","0.0-184.0-0.0","23579773","wem/bandit_either_3","A2QMHQXR8K4VJ2","either","4","479","","","","","","","0","0","1","","0.103653669","0.6","0.8","0.2","0.4","0.2142728447","0.3675361202","0.6045197677","0.103653669","","","","","","","","","","","","76","L","3","","","144","main_expt",""
"","bandit","224","394908","0.0-185.0-0.0","23579773","wem/bandit_either_3","A2QMHQXR8K4VJ2","either","4","271","","","","","","","1","0","0","0.3266856562","","0.6","0.8","0.2","0.4","","","","","0.2166472609","0.3266856562","0.6140727406","0.1417267119","","","","","","","","74","J","1","","","145","main_expt",""
"","bandit","225","396565","0.0-186.0-0.0","23579773","wem/bandit_either_3","A2QMHQXR8K4VJ2","either","4","141","","","","","","","0","0","1","0.5553742365","","0.6","0.8","0.2","0.4","","","","","0.2446047688","0.2815179259","0.5553742365","0.1508894681","","","","","","","","75","K","2","","","146","main_expt",""
"","bandit","226","398262","0.0-187.0-0.0","23579773","wem/bandit_either_3","A2QMHQXR8K4VJ2","either","4","178","","","","","","","0","0","1","0.3011136322","","0.6","0.8","0.2","0.4","","","","","0.3011136322","0.3560244833","0.52787167","0.1207147728","","","","","","","","72","H","0","img/none_selected.jpg","","147","main_expt",""
"","bandit","227","399988","0.0-188.0-0.0","23579773","wem/bandit_either_3","A2QMHQXR8K4VJ2","either","4","211","","","","","","","0","0","1","","0.1362234148","0.6","0.8","0.2","0.4","0.2519777133","0.3585854149","0.5053851794","0.1362234148","","","","","","","","","","","","76","L","3","","","148","main_expt",""
"","bandit","228","401561","0.0-189.0-0.0","23579773","wem/bandit_either_3","A2QMHQXR8K4VJ2","either","4","60","","","","","","","0","0","1","","0.284478414","0.6","0.8","0.2","0.4","0.2996109941","0.284478414","0.5431256022","0.1244444975","","","","","","","","","","","","74","J","1","","","149","main_expt",""
"","bandit","229","403265","0.0-190.0-0.0","23579773","wem/bandit_either_3","A2QMHQXR8K4VJ2","either","4","195","","","","","","","0","0","1","","0.422574086","0.6","0.8","0.2","0.4","0.2963563975","0.2617238314","0.422574086","0.1109305632","","","","","","","","","","","","75","K","2","","","150","main_expt",""
"","bandit","230","405213","0.0-191.0-0.0","23579773","wem/bandit_either_3","A2QMHQXR8K4VJ2","either","4","430","","","","","","","1","0","0","0.4327396174","","0.6","0.8","0.2","0.4","","","","","0.4327396174","0.2709462114","0.3907227364","0.11412436","","","","","","","","72","H","0","img/none_selected.jpg","","151","main_expt",""
"","bandit","231","406960","0.0-192.0-0.0","23579773","wem/bandit_either_3","A2QMHQXR8K4VJ2","either","4","230","","","","","","","0","0","1","","0.1469045903","0.6","0.8","0.2","0.4","0.4303068123","0.2993716907","0.5580814469","0.1469045903","","","","","","","","","","","","76","L","3","","","152","main_expt",""
"","bandit","232","408715","0.0-193.0-0.0","23579773","wem/bandit_either_3","A2QMHQXR8K4VJ2","either","4","237","","","","","","","1","0","0","0.2733354782","","0.6","0.8","0.2","0.4","","","","","0.455197397","0.2733354782","0.51223936","0.1633028487","","","","","","","","74","J","1","","","153","main_expt",""
"","bandit","233","410308","0.0-194.0-0.0","23579773","wem/bandit_either_3","A2QMHQXR8K4VJ2","either","4","78","","","","","","","0","0","1","","0.4811601507","0.6","0.8","0.2","0.4","0.6184454144","0.3264007987","0.4811601507","0.1340882311","","","","","","","","","","","","75","K","2","","","154","main_expt",""
"","bandit","234","412162","0.0-195.0-0.0","23579773","wem/bandit_either_3","A2QMHQXR8K4VJ2","either","4","337","","","","","","","1","0","0","0.5833601464","","0.6","0.8","0.2","0.4","","","","","0.5833601464","0.204433578","0.575425417","0.1041462846","","","","","","","","72","H","0","img/none_selected.jpg","","155","main_expt",""
"","bandit","235","414044","0.0-196.0-0.0","23579773","wem/bandit_either_3","A2QMHQXR8K4VJ2","either","4","368","","","","","","","0","0","1","0.08564190031","","0.6","0.8","0.2","0.4","","","","","0.646897734","0.07451572188","0.6109018817","0.08564190031","","","","","","","","76","L","3","","","156","main_expt",""
"","bandit","236","415647","0.0-197.0-0.0","23579773","wem/bandit_either_3","A2QMHQXR8K4VJ2","either","4","85","","","","","","","1","0","0","0.6912470103","","0.6","0.8","0.2","0.4","","","","","0.6912470103","0.1251686374","0.6812883852","0.06977116317","","","","","","","","72","H","0","img/none_selected.jpg","","157","main_expt",""
"","bandit","237","417279","0.0-198.0-0.0","23579773","wem/bandit_either_3","A2QMHQXR8K4VJ2","either","4","114","","","","","","","0","1","0","","0.1292052795","0.6","0.8","0.2","0.4","0.7865398282","0.1292052795","0.73777041","0.1504927074","","","","","","","","","","","","74","J","1","","","158","main_expt",""
"","bandit","238","419242","0.0-199.0-0.0","23579773","wem/bandit_either_3","A2QMHQXR8K4VJ2","either","4","445","","","","","","","0","0","1","","0.1429264201","0.6","0.8","0.2","0.4","0.7220910122","0.1200050714","0.8388849062","0.1429264201","","","","","","","","","","","","76","L","3","","","159","main_expt",""
"","bandit","239","420805","0.0-200.0-0.0","23579773","wem/bandit_either_3","A2QMHQXR8K4VJ2","either","4","45","","","","","","","0","0","1","0.710563805","","0.6","0.8","0.2","0.4","","","","","0.710563805","0.1156014834","0.8006667519","0.1832893837","","","","","","","","72","H","0","img/none_selected.jpg","","160","main_expt",""
"","bandit","240","422663","0.0-201.0-0.0","23579773","wem/bandit_either_3","A2QMHQXR8K4VJ2","either","4","339","","","","","","","0","1","0","","0.7406956812","0.6","0.8","0.2","0.4","0.6205281072","0.1425751263","0.7406956812","0.2337310763","","","","","","","","","","","","75","K","2","","","161","main_expt",""
"","bandit","241","424402","0.0-202.0-0.0","23579773","wem/bandit_either_3","A2QMHQXR8K4VJ2","either","4","226","","","","","","","0","0","1","0.2108345254","","0.6","0.8","0.2","0.4","","","","","0.5246840185","0.2108345254","0.775259894","0.2326198937","","","","","","","","74","J","1","","","162","main_expt",""
"","bandit","242","425989","0.0-203.0-0.0","23579773","wem/bandit_either_3","A2QMHQXR8K4VJ2","either","4","67","","","","","","","0","0","1","","0.1584290897","0.6","0.8","0.2","0.4","0.569340372","0.1664621688","0.6539471222","0.1584290897","","","","","","","","","","","","76","L","3","","","163","main_expt",""
"","bandit","243","427584","0.0-204.0-0.0","23579773","wem/bandit_either_3","A2QMHQXR8K4VJ2","either","4","77","","","","","","","0","0","1","0.5688323765","","0.6","0.8","0.2","0.4","","","","","0.5688323765","0.1741279052","0.7914062868","0.1417900361","","","","","","","","72","H","0","img/none_selected.jpg","","164","main_expt",""
"","bandit","244","429795","0.0-205.0-0.0","23579773","wem/bandit_either_3","A2QMHQXR8K4VJ2","either","4","693","","","","","","","0","0","1","0.08849486786","","0.6","0.8","0.2","0.4","","","","","0.5195648955","0.1891196979","0.8415061218","0.08849486786","","","","","","","","76","L","3","","","165","main_expt",""
"","bandit","245","431652","0.0-206.0-0.0","23579773","wem/bandit_either_3","A2QMHQXR8K4VJ2","either","4","340","","","","","","","0","0","1","0.3016440744","","0.6","0.8","0.2","0.4","","","","","0.536500984","0.3016440744","0.9084068317","0.1010416226","","","","","","","","74","J","1","","","166","main_expt",""
"","bandit","246","433420","0.0-207.0-0.0","23579773","wem/bandit_either_3","A2QMHQXR8K4VJ2","either","4","250","","","","","","","1","0","0","0.8857506799","","0.6","0.8","0.2","0.4","","","","","0.4243381616","0.3427468607","0.8857506799","0.1506776516","","","","","","","","75","K","2","","","167","main_expt",""
"","bandit","247","435026","0.0-208.0-0.0","23579773","wem/bandit_either_3","A2QMHQXR8K4VJ2","either","4","94","","","","","","","1","0","0","0.4877327119","","0.6","0.8","0.2","0.4","","","","","0.4877327119","0.3759001064","0.9247721234","0.2532220847","","","","","","","","72","H","0","img/none_selected.jpg","","168","main_expt",""
"","bandit","248","436893","0.0-209.0-0.0","23579773","wem/bandit_either_3","A2QMHQXR8K4VJ2","either","4","356","","","","","","","1","0","0","0.5096331713","","0.6","0.8","0.2","0.4","","","","","0.5096331713","0.3824832387","0.8870410368","0.2223654062","","","","","","","","72","H","0","img/none_selected.jpg","","169","main_expt",""
"","bandit","249","438480","0.0-210.0-0.0","23579773","wem/bandit_either_3","A2QMHQXR8K4VJ2","either","4","69","","","","","","","0","1","0","","0.2161840498","0.6","0.8","0.2","0.4","0.6111595203","0.3257043992","0.8782412079","0.2161840498","","","","","","","","","","","","76","L","3","","","170","main_expt",""
"","bandit","250","440421","0.0-211.0-0.0","23579773","wem/bandit_either_3","A2QMHQXR8K4VJ2","either","4","422","","","","","","","1","0","0","0.2943589708","","0.6","0.8","0.2","0.4","","","","","0.5888321224","0.2943589708","0.7978982074","0.1996440145","","","","","","","","74","J","1","","","171","main_expt",""
"","bandit","251","442180","0.0-212.0-0.0","23579773","wem/bandit_either_3","A2QMHQXR8K4VJ2","either","4","240","","","","","","","0","0","1","","0.6295404033","0.6","0.8","0.2","0.4","0.6295404033","0.4298537702","0.7896885826","0.275753823","","","","","","","","","","","","72","H","0","img/none_selected.jpg","","172","main_expt",""
"","bandit","252","443891","0.0-213.0-0.0","23579773","wem/bandit_either_3","A2QMHQXR8K4VJ2","either","4","192","","","","","","","0","0","1","","0.2850946521","0.6","0.8","0.2","0.4","0.5976712981","0.4196262671","0.7771385218","0.2850946521","","","","","","","","","","","","76","L","3","","","173","main_expt",""
"","bandit","253","445459","0.0-214.0-0.0","23579773","wem/bandit_either_3","A2QMHQXR8K4VJ2","either","4","49","","","","","","","0","1","0","","0.8412209493","0.6","0.8","0.2","0.4","0.5936331925","0.4056978145","0.8412209493","0.2836726952","","","","","","","","","","","","75","K","2","","","174","main_expt",""
"","bandit","254","447139","0.0-215.0-0.0","23579773","wem/bandit_either_3","A2QMHQXR8K4VJ2","either","4","161","","","","","","","1","0","0","0.544145328","","0.6","0.8","0.2","0.4","","","","","0.544145328","0.3323311207","0.8433491626","0.27413619","","","","","","","","72","H","0","img/none_selected.jpg","","175","main_expt",""
"","bandit","255","448757","0.0-216.0-0.0","23579773","wem/bandit_either_3","A2QMHQXR8K4VJ2","either","4","99","","","","","","","0","0","1","0.3087900888","","0.6","0.8","0.2","0.4","","","","","0.3584947592","0.3087900888","0.778586436","0.2369491767","","","","","","","","74","J","1","","","176","main_expt",""
"","bandit","256","450305","0.0-217.0-0.0","23579773","wem/bandit_either_3","A2QMHQXR8K4VJ2","either","4","28","","","","","","","0","0","1","0.436171931","","0.6","0.8","0.2","0.4","","","","","0.436171931","0.3898613412","0.7488794252","0.3440943848","","","","","","","","72","H","0","img/none_selected.jpg","","177","main_expt",""
"","bandit","257","452086","0.0-218.0-0.0","23579773","wem/bandit_either_3","A2QMHQXR8K4VJ2","either","4","261","","","","","","","0","1","0","","0.7738581751","0.6","0.8","0.2","0.4","0.5193680035","0.5236321052","0.7738581751","0.3529135521","","","","","","","","","","","","75","K","2","","","178","main_expt",""
"","bandit","258","454183","0.0-219.0-0.0","23579773","wem/bandit_either_3","A2QMHQXR8K4VJ2","either","4","576","","","","","","","0","0","1","","0.3787243664","0.6","0.8","0.2","0.4","0.3957798075","0.2955080601","0.7527820287","0.3787243664","","","","","","","","","","","","76","L","3","","","179","main_expt",""
"","bandit","259","455967","0.0-220.0-0.0","23579773","wem/bandit_either_3","A2QMHQXR8K4VJ2","either","4","263","","","","","","","0","0","1","0.3174151272","","0.6","0.8","0.2","0.4","","","","","0.4249873197","0.3174151272","0.8022950929","0.3092677326","","","","","","","","74","J","1","","","180","main_expt",""
"","bandit","260","458455","0.0-221.0-0.0","23579773","wem/bandit_either_3","A2QMHQXR8K4VJ2","either","4","968","","","","","","","0","0","1","0.4260342439","","0.6","0.8","0.2","0.4","","","","","0.4260342439","0.3560995969","0.7505347306","0.3701559146","","","","","","","","72","H","0","img/none_selected.jpg","","181","main_expt",""
"","bandit","261","460139","0.0-222.0-0.0","23579773","wem/bandit_either_3","A2QMHQXR8K4VJ2","either","4","164","","","","","","","0","1","0","","0.2672844749","0.6","0.8","0.2","0.4","0.4305619521","0.4649908644","0.603349844","0.2672844749","","","","","","","","","","","","76","L","3","","","182","main_expt",""
"","bandit","262","461857","0.0-223.0-0.0","23579773","wem/bandit_either_3","A2QMHQXR8K4VJ2","either","4","199","","","","","","","1","0","0","0.4588174784","","0.6","0.8","0.2","0.4","","","","","0.4638513582","0.4588174784","0.6464544124","0.3046315644","","","","","","","","74","J","1","","","183","main_expt",""
"","bandit","263","463683","0.0-224.0-0.0","23579773","wem/bandit_either_3","A2QMHQXR8K4VJ2","either","4","305","","","","","","","0","1","0","","0.6606024443","0.6","0.8","0.2","0.4","0.5084330557","0.509799977","0.6606024443","0.3507685813","","","","","","","","","","","","75","K","2","","","184","main_expt",""
"","bandit","264","465346","0.0-225.0-0.0","23579773","wem/bandit_either_3","A2QMHQXR8K4VJ2","either","4","145","","","","","","","1","0","0","0.5853778332","","0.6","0.8","0.2","0.4","","","","","0.5853778332","0.4557178443","0.7034535028","0.3250269766","","","","","","","","72","H","0","img/none_selected.jpg","","185","main_expt",""
"","bandit","265","467121","0.0-226.0-0.0","23579773","wem/bandit_either_3","A2QMHQXR8K4VJ2","either","4","254","","","","","","","0","0","1","0.3636669497","","0.6","0.8","0.2","0.4","","","","","0.5009207633","0.3250172706","0.7672503758","0.3636669497","","","","","","","","76","L","3","","","186","main_expt",""
"","bandit","266","468733","0.0-227.0-0.0","23579773","wem/bandit_either_3","A2QMHQXR8K4VJ2","either","4","94","","","","","","","0","0","1","","0.2982192525","0.6","0.8","0.2","0.4","0.4376492532","0.2982192525","0.7505037824","0.4095027401","","","","","","","","","","","","74","J","1","","","187","main_expt",""
"","bandit","267","470414","0.0-228.0-0.0","23579773","wem/bandit_either_3","A2QMHQXR8K4VJ2","either","4","168","","","","","","","0","0","1","","0.317868257","0.6","0.8","0.2","0.4","0.317868257","0.2647713636","0.7458261356","0.3356624093","","","","","","","","","","","","72","H","0","img/none_selected.jpg","","188","main_expt",""
"","bandit","268","472160","0.0-229.0-0.0","23579773","wem/bandit_either_3","A2QMHQXR8K4VJ2","either","4","226","","","","","","","0","1","0","","0.747965221","0.6","0.8","0.2","0.4","0.3700786551","0.2798663258","0.747965221","0.3717951419","","","","","","","","","","","","75","K","2","","","189","main_expt",""
"","bandit","269","473818","0.0-230.0-0.0","23579773","wem/bandit_either_3","A2QMHQXR8K4VJ2","either","4","144","","","","","","","0","0","1","0.3423477616","","0.6","0.8","0.2","0.4","","","","","0.3423477616","0.2146362806","0.7459095382","0.3266606931","","","","","","","","72","H","0","img/none_selected.jpg","","190","main_expt",""
"","bandit","270","475351","0.0-231.0-0.0","23579773","wem/bandit_either_3","A2QMHQXR8K4VJ2","either","4","11","","","","","","","0","1","0","","0.4206899072","0.6","0.8","0.2","0.4","0.2488230813","0.3132783624","0.6299055833","0.4206899072","","","","","","","","","","","","76","L","3","","","191","main_expt",""
"","bandit","271","477174","0.0-232.0-0.0","23579773","wem/bandit_either_3","A2QMHQXR8K4VJ2","either","4","300","","","","","","","1","0","0","0.2488083766","","0.6","0.8","0.2","0.4","","","","","0.2193108308","0.2488083766","0.688533977","0.4982817076","","","","","","","","74","J","1","","","192","main_expt",""
"","bandit","272","478971","0.0-233.0-0.0","23579773","wem/bandit_either_3","A2QMHQXR8K4VJ2","either","4","276","","","","","","","0","0","1","0.4057276106","","0.6","0.8","0.2","0.4","","","","","0.4057276106","0.225611763","0.7176496952","0.4820211017","","","","","","","","72","H","0","img/none_selected.jpg","","193","main_expt",""
"","bandit","273","480594","0.0-234.0-0.0","23579773","wem/bandit_either_3","A2QMHQXR8K4VJ2","either","4","110","","","","","","","0","1","0","","0.746212457","0.6","0.8","0.2","0.4","0.3826056333","0.2159393038","0.746212457","0.5373891537","","","","","","","","","","","","75","K","2","","","194","main_expt",""
"","bandit","274","482183","0.0-235.0-0.0","23579773","wem/bandit_either_3","A2QMHQXR8K4VJ2","either","4","70","","","","","","","0","0","1","","0.3890275207","0.6","0.8","0.2","0.4","0.4922935908","0.3112228701","0.6800784202","0.3890275207","","","","","","","","","","","","76","L","3","","","195","main_expt",""
"","bandit","275","483767","0.0-236.0-0.0","23579773","wem/bandit_either_3","A2QMHQXR8K4VJ2","either","4","63","","","","","","","0","1","0","","0.5475793877","0.6","0.8","0.2","0.4","0.5475793877","0.3249051539","0.5986295964","0.4329462643","","","","","","","","","","","","72","H","0","img/none_selected.jpg","","196","main_expt",""
"","bandit","276","485393","0.0-237.0-0.0","23579773","wem/bandit_either_3","A2QMHQXR8K4VJ2","either","4","112","","","","","","","0","1","0","","0.5323622673","0.6","0.8","0.2","0.4","0.6069385875","0.2985018541","0.5323622673","0.416825946","","","","","","","","","","","","75","K","2","","","197","main_expt",""
"","bandit","277","487173","0.0-238.0-0.0","23579773","wem/bandit_either_3","A2QMHQXR8K4VJ2","either","4","256","","","","","","","0","1","0","","0.3109366799","0.6","0.8","0.2","0.4","0.4946816555","0.3109366799","0.5348043844","0.4063336836","","","","","","","","","","","","74","J","1","","","198","main_expt",""
"","bandit","278","490786","0.0-239.0-0.0","23579773","wem/bandit_either_3","A2QMHQXR8K4VJ2","either","4","187","","","","","","","0","0","1","0.479635203","","0.6","0.8","0.2","0.4","","","","","0.479635203","0.3143364341","0.4534403339","0.361264989","","","","","","","","72","H","0","img/none_selected.jpg","","199","main_expt",""
"","bandit","279","492941","0.0-240.0-0.0","23579773","wem/bandit_either_3","A2QMHQXR8K4VJ2","either","4","642","","","","","","","1","0","0","0.4969837249","","0.6","0.8","0.2","0.4","","","","","0.4969837249","0.3176919365","0.4185876589","0.4700223374","","","","","","","","72","H","0","img/none_selected.jpg","","200","main_expt",""
"","bandit","280","494803","0.0-241.0-0.0","23579773","wem/bandit_either_3","A2QMHQXR8K4VJ2","either","4","344","","","","","","","0","0","1","","0.2848283651","0.6","0.8","0.2","0.4","0.4548125401","0.2848283651","0.3812211227","0.4751543938","","","","","","","","","","","","74","J","1","","","201","main_expt",""
"","bandit","281","496697","0.0-242.0-0.0","23579773","wem/bandit_either_3","A2QMHQXR8K4VJ2","either","4","375","","","","","","","1","0","0","0.5767771981","","0.6","0.8","0.2","0.4","","","","","0.5767771981","0.2439676923","0.4414728031","0.4044794657","","","","","","","","72","H","0","img/none_selected.jpg","","202","main_expt",""
"","bandit","282","498600","0.0-243.0-0.0","23579773","wem/bandit_either_3","A2QMHQXR8K4VJ2","either","4","385","","","","","","","0","0","1","","0.3321077444","0.6","0.8","0.2","0.4","0.6118171827","0.2582922662","0.3698030662","0.3321077444","","","","","","","","","","","","76","L","3","","","203","main_expt",""
"","bandit","283","500365","0.0-244.0-0.0","23579773","wem/bandit_either_3","A2QMHQXR8K4VJ2","either","4","248","","","","","","","1","0","0","0.5373194108","","0.6","0.8","0.2","0.4","","","","","0.5373194108","0.3799793739","0.4899087748","0.3697340749","","","","","","","","72","H","0","img/none_selected.jpg","","204","main_expt",""
"","bandit","284","501897","0.0-245.0-0.0","23579773","wem/bandit_either_3","A2QMHQXR8K4VJ2","either","4","15","","","","","","","0","1","0","","0.4310108402","0.6","0.8","0.2","0.4","0.5501461309","0.4441528059","0.4310108402","0.3998168993","","","","","","","","","","","","75","K","2","","","205","main_expt",""
"","bandit","285","503531","0.0-246.0-0.0","23579773","wem/bandit_either_3","A2QMHQXR8K4VJ2","either","4","113","","","","","","","1","0","0","0.5094027242","","0.6","0.8","0.2","0.4","","","","","0.5094027242","0.4468516792","0.3912115078","0.4929909192","","","","","","","","72","H","0","img/none_selected.jpg","","206","main_expt",""
"","bandit","286","505137","0.0-247.0-0.0","23579773","wem/bandit_either_3","A2QMHQXR8K4VJ2","either","4","85","","","","","","","0","0","1","0.399366085","","0.6","0.8","0.2","0.4","","","","","0.6449696869","0.399366085","0.3195818707","0.4960693894","","","","","","","","74","J","1","","","207","main_expt",""
"","bandit","287","506915","0.0-248.0-0.0","23579773","wem/bandit_either_3","A2QMHQXR8K4VJ2","either","4","256","","","","","","","1","0","0","0.3912862986","","0.6","0.8","0.2","0.4","","","","","0.549996868","0.4206610772","0.2378171997","0.3912862986","","","","","","","","76","L","3","","","208","main_expt",""
"","bandit","288","508602","0.0-249.0-0.0","23579773","wem/bandit_either_3","A2QMHQXR8K4VJ2","either","4","163","","","","","","","1","0","0","0.5258833792","","0.6","0.8","0.2","0.4","","","","","0.5258833792","0.5145499259","0.2339104391","0.4218938049","","","","","","","","72","H","0","img/none_selected.jpg","","209","main_expt",""
"","bandit","289","510364","0.0-250.0-0.0","23579773","wem/bandit_either_3","A2QMHQXR8K4VJ2","either","4","249","","","","","","","0","0","1","","0.6003160005","0.6","0.8","0.2","0.4","0.5453980868","0.3497539355","0.2506558306","0.6003160005","","","","","","","","","","","","76","L","3","","","210","main_expt",""
"","bandit","290","512022","0.0-251.0-0.0","23579773","wem/bandit_either_3","A2QMHQXR8K4VJ2","either","4","136","","","","","","","1","0","0","0.5370950561","","0.6","0.8","0.2","0.4","","","","","0.5370950561","0.3335821388","0.3466578502","0.5481562991","","","","","","","","72","H","0","img/none_selected.jpg","","211","main_expt",""
"","bandit","291","513660","0.0-252.0-0.0","23579773","wem/bandit_either_3","A2QMHQXR8K4VJ2","either","4","128","","","","","","","0","0","1","0.2778022227","","0.6","0.8","0.2","0.4","","","","","0.5774996514","0.2778022227","0.4162959965","0.6210595125","","","","","","","","74","J","1","","","212","main_expt",""
"","bandit","292","515447","0.0-253.0-0.0","23579773","wem/bandit_either_3","A2QMHQXR8K4VJ2","either","4","262","","","","","","","0","1","0","","0.4826056363","0.6","0.8","0.2","0.4","0.4826056363","0.2949104287","0.545788555","0.7732161257","","","","","","","","","","","","72","H","0","img/none_selected.jpg","","213","main_expt",""
"","bandit","293","517408","0.0-254.0-0.0","23579773","wem/bandit_either_3","A2QMHQXR8K4VJ2","either","4","440","","","","","","","0","1","0","","0.6077749924","0.6","0.8","0.2","0.4","0.4913277851","0.2443343027","0.6077749924","0.7689771773","","","","","","","","","","","","75","K","2","","","214","main_expt",""
"","bandit","294","519012","0.0-255.0-0.0","23579773","wem/bandit_either_3","A2QMHQXR8K4VJ2","either","4","83","","","","","","","0","0","1","0.6841712945","","0.6","0.8","0.2","0.4","","","","","0.5415006571","0.2232989174","0.4883429648","0.6841712945","","","","","","","","76","L","3","","","215","main_expt",""
"","bandit","295","521049","0.0-256.0-0.0","23579773","wem/bandit_either_3","A2QMHQXR8K4VJ2","either","4","514","","","","","","","0","0","1","0.2918619336","","0.6","0.8","0.2","0.4","","","","","0.5198015267","0.2918619336","0.3309854328","0.7019934296","","","","","","","","74","J","1","","","216","main_expt",""
"","bandit","296","523156","0.0-257.0-0.0","23579773","wem/bandit_either_3","A2QMHQXR8K4VJ2","either","4","594","","","","","","","1","0","0","0.545097872","","0.6","0.8","0.2","0.4","","","","","0.545097872","0.3571058798","0.3310528633","0.7537099884","","","","","","","","72","H","0","img/none_selected.jpg","","217","main_expt",""
"","bandit","297","525199","0.0-258.0-0.0","23579773","wem/bandit_either_3","A2QMHQXR8K4VJ2","either","4","519","","","","","","","0","0","1","","0.5776025334","0.6","0.8","0.2","0.4","0.5776025334","0.3738303097","0.4147218791","0.8428980993","","","","","","","","","","","","72","H","0","img/none_selected.jpg","","218","main_expt",""
"","bandit","298","526983","0.0-259.0-0.0","23579773","wem/bandit_either_3","A2QMHQXR8K4VJ2","either","4","264","","","","","","","0","1","0","","0.8007326434","0.6","0.8","0.2","0.4","0.5616346574","0.4832874948","0.3402104323","0.8007326434","","","","","","","","","","","","76","L","3","","","219","main_expt",""
"","bandit","299","528791","0.0-260.0-0.0","23579773","wem/bandit_either_3","A2QMHQXR8K4VJ2","either","4","294","","","","","","","1","0","0","0.3448871422","","0.6","0.8","0.2","0.4","","","","","0.6261942659","0.475455537","0.3448871422","0.8518850648","","","","","","","","75","K","2","","","220","main_expt",""
"","bandit","300","530461","0.0-261.0-0.0","23579773","wem/bandit_either_3","A2QMHQXR8K4VJ2","either","4","147","","","","","","","0","0","1","0.3849790123","","0.6","0.8","0.2","0.4","","","","","0.6533416475","0.3849790123","0.4438284365","0.8488451861","","","","","","","","74","J","1","","","221","main_expt",""
"","bandit","301","531986","0.0-262.0-0.0","23579773","wem/bandit_either_3","A2QMHQXR8K4VJ2","either","4","3","","","","","","","0","1","0","","0.6780524799","0.6","0.8","0.2","0.4","0.6780524799","0.2708628555","0.3768672835","0.8202185963","","","","","","","","","","","","72","H","0","img/none_selected.jpg","","222","main_expt",""
"","bandit","302","533644","0.0-263.0-0.0","23579773","wem/bandit_either_3","A2QMHQXR8K4VJ2","either","4","137","","","","","","","1","0","0","0.839196386","","0.6","0.8","0.2","0.4","","","","","0.638470603","0.3886191555","0.4599748191","0.839196386","","","","","","","","76","L","3","","","223","main_expt",""
"","bandit","303","535493","0.0-264.0-0.0","23579773","wem/bandit_either_3","A2QMHQXR8K4VJ2","either","4","336","","","","","","","0","0","1","0.3352763987","","0.6","0.8","0.2","0.4","","","","","0.560582988","0.3352763987","0.5868274652","0.8340435664","","","","","","","","74","J","1","","","224","main_expt",""
"","bandit","304","537166","0.0-265.0-0.0","23579773","wem/bandit_either_3","A2QMHQXR8K4VJ2","either","4","152","","","","","","","0","0","1","","0.510759767","0.6","0.8","0.2","0.4","0.5004803289","0.3948846532","0.510759767","0.8229669419","","","","","","","","","","","","75","K","2","","","225","main_expt",""
"","bandit","305","538692","0.0-266.0-0.0","23579773","wem/bandit_either_3","A2QMHQXR8K4VJ2","either","4","3","","","","","","","0","1","0","","0.5109709899","0.6","0.8","0.2","0.4","0.5109709899","0.385279681","0.6026028704","0.8326575293","","","","","","","","","","","","72","H","0","img/none_selected.jpg","","226","main_expt",""
"","bandit","306","540471","0.0-267.0-0.0","23579773","wem/bandit_either_3","A2QMHQXR8K4VJ2","either","4","259","","","","","","","0","1","0","","0.8904476858","0.6","0.8","0.2","0.4","0.4271661703","0.3296530349","0.588132951","0.8904476858","","","","","","","","","","","","76","L","3","","","227","main_expt",""
"","bandit","307","542235","0.0-268.0-0.0","23579773","wem/bandit_either_3","A2QMHQXR8K4VJ2","either","4","243","","","","","","","0","0","1","","0.4227788413","0.6","0.8","0.2","0.4","0.374673526","0.4227788413","0.5754590721","0.8877596604","","","","","","","","","","","","74","J","1","","","228","main_expt",""
"","bandit","308","543745","0.0-269.0-0.0","23579773","wem/bandit_either_3","A2QMHQXR8K4VJ2","either","4","1","","","","","","","0","1","0","","0.6311951266","0.6","0.8","0.2","0.4","0.393435759","0.4470353227","0.6311951266","0.8647697669","","","","","","","","","","","","75","K","2","","","229","main_expt",""
"","bandit","309","545567","0.0-270.0-0.0","23579773","wem/bandit_either_3","A2QMHQXR8K4VJ2","either","4","300","","","","","","","1","0","0","0.3299431778","","0.6","0.8","0.2","0.4","","","","","0.3299431778","0.2986819632","0.6164228117","0.8704214291","","","","","","","","72","H","0","img/none_selected.jpg","","230","main_expt",""
"","bandit","310","547284","0.0-271.0-0.0","23579773","wem/bandit_either_3","A2QMHQXR8K4VJ2","either","4","195","","","","","","","1","0","0","0.8598686354","","0.6","0.8","0.2","0.4","","","","","0.3477061432","0.4508866759","0.5943568022","0.8598686354","","","","","","","","76","L","3","","","231","main_expt",""
"","bandit","311","549531","0.0-272.0-0.0","23579773","wem/bandit_either_3","A2QMHQXR8K4VJ2","either","4","725","","","","","","","0","0","1","0.3430234075","","0.6","0.8","0.2","0.4","","","","","0.3430234075","0.5125968159","0.6032910051","0.7939027672","","","","","","","","72","H","0","img/none_selected.jpg","","232","main_expt",""
"","bandit","312","551115","0.0-273.0-0.0","23579773","wem/bandit_either_3","A2QMHQXR8K4VJ2","either","4","62","","","","","","","0","0","1","","0.7225660168","0.6","0.8","0.2","0.4","0.2812772396","0.6020802482","0.7225660168","0.7930400566","","","","","","","","","","","","75","K","2","","","233","main_expt",""
"","bandit","313","552766","0.0-274.0-0.0","23579773","wem/bandit_either_3","A2QMHQXR8K4VJ2","either","4","129","","","","","","","0","1","0","","0.5927943616","0.6","0.8","0.2","0.4","0.2049555934","0.5927943616","0.6718439238","0.7549101179","","","","","","","","","","","","74","J","1","","","234","main_expt",""
"","bandit","314","554492","0.0-275.0-0.0","23579773","wem/bandit_either_3","A2QMHQXR8K4VJ2","either","4","206","","","","","","","0","1","0","","0.7654291135","0.6","0.8","0.2","0.4","0.144612338","0.5814417759","0.6025803433","0.7654291135","","","","","","","","","","","","76","L","3","","","235","main_expt",""
"","bandit","315","556043","0.0-276.0-0.0","23579773","wem/bandit_either_3","A2QMHQXR8K4VJ2","either","4","28","","","","","","","1","0","0","0.6170166349","","0.6","0.8","0.2","0.4","","","","","0.1509581517","0.6530024001","0.6170166349","0.6965918162","","","","","","","","75","K","2","","","236","main_expt",""
"","bandit","316","557605","0.0-277.0-0.0","23579773","wem/bandit_either_3","A2QMHQXR8K4VJ2","either","4","38","","","","","","","0","0","1","0.2267465707","","0.6","0.8","0.2","0.4","","","","","0.2267465707","0.5861490443","0.6426153702","0.8151927982","","","","","","","","72","H","0","img/none_selected.jpg","","237","main_expt",""
"","bandit","317","559410","0.0-278.0-0.0","23579773","wem/bandit_either_3","A2QMHQXR8K4VJ2","either","4","282","","","","","","","1","0","0","0.7696745118","","0.6","0.8","0.2","0.4","","","","","0.1651127221","0.6086881899","0.5421138037","0.7696745118","","","","","","","","76","L","3","","","238","main_expt",""
"","bandit","318","561200","0.0-279.0-0.0","23579773","wem/bandit_either_3","A2QMHQXR8K4VJ2","either","4","270","","","","","","","0","1","0","","0.5534077834","0.6","0.8","0.2","0.4","0.1587945469","0.6323362843","0.5534077834","0.7368178416","","","","","","","","","","","","75","K","2","","","239","main_expt",""
"","bandit","319","562870","0.0-280.0-0.0","23579773","wem/bandit_either_3","A2QMHQXR8K4VJ2","either","4","148","","","","","","","0","0","1","","0.08644000702","0.6","0.8","0.2","0.4","0.08644000702","0.5620837446","0.7267030345","0.6443792527","","","","","","","","","","","","72","H","0","img/none_selected.jpg","","240","main_expt",""
"","bandit","320","564394","0.0-281.0-0.0","23579773","wem/bandit_either_3","A2QMHQXR8K4VJ2","either","4","1","","","","","","","0","0","1","","0.5571148452","0.6","0.8","0.2","0.4","0.06677296221","0.5571148452","0.7211407476","0.6467572307","","","","","","","","","","","","74","J","1","","","241","main_expt",""
"","bandit","321","565918","0.0-282.0-0.0","23579773","wem/bandit_either_3","A2QMHQXR8K4VJ2","either","4","1","","","","","","","0","1","0","","0.6131120494","0.6","0.8","0.2","0.4","0.08066643837","0.4016720442","0.6764936995","0.6131120494","","","","","","","","","","","","76","L","3","","","242","main_expt",""
"","bandit","322","568009","0.0-283.0-0.0","23579773","wem/bandit_either_3","A2QMHQXR8K4VJ2","either","4","568","","","","","","","0","0","1","","0.08086195374","0.6","0.8","0.2","0.4","0.08086195374","0.5389796081","0.6677952341","0.7409975133","","","","","","","","","","","","72","H","0","img/none_selected.jpg","","243","main_expt",""
"","bandit","323","569678","0.0-284.0-0.0","23579773","wem/bandit_either_3","A2QMHQXR8K4VJ2","either","4","154","","","","","","","0","0","1","0.5123058505","","0.6","0.8","0.2","0.4","","","","","0.1496534925","0.5123058505","0.7284567303","0.6582216966","","","","","","","","74","J","1","","","244","main_expt",""
