"consent","trial_type","trial_index","time_elapsed","internal_node_id","subjID","study","MID","cond","drift","rt","responses","key_press","expt_phase","like","value","connected","gems","bombs","no_reward","GemPrChosen","BombPrChosen","GainOverPainPr_0","GainOverPainPr_1","GainOverPainPr_2","GainOverPainPr_3","LosePr_0","LosePr_1","LosePr_2","LosePr_3","WinPr_0","WinPr_1","WinPr_2","WinPr_3","Q0","Q1","Q2","gender","age","ethnicity","target","respCharCode","respKey","respChoiceNum","respChoice","practice","trial_counter","trial_label","button_pressed"
"INL_behavioral_consent_30min_online.html","consent","0","39894","0.0-0.0","25578725","wem/bandit_either_3","A173LV77LF3SHB","either","7","","","","","","","","","","","","","","","","","","","","","","","","","","","","","","","","","","","","","","",""
"","survey-text","1","49137","0.0-1.0","25578725","wem/bandit_either_3","A173LV77LF3SHB","either","7","8235","{""Q0"":""A173LV77LF3SHB""}","","","","","","","","","","","","","","","","","","","","","","","","","","","","","","","","","","","","",""
"","text","2","71330","0.0-2.0","25578725","wem/bandit_either_3","A173LV77LF3SHB","either","7","21180","","32","","","","","","","","","","","","","","","","","","","","","","","","","","","","","","","","","","","",""
"","text","3","79829","0.0-3.0","25578725","wem/bandit_either_3","A173LV77LF3SHB","either","7","8496","","32","","","","","","","","","","","","","","","","","","","","","","","","","","","","","","","","","","","",""
"","text","4","104813","0.0-4.0","25578725","wem/bandit_either_3","A173LV77LF3SHB","either","7","24983","","32","","","","","","","","","","","","","","","","","","","","","","","","","","","","","","","","","","","",""
"","text","5","123287","0.0-5.0","25578725","wem/bandit_either_3","A173LV77LF3SHB","either","7","18471","","32","","","","","","","","","","","","","","","","","","","","","","","","","","","","","","","","","","","",""
"","text","6","138007","0.0-6.0","25578725","wem/bandit_either_3","A173LV77LF3SHB","either","7","14717","","32","","","","","","","","","","","","","","","","","","","","","","","","","","","","","","","","","","","",""
"","text","7","148109","0.0-7.0","25578725","wem/bandit_either_3","A173LV77LF3SHB","either","7","10100","","32","","","","","","","","","","","","","","","","","","","","","","","","","","","","","","","","","","","",""
"","text","8","153012","0.0-8.0","25578725","wem/bandit_either_3","A173LV77LF3SHB","either","7","4901","","32","","","","","","","","","","","","","","","","","","","","","","","","","","","","","","","","","","","",""
"","identification","9","172564","0.0-9.0-0.0","25578725","wem/bandit_either_3","A173LV77LF3SHB","either","7","19532","","","","4","5","3","","","","","","","","","","","","","","","","","","","","","","","","the village of Zur","","","","","","","",""
"","identification","10","185025","0.0-9.0-1.0","25578725","wem/bandit_either_3","A173LV77LF3SHB","either","7","11443","","","","2","1","1","","","","","","","","","","","","","","","","","","","","","","","","the village of Nyx","","","","","","","",""
"","text","11","191608","0.0-10.0","25578725","wem/bandit_either_3","A173LV77LF3SHB","either","7","5565","","32","","","","","","","","","","","","","","","","","","","","","","","","","","","","","","","","","","","",""
"","text","12","197116","0.0-11.0","25578725","wem/bandit_either_3","A173LV77LF3SHB","either","7","5506","","32","","","","","","","","","","","","","","","","","","","","","","","","","","","","","","","","","","","",""
"","text","13","199245","0.0-12.0","25578725","wem/bandit_either_3","A173LV77LF3SHB","either","7","2128","","32","","","","","","","","","","","","","","","","","","","","","","","","","","","","","","","","","","","",""
"","text","14","203398","0.0-13.0","25578725","wem/bandit_either_3","A173LV77LF3SHB","either","7","4151","","32","","","","","","","","","","","","","","","","","","","","","","","","","","","","","","","","","","","",""
"","bandit","15","209874","0.0-14.0-0.0","25578725","wem/bandit_either_3","A173LV77LF3SHB","either","7","4953","","","","","","","0","0","1","0","0","","","","","0","","","","0","","","","","","","","","","","74","J","0","img/none_selected_demo.jpg","true","0","",""
"","bandit","16","215648","0.0-15.0-0.0","25578725","wem/bandit_either_3","A173LV77LF3SHB","either","7","4261","","","","","","","0","0","1","0","0","","","","","0","","","","0","","","","","","","","","","","75","K","0","img/none_selected_demo.jpg","true","0","",""
"","text","17","223700","0.0-16.0","25578725","wem/bandit_either_3","A173LV77LF3SHB","either","7","8048","","32","","","","","","","","","","","","","","","","","","","","","","","","","","","","","","","","","","","",""
"","text","18","255071","0.0-17.0","25578725","wem/bandit_either_3","A173LV77LF3SHB","either","7","31368","","32","","","","","","","","","","","","","","","","","","","","","","","","","","","","","","","","","","","",""
"","text","19","267022","0.0-18.0","25578725","wem/bandit_either_3","A173LV77LF3SHB","either","7","11948","","32","","","","","","","","","","","","","","","","","","","","","","","","","","","","","","","","","","","",""
"","text","20","271723","0.0-19.0","25578725","wem/bandit_either_3","A173LV77LF3SHB","either","7","4699","","32","","","","","","","","","","","","","","","","","","","","","","","","","","","","","","","","","","","",""
"","bandit","21","274282","0.0-20.0-0.0","25578725","wem/bandit_either_3","A173LV77LF3SHB","either","7","1031","","","","","","","0","1","0","","0.8","0.5","0.5","","","0.8","0.2","","","","","","","","","","","","","","74","J","0","img/none_selected_demo.jpg","true","0","80_20_practice",""
"","bandit","22","277792","0.0-20.0-1.0","25578725","wem/bandit_either_3","A173LV77LF3SHB","either","7","1981","","","","","","","0","1","0","","0.2","0.5","0.5","","","0.8","0.2","","","","","","","","","","","","","","75","K","1","","true","0","80_20_practice",""
"","bandit","23","280528","0.0-20.0-2.0","25578725","wem/bandit_either_3","A173LV77LF3SHB","either","7","1213","","","","","","","0","0","1","0.2","","0.5","0.5","","","","","","","0.8","0.2","","","","","","","","","","75","K","1","","true","0","80_20_practice",""
"","bandit","24","282671","0.0-20.0-3.0","25578725","wem/bandit_either_3","A173LV77LF3SHB","either","7","617","","","","","","","0","0","1","","0.2","0.5","0.5","","","0.8","0.2","","","","","","","","","","","","","","75","K","1","","true","0","80_20_practice",""
"","bandit","25","284656","0.0-20.0-4.0","25578725","wem/bandit_either_3","A173LV77LF3SHB","either","7","467","","","","","","","0","1","0","","0.8","0.5","0.5","","","0.8","0.2","","","","","","","","","","","","","","74","J","0","img/none_selected_demo.jpg","true","0","80_20_practice",""
"","bandit","26","286743","0.0-20.0-5.0","25578725","wem/bandit_either_3","A173LV77LF3SHB","either","7","563","","","","","","","0","0","1","","0.8","0.5","0.5","","","0.8","0.2","","","","","","","","","","","","","","74","J","0","img/none_selected_demo.jpg","true","0","80_20_practice",""
"","bandit","27","288906","0.0-20.0-6.0","25578725","wem/bandit_either_3","A173LV77LF3SHB","either","7","632","","","","","","","0","0","1","","0.2","0.5","0.5","","","0.8","0.2","","","","","","","","","","","","","","75","K","1","","true","0","80_20_practice",""
"","bandit","28","291152","0.0-20.0-7.0","25578725","wem/bandit_either_3","A173LV77LF3SHB","either","7","727","","","","","","","0","1","0","","0.2","0.5","0.5","","","0.8","0.2","","","","","","","","","","","","","","75","K","1","","true","0","80_20_practice",""
"","bandit","29","293099","0.0-20.0-8.0","25578725","wem/bandit_either_3","A173LV77LF3SHB","either","7","429","","","","","","","0","0","1","","0.2","0.5","0.5","","","0.8","0.2","","","","","","","","","","","","","","75","K","1","","true","0","80_20_practice",""
"","bandit","30","294691","0.0-20.0-9.0","25578725","wem/bandit_either_3","A173LV77LF3SHB","either","7","84","","","","","","","0","0","1","0.2","","0.5","0.5","","","","","","","0.8","0.2","","","","","","","","","","75","K","1","","true","0","80_20_practice",""
"","bandit","31","296671","0.0-20.0-10.0","25578725","wem/bandit_either_3","A173LV77LF3SHB","either","7","449","","","","","","","0","0","1","","0.2","0.5","0.5","","","0.8","0.2","","","","","","","","","","","","","","75","K","1","","true","0","80_20_practice",""
"","bandit","32","298586","0.0-20.0-11.0","25578725","wem/bandit_either_3","A173LV77LF3SHB","either","7","396","","","","","","","0","1","0","","0.8","0.5","0.5","","","0.8","0.2","","","","","","","","","","","","","","74","J","0","img/none_selected_demo.jpg","true","0","80_20_practice",""
"","bandit","33","300490","0.0-20.0-12.0","25578725","wem/bandit_either_3","A173LV77LF3SHB","either","7","380","","","","","","","1","0","0","0.8","","0.5","0.5","","","","","","","0.8","0.2","","","","","","","","","","74","J","0","img/none_selected_demo.jpg","true","0","80_20_practice",""
"","bandit","34","302460","0.0-20.0-13.0","25578725","wem/bandit_either_3","A173LV77LF3SHB","either","7","459","","","","","","","1","0","0","0.8","","0.5","0.5","","","","","","","0.8","0.2","","","","","","","","","","74","J","0","img/none_selected_demo.jpg","true","0","80_20_practice",""
"","bandit","35","304476","0.0-20.0-14.0","25578725","wem/bandit_either_3","A173LV77LF3SHB","either","7","507","","","","","","","0","1","0","","0.8","0.5","0.5","","","0.8","0.2","","","","","","","","","","","","","","74","J","0","img/none_selected_demo.jpg","true","0","80_20_practice",""
"","bandit","36","306562","0.0-20.0-15.0","25578725","wem/bandit_either_3","A173LV77LF3SHB","either","7","562","","","","","","","0","1","0","","0.8","0.5","0.5","","","0.8","0.2","","","","","","","","","","","","","","74","J","0","img/none_selected_demo.jpg","true","0","80_20_practice",""
"","bandit","37","308483","0.0-20.0-16.0","25578725","wem/bandit_either_3","A173LV77LF3SHB","either","7","395","","","","","","","1","0","0","0.8","","0.5","0.5","","","","","","","0.8","0.2","","","","","","","","","","74","J","0","img/none_selected_demo.jpg","true","0","80_20_practice",""
"","bandit","38","310600","0.0-20.0-17.0","25578725","wem/bandit_either_3","A173LV77LF3SHB","either","7","590","","","","","","","0","1","0","","0.8","0.5","0.5","","","0.8","0.2","","","","","","","","","","","","","","74","J","0","img/none_selected_demo.jpg","true","0","80_20_practice",""
"","bandit","39","312450","0.0-20.0-18.0","25578725","wem/bandit_either_3","A173LV77LF3SHB","either","7","335","","","","","","","0","1","0","","0.8","0.5","0.5","","","0.8","0.2","","","","","","","","","","","","","","74","J","0","img/none_selected_demo.jpg","true","0","80_20_practice",""
"","bandit","40","313979","0.0-20.0-19.0","25578725","wem/bandit_either_3","A173LV77LF3SHB","either","7","6","","","","","","","0","1","0","","0.8","0.5","0.5","","","0.8","0.2","","","","","","","","","","","","","","74","J","0","img/none_selected_demo.jpg","true","0","80_20_practice",""
"","text","41","321068","0.0-21.0","25578725","wem/bandit_either_3","A173LV77LF3SHB","either","7","7086","","32","","","","","","","","","","","","","","","","","","","","","","","","","","","","","","","","","","","",""
"","bandit","42","324844","0.0-22.0-0.0","25578725","wem/bandit_either_3","A173LV77LF3SHB","either","7","2257","","","","","","","1","0","0","1","0","","","","","0","1","","","1","0","","","","","","","","","","74","J","0","img/none_selected_demo.jpg","true","0","",""
"","text","43","336317","0.0-23.0","25578725","wem/bandit_either_3","A173LV77LF3SHB","either","7","11470","","32","","","","","","","","","","","","","","","","","","","","","","","","","","","","","","","","","","","",""
"","text","44","342691","0.0-24.0","25578725","wem/bandit_either_3","A173LV77LF3SHB","either","7","6370","","32","","","","","","","","","","","","","","","","","","","","","","","","","","","","","","","","","","","",""
"","text","45","348620","0.0-25.0","25578725","wem/bandit_either_3","A173LV77LF3SHB","either","7","5927","","32","","","","","","","","","","","","","","","","","","","","","","","","","","","","","","","","","","","",""
"","text","46","352891","0.0-26.0","25578725","wem/bandit_either_3","A173LV77LF3SHB","either","7","4269","","32","","","","","","","","","","","","","","","","","","","","","","","","","","","","","","","","","","","",""
"","text","47","365020","0.0-27.0","25578725","wem/bandit_either_3","A173LV77LF3SHB","either","7","12127","","32","","","","","","","","","","","","","","","","","","","","","","","","","","","","","","","","","","","",""
"","text","48","370419","0.0-28.0","25578725","wem/bandit_either_3","A173LV77LF3SHB","either","7","5397","","32","","","","","","","","","","","","","","","","","","","","","","","","","","","","","","","","","","","",""
"","text","49","376693","0.0-29.0","25578725","wem/bandit_either_3","A173LV77LF3SHB","either","7","6271","","32","","","","","","","","","","","","","","","","","","","","","","","","","","","","","","","","","","","",""
"","text","50","382403","0.0-30.0","25578725","wem/bandit_either_3","A173LV77LF3SHB","either","7","5706","","32","","","","","","","","","","","","","","","","","","","","","","","","","","","","","","","","","","","",""
"","text","51","389381","0.0-31.0","25578725","wem/bandit_either_3","A173LV77LF3SHB","either","7","6975","","32","","","","","","","","","","","","","","","","","","","","","","","","","","","","","","","","","","","",""
"","text","52","390763","0.0-32.0","25578725","wem/bandit_either_3","A173LV77LF3SHB","either","7","1379","","32","","","","","","","","","","","","","","","","","","","","","","","","","","","","","","","","","","","",""
"","text","53","395365","0.0-33.0","25578725","wem/bandit_either_3","A173LV77LF3SHB","either","7","4598","","32","","","","","","","","","","","","","","","","","","","","","","","","","","","","","","","","","","","",""
"","bandit","54","397665","0.0-34.0-0.0","25578725","wem/bandit_either_3","A173LV77LF3SHB","either","7","776","","","","","","","0","0","1","","0.8","0.5","0.5","0.5","0.5","0.8","0.2","0.6","0.2","","","","","","","","","","","","72","H","0","img/none_selected.jpg","true","0","full_practice",""
"","bandit","55","399593","0.0-34.0-1.0","25578725","wem/bandit_either_3","A173LV77LF3SHB","either","7","398","","","","","","","1","0","0","0.8","","0.5","0.5","0.5","0.5","","","","","0.8","0.2","0.6","0.2","","","","","","","","72","H","0","img/none_selected.jpg","true","0","full_practice",""
"","bandit","56","401497","0.0-34.0-2.0","25578725","wem/bandit_either_3","A173LV77LF3SHB","either","7","383","","","","","","","1","0","0","0.8","","0.5","0.5","0.5","0.5","","","","","0.8","0.2","0.6","0.2","","","","","","","","72","H","0","img/none_selected.jpg","true","0","full_practice",""
"","bandit","57","403359","0.0-34.0-3.0","25578725","wem/bandit_either_3","A173LV77LF3SHB","either","7","317","","","","","","","1","0","0","0.8","","0.5","0.5","0.5","0.5","","","","","0.8","0.2","0.6","0.2","","","","","","","","72","H","0","img/none_selected.jpg","true","0","full_practice",""
"","bandit","58","405171","0.0-34.0-4.0","25578725","wem/bandit_either_3","A173LV77LF3SHB","either","7","298","","","","","","","0","0","1","","0.8","0.5","0.5","0.5","0.5","0.8","0.2","0.6","0.2","","","","","","","","","","","","72","H","0","img/none_selected.jpg","true","0","full_practice",""
"","bandit","59","408499","0.0-34.0-5.0","25578725","wem/bandit_either_3","A173LV77LF3SHB","either","7","1813","","","","","","","0","0","1","0.8","","0.5","0.5","0.5","0.5","","","","","0.8","0.2","0.6","0.2","","","","","","","","72","H","0","img/none_selected.jpg","true","0","full_practice",""
"","bandit","60","410655","0.0-34.0-6.0","25578725","wem/bandit_either_3","A173LV77LF3SHB","either","7","636","","","","","","","0","1","0","","0.8","0.5","0.5","0.5","0.5","0.8","0.2","0.6","0.2","","","","","","","","","","","","72","H","0","img/none_selected.jpg","true","0","full_practice",""
"","bandit","61","412209","0.0-34.0-7.0","25578725","wem/bandit_either_3","A173LV77LF3SHB","either","7","37","","","","","","","0","1","0","","0.8","0.5","0.5","0.5","0.5","0.8","0.2","0.6","0.2","","","","","","","","","","","","72","H","0","img/none_selected.jpg","true","0","full_practice",""
"","bandit","62","415111","0.0-34.0-8.0","25578725","wem/bandit_either_3","A173LV77LF3SHB","either","7","1383","","","","","","","0","1","0","","0.8","0.5","0.5","0.5","0.5","0.8","0.2","0.6","0.2","","","","","","","","","","","","72","H","0","img/none_selected.jpg","true","0","full_practice",""
"","bandit","63","417185","0.0-34.0-9.0","25578725","wem/bandit_either_3","A173LV77LF3SHB","either","7","546","","","","","","","0","0","1","","0.8","0.5","0.5","0.5","0.5","0.8","0.2","0.6","0.2","","","","","","","","","","","","72","H","0","img/none_selected.jpg","true","0","full_practice",""
"","bandit","64","419018","0.0-34.0-10.0","25578725","wem/bandit_either_3","A173LV77LF3SHB","either","7","312","","","","","","","0","0","1","","0.8","0.5","0.5","0.5","0.5","0.8","0.2","0.6","0.2","","","","","","","","","","","","72","H","0","img/none_selected.jpg","true","0","full_practice",""
"","bandit","65","420917","0.0-34.0-11.0","25578725","wem/bandit_either_3","A173LV77LF3SHB","either","7","366","","","","","","","0","0","1","","0.2","0.5","0.5","0.5","0.5","0.8","0.2","0.6","0.2","","","","","","","","","","","","74","J","1","","true","0","full_practice",""
"","bandit","66","422797","0.0-34.0-12.0","25578725","wem/bandit_either_3","A173LV77LF3SHB","either","7","347","","","","","","","0","0","1","","0.2","0.5","0.5","0.5","0.5","0.8","0.2","0.6","0.2","","","","","","","","","","","","74","J","1","","true","0","full_practice",""
"","bandit","67","424683","0.0-34.0-13.0","25578725","wem/bandit_either_3","A173LV77LF3SHB","either","7","378","","","","","","","0","0","1","0.2","","0.5","0.5","0.5","0.5","","","","","0.8","0.2","0.6","0.2","","","","","","","","74","J","1","","true","0","full_practice",""
"","bandit","68","426655","0.0-34.0-14.0","25578725","wem/bandit_either_3","A173LV77LF3SHB","either","7","444","","","","","","","0","0","1","","0.2","0.5","0.5","0.5","0.5","0.8","0.2","0.6","0.2","","","","","","","","","","","","74","J","1","","true","0","full_practice",""
"","bandit","69","428590","0.0-34.0-15.0","25578725","wem/bandit_either_3","A173LV77LF3SHB","either","7","414","","","","","","","1","0","0","0.6","","0.5","0.5","0.5","0.5","","","","","0.8","0.2","0.6","0.2","","","","","","","","75","K","2","","true","0","full_practice",""
"","bandit","70","430498","0.0-34.0-16.0","25578725","wem/bandit_either_3","A173LV77LF3SHB","either","7","373","","","","","","","0","1","0","","0.6","0.5","0.5","0.5","0.5","0.8","0.2","0.6","0.2","","","","","","","","","","","","75","K","2","","true","0","full_practice",""
"","bandit","71","432295","0.0-34.0-17.0","25578725","wem/bandit_either_3","A173LV77LF3SHB","either","7","270","","","","","","","1","0","0","0.6","","0.5","0.5","0.5","0.5","","","","","0.8","0.2","0.6","0.2","","","","","","","","75","K","2","","true","0","full_practice",""
"","bandit","72","434203","0.0-34.0-18.0","25578725","wem/bandit_either_3","A173LV77LF3SHB","either","7","384","","","","","","","0","1","0","","0.6","0.5","0.5","0.5","0.5","0.8","0.2","0.6","0.2","","","","","","","","","","","","75","K","2","","true","0","full_practice",""
"","bandit","73","436057","0.0-34.0-19.0","25578725","wem/bandit_either_3","A173LV77LF3SHB","either","7","331","","","","","","","1","0","0","0.6","","0.5","0.5","0.5","0.5","","","","","0.8","0.2","0.6","0.2","","","","","","","","75","K","2","","true","0","full_practice",""
"","text","74","440244","0.0-35.0","25578725","wem/bandit_either_3","A173LV77LF3SHB","either","7","4183","","32","","","","","","","","","","","","","","","","","","","","","","","","","","","","","","","","","","","",""
"","text","75","458115","0.0-36.0","25578725","wem/bandit_either_3","A173LV77LF3SHB","either","7","16859","","32","","","","","","","","","","","","","","","","","","","","","","","","","","","","","","","","","","","",""
"","text","76","471700","0.0-37.0","25578725","wem/bandit_either_3","A173LV77LF3SHB","either","7","13583","","32","","","","","","","","","","","","","","","","","","","","","","","","","","","","","","","","","","","",""
"","text","77","478132","0.0-38.0","25578725","wem/bandit_either_3","A173LV77LF3SHB","either","7","6426","","32","","","","","","","","","","","","","","","","","","","","","","","","","","","","","","","","","","","",""
"","text","78","485669","0.0-39.0","25578725","wem/bandit_either_3","A173LV77LF3SHB","either","7","7534","","32","","","","","","","","","","","","","","","","","","","","","","","","","","","","","","","","","","","",""
"","text","79","496652","0.0-40.0","25578725","wem/bandit_either_3","A173LV77LF3SHB","either","7","10975","","32","","","","","","","","","","","","","","","","","","","","","","","","","","","","","","","","","","","",""
"","bandit","80","501503","0.0-41.0-0.0","25578725","wem/bandit_either_3","A173LV77LF3SHB","either","7","3320","","","","","","","0","1","0","","0.5514722813","0.4","0.6","0.2","0.8","0.1731741302","0.7088318221","0.5514722813","0.2888626749","","","","","","","","","","","","75","K","2","","","1","main_expt",""
"","bandit","81","503405","0.0-42.0-0.0","25578725","wem/bandit_either_3","A173LV77LF3SHB","either","7","382","","","","","","","0","0","1","","0.5039303977","0.4","0.6","0.2","0.8","0.2874485847","0.6292935488","0.5039303977","0.3999538902","","","","","","","","","","","","75","K","2","","","2","main_expt",""
"","bandit","82","505292","0.0-43.0-0.0","25578725","wem/bandit_either_3","A173LV77LF3SHB","either","7","359","","","","","","","1","0","0","0.5527877924","","0.4","0.6","0.2","0.8","","","","","0.2683250969","0.5285482983","0.5527877924","0.4126831114","","","","","","","","75","K","2","","","3","main_expt",""
"","bandit","83","507151","0.0-44.0-0.0","25578725","wem/bandit_either_3","A173LV77LF3SHB","either","7","338","","","","","","","0","1","0","","0.6336700584","0.4","0.6","0.2","0.8","0.3988631097","0.6744491701","0.6336700584","0.3923803367","","","","","","","","","","","","75","K","2","","","4","main_expt",""
"","bandit","84","510001","0.0-45.0-0.0","25578725","wem/bandit_either_3","A173LV77LF3SHB","either","7","1329","","","","","","","0","1","0","","0.6340088104","0.4","0.6","0.2","0.8","0.3568799457","0.7922285807","0.6340088104","0.3803283439","","","","","","","","","","","","75","K","2","","","5","main_expt",""
"","bandit","85","512151","0.0-46.0-0.0","25578725","wem/bandit_either_3","A173LV77LF3SHB","either","7","622","","","","","","","0","0","1","","0.5784181907","0.4","0.6","0.2","0.8","0.3188731731","0.7459441126","0.5784181907","0.4214296899","","","","","","","","","","","","75","K","2","","","6","main_expt",""
"","bandit","86","514661","0.0-47.0-0.0","25578725","wem/bandit_either_3","A173LV77LF3SHB","either","7","992","","","","","","","0","0","1","0.4574196012","","0.4","0.6","0.2","0.8","","","","","0.4574196012","0.7681481668","0.6727083857","0.4755968838","","","","","","","","72","H","0","img/none_selected.jpg","","7","main_expt",""
"","bandit","87","516647","0.0-48.0-0.0","25578725","wem/bandit_either_3","A173LV77LF3SHB","either","7","457","","","","","","","0","1","0","","0.5037884951","0.4","0.6","0.2","0.8","0.5037884951","0.7251609313","0.7574508858","0.5353568537","","","","","","","","","","","","72","H","0","img/none_selected.jpg","","8","main_expt",""
"","bandit","88","518636","0.0-49.0-0.0","25578725","wem/bandit_either_3","A173LV77LF3SHB","either","7","464","","","","","","","1","0","0","0.5750013994","","0.4","0.6","0.2","0.8","","","","","0.5750013994","0.7403055102","0.8280759311","0.6246831942","","","","","","","","72","H","0","img/none_selected.jpg","","9","main_expt",""
"","bandit","89","520510","0.0-50.0-0.0","25578725","wem/bandit_either_3","A173LV77LF3SHB","either","7","353","","","","","","","0","1","0","","0.5399040382","0.4","0.6","0.2","0.8","0.5399040382","0.722944265","0.859726102","0.4475954046","","","","","","","","","","","","72","H","0","img/none_selected.jpg","","10","main_expt",""
"","bandit","90","522335","0.0-51.0-0.0","25578725","wem/bandit_either_3","A173LV77LF3SHB","either","7","314","","","","","","","0","0","1","0.5181098662","","0.4","0.6","0.2","0.8","","","","","0.5181098662","0.6833847698","0.877956501","0.4514702697","","","","","","","","72","H","0","img/none_selected.jpg","","11","main_expt",""
"","bandit","91","523995","0.0-52.0-0.0","25578725","wem/bandit_either_3","A173LV77LF3SHB","either","7","138","","","","","","","0","0","1","0.5489165229","","0.4","0.6","0.2","0.8","","","","","0.5489165229","0.689227163","0.8883669707","0.4873058782","","","","","","","","72","H","0","img/none_selected.jpg","","12","main_expt",""
"","bandit","92","525908","0.0-53.0-0.0","25578725","wem/bandit_either_3","A173LV77LF3SHB","either","7","387","","","","","","","0","0","1","0.5178623456","","0.4","0.6","0.2","0.8","","","","","0.6186986429","0.5178623456","0.817149195","0.4862469224","","","","","","","","74","J","1","","","13","main_expt",""
"","bandit","93","528659","0.0-54.0-0.0","25578725","wem/bandit_either_3","A173LV77LF3SHB","either","7","1224","","","","","","","0","0","1","0.4768489018","","0.4","0.6","0.2","0.8","","","","","0.4944095791","0.4768489018","0.8589139609","0.360908092","","","","","","","","74","J","1","","","14","main_expt",""
"","bandit","94","530565","0.0-55.0-0.0","25578725","wem/bandit_either_3","A173LV77LF3SHB","either","7","377","","","","","","","1","0","0","0.5201849276","","0.4","0.6","0.2","0.8","","","","","0.4820951366","0.5201849276","0.7955781648","0.4126647893","","","","","","","","74","J","1","","","15","main_expt",""
"","bandit","95","532438","0.0-56.0-0.0","25578725","wem/bandit_either_3","A173LV77LF3SHB","either","7","351","","","","","","","1","0","0","0.6862231469","","0.4","0.6","0.2","0.8","","","","","0.4888848296","0.6862231469","0.8864445785","0.4930686601","","","","","","","","74","J","1","","","16","main_expt",""
"","bandit","96","534282","0.0-57.0-0.0","25578725","wem/bandit_either_3","A173LV77LF3SHB","either","7","317","","","","","","","1","0","0","0.7297328357","","0.4","0.6","0.2","0.8","","","","","0.381306026","0.7297328357","0.8746062981","0.5162343008","","","","","","","","74","J","1","","","17","main_expt",""
"","bandit","97","536157","0.0-58.0-0.0","25578725","wem/bandit_either_3","A173LV77LF3SHB","either","7","352","","","","","","","0","0","1","0.6686287009","","0.4","0.6","0.2","0.8","","","","","0.3537135189","0.6686287009","0.8910236512","0.5627456494","","","","","","","","74","J","1","","","18","main_expt",""
"","bandit","98","537979","0.0-59.0-0.0","25578725","wem/bandit_either_3","A173LV77LF3SHB","either","7","296","","","","","","","1","0","0","0.7885428456","","0.4","0.6","0.2","0.8","","","","","0.4891458502","0.7885428456","0.8932054573","0.4478227807","","","","","","","","74","J","1","","","19","main_expt",""
"","bandit","99","539866","0.0-60.0-0.0","25578725","wem/bandit_either_3","A173LV77LF3SHB","either","7","369","","","","","","","0","1","0","","0.7442236049","0.4","0.6","0.2","0.8","0.5440957398","0.7442236049","0.8900063933","0.5306796692","","","","","","","","","","","","74","J","1","","","20","main_expt",""
"","bandit","100","541904","0.0-61.0-0.0","25578725","wem/bandit_either_3","A173LV77LF3SHB","either","7","505","","","","","","","1","0","0","0.7908218503","","0.4","0.6","0.2","0.8","","","","","0.5621313733","0.7908218503","0.8748704397","0.5423611418","","","","","","","","74","J","1","","","21","main_expt",""
"","bandit","101","543493","0.0-62.0-0.0","25578725","wem/bandit_either_3","A173LV77LF3SHB","either","7","61","","","","","","","0","0","1","0.7163236006","","0.4","0.6","0.2","0.8","","","","","0.5296345876","0.7163236006","0.8498769136","0.4190568807","","","","","","","","74","J","1","","","22","main_expt",""
"","bandit","102","545428","0.0-63.0-0.0","25578725","wem/bandit_either_3","A173LV77LF3SHB","either","7","409","","","","","","","1","0","0","0.7061190667","","0.4","0.6","0.2","0.8","","","","","0.5187107172","0.7061190667","0.8357449374","0.4329937009","","","","","","","","74","J","1","","","23","main_expt",""
"","bandit","103","547320","0.0-64.0-0.0","25578725","wem/bandit_either_3","A173LV77LF3SHB","either","7","369","","","","","","","0","1","0","","0.7470556917","0.4","0.6","0.2","0.8","0.6000521927","0.7470556917","0.8431908073","0.4298879426","","","","","","","","","","","","74","J","1","","","24","main_expt",""
"","bandit","104","549192","0.0-65.0-0.0","25578725","wem/bandit_either_3","A173LV77LF3SHB","either","7","365","","","","","","","0","0","1","","0.8154180688","0.4","0.6","0.2","0.8","0.5443047256","0.8154180688","0.8741885854","0.2992323157","","","","","","","","","","","","74","J","1","","","25","main_expt",""
"","bandit","105","551060","0.0-66.0-0.0","25578725","wem/bandit_either_3","A173LV77LF3SHB","either","7","349","","","","","","","0","1","0","","0.8395379789","0.4","0.6","0.2","0.8","0.592493964","0.8395379789","0.8940719671","0.3857263224","","","","","","","","","","","","74","J","1","","","26","main_expt",""
"","bandit","106","552996","0.0-67.0-0.0","25578725","wem/bandit_either_3","A173LV77LF3SHB","either","7","416","","","","","","","0","0","1","0.8023078409","","0.4","0.6","0.2","0.8","","","","","0.5779569403","0.8023078409","0.8733378856","0.3715251318","","","","","","","","74","J","1","","","27","main_expt",""
"","bandit","107","554926","0.0-68.0-0.0","25578725","wem/bandit_either_3","A173LV77LF3SHB","either","7","409","","","","","","","1","0","0","0.8248968235","","0.4","0.6","0.2","0.8","","","","","0.7077223562","0.8248968235","0.8695586723","0.3387808014","","","","","","","","74","J","1","","","28","main_expt",""
"","bandit","108","556776","0.0-69.0-0.0","25578725","wem/bandit_either_3","A173LV77LF3SHB","either","7","332","","","","","","","0","1","0","","0.8621011303","0.4","0.6","0.2","0.8","0.7070353494","0.8621011303","0.7908290088","0.3737397218","","","","","","","","","","","","74","J","1","","","29","main_expt",""
"","bandit","109","558611","0.0-70.0-0.0","25578725","wem/bandit_either_3","A173LV77LF3SHB","either","7","325","","","","","","","0","1","0","","0.8873668535","0.4","0.6","0.2","0.8","0.6585428656","0.8873668535","0.8518997755","0.3232047389","","","","","","","","","","","","74","J","1","","","30","main_expt",""
"","bandit","110","560411","0.0-71.0-0.0","25578725","wem/bandit_either_3","A173LV77LF3SHB","either","7","273","","","","","","","0","1","0","","0.9318975106","0.4","0.6","0.2","0.8","0.6724088618","0.9318975106","0.8509842625","0.4130267239","","","","","","","","","","","","74","J","1","","","31","main_expt",""
"","bandit","111","563164","0.0-72.0-0.0","25578725","wem/bandit_either_3","A173LV77LF3SHB","either","7","1233","","","","","","","0","1","0","","0.9013609786","0.4","0.6","0.2","0.8","0.6416581209","0.9013609786","0.872996121","0.4167758813","","","","","","","","","","","","74","J","1","","","32","main_expt",""
"","bandit","112","565020","0.0-73.0-0.0","25578725","wem/bandit_either_3","A173LV77LF3SHB","either","7","335","","","","","","","0","1","0","","0.4546052232","0.4","0.6","0.2","0.8","0.7055802426","0.9041531295","0.8571046391","0.4546052232","","","","","","","","","","","","76","L","3","","","33","main_expt",""
"","bandit","113","566871","0.0-74.0-0.0","25578725","wem/bandit_either_3","A173LV77LF3SHB","either","7","318","","","","","","","1","0","0","0.5231803088","","0.4","0.6","0.2","0.8","","","","","0.7554114371","0.9386104272","0.9175819521","0.5231803088","","","","","","","","76","L","3","","","34","main_expt",""
"","bandit","114","568727","0.0-75.0-0.0","25578725","wem/bandit_either_3","A173LV77LF3SHB","either","7","325","","","","","","","0","0","1","0.4661188593","","0.4","0.6","0.2","0.8","","","","","0.8008095759","0.9180645683","0.9503165686","0.4661188593","","","","","","","","76","L","3","","","35","main_expt",""
"","bandit","115","570875","0.0-76.0-0.0","25578725","wem/bandit_either_3","A173LV77LF3SHB","either","7","633","","","","","","","0","0","1","0.4106027186","","0.4","0.6","0.2","0.8","","","","","0.6925109639","0.9095107155","0.9327615424","0.4106027186","","","","","","","","76","L","3","","","36","main_expt",""
"","bandit","116","572775","0.0-77.0-0.0","25578725","wem/bandit_either_3","A173LV77LF3SHB","either","7","386","","","","","","","1","0","0","0.5021263718","","0.4","0.6","0.2","0.8","","","","","0.7764255689","0.9405648028","0.9196494001","0.5021263718","","","","","","","","76","L","3","","","37","main_expt",""
"","bandit","117","574690","0.0-78.0-0.0","25578725","wem/bandit_either_3","A173LV77LF3SHB","either","7","407","","","","","","","1","0","0","0.5065313343","","0.4","0.6","0.2","0.8","","","","","0.8392953971","0.9058459248","0.928530414","0.5065313343","","","","","","","","76","L","3","","","38","main_expt",""
"","bandit","118","576579","0.0-79.0-0.0","25578725","wem/bandit_either_3","A173LV77LF3SHB","either","7","361","","","","","","","1","0","0","0.6098243774","","0.4","0.6","0.2","0.8","","","","","0.7614495855","0.8784462517","0.9001545702","0.6098243774","","","","","","","","76","L","3","","","39","main_expt",""
"","bandit","119","578417","0.0-80.0-0.0","25578725","wem/bandit_either_3","A173LV77LF3SHB","either","7","314","","","","","","","0","0","1","0.679699592","","0.4","0.6","0.2","0.8","","","","","0.8060705796","0.8408568766","0.8432481254","0.679699592","","","","","","","","76","L","3","","","40","main_expt",""
"","bandit","120","580254","0.0-81.0-0.0","25578725","wem/bandit_either_3","A173LV77LF3SHB","either","7","312","","","","","","","1","0","0","0.616488607","","0.4","0.6","0.2","0.8","","","","","0.7539991053","0.811342849","0.8326479564","0.616488607","","","","","","","","76","L","3","","","41","main_expt",""
"","bandit","121","582165","0.0-82.0-0.0","25578725","wem/bandit_either_3","A173LV77LF3SHB","either","7","389","","","","","","","1","0","0","0.6307104111","","0.4","0.6","0.2","0.8","","","","","0.7717369324","0.8058808774","0.8602810298","0.6307104111","","","","","","","","76","L","3","","","42","main_expt",""
"","bandit","122","584045","0.0-83.0-0.0","25578725","wem/bandit_either_3","A173LV77LF3SHB","either","7","359","","","","","","","0","0","1","0.554567591","","0.4","0.6","0.2","0.8","","","","","0.7625968551","0.7899844578","0.894365654","0.554567591","","","","","","","","76","L","3","","","43","main_expt",""
"","bandit","123","585671","0.0-84.0-0.0","25578725","wem/bandit_either_3","A173LV77LF3SHB","either","7","104","","","","","","","1","0","0","0.5281861223","","0.4","0.6","0.2","0.8","","","","","0.8488621298","0.7654486741","0.9033664713","0.5281861223","","","","","","","","76","L","3","","","44","main_expt",""
"","bandit","124","587515","0.0-85.0-0.0","25578725","wem/bandit_either_3","A173LV77LF3SHB","either","7","330","","","","","","","1","0","0","0.5043334007","","0.4","0.6","0.2","0.8","","","","","0.8522077325","0.7674111825","0.8829964613","0.5043334007","","","","","","","","76","L","3","","","45","main_expt",""
"","bandit","125","589391","0.0-86.0-0.0","25578725","wem/bandit_either_3","A173LV77LF3SHB","either","7","345","","","","","","","1","0","0","0.5426256613","","0.4","0.6","0.2","0.8","","","","","0.8618589195","0.6301273516","0.8674694879","0.5426256613","","","","","","","","76","L","3","","","46","main_expt",""
"","bandit","126","591271","0.0-87.0-0.0","25578725","wem/bandit_either_3","A173LV77LF3SHB","either","7","358","","","","","","","1","0","0","0.5024796093","","0.4","0.6","0.2","0.8","","","","","0.905897833","0.7885969413","0.8886720039","0.5024796093","","","","","","","","76","L","3","","","47","main_expt",""
"","bandit","127","593058","0.0-88.0-0.0","25578725","wem/bandit_either_3","A173LV77LF3SHB","either","7","261","","","","","","","1","0","0","0.4689138593","","0.4","0.6","0.2","0.8","","","","","0.8929468812","0.7983786211","0.9229902905","0.4689138593","","","","","","","","76","L","3","","","48","main_expt",""
"","bandit","128","594917","0.0-89.0-0.0","25578725","wem/bandit_either_3","A173LV77LF3SHB","either","7","337","","","","","","","1","0","0","0.4439560463","","0.4","0.6","0.2","0.8","","","","","0.854905512","0.8249867574","0.9141434128","0.4439560463","","","","","","","","76","L","3","","","49","main_expt",""
"","bandit","129","596767","0.0-90.0-0.0","25578725","wem/bandit_either_3","A173LV77LF3SHB","either","7","326","","","","","","","0","0","1","","0.4079842927","0.4","0.6","0.2","0.8","0.8363103738","0.7532301684","0.9181160336","0.4079842927","","","","","","","","","","","","76","L","3","","","50","main_expt",""
"","bandit","130","598627","0.0-91.0-0.0","25578725","wem/bandit_either_3","A173LV77LF3SHB","either","7","333","","","","","","","0","0","1","0.4675199832","","0.4","0.6","0.2","0.8","","","","","0.7168506975","0.6750909554","0.9266489825","0.4675199832","","","","","","","","76","L","3","","","51","main_expt",""
"","bandit","131","600521","0.0-92.0-0.0","25578725","wem/bandit_either_3","A173LV77LF3SHB","either","7","364","","","","","","","0","1","0","","0.4368052975","0.4","0.6","0.2","0.8","0.6507986152","0.6762079337","0.9285581488","0.4368052975","","","","","","","","","","","","76","L","3","","","52","main_expt",""
"","bandit","132","602416","0.0-93.0-0.0","25578725","wem/bandit_either_3","A173LV77LF3SHB","either","7","359","","","","","","","1","0","0","0.4967902672","","0.4","0.6","0.2","0.8","","","","","0.6531867096","0.7882030045","0.9171724481","0.4967902672","","","","","","","","76","L","3","","","53","main_expt",""
"","bandit","133","604288","0.0-94.0-0.0","25578725","wem/bandit_either_3","A173LV77LF3SHB","either","7","353","","","","","","","0","0","1","","0.5321533453","0.4","0.6","0.2","0.8","0.6178049746","0.8759533557","0.8709862684","0.5321533453","","","","","","","","","","","","76","L","3","","","54","main_expt",""
"","bandit","134","607880","0.0-95.0-0.0","25578725","wem/bandit_either_3","A173LV77LF3SHB","either","7","2073","","","","","","","0","1","0","","0.9307112091","0.4","0.6","0.2","0.8","0.5501477499","0.9307112091","0.9016108676","0.593251847","","","","","","","","","","","","74","J","1","","","55","main_expt",""
"","bandit","135","609764","0.0-96.0-0.0","25578725","wem/bandit_either_3","A173LV77LF3SHB","either","7","353","","","","","","","1","0","0","0.9486344027","","0.4","0.6","0.2","0.8","","","","","0.5181914202","0.9486344027","0.9123335035","0.602347159","","","","","","","","74","J","1","","","56","main_expt",""
"","bandit","136","611587","0.0-97.0-0.0","25578725","wem/bandit_either_3","A173LV77LF3SHB","either","7","296","","","","","","","1","0","0","0.9450559811","","0.4","0.6","0.2","0.8","","","","","0.5052283364","0.9450559811","0.9338523698","0.736851976","","","","","","","","74","J","1","","","57","main_expt",""
"","bandit","137","613427","0.0-98.0-0.0","25578725","wem/bandit_either_3","A173LV77LF3SHB","either","7","314","","","","","","","1","0","0","0.960587128","","0.4","0.6","0.2","0.8","","","","","0.4494585665","0.960587128","0.9023069914","0.7112026436","","","","","","","","74","J","1","","","58","main_expt",""
"","bandit","138","615244","0.0-99.0-0.0","25578725","wem/bandit_either_3","A173LV77LF3SHB","either","7","295","","","","","","","1","0","0","0.9272570312","","0.4","0.6","0.2","0.8","","","","","0.4431029696","0.9272570312","0.903153386","0.7605469626","","","","","","","","74","J","1","","","59","main_expt",""
"","bandit","139","617132","0.0-100.0-0.0","25578725","wem/bandit_either_3","A173LV77LF3SHB","either","7","358","","","","","","","0","1","0","","0.9075075979","0.4","0.6","0.2","0.8","0.4213069188","0.9075075979","0.8975643475","0.6504737249","","","","","","","","","","","","74","J","1","","","60","main_expt",""
"","bandit","140","618985","0.0-101.0-0.0","25578725","wem/bandit_either_3","A173LV77LF3SHB","either","7","334","","","","","","","1","0","0","0.9011961695","","0.4","0.6","0.2","0.8","","","","","0.4735464544","0.9011961695","0.8455107238","0.7417300409","","","","","","","","74","J","1","","","61","main_expt",""
"","bandit","141","620974","0.0-102.0-0.0","25578725","wem/bandit_either_3","A173LV77LF3SHB","either","7","462","","","","","","","1","0","0","0.9025442902","","0.4","0.6","0.2","0.8","","","","","0.4260239588","0.9025442902","0.8423106617","0.6889655243","","","","","","","","74","J","1","","","62","main_expt",""
"","bandit","142","622791","0.0-103.0-0.0","25578725","wem/bandit_either_3","A173LV77LF3SHB","either","7","293","","","","","","","1","0","0","0.900711875","","0.4","0.6","0.2","0.8","","","","","0.4048641732","0.900711875","0.6997676278","0.7532165261","","","","","","","","74","J","1","","","63","main_expt",""
"","bandit","143","624516","0.0-104.0-0.0","25578725","wem/bandit_either_3","A173LV77LF3SHB","either","7","211","","","","","","","1","0","0","0.8445511995","","0.4","0.6","0.2","0.8","","","","","0.261135461","0.8445511995","0.8033841581","0.7614619666","","","","","","","","74","J","1","","","64","main_expt",""
"","bandit","144","626384","0.0-105.0-0.0","25578725","wem/bandit_either_3","A173LV77LF3SHB","either","7","343","","","","","","","0","0","1","0.7838665633","","0.4","0.6","0.2","0.8","","","","","0.4398785507","0.7838665633","0.8458775523","0.7474824059","","","","","","","","74","J","1","","","65","main_expt",""
"","bandit","145","627992","0.0-106.0-0.0","25578725","wem/bandit_either_3","A173LV77LF3SHB","either","7","76","","","","","","","1","0","0","0.8399866527","","0.4","0.6","0.2","0.8","","","","","0.4549930047","0.8399866527","0.8612648572","0.7083026918","","","","","","","","74","J","1","","","66","main_expt",""
"","bandit","146","629837","0.0-107.0-0.0","25578725","wem/bandit_either_3","A173LV77LF3SHB","either","7","324","","","","","","","0","0","1","","0.9109535201","0.4","0.6","0.2","0.8","0.5565794079","0.9109535201","0.8686018104","0.6535093674","","","","","","","","","","","","74","J","1","","","67","main_expt",""
"","bandit","147","632667","0.0-108.0-0.0","25578725","wem/bandit_either_3","A173LV77LF3SHB","either","7","1316","","","","","","","0","1","0","","0.9064065477","0.4","0.6","0.2","0.8","0.4211802827","0.9064065477","0.8693437115","0.4923739087","","","","","","","","","","","","74","J","1","","","68","main_expt",""
"","bandit","148","634750","0.0-109.0-0.0","25578725","wem/bandit_either_3","A173LV77LF3SHB","either","7","563","","","","","","","1","0","0","0.9315833469","","0.4","0.6","0.2","0.8","","","","","0.3687693293","0.9315833469","0.9168970181","0.4898097669","","","","","","","","74","J","1","","","69","main_expt",""
"","bandit","149","636810","0.0-110.0-0.0","25578725","wem/bandit_either_3","A173LV77LF3SHB","either","7","540","","","","","","","1","0","0","0.9393923483","","0.4","0.6","0.2","0.8","","","","","0.3460903474","0.9393923483","0.9293527272","0.4369614599","","","","","","","","74","J","1","","","70","main_expt",""
"","bandit","150","638737","0.0-111.0-0.0","25578725","wem/bandit_either_3","A173LV77LF3SHB","either","7","406","","","","","","","1","0","0","0.9568343035","","0.4","0.6","0.2","0.8","","","","","0.3278112836","0.9568343035","0.949087413","0.5031037484","","","","","","","","74","J","1","","","71","main_expt",""
"","bandit","151","640430","0.0-112.0-0.0","25578725","wem/bandit_either_3","A173LV77LF3SHB","either","7","162","","","","","","","1","0","0","0.947758434","","0.4","0.6","0.2","0.8","","","","","0.2720469766","0.947758434","0.906373323","0.5397903688","","","","","","","","74","J","1","","","72","main_expt",""
"","bandit","152","642308","0.0-113.0-0.0","25578725","wem/bandit_either_3","A173LV77LF3SHB","either","7","350","","","","","","","0","1","0","","0.9052010222","0.4","0.6","0.2","0.8","0.2451019773","0.9052010222","0.93965919","0.5540652028","","","","","","","","","","","","74","J","1","","","73","main_expt",""
"","bandit","153","644224","0.0-114.0-0.0","25578725","wem/bandit_either_3","A173LV77LF3SHB","either","7","395","","","","","","","0","1","0","","0.927704936","0.4","0.6","0.2","0.8","0.2645862521","0.927704936","0.9416319858","0.61733434","","","","","","","","","","","","74","J","1","","","74","main_expt",""
"","bandit","154","646090","0.0-115.0-0.0","25578725","wem/bandit_either_3","A173LV77LF3SHB","either","7","348","","","","","","","0","1","0","","0.8769567517","0.4","0.6","0.2","0.8","0.2298582","0.8769567517","0.9535384208","0.6341908543","","","","","","","","","","","","74","J","1","","","75","main_expt",""
"","bandit","155","647975","0.0-116.0-0.0","25578725","wem/bandit_either_3","A173LV77LF3SHB","either","7","368","","","","","","","0","1","0","","0.8456064169","0.4","0.6","0.2","0.8","0.3460043445","0.8456064169","0.9585479729","0.6355577018","","","","","","","","","","","","74","J","1","","","76","main_expt",""
"","bandit","156","649845","0.0-117.0-0.0","25578725","wem/bandit_either_3","A173LV77LF3SHB","either","7","337","","","","","","","0","1","0","","0.9610253773","0.4","0.6","0.2","0.8","0.2526488818","0.8325595713","0.9610253773","0.7055426269","","","","","","","","","","","","75","K","2","","","77","main_expt",""
"","bandit","157","651587","0.0-118.0-0.0","25578725","wem/bandit_either_3","A173LV77LF3SHB","either","7","221","","","","","","","0","0","1","","0.9580320452","0.4","0.6","0.2","0.8","0.2625396382","0.9128982172","0.9580320452","0.6137882531","","","","","","","","","","","","75","K","2","","","78","main_expt",""
"","bandit","158","653494","0.0-119.0-0.0","25578725","wem/bandit_either_3","A173LV77LF3SHB","either","7","371","","","","","","","0","1","0","","0.9403834825","0.4","0.6","0.2","0.8","0.2957535945","0.9213349282","0.9403834825","0.668392527","","","","","","","","","","","","75","K","2","","","79","main_expt",""
"","bandit","159","655532","0.0-120.0-0.0","25578725","wem/bandit_either_3","A173LV77LF3SHB","either","7","502","","","","","","","0","1","0","","0.946171157","0.4","0.6","0.2","0.8","0.1831261498","0.8935563746","0.946171157","0.7457361895","","","","","","","","","","","","75","K","2","","","80","main_expt",""
"","bandit","160","658847","0.0-121.0-0.0","25578725","wem/bandit_either_3","A173LV77LF3SHB","either","7","1784","","","","","","","0","0","1","","0.1450659425","0.4","0.6","0.2","0.8","0.1450659425","0.932831263","0.9800092583","0.8028050151","","","","","","","","","","","","72","H","0","img/none_selected.jpg","","81","main_expt",""
"","bandit","161","660736","0.0-122.0-0.0","25578725","wem/bandit_either_3","A173LV77LF3SHB","either","7","364","","","","","","","0","0","1","","0.1486641529","0.4","0.6","0.2","0.8","0.1486641529","0.9403650082","0.9666397243","0.8727424511","","","","","","","","","","","","72","H","0","img/none_selected.jpg","","82","main_expt",""
"","bandit","162","662620","0.0-123.0-0.0","25578725","wem/bandit_either_3","A173LV77LF3SHB","either","7","359","","","","","","","0","1","0","","0.1567811066","0.4","0.6","0.2","0.8","0.1567811066","0.9066396881","0.9637330664","0.8283068274","","","","","","","","","","","","72","H","0","img/none_selected.jpg","","83","main_expt",""
"","bandit","163","664409","0.0-124.0-0.0","25578725","wem/bandit_either_3","A173LV77LF3SHB","either","7","275","","","","","","","0","0","1","","0.196091916","0.4","0.6","0.2","0.8","0.196091916","0.8962006295","0.9617949183","0.8030064341","","","","","","","","","","","","72","H","0","img/none_selected.jpg","","84","main_expt",""
"","bandit","164","666670","0.0-125.0-0.0","25578725","wem/bandit_either_3","A173LV77LF3SHB","either","7","741","","","","","","","0","1","0","","0.8622567251","0.4","0.6","0.2","0.8","0.1512390112","0.9093999993","0.9561985801","0.8622567251","","","","","","","","","","","","76","L","3","","","85","main_expt",""
"","bandit","165","668203","0.0-126.0-0.0","25578725","wem/bandit_either_3","A173LV77LF3SHB","either","7","10","","","","","","","0","0","1","","0.896584634","0.4","0.6","0.2","0.8","0.1486491559","0.9326862648","0.9422505668","0.896584634","","","","","","","","","","","","76","L","3","","","86","main_expt",""
"","bandit","166","669891","0.0-127.0-0.0","25578725","wem/bandit_either_3","A173LV77LF3SHB","either","7","169","","","","","","","0","1","0","","0.9208758521","0.4","0.6","0.2","0.8","0.1047878604","0.9039434857","0.926711091","0.9208758521","","","","","","","","","","","","76","L","3","","","87","main_expt",""
"","bandit","167","671743","0.0-128.0-0.0","25578725","wem/bandit_either_3","A173LV77LF3SHB","either","7","326","","","","","","","1","0","0","0.9266301883","","0.4","0.6","0.2","0.8","","","","","0.07038149384","0.9195127861","0.9092576496","0.9266301883","","","","","","","","76","L","3","","","88","main_expt",""
"","bandit","168","673789","0.0-129.0-0.0","25578725","wem/bandit_either_3","A173LV77LF3SHB","either","7","516","","","","","","","1","0","0","0.9259215542","","0.4","0.6","0.2","0.8","","","","","0.1311535074","0.9225053559","0.8948591238","0.9259215542","","","","","","","","76","L","3","","","89","main_expt",""
"","bandit","169","675670","0.0-130.0-0.0","25578725","wem/bandit_either_3","A173LV77LF3SHB","either","7","360","","","","","","","1","0","0","0.9400480964","","0.4","0.6","0.2","0.8","","","","","0.1241310956","0.9014563988","0.8716727139","0.9400480964","","","","","","","","76","L","3","","","90","main_expt",""
"","bandit","170","677564","0.0-131.0-0.0","25578725","wem/bandit_either_3","A173LV77LF3SHB","either","7","363","","","","","","","0","0","1","0.8961855863","","0.4","0.6","0.2","0.8","","","","","0.09664170694","0.9162570652","0.8969144331","0.8961855863","","","","","","","","76","L","3","","","91","main_expt",""
"","bandit","171","679334","0.0-132.0-0.0","25578725","wem/bandit_either_3","A173LV77LF3SHB","either","7","252","","","","","","","1","0","0","0.9211437923","","0.4","0.6","0.2","0.8","","","","","0.09586364307","0.9171553871","0.9171199264","0.9211437923","","","","","","","","76","L","3","","","92","main_expt",""
"","bandit","172","681203","0.0-133.0-0.0","25578725","wem/bandit_either_3","A173LV77LF3SHB","either","7","338","","","","","","","1","0","0","0.8947860396","","0.4","0.6","0.2","0.8","","","","","0.08304118766","0.9463284029","0.9593171332","0.8947860396","","","","","","","","76","L","3","","","93","main_expt",""
"","bandit","173","682992","0.0-134.0-0.0","25578725","wem/bandit_either_3","A173LV77LF3SHB","either","7","268","","","","","","","1","0","0","0.822540961","","0.4","0.6","0.2","0.8","","","","","0.1222865453","0.9477079066","0.959226596","0.822540961","","","","","","","","76","L","3","","","94","main_expt",""
"","bandit","174","684844","0.0-135.0-0.0","25578725","wem/bandit_either_3","A173LV77LF3SHB","either","7","317","","","","","","","0","0","1","0.8288041746","","0.4","0.6","0.2","0.8","","","","","0.211460517","0.9474919074","0.947105423","0.8288041746","","","","","","","","76","L","3","","","95","main_expt",""
"","bandit","175","686381","0.0-136.0-0.0","25578725","wem/bandit_either_3","A173LV77LF3SHB","either","7","1","","","","","","","1","0","0","0.8217366877","","0.4","0.6","0.2","0.8","","","","","0.2757920232","0.9722490369","0.937205139","0.8217366877","","","","","","","","76","L","3","","","96","main_expt",""
"","bandit","176","688450","0.0-137.0-0.0","25578725","wem/bandit_either_3","A173LV77LF3SHB","either","7","543","","","","","","","0","0","1","0.725285089","","0.4","0.6","0.2","0.8","","","","","0.2646876298","0.980822097","0.9472767204","0.725285089","","","","","","","","76","L","3","","","97","main_expt",""
"","bandit","177","690403","0.0-138.0-0.0","25578725","wem/bandit_either_3","A173LV77LF3SHB","either","7","429","","","","","","","0","0","1","0.7958966199","","0.4","0.6","0.2","0.8","","","","","0.3278454636","0.9761591307","0.962959595","0.7958966199","","","","","","","","76","L","3","","","98","main_expt",""
"","bandit","178","692393","0.0-139.0-0.0","25578725","wem/bandit_either_3","A173LV77LF3SHB","either","7","469","","","","","","","1","0","0","0.7741840332","","0.4","0.6","0.2","0.8","","","","","0.4641870332","0.9597391097","0.9720903607","0.7741840332","","","","","","","","76","L","3","","","99","main_expt",""
"","bandit","179","694229","0.0-140.0-0.0","25578725","wem/bandit_either_3","A173LV77LF3SHB","either","7","315","","","","","","","1","0","0","0.7934767162","","0.4","0.6","0.2","0.8","","","","","0.3972344865","0.9557148533","0.9737169538","0.7934767162","","","","","","","","76","L","3","","","100","main_expt",""
"","bandit","180","696079","0.0-141.0-0.0","25578725","wem/bandit_either_3","A173LV77LF3SHB","either","7","324","","","","","","","1","0","0","0.8307638242","","0.4","0.6","0.2","0.8","","","","","0.4395304924","0.9687934467","0.986468331","0.8307638242","","","","","","","","76","L","3","","","101","main_expt",""
"","bandit","181","697974","0.0-142.0-0.0","25578725","wem/bandit_either_3","A173LV77LF3SHB","either","7","371","","","","","","","1","0","0","0.7737236933","","0.4","0.6","0.2","0.8","","","","","0.5248298482","0.9713318577","0.9859557102","0.7737236933","","","","","","","","76","L","3","","","102","main_expt",""
"","bandit","182","699848","0.0-143.0-0.0","25578725","wem/bandit_either_3","A173LV77LF3SHB","either","7","331","","","","","","","0","0","1","0.8168427084","","0.4","0.6","0.2","0.8","","","","","0.6218364577","0.9768128314","0.9828698412","0.8168427084","","","","","","","","76","L","3","","","103","main_expt",""
"","bandit","183","701736","0.0-144.0-0.0","25578725","wem/bandit_either_3","A173LV77LF3SHB","either","7","350","","","","","","","1","0","0","0.7020104164","","0.4","0.6","0.2","0.8","","","","","0.5528563194","0.9566706727","0.9655029871","0.7020104164","","","","","","","","76","L","3","","","104","main_expt",""
"","bandit","184","703597","0.0-145.0-0.0","25578725","wem/bandit_either_3","A173LV77LF3SHB","either","7","327","","","","","","","1","0","0","0.6750414237","","0.4","0.6","0.2","0.8","","","","","0.515821512","0.9352711559","0.9587067199","0.6750414237","","","","","","","","76","L","3","","","105","main_expt",""
"","bandit","185","705486","0.0-146.0-0.0","25578725","wem/bandit_either_3","A173LV77LF3SHB","either","7","357","","","","","","","1","0","0","0.5886413089","","0.4","0.6","0.2","0.8","","","","","0.5380341879","0.8980036198","0.9358961366","0.5886413089","","","","","","","","76","L","3","","","106","main_expt",""
"","bandit","186","707261","0.0-147.0-0.0","25578725","wem/bandit_either_3","A173LV77LF3SHB","either","7","254","","","","","","","1","0","0","0.5507707533","","0.4","0.6","0.2","0.8","","","","","0.3291998873","0.9175797088","0.8829949032","0.5507707533","","","","","","","","76","L","3","","","107","main_expt",""
"","bandit","187","709186","0.0-148.0-0.0","25578725","wem/bandit_either_3","A173LV77LF3SHB","either","7","392","","","","","","","1","0","0","0.4325904974","","0.4","0.6","0.2","0.8","","","","","0.3608627265","0.8966825343","0.7668100276","0.4325904974","","","","","","","","76","L","3","","","108","main_expt",""
"","bandit","188","711090","0.0-149.0-0.0","25578725","wem/bandit_either_3","A173LV77LF3SHB","either","7","372","","","","","","","0","0","1","0.3735159861","","0.4","0.6","0.2","0.8","","","","","0.3837942066","0.8883819791","0.7652463225","0.3735159861","","","","","","","","76","L","3","","","109","main_expt",""
"","bandit","189","712748","0.0-150.0-0.0","25578725","wem/bandit_either_3","A173LV77LF3SHB","either","7","118","","","","","","","0","0","1","0.3704440872","","0.4","0.6","0.2","0.8","","","","","0.3019365294","0.9087011364","0.7974745759","0.3704440872","","","","","","","","76","L","3","","","110","main_expt",""
"","bandit","190","715676","0.0-151.0-0.0","25578725","wem/bandit_either_3","A173LV77LF3SHB","either","7","1415","","","","","","","0","1","0","","0.2749067499","0.4","0.6","0.2","0.8","0.3483008865","0.9337026812","0.812352323","0.2749067499","","","","","","","","","","","","76","L","3","","","111","main_expt",""
"","bandit","191","717602","0.0-152.0-0.0","25578725","wem/bandit_either_3","A173LV77LF3SHB","either","7","394","","","","","","","0","1","0","","0.2734667401","0.4","0.6","0.2","0.8","0.4342302697","0.9113388615","0.7428975936","0.2734667401","","","","","","","","","","","","76","L","3","","","112","main_expt",""
"","bandit","192","719115","0.0-153.0-0.0","25578725","wem/bandit_either_3","A173LV77LF3SHB","either","7","2","","","","","","","0","0","1","0.2291946885","","0.4","0.6","0.2","0.8","","","","","0.5187246657","0.8980528729","0.7139653514","0.2291946885","","","","","","","","76","L","3","","","113","main_expt",""
"","bandit","193","721769","0.0-154.0-0.0","25578725","wem/bandit_either_3","A173LV77LF3SHB","either","7","1100","","","","","","","0","0","1","0.2413339081","","0.4","0.6","0.2","0.8","","","","","0.5381742134","0.8036326458","0.7945657698","0.2413339081","","","","","","","","76","L","3","","","114","main_expt",""
"","bandit","194","724741","0.0-155.0-0.0","25578725","wem/bandit_either_3","A173LV77LF3SHB","either","7","1437","","","","","","","0","1","0","","0.4785029821","0.4","0.6","0.2","0.8","0.4785029821","0.8700945717","0.8405588069","0.3092826039","","","","","","","","","","","","72","H","0","img/none_selected.jpg","","115","main_expt",""
"","bandit","195","726573","0.0-156.0-0.0","25578725","wem/bandit_either_3","A173LV77LF3SHB","either","7","305","","","","","","","1","0","0","0.4654757386","","0.4","0.6","0.2","0.8","","","","","0.4654757386","0.8895114993","0.8641798474","0.2361366225","","","","","","","","72","H","0","img/none_selected.jpg","","116","main_expt",""
"","bandit","196","728488","0.0-157.0-0.0","25578725","wem/bandit_either_3","A173LV77LF3SHB","either","7","376","","","","","","","0","1","0","","0.4578633225","0.4","0.6","0.2","0.8","0.4578633225","0.8936856952","0.8756768431","0.218402711","","","","","","","","","","","","72","H","0","img/none_selected.jpg","","117","main_expt",""
"","bandit","197","730405","0.0-158.0-0.0","25578725","wem/bandit_either_3","A173LV77LF3SHB","either","7","387","","","","","","","0","0","1","","0.4773941538","0.4","0.6","0.2","0.8","0.4773941538","0.8077127093","0.9015269718","0.2003641109","","","","","","","","","","","","72","H","0","img/none_selected.jpg","","118","main_expt",""
"","bandit","198","732053","0.0-159.0-0.0","25578725","wem/bandit_either_3","A173LV77LF3SHB","either","7","133","","","","","","","0","0","1","","0.508374463","0.4","0.6","0.2","0.8","0.508374463","0.8901108642","0.8709738884","0.1375137305","","","","","","","","","","","","72","H","0","img/none_selected.jpg","","119","main_expt",""
"","bandit","199","733825","0.0-160.0-0.0","25578725","wem/bandit_either_3","A173LV77LF3SHB","either","7","236","","","","","","","0","0","1","0.4294310012","","0.4","0.6","0.2","0.8","","","","","0.4294310012","0.8731124259","0.8268338002","0.08656631556","","","","","","","","72","H","0","img/none_selected.jpg","","120","main_expt",""
"","bandit","200","735628","0.0-161.0-0.0","25578725","wem/bandit_either_3","A173LV77LF3SHB","either","7","260","","","","","","","0","1","0","","0.8509174952","0.4","0.6","0.2","0.8","0.3933985885","0.8509174952","0.8432616236","0.07812634859","","","","","","","","","","","","74","J","1","","","121","main_expt",""
"","bandit","201","737642","0.0-162.0-0.0","25578725","wem/bandit_either_3","A173LV77LF3SHB","either","7","484","","","","","","","1","0","0","0.8707856005","","0.4","0.6","0.2","0.8","","","","","0.2641409089","0.8707856005","0.8128728295","0.09046411854","","","","","","","","74","J","1","","","122","main_expt",""
"","bandit","202","739479","0.0-163.0-0.0","25578725","wem/bandit_either_3","A173LV77LF3SHB","either","7","314","","","","","","","1","0","0","0.7592524618","","0.4","0.6","0.2","0.8","","","","","0.2491349268","0.7592524618","0.752198112","0.1132512529","","","","","","","","74","J","1","","","123","main_expt",""
"","bandit","203","741308","0.0-164.0-0.0","25578725","wem/bandit_either_3","A173LV77LF3SHB","either","7","306","","","","","","","0","1","0","","0.7330206325","0.4","0.6","0.2","0.8","0.2587226179","0.7330206325","0.7117781612","0.09419269712","","","","","","","","","","","","74","J","1","","","124","main_expt",""
"","bandit","204","743124","0.0-165.0-0.0","25578725","wem/bandit_either_3","A173LV77LF3SHB","either","7","299","","","","","","","0","0","1","","0.6903693331","0.4","0.6","0.2","0.8","0.2925679814","0.6903693331","0.7177409252","0.110513045","","","","","","","","","","","","74","J","1","","","125","main_expt",""
"","bandit","205","744928","0.0-166.0-0.0","25578725","wem/bandit_either_3","A173LV77LF3SHB","either","7","265","","","","","","","0","0","1","0.6370641568","","0.4","0.6","0.2","0.8","","","","","0.3997536411","0.6370641568","0.7240917845","0.07088043536","","","","","","","","74","J","1","","","126","main_expt",""
"","bandit","206","746546","0.0-167.0-0.0","25578725","wem/bandit_either_3","A173LV77LF3SHB","either","7","95","","","","","","","1","0","0","0.6192694325","","0.4","0.6","0.2","0.8","","","","","0.4120812041","0.6192694325","0.6788578752","0.1041728595","","","","","","","","74","J","1","","","127","main_expt",""
"","bandit","207","748294","0.0-168.0-0.0","25578725","wem/bandit_either_3","A173LV77LF3SHB","either","7","237","","","","","","","0","0","1","","0.559348281","0.4","0.6","0.2","0.8","0.3731276689","0.559348281","0.6257789885","0.1006708935","","","","","","","","","","","","74","J","1","","","128","main_expt",""
"","bandit","208","749870","0.0-169.0-0.0","25578725","wem/bandit_either_3","A173LV77LF3SHB","either","7","38","","","","","","","1","0","0","0.610360397","","0.4","0.6","0.2","0.8","","","","","0.3263017501","0.610360397","0.4761868647","0.1336488566","","","","","","","","74","J","1","","","129","main_expt",""
"","bandit","209","751730","0.0-170.0-0.0","25578725","wem/bandit_either_3","A173LV77LF3SHB","either","7","346","","","","","","","0","0","1","","0.5737783772","0.4","0.6","0.2","0.8","0.3226142564","0.5737783772","0.4745188583","0.1271550391","","","","","","","","","","","","74","J","1","","","130","main_expt",""
"","bandit","210","753341","0.0-171.0-0.0","25578725","wem/bandit_either_3","A173LV77LF3SHB","either","7","74","","","","","","","0","0","1","","0.6252154127","0.4","0.6","0.2","0.8","0.3907136596","0.6252154127","0.4674409752","0.1594360192","","","","","","","","","","","","74","J","1","","","131","main_expt",""
"","bandit","211","756568","0.0-172.0-0.0","25578725","wem/bandit_either_3","A173LV77LF3SHB","either","7","1697","","","","","","","1","0","0","0.6473056352","","0.4","0.6","0.2","0.8","","","","","0.4983036492","0.6473056352","0.368649462","0.1027658661","","","","","","","","74","J","1","","","132","main_expt",""
"","bandit","212","758303","0.0-173.0-0.0","25578725","wem/bandit_either_3","A173LV77LF3SHB","either","7","204","","","","","","","0","0","1","0.4595123468","","0.4","0.6","0.2","0.8","","","","","0.6347393695","0.4595123468","0.4313577514","0.1223548883","","","","","","","","74","J","1","","","133","main_expt",""
"","bandit","213","760200","0.0-174.0-0.0","25578725","wem/bandit_either_3","A173LV77LF3SHB","either","7","366","","","","","","","1","0","0","0.3043385566","","0.4","0.6","0.2","0.8","","","","","0.6037412299","0.3043385566","0.3692150919","0.1063029331","","","","","","","","74","J","1","","","134","main_expt",""
"","bandit","214","762403","0.0-175.0-0.0","25578725","wem/bandit_either_3","A173LV77LF3SHB","either","7","691","","","","","","","0","0","1","","0.340857567","0.4","0.6","0.2","0.8","0.5511090861","0.340857567","0.3077662431","0.080644856","","","","","","","","","","","","74","J","1","","","135","main_expt",""
"","bandit","215","764321","0.0-176.0-0.0","25578725","wem/bandit_either_3","A173LV77LF3SHB","either","7","383","","","","","","","0","1","0","","0.314969588","0.4","0.6","0.2","0.8","0.585911414","0.2655810755","0.314969588","0.1359867045","","","","","","","","","","","","75","K","2","","","136","main_expt",""
"","bandit","216","766242","0.0-177.0-0.0","25578725","wem/bandit_either_3","A173LV77LF3SHB","either","7","402","","","","","","","0","1","0","","0.3590847215","0.4","0.6","0.2","0.8","0.5805905743","0.3025530854","0.3590847215","0.168344283","","","","","","","","","","","","75","K","2","","","137","main_expt",""
"","bandit","217","768154","0.0-178.0-0.0","25578725","wem/bandit_either_3","A173LV77LF3SHB","either","7","393","","","","","","","0","0","1","","0.3588584756","0.4","0.6","0.2","0.8","0.6357737786","0.2888348812","0.3588584756","0.1867455324","","","","","","","","","","","","75","K","2","","","138","main_expt",""
"","bandit","218","770281","0.0-179.0-0.0","25578725","wem/bandit_either_3","A173LV77LF3SHB","either","7","596","","","","","","","1","0","0","0.4289761638","","0.4","0.6","0.2","0.8","","","","","0.66639317","0.2463208975","0.4289761638","0.2277874407","","","","","","","","75","K","2","","","139","main_expt",""
"","bandit","219","772152","0.0-180.0-0.0","25578725","wem/bandit_either_3","A173LV77LF3SHB","either","7","338","","","","","","","0","0","1","","0.3801639999","0.4","0.6","0.2","0.8","0.6365789307","0.273109751","0.3801639999","0.2577820179","","","","","","","","","","","","75","K","2","","","140","main_expt",""
"","bandit","220","774087","0.0-181.0-0.0","25578725","wem/bandit_either_3","A173LV77LF3SHB","either","7","408","","","","","","","0","1","0","","0.2445936549","0.4","0.6","0.2","0.8","0.6045632144","0.3355442787","0.2445936549","0.3674069736","","","","","","","","","","","","75","K","2","","","141","main_expt",""
"","bandit","221","775975","0.0-182.0-0.0","25578725","wem/bandit_either_3","A173LV77LF3SHB","either","7","367","","","","","","","0","0","1","","0.3394066497","0.4","0.6","0.2","0.8","0.5148607161","0.2781999234","0.3394066497","0.4345417514","","","","","","","","","","","","75","K","2","","","142","main_expt",""
"","bandit","222","777500","0.0-183.0-0.0","25578725","wem/bandit_either_3","A173LV77LF3SHB","either","7","5","","","","","","","0","0","1","","0.2899754881","0.4","0.6","0.2","0.8","0.4754154836","0.2599467226","0.2899754881","0.3811672827","","","","","","","","","","","","75","K","2","","","143","main_expt",""
"","bandit","223","779591","0.0-184.0-0.0","25578725","wem/bandit_either_3","A173LV77LF3SHB","either","7","559","","","","","","","0","0","1","","0.2353144144","0.4","0.6","0.2","0.8","0.516029258","0.2353144144","0.3701332444","0.2754059391","","","","","","","","","","","","74","J","1","","","144","main_expt",""
"","bandit","224","781320","0.0-185.0-0.0","25578725","wem/bandit_either_3","A173LV77LF3SHB","either","7","211","","","","","","","0","1","0","","0.6646605279","0.4","0.6","0.2","0.8","0.6646605279","0.2120114759","0.3322753171","0.2773400324","","","","","","","","","","","","72","H","0","img/none_selected.jpg","","145","main_expt",""
"","bandit","225","783162","0.0-186.0-0.0","25578725","wem/bandit_either_3","A173LV77LF3SHB","either","7","310","","","","","","","0","0","1","","0.6331546467","0.4","0.6","0.2","0.8","0.6331546467","0.176067728","0.3203507811","0.2780426824","","","","","","","","","","","","72","H","0","img/none_selected.jpg","","146","main_expt",""
"","bandit","226","785185","0.0-187.0-0.0","25578725","wem/bandit_either_3","A173LV77LF3SHB","either","7","485","","","","","","","1","0","0","0.3373608721","","0.4","0.6","0.2","0.8","","","","","0.6356747602","0.1329453439","0.304761248","0.3373608721","","","","","","","","76","L","3","","","147","main_expt",""
"","bandit","227","787115","0.0-188.0-0.0","25578725","wem/bandit_either_3","A173LV77LF3SHB","either","7","396","","","","","","","0","0","1","0.3529594122","","0.4","0.6","0.2","0.8","","","","","0.6301772709","0.1465103875","0.3809280674","0.3529594122","","","","","","","","76","L","3","","","148","main_expt",""
"","bandit","228","788947","0.0-189.0-0.0","25578725","wem/bandit_either_3","A173LV77LF3SHB","either","7","309","","","","","","","0","0","1","","0.3878328211","0.4","0.6","0.2","0.8","0.6640591829","0.1190451538","0.3997986218","0.3878328211","","","","","","","","","","","","76","L","3","","","149","main_expt",""
"","bandit","229","792013","0.0-190.0-0.0","25578725","wem/bandit_either_3","A173LV77LF3SHB","either","7","1523","","","","","","","0","0","1","0.42943501","","0.4","0.6","0.2","0.8","","","","","0.6592717552","0.1195570164","0.3159341416","0.42943501","","","","","","","","76","L","3","","","150","main_expt",""
"","bandit","230","793944","0.0-191.0-0.0","25578725","wem/bandit_either_3","A173LV77LF3SHB","either","7","401","","","","","","","0","0","1","","0.5142681232","0.4","0.6","0.2","0.8","0.5928743102","0.100492686","0.3052853957","0.5142681232","","","","","","","","","","","","76","L","3","","","151","main_expt",""
"","bandit","231","796951","0.0-192.0-0.0","25578725","wem/bandit_either_3","A173LV77LF3SHB","either","7","1479","","","","","","","0","0","1","","0.1030367897","0.4","0.6","0.2","0.8","0.6822187145","0.1030367897","0.1896018403","0.6321073962","","","","","","","","","","","","74","J","1","","","152","main_expt",""
"","bandit","232","799075","0.0-193.0-0.0","25578725","wem/bandit_either_3","A173LV77LF3SHB","either","7","595","","","","","","","0","0","1","0.2059045691","","0.4","0.6","0.2","0.8","","","","","0.6832005509","0.2059045691","0.2439656658","0.6965670792","","","","","","","","74","J","1","","","153","main_expt",""
"","bandit","233","801327","0.0-194.0-0.0","25578725","wem/bandit_either_3","A173LV77LF3SHB","either","7","724","","","","","","","0","0","1","","0.3068434149","0.4","0.6","0.2","0.8","0.7109729062","0.2921647579","0.3068434149","0.6516005735","","","","","","","","","","","","75","K","2","","","154","main_expt",""
"","bandit","234","802974","0.0-195.0-0.0","25578725","wem/bandit_either_3","A173LV77LF3SHB","either","7","132","","","","","","","0","1","0","","0.2314644909","0.4","0.6","0.2","0.8","0.6975465092","0.1789694193","0.2314644909","0.7291318088","","","","","","","","","","","","75","K","2","","","155","main_expt",""
"","bandit","235","804834","0.0-196.0-0.0","25578725","wem/bandit_either_3","A173LV77LF3SHB","either","7","334","","","","","","","0","0","1","","0.2154001061","0.4","0.6","0.2","0.8","0.6580608271","0.2187195075","0.2154001061","0.6273572288","","","","","","","","","","","","75","K","2","","","156","main_expt",""
"","bandit","236","806665","0.0-197.0-0.0","25578725","wem/bandit_either_3","A173LV77LF3SHB","either","7","321","","","","","","","0","0","1","","0.1648135251","0.4","0.6","0.2","0.8","0.5695802138","0.2669834713","0.1648135251","0.566197257","","","","","","","","","","","","75","K","2","","","157","main_expt",""
"","bandit","237","808300","0.0-198.0-0.0","25578725","wem/bandit_either_3","A173LV77LF3SHB","either","7","108","","","","","","","0","0","1","","0.2215973425","0.4","0.6","0.2","0.8","0.4733954301","0.4240307821","0.2215973425","0.4523642269","","","","","","","","","","","","75","K","2","","","158","main_expt",""
"","bandit","238","810197","0.0-199.0-0.0","25578725","wem/bandit_either_3","A173LV77LF3SHB","either","7","365","","","","","","","0","0","1","","0.2243274726","0.4","0.6","0.2","0.8","0.5619817243","0.3840951437","0.2243274726","0.3991212054","","","","","","","","","","","","75","K","2","","","159","main_expt",""
"","bandit","239","812109","0.0-200.0-0.0","25578725","wem/bandit_either_3","A173LV77LF3SHB","either","7","378","","","","","","","0","0","1","","0.4098147986","0.4","0.6","0.2","0.8","0.4701658979","0.4098147986","0.2061161075","0.3566558104","","","","","","","","","","","","74","J","1","","","160","main_expt",""
"","bandit","240","813947","0.0-201.0-0.0","25578725","wem/bandit_either_3","A173LV77LF3SHB","either","7","328","","","","","","","0","0","1","0.4027252302","","0.4","0.6","0.2","0.8","","","","","0.5673671472","0.4027252302","0.209200141","0.4430908041","","","","","","","","74","J","1","","","161","main_expt",""
"","bandit","241","815633","0.0-202.0-0.0","25578725","wem/bandit_either_3","A173LV77LF3SHB","either","7","157","","","","","","","0","0","1","","0.3824170733","0.4","0.6","0.2","0.8","0.4921809208","0.3824170733","0.1477343718","0.3966098285","","","","","","","","","","","","74","J","1","","","162","main_expt",""
"","bandit","242","817505","0.0-203.0-0.0","25578725","wem/bandit_either_3","A173LV77LF3SHB","either","7","340","","","","","","","0","0","1","0.3455868331","","0.4","0.6","0.2","0.8","","","","","0.4204505308","0.3352280924","0.1525050104","0.3455868331","","","","","","","","76","L","3","","","163","main_expt",""
"","bandit","243","819179","0.0-204.0-0.0","25578725","wem/bandit_either_3","A173LV77LF3SHB","either","7","161","","","","","","","0","0","1","","0.3368969945","0.4","0.6","0.2","0.8","0.534748173","0.3379187571","0.08831047354","0.3368969945","","","","","","","","","","","","76","L","3","","","164","main_expt",""
"","bandit","244","821111","0.0-205.0-0.0","25578725","wem/bandit_either_3","A173LV77LF3SHB","either","7","409","","","","","","","1","0","0","0.3767562303","","0.4","0.6","0.2","0.8","","","","","0.4724966102","0.3160546663","0.1035482763","0.3767562303","","","","","","","","76","L","3","","","165","main_expt",""
"","bandit","245","822990","0.0-206.0-0.0","25578725","wem/bandit_either_3","A173LV77LF3SHB","either","7","348","","","","","","","0","0","1","","0.4727650462","0.4","0.6","0.2","0.8","0.5280505203","0.3058359067","0.06888190676","0.4727650462","","","","","","","","","","","","76","L","3","","","166","main_expt",""
"","bandit","246","824667","0.0-207.0-0.0","25578725","wem/bandit_either_3","A173LV77LF3SHB","either","7","138","","","","","","","0","1","0","","0.6140635231","0.4","0.6","0.2","0.8","0.589670135","0.2561334246","0.06051452263","0.6140635231","","","","","","","","","","","","76","L","3","","","167","main_expt",""
"","bandit","247","826544","0.0-208.0-0.0","25578725","wem/bandit_either_3","A173LV77LF3SHB","either","7","345","","","","","","","1","0","0","0.5629225295","","0.4","0.6","0.2","0.8","","","","","0.5058201204","0.2459084815","0.07905307949","0.5629225295","","","","","","","","76","L","3","","","168","main_expt",""
"","bandit","248","828378","0.0-209.0-0.0","25578725","wem/bandit_either_3","A173LV77LF3SHB","either","7","310","","","","","","","0","1","0","","0.6456076899","0.4","0.6","0.2","0.8","0.4102709571","0.2138460752","0.07051596905","0.6456076899","","","","","","","","","","","","76","L","3","","","169","main_expt",""
"","bandit","249","830203","0.0-210.0-0.0","25578725","wem/bandit_either_3","A173LV77LF3SHB","either","7","298","","","","","","","1","0","0","0.719827795","","0.4","0.6","0.2","0.8","","","","","0.5061826445","0.1642406351","0.1056762318","0.719827795","","","","","","","","76","L","3","","","170","main_expt",""
"","bandit","250","832043","0.0-211.0-0.0","25578725","wem/bandit_either_3","A173LV77LF3SHB","either","7","302","","","","","","","0","0","1","0.6716280274","","0.4","0.6","0.2","0.8","","","","","0.6092158501","0.2337150112","0.1513980822","0.6716280274","","","","","","","","76","L","3","","","171","main_expt",""
"","bandit","251","833912","0.0-212.0-0.0","25578725","wem/bandit_either_3","A173LV77LF3SHB","either","7","341","","","","","","","1","0","0","0.5683226388","","0.4","0.6","0.2","0.8","","","","","0.691496366","0.3128682212","0.1552293495","0.5683226388","","","","","","","","76","L","3","","","172","main_expt",""
"","bandit","252","835864","0.0-213.0-0.0","25578725","wem/bandit_either_3","A173LV77LF3SHB","either","7","435","","","","","","","1","0","0","0.4581357746","","0.4","0.6","0.2","0.8","","","","","0.7402253768","0.2775517843","0.1325975083","0.4581357746","","","","","","","","76","L","3","","","173","main_expt",""
"","bandit","253","837793","0.0-214.0-0.0","25578725","wem/bandit_either_3","A173LV77LF3SHB","either","7","388","","","","","","","0","0","1","0.5903479164","","0.4","0.6","0.2","0.8","","","","","0.6601004511","0.4159305855","0.09024892351","0.5903479164","","","","","","","","76","L","3","","","174","main_expt",""
"","bandit","254","839513","0.0-215.0-0.0","25578725","wem/bandit_either_3","A173LV77LF3SHB","either","7","177","","","","","","","1","0","0","0.5658285383","","0.4","0.6","0.2","0.8","","","","","0.6781732273","0.4471770837","0.06963745108","0.5658285383","","","","","","","","76","L","3","","","175","main_expt",""
"","bandit","255","841371","0.0-216.0-0.0","25578725","wem/bandit_either_3","A173LV77LF3SHB","either","7","322","","","","","","","0","0","1","0.5313506173","","0.4","0.6","0.2","0.8","","","","","0.6932650799","0.5162211083","0.07897043431","0.5313506173","","","","","","","","76","L","3","","","176","main_expt",""
"","bandit","256","843221","0.0-217.0-0.0","25578725","wem/bandit_either_3","A173LV77LF3SHB","either","7","312","","","","","","","1","0","0","0.4231289234","","0.4","0.6","0.2","0.8","","","","","0.6803850572","0.6372676231","0.09469685393","0.4231289234","","","","","","","","76","L","3","","","177","main_expt",""
"","bandit","257","845047","0.0-218.0-0.0","25578725","wem/bandit_either_3","A173LV77LF3SHB","either","7","289","","","","","","","1","0","0","0.580807006","","0.4","0.6","0.2","0.8","","","","","0.5407017663","0.6295749113","0.1486386852","0.580807006","","","","","","","","76","L","3","","","178","main_expt",""
"","bandit","258","846676","0.0-219.0-0.0","25578725","wem/bandit_either_3","A173LV77LF3SHB","either","7","108","","","","","","","0","0","1","","0.5499948007","0.4","0.6","0.2","0.8","0.5931576708","0.4126066341","0.1965095934","0.5499948007","","","","","","","","","","","","76","L","3","","","179","main_expt",""
"","bandit","259","848365","0.0-220.0-0.0","25578725","wem/bandit_either_3","A173LV77LF3SHB","either","7","152","","","","","","","0","0","1","0.4918200669","","0.4","0.6","0.2","0.8","","","","","0.5390819372","0.516991344","0.1749048096","0.4918200669","","","","","","","","76","L","3","","","180","main_expt",""
"","bandit","260","850498","0.0-221.0-0.0","25578725","wem/bandit_either_3","A173LV77LF3SHB","either","7","601","","","","","","","1","0","0","0.5428702931","","0.4","0.6","0.2","0.8","","","","","0.4929910299","0.4239603033","0.232896561","0.5428702931","","","","","","","","76","L","3","","","181","main_expt",""
"","bandit","261","852483","0.0-222.0-0.0","25578725","wem/bandit_either_3","A173LV77LF3SHB","either","7","461","","","","","","","1","0","0","0.5870547156","","0.4","0.6","0.2","0.8","","","","","0.458433212","0.3961891141","0.2561822725","0.5870547156","","","","","","","","76","L","3","","","182","main_expt",""
"","bandit","262","854357","0.0-223.0-0.0","25578725","wem/bandit_either_3","A173LV77LF3SHB","either","7","347","","","","","","","1","0","0","0.5031908535","","0.4","0.6","0.2","0.8","","","","","0.5725449786","0.4364601233","0.2713883962","0.5031908535","","","","","","","","76","L","3","","","183","main_expt",""
"","bandit","263","856105","0.0-224.0-0.0","25578725","wem/bandit_either_3","A173LV77LF3SHB","either","7","217","","","","","","","1","0","0","0.4239978994","","0.4","0.6","0.2","0.8","","","","","0.4878383732","0.4826964198","0.3543557679","0.4239978994","","","","","","","","76","L","3","","","184","main_expt",""
"","bandit","264","857975","0.0-225.0-0.0","25578725","wem/bandit_either_3","A173LV77LF3SHB","either","7","343","","","","","","","0","0","1","","0.3425545299","0.4","0.6","0.2","0.8","0.5189350158","0.4448789548","0.2974533566","0.3425545299","","","","","","","","","","","","76","L","3","","","185","main_expt",""
"","bandit","265","859879","0.0-226.0-0.0","25578725","wem/bandit_either_3","A173LV77LF3SHB","either","7","379","","","","","","","0","0","1","0.2594221554","","0.4","0.6","0.2","0.8","","","","","0.4310300585","0.4585835861","0.3295130888","0.2594221554","","","","","","","","76","L","3","","","186","main_expt",""
"","bandit","266","861639","0.0-227.0-0.0","25578725","wem/bandit_either_3","A173LV77LF3SHB","either","7","228","","","","","","","0","0","1","0.350747246","","0.4","0.6","0.2","0.8","","","","","0.4005994516","0.5470412386","0.3440574025","0.350747246","","","","","","","","76","L","3","","","187","main_expt",""
"","bandit","267","863332","0.0-228.0-0.0","25578725","wem/bandit_either_3","A173LV77LF3SHB","either","7","158","","","","","","","1","0","0","0.3667816541","","0.4","0.6","0.2","0.8","","","","","0.5684333967","0.5485419855","0.3176863717","0.3667816541","","","","","","","","76","L","3","","","188","main_expt",""
"","bandit","268","865219","0.0-229.0-0.0","25578725","wem/bandit_either_3","A173LV77LF3SHB","either","7","345","","","","","","","0","0","1","0.3129240978","","0.4","0.6","0.2","0.8","","","","","0.5768443477","0.6161015427","0.3194332301","0.3129240978","","","","","","","","76","L","3","","","189","main_expt",""
"","bandit","269","867072","0.0-230.0-0.0","25578725","wem/bandit_either_3","A173LV77LF3SHB","either","7","311","","","","","","","0","0","1","0.3681084497","","0.4","0.6","0.2","0.8","","","","","0.6091254975","0.5145576236","0.3585260795","0.3681084497","","","","","","","","76","L","3","","","190","main_expt",""
"","bandit","270","869191","0.0-231.0-0.0","25578725","wem/bandit_either_3","A173LV77LF3SHB","either","7","606","","","","","","","0","0","1","","0.6355225437","0.4","0.6","0.2","0.8","0.6355225437","0.4447609651","0.4438822556","0.3284994938","","","","","","","","","","","","72","H","0","img/none_selected.jpg","","191","main_expt",""
"","bandit","271","870764","0.0-232.0-0.0","25578725","wem/bandit_either_3","A173LV77LF3SHB","either","7","41","","","","","","","1","0","0","0.7449996868","","0.4","0.6","0.2","0.8","","","","","0.7449996868","0.4273979598","0.6336907385","0.2913335268","","","","","","","","72","H","0","img/none_selected.jpg","","192","main_expt",""
"","bandit","272","872619","0.0-233.0-0.0","25578725","wem/bandit_either_3","A173LV77LF3SHB","either","7","315","","","","","","","0","1","0","","0.7645281636","0.4","0.6","0.2","0.8","0.7645281636","0.4382354048","0.5871300795","0.3614904019","","","","","","","","","","","","72","H","0","img/none_selected.jpg","","193","main_expt",""
"","bandit","273","874481","0.0-234.0-0.0","25578725","wem/bandit_either_3","A173LV77LF3SHB","either","7","318","","","","","","","0","1","0","","0.7417458559","0.4","0.6","0.2","0.8","0.7417458559","0.4367950698","0.5919999684","0.4180963095","","","","","","","","","","","","72","H","0","img/none_selected.jpg","","194","main_expt",""
"","bandit","274","876177","0.0-235.0-0.0","25578725","wem/bandit_either_3","A173LV77LF3SHB","either","7","171","","","","","","","0","1","0","","0.7102393491","0.4","0.6","0.2","0.8","0.7102393491","0.4306922929","0.5599221581","0.4129416526","","","","","","","","","","","","72","H","0","img/none_selected.jpg","","195","main_expt",""
"","bandit","275","877864","0.0-236.0-0.0","25578725","wem/bandit_either_3","A173LV77LF3SHB","either","7","165","","","","","","","0","1","0","","0.6846894693","0.4","0.6","0.2","0.8","0.6846894693","0.4436260943","0.4552797342","0.6027995291","","","","","","","","","","","","72","H","0","img/none_selected.jpg","","196","main_expt",""
"","bandit","276","879409","0.0-237.0-0.0","25578725","wem/bandit_either_3","A173LV77LF3SHB","either","7","25","","","","","","","1","0","0","0.6573901597","","0.4","0.6","0.2","0.8","","","","","0.6573901597","0.4547077395","0.3045440077","0.6174547511","","","","","","","","72","H","0","img/none_selected.jpg","","197","main_expt",""
"","bandit","277","881239","0.0-238.0-0.0","25578725","wem/bandit_either_3","A173LV77LF3SHB","either","7","304","","","","","","","0","1","0","","0.7020762336","0.4","0.6","0.2","0.8","0.7020762336","0.545148617","0.4061180554","0.5727893511","","","","","","","","","","","","72","H","0","img/none_selected.jpg","","198","main_expt",""
"","bandit","278","884264","0.0-239.0-0.0","25578725","wem/bandit_either_3","A173LV77LF3SHB","either","7","1486","","","","","","","0","1","0","","0.7749867965","0.4","0.6","0.2","0.8","0.7749867965","0.5838562778","0.3406873398","0.5803616598","","","","","","","","","","","","72","H","0","img/none_selected.jpg","","199","main_expt",""
"","bandit","279","886347","0.0-240.0-0.0","25578725","wem/bandit_either_3","A173LV77LF3SHB","either","7","558","","","","","","","0","1","0","","0.7971262248","0.4","0.6","0.2","0.8","0.7971262248","0.6569131065","0.2810551981","0.5109940584","","","","","","","","","","","","72","H","0","img/none_selected.jpg","","200","main_expt",""
"","bandit","280","888015","0.0-241.0-0.0","25578725","wem/bandit_either_3","A173LV77LF3SHB","either","7","136","","","","","","","0","0","1","","0.6431063495","0.4","0.6","0.2","0.8","0.6431063495","0.6559739125","0.2295892347","0.444158281","","","","","","","","","","","","72","H","0","img/none_selected.jpg","","201","main_expt",""
"","bandit","281","891449","0.0-242.0-0.0","25578725","wem/bandit_either_3","A173LV77LF3SHB","either","7","1903","","","","","","","1","0","0","0.5940698896","","0.4","0.6","0.2","0.8","","","","","0.6153479028","0.5940698896","0.2134833186","0.3774362348","","","","","","","","74","J","1","","","202","main_expt",""
"","bandit","282","893329","0.0-243.0-0.0","25578725","wem/bandit_either_3","A173LV77LF3SHB","either","7","343","","","","","","","0","1","0","","0.6288005559","0.4","0.6","0.2","0.8","0.6107921693","0.6288005559","0.1538434825","0.2852638898","","","","","","","","","","","","74","J","1","","","203","main_expt",""
"","bandit","283","894969","0.0-244.0-0.0","25578725","wem/bandit_either_3","A173LV77LF3SHB","either","7","107","","","","","","","0","0","1","","0.7483345684","0.4","0.6","0.2","0.8","0.6364312764","0.7483345684","0.08629221539","0.3900316507","","","","","","","","","","","","74","J","1","","","204","main_expt",""
"","bandit","284","896978","0.0-245.0-0.0","25578725","wem/bandit_either_3","A173LV77LF3SHB","either","7","482","","","","","","","1","0","0","0.7823609999","","0.4","0.6","0.2","0.8","","","","","0.7098325313","0.7823609999","0.1303029892","0.3334674042","","","","","","","","74","J","1","","","205","main_expt",""
"","bandit","285","898668","0.0-246.0-0.0","25578725","wem/bandit_either_3","A173LV77LF3SHB","either","7","146","","","","","","","1","0","0","0.7053347691","","0.4","0.6","0.2","0.8","","","","","0.6423198407","0.7053347691","0.1290793888","0.3997779834","","","","","","","","74","J","1","","","206","main_expt",""
"","bandit","286","900579","0.0-247.0-0.0","25578725","wem/bandit_either_3","A173LV77LF3SHB","either","7","370","","","","","","","1","0","0","0.692958529","","0.4","0.6","0.2","0.8","","","","","0.7196337679","0.692958529","0.1471003053","0.2791746034","","","","","","","","74","J","1","","","207","main_expt",""
"","bandit","287","902478","0.0-248.0-0.0","25578725","wem/bandit_either_3","A173LV77LF3SHB","either","7","379","","","","","","","0","0","1","","0.5726600787","0.4","0.6","0.2","0.8","0.7273253538","0.5726600787","0.1204476287","0.3447420344","","","","","","","","","","","","74","J","1","","","208","main_expt",""
"","bandit","288","904526","0.0-249.0-0.0","25578725","wem/bandit_either_3","A173LV77LF3SHB","either","7","510","","","","","","","1","0","0","0.7193759884","","0.4","0.6","0.2","0.8","","","","","0.7701678217","0.7193759884","0.1752658923","0.2106944101","","","","","","","","74","J","1","","","209","main_expt",""
"","bandit","289","906689","0.0-250.0-0.0","25578725","wem/bandit_either_3","A173LV77LF3SHB","either","7","648","","","","","","","0","1","0","","0.5469619257","0.4","0.6","0.2","0.8","0.7673062315","0.5469619257","0.2071456167","0.2609791638","","","","","","","","","","","","74","J","1","","","210","main_expt",""
"","bandit","290","908583","0.0-251.0-0.0","25578725","wem/bandit_either_3","A173LV77LF3SHB","either","7","363","","","","","","","0","0","1","0.5432746348","","0.4","0.6","0.2","0.8","","","","","0.7733207599","0.5432746348","0.1982577311","0.3702243554","","","","","","","","74","J","1","","","211","main_expt",""
"","bandit","291","910431","0.0-252.0-0.0","25578725","wem/bandit_either_3","A173LV77LF3SHB","either","7","315","","","","","","","0","0","1","0.4857525371","","0.4","0.6","0.2","0.8","","","","","0.7176010575","0.4857525371","0.2837026457","0.4070014152","","","","","","","","74","J","1","","","212","main_expt",""
"","bandit","292","912294","0.0-253.0-0.0","25578725","wem/bandit_either_3","A173LV77LF3SHB","either","7","328","","","","","","","1","0","0","0.4416723402","","0.4","0.6","0.2","0.8","","","","","0.7241732444","0.4416723402","0.2192955177","0.5001351259","","","","","","","","74","J","1","","","213","main_expt",""
"","bandit","293","914195","0.0-254.0-0.0","25578725","wem/bandit_either_3","A173LV77LF3SHB","either","7","363","","","","","","","0","0","1","0.4231083207","","0.4","0.6","0.2","0.8","","","","","0.6696022014","0.4231083207","0.2885853396","0.5667049056","","","","","","","","74","J","1","","","214","main_expt",""
"","bandit","294","916047","0.0-255.0-0.0","25578725","wem/bandit_either_3","A173LV77LF3SHB","either","7","323","","","","","","","0","0","1","0.329019478","","0.4","0.6","0.2","0.8","","","","","0.6255990046","0.329019478","0.2451296471","0.5259574602","","","","","","","","74","J","1","","","215","main_expt",""
"","bandit","295","917964","0.0-256.0-0.0","25578725","wem/bandit_either_3","A173LV77LF3SHB","either","7","389","","","","","","","0","1","0","","0.3469743373","0.4","0.6","0.2","0.8","0.6771362935","0.3469743373","0.1946790852","0.5468860011","","","","","","","","","","","","74","J","1","","","216","main_expt",""
"","bandit","296","919825","0.0-257.0-0.0","25578725","wem/bandit_either_3","A173LV77LF3SHB","either","7","335","","","","","","","0","0","1","0.3618740044","","0.4","0.6","0.2","0.8","","","","","0.6918953154","0.3618740044","0.2497229096","0.6182745027","","","","","","","","74","J","1","","","217","main_expt",""
"","bandit","297","922172","0.0-258.0-0.0","25578725","wem/bandit_either_3","A173LV77LF3SHB","either","7","828","","","","","","","1","0","0","0.3574217595","","0.4","0.6","0.2","0.8","","","","","0.5726390237","0.3574217595","0.3076421025","0.5979125128","","","","","","","","74","J","1","","","218","main_expt",""
"","bandit","298","924097","0.0-259.0-0.0","25578725","wem/bandit_either_3","A173LV77LF3SHB","either","7","379","","","","","","","0","0","1","0.3862686792","","0.4","0.6","0.2","0.8","","","","","0.5179196303","0.3862686792","0.3488941347","0.5321687475","","","","","","","","74","J","1","","","219","main_expt",""
"","bandit","299","925959","0.0-260.0-0.0","25578725","wem/bandit_either_3","A173LV77LF3SHB","either","7","327","","","","","","","1","0","0","0.4432846828","","0.4","0.6","0.2","0.8","","","","","0.5578222379","0.4432846828","0.306784001","0.6053830099","","","","","","","","74","J","1","","","220","main_expt",""
"","bandit","300","927787","0.0-261.0-0.0","25578725","wem/bandit_either_3","A173LV77LF3SHB","either","7","292","","","","","","","0","1","0","","0.432499938","0.4","0.6","0.2","0.8","0.6640911266","0.432499938","0.3786925452","0.69383498","","","","","","","","","","","","74","J","1","","","221","main_expt",""
"","bandit","301","929608","0.0-262.0-0.0","25578725","wem/bandit_either_3","A173LV77LF3SHB","either","7","282","","","","","","","1","0","0","0.4050903391","","0.4","0.6","0.2","0.8","","","","","0.7340686256","0.4050903391","0.5014801557","0.783375317","","","","","","","","74","J","1","","","222","main_expt",""
"","bandit","302","931232","0.0-263.0-0.0","25578725","wem/bandit_either_3","A173LV77LF3SHB","either","7","109","","","","","","","0","0","1","0.3282593462","","0.4","0.6","0.2","0.8","","","","","0.852862777","0.3282593462","0.4081704387","0.8374489269","","","","","","","","74","J","1","","","223","main_expt",""
"","bandit","303","933169","0.0-264.0-0.0","25578725","wem/bandit_either_3","A173LV77LF3SHB","either","7","408","","","","","","","0","0","1","0.2465370002","","0.4","0.6","0.2","0.8","","","","","0.7830506485","0.2465370002","0.422296693","0.7801262993","","","","","","","","74","J","1","","","224","main_expt",""
"","bandit","304","934771","0.0-265.0-0.0","25578725","wem/bandit_either_3","A173LV77LF3SHB","either","7","64","","","","","","","0","0","1","0.2260872052","","0.4","0.6","0.2","0.8","","","","","0.7447555501","0.2260872052","0.3998144739","0.7438235551","","","","","","","","74","J","1","","","225","main_expt",""
"","bandit","305","936988","0.0-266.0-0.0","25578725","wem/bandit_either_3","A173LV77LF3SHB","either","7","687","","","","","","","0","0","1","","0.2573895518","0.4","0.6","0.2","0.8","0.7331719472","0.2573895518","0.2692780115","0.7561714458","","","","","","","","","","","","74","J","1","","","226","main_expt",""
"","bandit","306","938975","0.0-267.0-0.0","25578725","wem/bandit_either_3","A173LV77LF3SHB","either","7","455","","","","","","","0","0","1","","0.268728261","0.4","0.6","0.2","0.8","0.6417259928","0.2134597582","0.268728261","0.7527106072","","","","","","","","","","","","75","K","2","","","227","main_expt",""
"","bandit","307","941331","0.0-268.0-0.0","25578725","wem/bandit_either_3","A173LV77LF3SHB","either","7","820","","","","","","","1","0","0","0.6050549784","","0.4","0.6","0.2","0.8","","","","","0.6050549784","0.348479141","0.2211951924","0.6315627418","","","","","","","","72","H","0","img/none_selected.jpg","","228","main_expt",""
"","bandit","308","943189","0.0-269.0-0.0","25578725","wem/bandit_either_3","A173LV77LF3SHB","either","7","341","","","","","","","0","0","1","","0.5962230341","0.4","0.6","0.2","0.8","0.5962230341","0.3250735223","0.219241791","0.5564086662","","","","","","","","","","","","72","H","0","img/none_selected.jpg","","229","main_expt",""
"","bandit","309","944990","0.0-270.0-0.0","25578725","wem/bandit_either_3","A173LV77LF3SHB","either","7","270","","","","","","","0","1","0","","0.5895813861","0.4","0.6","0.2","0.8","0.5594933722","0.3395219718","0.291585141","0.5895813861","","","","","","","","","","","","76","L","3","","","230","main_expt",""
"","bandit","310","946826","0.0-271.0-0.0","25578725","wem/bandit_either_3","A173LV77LF3SHB","either","7","314","","","","","","","0","1","0","","0.6148213975","0.4","0.6","0.2","0.8","0.6411036761","0.3315483329","0.2754541949","0.6148213975","","","","","","","","","","","","76","L","3","","","231","main_expt",""
"","bandit","311","948625","0.0-272.0-0.0","25578725","wem/bandit_either_3","A173LV77LF3SHB","either","7","261","","","","","","","0","0","1","0.5176988489","","0.4","0.6","0.2","0.8","","","","","0.6653930637","0.3876030756","0.3055336503","0.5176988489","","","","","","","","76","L","3","","","232","main_expt",""
"","bandit","312","950267","0.0-273.0-0.0","25578725","wem/bandit_either_3","A173LV77LF3SHB","either","7","110","","","","","","","0","0","1","0.4505666118","","0.4","0.6","0.2","0.8","","","","","0.5426719569","0.3696248546","0.3390100853","0.4505666118","","","","","","","","76","L","3","","","233","main_expt",""
"","bandit","313","952206","0.0-274.0-0.0","25578725","wem/bandit_either_3","A173LV77LF3SHB","either","7","396","","","","","","","1","0","0","0.4393496879","","0.4","0.6","0.2","0.8","","","","","0.5581360181","0.3927474605","0.3165323161","0.4393496879","","","","","","","","76","L","3","","","234","main_expt",""
"","bandit","314","954074","0.0-275.0-0.0","25578725","wem/bandit_either_3","A173LV77LF3SHB","either","7","341","","","","","","","0","0","1","0.3542725407","","0.4","0.6","0.2","0.8","","","","","0.5299247183","0.4734072524","0.2944333127","0.3542725407","","","","","","","","76","L","3","","","235","main_expt",""
"","bandit","315","956194","0.0-276.0-0.0","25578725","wem/bandit_either_3","A173LV77LF3SHB","either","7","590","","","","","","","0","0","1","0.452511288","","0.4","0.6","0.2","0.8","","","","","0.4709954077","0.5857320117","0.4127469632","0.452511288","","","","","","","","76","L","3","","","236","main_expt",""
"","bandit","316","957796","0.0-277.0-0.0","25578725","wem/bandit_either_3","A173LV77LF3SHB","either","7","81","","","","","","","1","0","0","0.4171051322","","0.4","0.6","0.2","0.8","","","","","0.4171051322","0.5208556897","0.4353664578","0.4743784035","","","","","","","","72","H","0","img/none_selected.jpg","","237","main_expt",""
"","bandit","317","959635","0.0-278.0-0.0","25578725","wem/bandit_either_3","A173LV77LF3SHB","either","7","316","","","","","","","0","0","1","","0.40722148","0.4","0.6","0.2","0.8","0.40722148","0.4551370454","0.3871798792","0.4666998134","","","","","","","","","","","","72","H","0","img/none_selected.jpg","","238","main_expt",""
"","bandit","318","961469","0.0-279.0-0.0","25578725","wem/bandit_either_3","A173LV77LF3SHB","either","7","304","","","","","","","0","0","1","","0.3113271407","0.4","0.6","0.2","0.8","0.3113271407","0.2979137516","0.3244704863","0.4916456171","","","","","","","","","","","","72","H","0","img/none_selected.jpg","","239","main_expt",""
"","bandit","319","963417","0.0-280.0-0.0","25578725","wem/bandit_either_3","A173LV77LF3SHB","either","7","430","","","","","","","0","0","1","","0.2505753432","0.4","0.6","0.2","0.8","0.2505753432","0.2453134511","0.3606581002","0.7128417261","","","","","","","","","","","","72","H","0","img/none_selected.jpg","","240","main_expt",""
"","bandit","320","965259","0.0-281.0-0.0","25578725","wem/bandit_either_3","A173LV77LF3SHB","either","7","315","","","","","","","1","0","0","0.2015136922","","0.4","0.6","0.2","0.8","","","","","0.2015136922","0.1984184333","0.3524522155","0.7711562233","","","","","","","","72","H","0","img/none_selected.jpg","","241","main_expt",""
"","bandit","321","967345","0.0-282.0-0.0","25578725","wem/bandit_either_3","A173LV77LF3SHB","either","7","538","","","","","","","0","1","0","","0.2405045743","0.4","0.6","0.2","0.8","0.2405045743","0.35553679","0.3677191248","0.7503869254","","","","","","","","","","","","72","H","0","img/none_selected.jpg","","242","main_expt",""
"","bandit","322","969184","0.0-283.0-0.0","25578725","wem/bandit_either_3","A173LV77LF3SHB","either","7","299","","","","","","","0","0","1","0.2458255622","","0.4","0.6","0.2","0.8","","","","","0.2458255622","0.3153476176","0.2524844898","0.6345316327","","","","","","","","72","H","0","img/none_selected.jpg","","243","main_expt",""
"","bandit","323","971152","0.0-284.0-0.0","25578725","wem/bandit_either_3","A173LV77LF3SHB","either","7","431","","","","","","","0","1","0","","0.3958019263","0.4","0.6","0.2","0.8","0.3958019263","0.2733658223","0.2870953983","0.6330191047","","","","","","","","","","","","72","H","0","img/none_selected.jpg","","244","main_expt",""
"","bandit","324","972981","0.0-285.0-0.0","25578725","wem/bandit_either_3","A173LV77LF3SHB","either","7","312","","","","","","","1","0","0","0.3463698993","","0.4","0.6","0.2","0.8","","","","","0.3463698993","0.3496419154","0.3392553197","0.6219736313","","","","","","","","72","H","0","img/none_selected.jpg","","245","main_expt",""
"","bandit","325","974832","0.0-286.0-0.0","25578725","wem/bandit_either_3","A173LV77LF3SHB","either","7","326","","","","","","","0","0","1","","0.2897199721","0.4","0.6","0.2","0.8","0.2897199721","0.4179672116","0.3836850971","0.633799682","","","","","","","","","","","","72","H","0","img/none_selected.jpg","","246","main_expt",""
