"consent","trial_type","trial_index","time_elapsed","internal_node_id","subjID","study","MID","cond","drift","rt","responses","key_press","expt_phase","like","value","connected","gems","bombs","no_reward","GemPrChosen","BombPrChosen","GainOverPainPr_0","GainOverPainPr_1","GainOverPainPr_2","GainOverPainPr_3","LosePr_0","LosePr_1","LosePr_2","LosePr_3","WinPr_0","WinPr_1","WinPr_2","WinPr_3","Q0","Q1","Q2","gender","age","ethnicity","target","respCharCode","respKey","respChoiceNum","respChoice","practice","trial_counter","trial_label","button_pressed"
"INL_behavioral_consent_30min_online.html","consent","0","18966","0.0-0.0","25614918","wem/bandit_either_3","A3AFC26CB0AXMI","either","4","","","","","","","","","","","","","","","","","","","","","","","","","","","","","","","","","","","","","","",""
"","survey-text","1","27780","0.0-1.0","25614918","wem/bandit_either_3","A3AFC26CB0AXMI","either","4","7806","{""Q0"":""A3AFC26CB0AXMI""}","","","","","","","","","","","","","","","","","","","","","","","","","","","","","","","","","","","","",""
"","text","2","56470","0.0-2.0","25614918","wem/bandit_either_3","A3AFC26CB0AXMI","either","4","27685","","32","","","","","","","","","","","","","","","","","","","","","","","","","","","","","","","","","","","",""
"","text","3","64664","0.0-3.0","25614918","wem/bandit_either_3","A3AFC26CB0AXMI","either","4","8192","","32","","","","","","","","","","","","","","","","","","","","","","","","","","","","","","","","","","","",""
"","text","4","94513","0.0-4.0","25614918","wem/bandit_either_3","A3AFC26CB0AXMI","either","4","29847","","32","","","","","","","","","","","","","","","","","","","","","","","","","","","","","","","","","","","",""
"","text","5","113978","0.0-5.0","25614918","wem/bandit_either_3","A3AFC26CB0AXMI","either","4","19462","","32","","","","","","","","","","","","","","","","","","","","","","","","","","","","","","","","","","","",""
"","text","6","162172","0.0-6.0","25614918","wem/bandit_either_3","A3AFC26CB0AXMI","either","4","48191","","32","","","","","","","","","","","","","","","","","","","","","","","","","","","","","","","","","","","",""
"","text","7","170853","0.0-7.0","25614918","wem/bandit_either_3","A3AFC26CB0AXMI","either","4","8680","","32","","","","","","","","","","","","","","","","","","","","","","","","","","","","","","","","","","","",""
"","text","8","175368","0.0-8.0","25614918","wem/bandit_either_3","A3AFC26CB0AXMI","either","4","4513","","32","","","","","","","","","","","","","","","","","","","","","","","","","","","","","","","","","","","",""
"","identification","9","183417","0.0-9.0-0.0","25614918","wem/bandit_either_3","A3AFC26CB0AXMI","either","4","8022","","","","3","3","3","","","","","","","","","","","","","","","","","","","","","","","","the village of Zur","","","","","","","",""
"","identification","10","191814","0.0-9.0-1.0","25614918","wem/bandit_either_3","A3AFC26CB0AXMI","either","4","7370","","","","3","3","3","","","","","","","","","","","","","","","","","","","","","","","","the village of Nyx","","","","","","","",""
"","text","11","200058","0.0-10.0","25614918","wem/bandit_either_3","A3AFC26CB0AXMI","either","4","7242","","32","","","","","","","","","","","","","","","","","","","","","","","","","","","","","","","","","","","",""
"","text","12","206614","0.0-11.0","25614918","wem/bandit_either_3","A3AFC26CB0AXMI","either","4","6554","","32","","","","","","","","","","","","","","","","","","","","","","","","","","","","","","","","","","","",""
"","text","13","208517","0.0-12.0","25614918","wem/bandit_either_3","A3AFC26CB0AXMI","either","4","1901","","32","","","","","","","","","","","","","","","","","","","","","","","","","","","","","","","","","","","",""
"","text","14","212692","0.0-13.0","25614918","wem/bandit_either_3","A3AFC26CB0AXMI","either","4","4173","","32","","","","","","","","","","","","","","","","","","","","","","","","","","","","","","","","","","","",""
"","bandit","15","219727","0.0-14.0-0.0","25614918","wem/bandit_either_3","A3AFC26CB0AXMI","either","4","5520","","","","","","","0","0","1","0","0","","","","","0","","","","0","","","","","","","","","","","74","J","0","img/none_selected_demo.jpg","true","0","",""
"","bandit","16","223015","0.0-15.0-0.0","25614918","wem/bandit_either_3","A3AFC26CB0AXMI","either","4","1780","","","","","","","0","0","1","0","0","","","","","0","","","","0","","","","","","","","","","","75","K","0","img/none_selected_demo.jpg","true","0","",""
"","text","17","235153","0.0-16.0","25614918","wem/bandit_either_3","A3AFC26CB0AXMI","either","4","12135","","32","","","","","","","","","","","","","","","","","","","","","","","","","","","","","","","","","","","",""
"","text","18","248760","0.0-17.0","25614918","wem/bandit_either_3","A3AFC26CB0AXMI","either","4","13605","","32","","","","","","","","","","","","","","","","","","","","","","","","","","","","","","","","","","","",""
"","text","19","259940","0.0-18.0","25614918","wem/bandit_either_3","A3AFC26CB0AXMI","either","4","11176","","32","","","","","","","","","","","","","","","","","","","","","","","","","","","","","","","","","","","",""
"","text","20","262606","0.0-19.0","25614918","wem/bandit_either_3","A3AFC26CB0AXMI","either","4","2664","","32","","","","","","","","","","","","","","","","","","","","","","","","","","","","","","","","","","","",""
"","bandit","21","264983","0.0-20.0-0.0","25614918","wem/bandit_either_3","A3AFC26CB0AXMI","either","4","854","","","","","","","1","0","0","0.8","","0.5","0.5","","","","","","","0.8","0.2","","","","","","","","","","74","J","0","img/none_selected_demo.jpg","true","0","80_20_practice",""
"","bandit","22","267068","0.0-20.0-1.0","25614918","wem/bandit_either_3","A3AFC26CB0AXMI","either","4","567","","","","","","","1","0","0","0.2","","0.5","0.5","","","","","","","0.8","0.2","","","","","","","","","","75","K","1","","true","0","80_20_practice",""
"","bandit","23","268859","0.0-20.0-2.0","25614918","wem/bandit_either_3","A3AFC26CB0AXMI","either","4","281","","","","","","","0","0","1","0.8","","0.5","0.5","","","","","","","0.8","0.2","","","","","","","","","","74","J","0","img/none_selected_demo.jpg","true","0","80_20_practice",""
"","bandit","24","270712","0.0-20.0-3.0","25614918","wem/bandit_either_3","A3AFC26CB0AXMI","either","4","340","","","","","","","1","0","0","0.2","","0.5","0.5","","","","","","","0.8","0.2","","","","","","","","","","75","K","1","","true","0","80_20_practice",""
"","bandit","25","272775","0.0-20.0-4.0","25614918","wem/bandit_either_3","A3AFC26CB0AXMI","either","4","556","","","","","","","0","0","1","","0.2","0.5","0.5","","","0.8","0.2","","","","","","","","","","","","","","75","K","1","","true","0","80_20_practice",""
"","bandit","26","274570","0.0-20.0-5.0","25614918","wem/bandit_either_3","A3AFC26CB0AXMI","either","4","290","","","","","","","1","0","0","0.8","","0.5","0.5","","","","","","","0.8","0.2","","","","","","","","","","74","J","0","img/none_selected_demo.jpg","true","0","80_20_practice",""
"","bandit","27","276560","0.0-20.0-6.0","25614918","wem/bandit_either_3","A3AFC26CB0AXMI","either","4","487","","","","","","","0","0","1","0.2","","0.5","0.5","","","","","","","0.8","0.2","","","","","","","","","","75","K","1","","true","0","80_20_practice",""
"","bandit","28","278342","0.0-20.0-7.0","25614918","wem/bandit_either_3","A3AFC26CB0AXMI","either","4","267","","","","","","","0","1","0","","0.8","0.5","0.5","","","0.8","0.2","","","","","","","","","","","","","","74","J","0","img/none_selected_demo.jpg","true","0","80_20_practice",""
"","bandit","29","280194","0.0-20.0-8.0","25614918","wem/bandit_either_3","A3AFC26CB0AXMI","either","4","340","","","","","","","1","0","0","0.8","","0.5","0.5","","","","","","","0.8","0.2","","","","","","","","","","74","J","0","img/none_selected_demo.jpg","true","0","80_20_practice",""
"","bandit","30","282022","0.0-20.0-9.0","25614918","wem/bandit_either_3","A3AFC26CB0AXMI","either","4","318","","","","","","","0","1","0","","0.8","0.5","0.5","","","0.8","0.2","","","","","","","","","","","","","","74","J","0","img/none_selected_demo.jpg","true","0","80_20_practice",""
"","bandit","31","283836","0.0-20.0-10.0","25614918","wem/bandit_either_3","A3AFC26CB0AXMI","either","4","287","","","","","","","0","1","0","","0.8","0.5","0.5","","","0.8","0.2","","","","","","","","","","","","","","74","J","0","img/none_selected_demo.jpg","true","0","80_20_practice",""
"","bandit","32","285587","0.0-20.0-11.0","25614918","wem/bandit_either_3","A3AFC26CB0AXMI","either","4","221","","","","","","","1","0","0","0.8","","0.5","0.5","","","","","","","0.8","0.2","","","","","","","","","","74","J","0","img/none_selected_demo.jpg","true","0","80_20_practice",""
"","bandit","33","287339","0.0-20.0-12.0","25614918","wem/bandit_either_3","A3AFC26CB0AXMI","either","4","242","","","","","","","1","0","0","0.8","","0.5","0.5","","","","","","","0.8","0.2","","","","","","","","","","74","J","0","img/none_selected_demo.jpg","true","0","80_20_practice",""
"","bandit","34","289193","0.0-20.0-13.0","25614918","wem/bandit_either_3","A3AFC26CB0AXMI","either","4","340","","","","","","","0","1","0","","0.8","0.5","0.5","","","0.8","0.2","","","","","","","","","","","","","","74","J","0","img/none_selected_demo.jpg","true","0","80_20_practice",""
"","bandit","35","290979","0.0-20.0-14.0","25614918","wem/bandit_either_3","A3AFC26CB0AXMI","either","4","278","","","","","","","1","0","0","0.8","","0.5","0.5","","","","","","","0.8","0.2","","","","","","","","","","74","J","0","img/none_selected_demo.jpg","true","0","80_20_practice",""
"","bandit","36","292623","0.0-20.0-15.0","25614918","wem/bandit_either_3","A3AFC26CB0AXMI","either","4","135","","","","","","","0","1","0","","0.8","0.5","0.5","","","0.8","0.2","","","","","","","","","","","","","","74","J","0","img/none_selected_demo.jpg","true","0","80_20_practice",""
"","bandit","37","294395","0.0-20.0-16.0","25614918","wem/bandit_either_3","A3AFC26CB0AXMI","either","4","257","","","","","","","0","0","1","0.8","","0.5","0.5","","","","","","","0.8","0.2","","","","","","","","","","74","J","0","img/none_selected_demo.jpg","true","0","80_20_practice",""
"","bandit","38","296133","0.0-20.0-17.0","25614918","wem/bandit_either_3","A3AFC26CB0AXMI","either","4","221","","","","","","","0","1","0","","0.8","0.5","0.5","","","0.8","0.2","","","","","","","","","","","","","","74","J","0","img/none_selected_demo.jpg","true","0","80_20_practice",""
"","bandit","39","297852","0.0-20.0-18.0","25614918","wem/bandit_either_3","A3AFC26CB0AXMI","either","4","206","","","","","","","1","0","0","0.8","","0.5","0.5","","","","","","","0.8","0.2","","","","","","","","","","74","J","0","img/none_selected_demo.jpg","true","0","80_20_practice",""
"","bandit","40","299398","0.0-20.0-19.0","25614918","wem/bandit_either_3","A3AFC26CB0AXMI","either","4","16","","","","","","","0","0","1","","0.2","0.5","0.5","","","0.8","0.2","","","","","","","","","","","","","","75","K","1","","true","0","80_20_practice",""
"","text","41","305587","0.0-21.0","25614918","wem/bandit_either_3","A3AFC26CB0AXMI","either","4","6186","","32","","","","","","","","","","","","","","","","","","","","","","","","","","","","","","","","","","","",""
"","bandit","42","307854","0.0-22.0-0.0","25614918","wem/bandit_either_3","A3AFC26CB0AXMI","either","4","760","","","","","","","1","0","0","1","0","","","","","0","1","","","1","0","","","","","","","","","","74","J","0","img/none_selected_demo.jpg","true","0","",""
"","text","43","314122","0.0-23.0","25614918","wem/bandit_either_3","A3AFC26CB0AXMI","either","4","6261","","32","","","","","","","","","","","","","","","","","","","","","","","","","","","","","","","","","","","",""
"","text","44","316303","0.0-24.0","25614918","wem/bandit_either_3","A3AFC26CB0AXMI","either","4","2178","","32","","","","","","","","","","","","","","","","","","","","","","","","","","","","","","","","","","","",""
"","text","45","322113","0.0-25.0","25614918","wem/bandit_either_3","A3AFC26CB0AXMI","either","4","5807","","32","","","","","","","","","","","","","","","","","","","","","","","","","","","","","","","","","","","",""
"","text","46","325218","0.0-26.0","25614918","wem/bandit_either_3","A3AFC26CB0AXMI","either","4","3102","","32","","","","","","","","","","","","","","","","","","","","","","","","","","","","","","","","","","","",""
"","text","47","336934","0.0-27.0","25614918","wem/bandit_either_3","A3AFC26CB0AXMI","either","4","11712","","32","","","","","","","","","","","","","","","","","","","","","","","","","","","","","","","","","","","",""
"","text","48","340007","0.0-28.0","25614918","wem/bandit_either_3","A3AFC26CB0AXMI","either","4","3068","","32","","","","","","","","","","","","","","","","","","","","","","","","","","","","","","","","","","","",""
"","text","49","346380","0.0-29.0","25614918","wem/bandit_either_3","A3AFC26CB0AXMI","either","4","6370","","32","","","","","","","","","","","","","","","","","","","","","","","","","","","","","","","","","","","",""
"","text","50","351264","0.0-30.0","25614918","wem/bandit_either_3","A3AFC26CB0AXMI","either","4","4880","","32","","","","","","","","","","","","","","","","","","","","","","","","","","","","","","","","","","","",""
"","text","51","356417","0.0-31.0","25614918","wem/bandit_either_3","A3AFC26CB0AXMI","either","4","5148","","32","","","","","","","","","","","","","","","","","","","","","","","","","","","","","","","","","","","",""
"","text","52","358367","0.0-32.0","25614918","wem/bandit_either_3","A3AFC26CB0AXMI","either","4","1946","","32","","","","","","","","","","","","","","","","","","","","","","","","","","","","","","","","","","","",""
"","text","53","362686","0.0-33.0","25614918","wem/bandit_either_3","A3AFC26CB0AXMI","either","4","4316","","32","","","","","","","","","","","","","","","","","","","","","","","","","","","","","","","","","","","",""
"","bandit","54","364832","0.0-34.0-0.0","25614918","wem/bandit_either_3","A3AFC26CB0AXMI","either","4","621","","","","","","","0","0","1","0.8","","0.5","0.5","0.5","0.5","","","","","0.8","0.2","0.6","0.2","","","","","","","","72","H","0","img/none_selected.jpg","true","0","full_practice",""
"","bandit","55","366580","0.0-34.0-1.0","25614918","wem/bandit_either_3","A3AFC26CB0AXMI","either","4","233","","","","","","","1","0","0","0.2","","0.5","0.5","0.5","0.5","","","","","0.8","0.2","0.6","0.2","","","","","","","","74","J","1","","true","0","full_practice",""
"","bandit","56","368379","0.0-34.0-2.0","25614918","wem/bandit_either_3","A3AFC26CB0AXMI","either","4","274","","","","","","","0","1","0","","0.6","0.5","0.5","0.5","0.5","0.8","0.2","0.6","0.2","","","","","","","","","","","","75","K","2","","true","0","full_practice",""
"","bandit","57","370191","0.0-34.0-3.0","25614918","wem/bandit_either_3","A3AFC26CB0AXMI","either","4","282","","","","","","","0","0","1","","0.2","0.5","0.5","0.5","0.5","0.8","0.2","0.6","0.2","","","","","","","","","","","","76","L","3","","true","0","full_practice",""
"","bandit","58","371724","0.0-34.0-4.0","25614918","wem/bandit_either_3","A3AFC26CB0AXMI","either","4","22","","","","","","","0","0","1","0.8","","0.5","0.5","0.5","0.5","","","","","0.8","0.2","0.6","0.2","","","","","","","","72","H","0","img/none_selected.jpg","true","0","full_practice",""
"","bandit","59","373875","0.0-34.0-5.0","25614918","wem/bandit_either_3","A3AFC26CB0AXMI","either","4","645","","","","","","","0","0","1","0.2","","0.5","0.5","0.5","0.5","","","","","0.8","0.2","0.6","0.2","","","","","","","","74","J","1","","true","0","full_practice",""
"","bandit","60","375673","0.0-34.0-6.0","25614918","wem/bandit_either_3","A3AFC26CB0AXMI","either","4","278","","","","","","","0","0","1","","0.6","0.5","0.5","0.5","0.5","0.8","0.2","0.6","0.2","","","","","","","","","","","","75","K","2","","true","0","full_practice",""
"","bandit","61","377460","0.0-34.0-7.0","25614918","wem/bandit_either_3","A3AFC26CB0AXMI","either","4","274","","","","","","","0","0","1","","0.2","0.5","0.5","0.5","0.5","0.8","0.2","0.6","0.2","","","","","","","","","","","","74","J","1","","true","0","full_practice",""
"","bandit","62","379067","0.0-34.0-8.0","25614918","wem/bandit_either_3","A3AFC26CB0AXMI","either","4","96","","","","","","","0","0","1","","0.8","0.5","0.5","0.5","0.5","0.8","0.2","0.6","0.2","","","","","","","","","","","","72","H","0","img/none_selected.jpg","true","0","full_practice",""
"","bandit","63","380751","0.0-34.0-9.0","25614918","wem/bandit_either_3","A3AFC26CB0AXMI","either","4","155","","","","","","","0","0","1","0.2","","0.5","0.5","0.5","0.5","","","","","0.8","0.2","0.6","0.2","","","","","","","","76","L","3","","true","0","full_practice",""
"","bandit","64","382292","0.0-34.0-10.0","25614918","wem/bandit_either_3","A3AFC26CB0AXMI","either","4","16","","","","","","","1","0","0","0.6","","0.5","0.5","0.5","0.5","","","","","0.8","0.2","0.6","0.2","","","","","","","","75","K","2","","true","0","full_practice",""
"","bandit","65","383925","0.0-34.0-11.0","25614918","wem/bandit_either_3","A3AFC26CB0AXMI","either","4","112","","","","","","","0","1","0","","0.6","0.5","0.5","0.5","0.5","0.8","0.2","0.6","0.2","","","","","","","","","","","","75","K","2","","true","0","full_practice",""
"","bandit","66","385581","0.0-34.0-12.0","25614918","wem/bandit_either_3","A3AFC26CB0AXMI","either","4","140","","","","","","","1","0","0","0.6","","0.5","0.5","0.5","0.5","","","","","0.8","0.2","0.6","0.2","","","","","","","","75","K","2","","true","0","full_practice",""
"","bandit","67","387324","0.0-34.0-13.0","25614918","wem/bandit_either_3","A3AFC26CB0AXMI","either","4","230","","","","","","","0","0","1","","0.6","0.5","0.5","0.5","0.5","0.8","0.2","0.6","0.2","","","","","","","","","","","","75","K","2","","true","0","full_practice",""
"","bandit","68","388924","0.0-34.0-14.0","25614918","wem/bandit_either_3","A3AFC26CB0AXMI","either","4","83","","","","","","","0","0","1","","0.2","0.5","0.5","0.5","0.5","0.8","0.2","0.6","0.2","","","","","","","","","","","","74","J","1","","true","0","full_practice",""
"","bandit","69","390642","0.0-34.0-15.0","25614918","wem/bandit_either_3","A3AFC26CB0AXMI","either","4","207","","","","","","","1","0","0","0.6","","0.5","0.5","0.5","0.5","","","","","0.8","0.2","0.6","0.2","","","","","","","","75","K","2","","true","0","full_practice",""
"","bandit","70","392458","0.0-34.0-16.0","25614918","wem/bandit_either_3","A3AFC26CB0AXMI","either","4","285","","","","","","","0","0","1","","0.6","0.5","0.5","0.5","0.5","0.8","0.2","0.6","0.2","","","","","","","","","","","","75","K","2","","true","0","full_practice",""
"","bandit","71","394020","0.0-34.0-17.0","25614918","wem/bandit_either_3","A3AFC26CB0AXMI","either","4","39","","","","","","","0","0","1","0.2","","0.5","0.5","0.5","0.5","","","","","0.8","0.2","0.6","0.2","","","","","","","","76","L","3","","true","0","full_practice",""
"","bandit","72","396152","0.0-34.0-18.0","25614918","wem/bandit_either_3","A3AFC26CB0AXMI","either","4","603","","","","","","","0","0","1","","0.8","0.5","0.5","0.5","0.5","0.8","0.2","0.6","0.2","","","","","","","","","","","","72","H","0","img/none_selected.jpg","true","0","full_practice",""
"","bandit","73","397808","0.0-34.0-19.0","25614918","wem/bandit_either_3","A3AFC26CB0AXMI","either","4","136","","","","","","","0","0","1","","0.2","0.5","0.5","0.5","0.5","0.8","0.2","0.6","0.2","","","","","","","","","","","","74","J","1","","true","0","full_practice",""
"","text","74","400671","0.0-35.0","25614918","wem/bandit_either_3","A3AFC26CB0AXMI","either","4","2851","","32","","","","","","","","","","","","","","","","","","","","","","","","","","","","","","","","","","","",""
"","text","75","414100","0.0-36.0","25614918","wem/bandit_either_3","A3AFC26CB0AXMI","either","4","12409","","32","","","","","","","","","","","","","","","","","","","","","","","","","","","","","","","","","","","",""
"","text","76","425814","0.0-37.0","25614918","wem/bandit_either_3","A3AFC26CB0AXMI","either","4","11708","","32","","","","","","","","","","","","","","","","","","","","","","","","","","","","","","","","","","","",""
"","text","77","432928","0.0-38.0","25614918","wem/bandit_either_3","A3AFC26CB0AXMI","either","4","7110","","32","","","","","","","","","","","","","","","","","","","","","","","","","","","","","","","","","","","",""
"","text","78","440482","0.0-39.0","25614918","wem/bandit_either_3","A3AFC26CB0AXMI","either","4","7549","","32","","","","","","","","","","","","","","","","","","","","","","","","","","","","","","","","","","","",""
"","text","79","445676","0.0-40.0","25614918","wem/bandit_either_3","A3AFC26CB0AXMI","either","4","5190","","32","","","","","","","","","","","","","","","","","","","","","","","","","","","","","","","","","","","",""
"","bandit","80","448041","0.0-41.0-0.0","25614918","wem/bandit_either_3","A3AFC26CB0AXMI","either","4","851","","","","","","","0","0","1","0.2887693562","","0.4","0.6","0.2","0.8","","","","","0.2887693562","0.7267404998","0.9858900825","0.8209843215","","","","","","","","72","H","0","img/none_selected.jpg","","1","main_expt",""
"","bandit","81","450577","0.0-42.0-0.0","25614918","wem/bandit_either_3","A3AFC26CB0AXMI","either","4","1023","","","","","","","0","0","1","0.7034907646","","0.4","0.6","0.2","0.8","","","","","0.2986217167","0.7034907646","0.9854924354","0.8179122382","","","","","","","","74","J","1","","","2","main_expt",""
"","bandit","82","452555","0.0-43.0-0.0","25614918","wem/bandit_either_3","A3AFC26CB0AXMI","either","4","473","","","","","","","1","0","0","0.9789624529","","0.4","0.6","0.2","0.8","","","","","0.261346942","0.6574847675","0.9789624529","0.8301291561","","","","","","","","75","K","2","","","3","main_expt",""
"","bandit","83","454444","0.0-44.0-0.0","25614918","wem/bandit_either_3","A3AFC26CB0AXMI","either","4","378","","","","","","","0","1","0","","0.9565345184","0.4","0.6","0.2","0.8","0.2757740293","0.5092805277","0.9565345184","0.8219157537","","","","","","","","","","","","75","K","2","","","4","main_expt",""
"","bandit","84","456305","0.0-45.0-0.0","25614918","wem/bandit_either_3","A3AFC26CB0AXMI","either","4","336","","","","","","","0","0","1","","0.941194936","0.4","0.6","0.2","0.8","0.3329857669","0.5952926025","0.941194936","0.7759220463","","","","","","","","","","","","75","K","2","","","5","main_expt",""
"","bandit","85","458167","0.0-46.0-0.0","25614918","wem/bandit_either_3","A3AFC26CB0AXMI","either","4","340","","","","","","","0","1","0","","0.9305219143","0.4","0.6","0.2","0.8","0.331878758","0.6160758637","0.9305219143","0.7495930044","","","","","","","","","","","","75","K","2","","","6","main_expt",""
"","bandit","86","459974","0.0-47.0-0.0","25614918","wem/bandit_either_3","A3AFC26CB0AXMI","either","4","295","","","","","","","0","0","1","","0.937738562","0.4","0.6","0.2","0.8","0.3863389794","0.6381806331","0.937738562","0.7078030286","","","","","","","","","","","","75","K","2","","","7","main_expt",""
"","bandit","87","464991","0.0-48.0-0.0","25614918","wem/bandit_either_3","A3AFC26CB0AXMI","either","4","3508","","","","","","","1","0","0","0.8269671957","","0.4","0.6","0.2","0.8","","","","","0.4242016385","0.7047831713","0.8269671957","0.689407674","","","","","","","","75","K","2","","","8","main_expt",""
"","bandit","88","466815","0.0-49.0-0.0","25614918","wem/bandit_either_3","A3AFC26CB0AXMI","either","4","314","","","","","","","0","1","0","","0.7696709776","0.4","0.6","0.2","0.8","0.379169242","0.6222923336","0.7696709776","0.7848236408","","","","","","","","","","","","75","K","2","","","9","main_expt",""
"","bandit","89","468646","0.0-50.0-0.0","25614918","wem/bandit_either_3","A3AFC26CB0AXMI","either","4","320","","","","","","","0","1","0","","0.7313552403","0.4","0.6","0.2","0.8","0.40569916","0.5629201009","0.7313552403","0.791363481","","","","","","","","","","","","75","K","2","","","10","main_expt",""
"","bandit","90","470444","0.0-51.0-0.0","25614918","wem/bandit_either_3","A3AFC26CB0AXMI","either","4","286","","","","","","","0","1","0","","0.8129169819","0.4","0.6","0.2","0.8","0.4188021694","0.644159789","0.8129169819","0.7800632456","","","","","","","","","","","","75","K","2","","","11","main_expt",""
"","bandit","91","472219","0.0-52.0-0.0","25614918","wem/bandit_either_3","A3AFC26CB0AXMI","either","4","264","","","","","","","0","0","1","","0.7611571711","0.4","0.6","0.2","0.8","0.3689559917","0.6840372722","0.7611571711","0.7559884596","","","","","","","","","","","","75","K","2","","","12","main_expt",""
"","bandit","92","473986","0.0-53.0-0.0","25614918","wem/bandit_either_3","A3AFC26CB0AXMI","either","4","252","","","","","","","0","0","1","","0.7628417147","0.4","0.6","0.2","0.8","0.4584943612","0.6236151953","0.7628417147","0.7695577991","","","","","","","","","","","","75","K","2","","","13","main_expt",""
"","bandit","93","475766","0.0-54.0-0.0","25614918","wem/bandit_either_3","A3AFC26CB0AXMI","either","4","275","","","","","","","1","0","0","0.8509931145","","0.4","0.6","0.2","0.8","","","","","0.455083938","0.5388331182","0.7436451733","0.8509931145","","","","","","","","76","L","3","","","14","main_expt",""
"","bandit","94","477426","0.0-55.0-0.0","25614918","wem/bandit_either_3","A3AFC26CB0AXMI","either","4","151","","","","","","","1","0","0","0.7745856811","","0.4","0.6","0.2","0.8","","","","","0.5360112786","0.4802769188","0.8256008488","0.7745856811","","","","","","","","76","L","3","","","15","main_expt",""
"","bandit","95","479196","0.0-56.0-0.0","25614918","wem/bandit_either_3","A3AFC26CB0AXMI","either","4","257","","","","","","","1","0","0","0.7576521113","","0.4","0.6","0.2","0.8","","","","","0.4791571541","0.4688000192","0.7683027423","0.7576521113","","","","","","","","76","L","3","","","16","main_expt",""
"","bandit","96","480979","0.0-57.0-0.0","25614918","wem/bandit_either_3","A3AFC26CB0AXMI","either","4","271","","","","","","","1","0","0","0.8099558365","","0.4","0.6","0.2","0.8","","","","","0.5263630166","0.6000602573","0.7857675768","0.8099558365","","","","","","","","76","L","3","","","17","main_expt",""
"","bandit","97","482643","0.0-58.0-0.0","25614918","wem/bandit_either_3","A3AFC26CB0AXMI","either","4","155","","","","","","","0","1","0","","0.7535280451","0.4","0.6","0.2","0.8","0.543945959","0.6046592687","0.7303419725","0.7535280451","","","","","","","","","","","","76","L","3","","","18","main_expt",""
"","bandit","98","484298","0.0-59.0-0.0","25614918","wem/bandit_either_3","A3AFC26CB0AXMI","either","4","143","","","","","","","0","1","0","","0.7206444799","0.4","0.6","0.2","0.8","0.4579801682","0.6177236116","0.7243255268","0.7206444799","","","","","","","","","","","","76","L","3","","","19","main_expt",""
"","bandit","99","485885","0.0-60.0-0.0","25614918","wem/bandit_either_3","A3AFC26CB0AXMI","either","4","52","","","","","","","1","0","0","0.6388551968","","0.4","0.6","0.2","0.8","","","","","0.5439896582","0.5484637992","0.7691283854","0.6388551968","","","","","","","","76","L","3","","","20","main_expt",""
"","bandit","100","487671","0.0-61.0-0.0","25614918","wem/bandit_either_3","A3AFC26CB0AXMI","either","4","278","","","","","","","0","1","0","","0.4956822649","0.4","0.6","0.2","0.8","0.5796019833","0.6646151354","0.7068464658","0.4956822649","","","","","","","","","","","","76","L","3","","","21","main_expt",""
"","bandit","101","489233","0.0-62.0-0.0","25614918","wem/bandit_either_3","A3AFC26CB0AXMI","either","4","54","","","","","","","0","0","1","0.4316307404","","0.4","0.6","0.2","0.8","","","","","0.5885929095","0.7223938077","0.7407239748","0.4316307404","","","","","","","","76","L","3","","","22","main_expt",""
"","bandit","102","490835","0.0-63.0-0.0","25614918","wem/bandit_either_3","A3AFC26CB0AXMI","either","4","93","","","","","","","1","0","0","0.4158022912","","0.4","0.6","0.2","0.8","","","","","0.4899642796","0.7548690184","0.7300920021","0.4158022912","","","","","","","","76","L","3","","","23","main_expt",""
"","bandit","103","492609","0.0-64.0-0.0","25614918","wem/bandit_either_3","A3AFC26CB0AXMI","either","4","264","","","","","","","1","0","0","0.4099928258","","0.4","0.6","0.2","0.8","","","","","0.4984159311","0.7794954679","0.7074307303","0.4099928258","","","","","","","","76","L","3","","","24","main_expt",""
"","bandit","104","494382","0.0-65.0-0.0","25614918","wem/bandit_either_3","A3AFC26CB0AXMI","either","4","261","","","","","","","0","0","1","0.4303724308","","0.4","0.6","0.2","0.8","","","","","0.5885503773","0.8029664172","0.6228099684","0.4303724308","","","","","","","","76","L","3","","","25","main_expt",""
"","bandit","105","496077","0.0-66.0-0.0","25614918","wem/bandit_either_3","A3AFC26CB0AXMI","either","4","182","","","","","","","0","0","1","0.3291624114","","0.4","0.6","0.2","0.8","","","","","0.6978100054","0.6980766755","0.5588879168","0.3291624114","","","","","","","","76","L","3","","","26","main_expt",""
"","bandit","106","498364","0.0-67.0-0.0","25614918","wem/bandit_either_3","A3AFC26CB0AXMI","either","4","776","","","","","","","0","0","1","","0.5033257713","0.4","0.6","0.2","0.8","0.6442468271","0.7021498626","0.5033257713","0.3795789415","","","","","","","","","","","","75","K","2","","","27","main_expt",""
"","bandit","107","500588","0.0-68.0-0.0","25614918","wem/bandit_either_3","A3AFC26CB0AXMI","either","4","712","","","","","","","1","0","0","0.4915102133","","0.4","0.6","0.2","0.8","","","","","0.7399213538","0.7802436781","0.4915102133","0.3208573938","","","","","","","","75","K","2","","","28","main_expt",""
"","bandit","108","502127","0.0-69.0-0.0","25614918","wem/bandit_either_3","A3AFC26CB0AXMI","either","4","32","","","","","","","0","1","0","","0.4291187576","0.4","0.6","0.2","0.8","0.7520253205","0.6907923131","0.4291187576","0.3352919619","","","","","","","","","","","","75","K","2","","","29","main_expt",""
"","bandit","109","503742","0.0-70.0-0.0","25614918","wem/bandit_either_3","A3AFC26CB0AXMI","either","4","107","","","","","","","0","0","1","","0.5379907803","0.4","0.6","0.2","0.8","0.7528469829","0.6771306444","0.5379907803","0.3452717309","","","","","","","","","","","","75","K","2","","","30","main_expt",""
"","bandit","110","505452","0.0-71.0-0.0","25614918","wem/bandit_either_3","A3AFC26CB0AXMI","either","4","199","","","","","","","0","0","1","","0.646046857","0.4","0.6","0.2","0.8","0.7571908429","0.7130915948","0.646046857","0.2967094522","","","","","","","","","","","","75","K","2","","","31","main_expt",""
"","bandit","111","507392","0.0-72.0-0.0","25614918","wem/bandit_either_3","A3AFC26CB0AXMI","either","4","429","","","","","","","1","0","0","0.6849190202","","0.4","0.6","0.2","0.8","","","","","0.7530934884","0.6849190202","0.5608885347","0.255781972","","","","","","","","74","J","1","","","32","main_expt",""
"","bandit","112","509797","0.0-73.0-0.0","25614918","wem/bandit_either_3","A3AFC26CB0AXMI","either","4","897","","","","","","","1","0","0","0.7392612035","","0.4","0.6","0.2","0.8","","","","","0.7163673585","0.7392612035","0.5952322697","0.2703771925","","","","","","","","74","J","1","","","33","main_expt",""
"","bandit","113","512333","0.0-74.0-0.0","25614918","wem/bandit_either_3","A3AFC26CB0AXMI","either","4","1024","","","","","","","0","0","1","0.7026009082","","0.4","0.6","0.2","0.8","","","","","0.6817248107","0.7026009082","0.6206609301","0.3572673824","","","","","","","","74","J","1","","","34","main_expt",""
"","bandit","114","513999","0.0-75.0-0.0","25614918","wem/bandit_either_3","A3AFC26CB0AXMI","either","4","154","","","","","","","1","0","0","0.632003728","","0.4","0.6","0.2","0.8","","","","","0.6903641832","0.632003728","0.6223058769","0.3237575066","","","","","","","","74","J","1","","","35","main_expt",""
"","bandit","115","515575","0.0-76.0-0.0","25614918","wem/bandit_either_3","A3AFC26CB0AXMI","either","4","67","","","","","","","1","0","0","0.7266912659","","0.4","0.6","0.2","0.8","","","","","0.6953747248","0.7266912659","0.7304722347","0.3724209237","","","","","","","","74","J","1","","","36","main_expt",""
"","bandit","116","517254","0.0-77.0-0.0","25614918","wem/bandit_either_3","A3AFC26CB0AXMI","either","4","171","","","","","","","0","1","0","","0.5512211225","0.4","0.6","0.2","0.8","0.7552078918","0.5512211225","0.6789706255","0.3848591071","","","","","","","","","","","","74","J","1","","","37","main_expt",""
"","bandit","117","519051","0.0-78.0-0.0","25614918","wem/bandit_either_3","A3AFC26CB0AXMI","either","4","283","","","","","","","0","1","0","","0.5888446875","0.4","0.6","0.2","0.8","0.7095976639","0.5888446875","0.6758320082","0.4026628424","","","","","","","","","","","","74","J","1","","","38","main_expt",""
"","bandit","118","520615","0.0-79.0-0.0","25614918","wem/bandit_either_3","A3AFC26CB0AXMI","either","4","48","","","","","","","0","1","0","","0.7349010221","0.4","0.6","0.2","0.8","0.7813817897","0.7349010221","0.753286291","0.460229008","","","","","","","","","","","","74","J","1","","","39","main_expt",""
"","bandit","119","522184","0.0-80.0-0.0","25614918","wem/bandit_either_3","A3AFC26CB0AXMI","either","4","63","","","","","","","0","1","0","","0.6715391024","0.4","0.6","0.2","0.8","0.7604460558","0.6715391024","0.7527041006","0.3392787789","","","","","","","","","","","","74","J","1","","","40","main_expt",""
"","bandit","120","524040","0.0-81.0-0.0","25614918","wem/bandit_either_3","A3AFC26CB0AXMI","either","4","345","","","","","","","0","0","1","","0.688235262","0.4","0.6","0.2","0.8","0.7588214983","0.688235262","0.7900808451","0.2983701942","","","","","","","","","","","","74","J","1","","","41","main_expt",""
"","bandit","121","525647","0.0-82.0-0.0","25614918","wem/bandit_either_3","A3AFC26CB0AXMI","either","4","99","","","","","","","1","0","0","0.750516412","","0.4","0.6","0.2","0.8","","","","","0.8204813903","0.750516412","0.7261157662","0.2390858253","","","","","","","","74","J","1","","","42","main_expt",""
"","bandit","122","527276","0.0-83.0-0.0","25614918","wem/bandit_either_3","A3AFC26CB0AXMI","either","4","111","","","","","","","0","0","1","0.775378891","","0.4","0.6","0.2","0.8","","","","","0.8310219988","0.775378891","0.772887471","0.1877526289","","","","","","","","74","J","1","","","43","main_expt",""
"","bandit","123","528897","0.0-84.0-0.0","25614918","wem/bandit_either_3","A3AFC26CB0AXMI","either","4","109","","","","","","","0","1","0","","0.5983035632","0.4","0.6","0.2","0.8","0.8165903167","0.5983035632","0.7359848823","0.2713877418","","","","","","","","","","","","74","J","1","","","44","main_expt",""
"","bandit","124","530617","0.0-85.0-0.0","25614918","wem/bandit_either_3","A3AFC26CB0AXMI","either","4","208","","","","","","","1","0","0","0.6453890447","","0.4","0.6","0.2","0.8","","","","","0.6765015189","0.6453890447","0.6223954065","0.2600408605","","","","","","","","74","J","1","","","45","main_expt",""
"","bandit","125","532222","0.0-86.0-0.0","25614918","wem/bandit_either_3","A3AFC26CB0AXMI","either","4","96","","","","","","","0","0","1","","0.4979639723","0.4","0.6","0.2","0.8","0.6613510417","0.4979639723","0.5963379238","0.2435580982","","","","","","","","","","","","74","J","1","","","46","main_expt",""
"","bandit","126","533831","0.0-87.0-0.0","25614918","wem/bandit_either_3","A3AFC26CB0AXMI","either","4","104","","","","","","","0","1","0","","0.4475739324","0.4","0.6","0.2","0.8","0.7373034573","0.4475739324","0.6161308884","0.3258971046","","","","","","","","","","","","74","J","1","","","47","main_expt",""
"","bandit","127","535576","0.0-88.0-0.0","25614918","wem/bandit_either_3","A3AFC26CB0AXMI","either","4","241","","","","","","","1","0","0","0.570942939","","0.4","0.6","0.2","0.8","","","","","0.6580913366","0.570942939","0.6354722558","0.2934977076","","","","","","","","74","J","1","","","48","main_expt",""
"","bandit","128","537371","0.0-89.0-0.0","25614918","wem/bandit_either_3","A3AFC26CB0AXMI","either","4","287","","","","","","","1","0","0","0.5943858444","","0.4","0.6","0.2","0.8","","","","","0.6518545324","0.5943858444","0.5941747261","0.3381222087","","","","","","","","74","J","1","","","49","main_expt",""
"","bandit","129","539181","0.0-90.0-0.0","25614918","wem/bandit_either_3","A3AFC26CB0AXMI","either","4","299","","","","","","","0","0","1","0.72156704","","0.4","0.6","0.2","0.8","","","","","0.6362385309","0.72156704","0.5510631732","0.4149653651","","","","","","","","74","J","1","","","50","main_expt",""
"","bandit","130","540759","0.0-91.0-0.0","25614918","wem/bandit_either_3","A3AFC26CB0AXMI","either","4","66","","","","","","","1","0","0","0.6453884322","","0.4","0.6","0.2","0.8","","","","","0.6673370403","0.6453884322","0.5580995271","0.315936401","","","","","","","","74","J","1","","","51","main_expt",""
"","bandit","131","542435","0.0-92.0-0.0","25614918","wem/bandit_either_3","A3AFC26CB0AXMI","either","4","164","","","","","","","0","1","0","","0.635653338","0.4","0.6","0.2","0.8","0.6614759556","0.635653338","0.4492126091","0.34776451","","","","","","","","","","","","74","J","1","","","52","main_expt",""
"","bandit","132","544028","0.0-93.0-0.0","25614918","wem/bandit_either_3","A3AFC26CB0AXMI","either","4","79","","","","","","","0","1","0","","0.5700640027","0.4","0.6","0.2","0.8","0.5099009019","0.5700640027","0.4600129001","0.2946288454","","","","","","","","","","","","74","J","1","","","53","main_expt",""
"","bandit","133","545684","0.0-94.0-0.0","25614918","wem/bandit_either_3","A3AFC26CB0AXMI","either","4","142","","","","","","","0","0","1","","0.4535518587","0.4","0.6","0.2","0.8","0.5323874036","0.4535518587","0.4005354829","0.3757560715","","","","","","","","","","","","74","J","1","","","54","main_expt",""
"","bandit","134","547242","0.0-95.0-0.0","25614918","wem/bandit_either_3","A3AFC26CB0AXMI","either","4","42","","","","","","","1","0","0","0.4271895083","","0.4","0.6","0.2","0.8","","","","","0.5410243768","0.4271895083","0.3305694417","0.3258455482","","","","","","","","74","J","1","","","55","main_expt",""
"","bandit","135","548866","0.0-96.0-0.0","25614918","wem/bandit_either_3","A3AFC26CB0AXMI","either","4","109","","","","","","","0","0","1","0.3506641683","","0.4","0.6","0.2","0.8","","","","","0.5594159285","0.3506641683","0.3443449075","0.4350401219","","","","","","","","74","J","1","","","56","main_expt",""
"","bandit","136","550665","0.0-97.0-0.0","25614918","wem/bandit_either_3","A3AFC26CB0AXMI","either","4","292","","","","","","","0","0","1","0.3266461122","","0.4","0.6","0.2","0.8","","","","","0.5057935102","0.3266461122","0.3719720486","0.3707313189","","","","","","","","74","J","1","","","57","main_expt",""
"","bandit","137","552401","0.0-98.0-0.0","25614918","wem/bandit_either_3","A3AFC26CB0AXMI","either","4","229","","","","","","","0","0","1","0.4921421838","","0.4","0.6","0.2","0.8","","","","","0.4921421838","0.3024401834","0.2230753252","0.5588799977","","","","","","","","72","H","0","img/none_selected.jpg","","58","main_expt",""
"","bandit","138","554301","0.0-99.0-0.0","25614918","wem/bandit_either_3","A3AFC26CB0AXMI","either","4","387","","","","","","","0","1","0","","0.4740341295","0.4","0.6","0.2","0.8","0.4740341295","0.4306619987","0.2255195526","0.6863198467","","","","","","","","","","","","72","H","0","img/none_selected.jpg","","59","main_expt",""
"","bandit","139","555922","0.0-100.0-0.0","25614918","wem/bandit_either_3","A3AFC26CB0AXMI","either","4","96","","","","","","","0","0","1","","0.4853159436","0.4","0.6","0.2","0.8","0.4853159436","0.4710521126","0.2150487889","0.6998437478","","","","","","","","","","","","72","H","0","img/none_selected.jpg","","60","main_expt",""
"","bandit","140","560209","0.0-101.0-0.0","25614918","wem/bandit_either_3","A3AFC26CB0AXMI","either","4","2777","","","","","","","0","0","1","0.4843563089","","0.4","0.6","0.2","0.8","","","","","0.4843563089","0.4797168847","0.2670703017","0.7027468204","","","","","","","","72","H","0","img/none_selected.jpg","","61","main_expt",""
"","bandit","141","561793","0.0-102.0-0.0","25614918","wem/bandit_either_3","A3AFC26CB0AXMI","either","4","68","","","","","","","1","0","0","0.7461433662","","0.4","0.6","0.2","0.8","","","","","0.4970562682","0.441351191","0.1622034337","0.7461433662","","","","","","","","76","L","3","","","62","main_expt",""
"","bandit","142","563486","0.0-103.0-0.0","25614918","wem/bandit_either_3","A3AFC26CB0AXMI","either","4","168","","","","","","","0","0","1","","0.7956877632","0.4","0.6","0.2","0.8","0.4870743105","0.6405696824","0.1872430185","0.7956877632","","","","","","","","","","","","76","L","3","","","63","main_expt",""
"","bandit","143","566286","0.0-104.0-0.0","25614918","wem/bandit_either_3","A3AFC26CB0AXMI","either","4","1272","","","","","","","1","0","0","0.7533911137","","0.4","0.6","0.2","0.8","","","","","0.5297884171","0.5093225209","0.1921602407","0.7533911137","","","","","","","","76","L","3","","","64","main_expt",""
"","bandit","144","567910","0.0-105.0-0.0","25614918","wem/bandit_either_3","A3AFC26CB0AXMI","either","4","85","","","","","","","1","0","0","0.8407665504","","0.4","0.6","0.2","0.8","","","","","0.5510281753","0.5190422554","0.1747679693","0.8407665504","","","","","","","","76","L","3","","","65","main_expt",""
"","bandit","145","569747","0.0-106.0-0.0","25614918","wem/bandit_either_3","A3AFC26CB0AXMI","either","4","303","","","","","","","0","0","1","0.8392190168","","0.4","0.6","0.2","0.8","","","","","0.6548378986","0.4367989657","0.149475979","0.8392190168","","","","","","","","76","L","3","","","66","main_expt",""
"","bandit","146","571607","0.0-107.0-0.0","25614918","wem/bandit_either_3","A3AFC26CB0AXMI","either","4","339","","","","","","","1","0","0","0.7998105719","","0.4","0.6","0.2","0.8","","","","","0.7873643744","0.4515976155","0.1340316754","0.7998105719","","","","","","","","76","L","3","","","67","main_expt",""
"","bandit","147","573718","0.0-108.0-0.0","25614918","wem/bandit_either_3","A3AFC26CB0AXMI","either","4","605","","","","","","","1","0","0","0.8055175736","","0.4","0.6","0.2","0.8","","","","","0.8374830125","0.4605235732","0.1635100664","0.8055175736","","","","","","","","76","L","3","","","68","main_expt",""
"","bandit","148","575558","0.0-109.0-0.0","25614918","wem/bandit_either_3","A3AFC26CB0AXMI","either","4","327","","","","","","","1","0","0","0.9157616325","","0.4","0.6","0.2","0.8","","","","","0.7948054761","0.3799115548","0.1227365859","0.9157616325","","","","","","","","76","L","3","","","69","main_expt",""
"","bandit","149","577358","0.0-110.0-0.0","25614918","wem/bandit_either_3","A3AFC26CB0AXMI","either","4","286","","","","","","","0","1","0","","0.9575411193","0.4","0.6","0.2","0.8","0.8257183208","0.4215965018","0.1248437045","0.9575411193","","","","","","","","","","","","76","L","3","","","70","main_expt",""
"","bandit","150","579124","0.0-111.0-0.0","25614918","wem/bandit_either_3","A3AFC26CB0AXMI","either","4","244","","","","","","","1","0","0","0.9604429572","","0.4","0.6","0.2","0.8","","","","","0.7378076352","0.4069040491","0.1153860856","0.9604429572","","","","","","","","76","L","3","","","71","main_expt",""
"","bandit","151","581042","0.0-112.0-0.0","25614918","wem/bandit_either_3","A3AFC26CB0AXMI","either","4","392","","","","","","","1","0","0","0.9598545795","","0.4","0.6","0.2","0.8","","","","","0.7402058239","0.4396577013","0.1355011504","0.9598545795","","","","","","","","76","L","3","","","72","main_expt",""
"","bandit","152","582782","0.0-113.0-0.0","25614918","wem/bandit_either_3","A3AFC26CB0AXMI","either","4","223","","","","","","","1","0","0","0.944667289","","0.4","0.6","0.2","0.8","","","","","0.6976791507","0.6562772762","0.05996807606","0.944667289","","","","","","","","76","L","3","","","73","main_expt",""
"","bandit","153","584586","0.0-114.0-0.0","25614918","wem/bandit_either_3","A3AFC26CB0AXMI","either","4","292","","","","","","","1","0","0","0.9226304804","","0.4","0.6","0.2","0.8","","","","","0.7918365236","0.6973429816","0.05405538329","0.9226304804","","","","","","","","76","L","3","","","74","main_expt",""
"","bandit","154","586358","0.0-115.0-0.0","25614918","wem/bandit_either_3","A3AFC26CB0AXMI","either","4","253","","","","","","","1","0","0","0.9398646798","","0.4","0.6","0.2","0.8","","","","","0.7822783488","0.7736122178","0.02989929625","0.9398646798","","","","","","","","76","L","3","","","75","main_expt",""
"","bandit","155","588108","0.0-116.0-0.0","25614918","wem/bandit_either_3","A3AFC26CB0AXMI","either","4","231","","","","","","","1","0","0","0.9344412274","","0.4","0.6","0.2","0.8","","","","","0.7290889389","0.8130420724","0.0563551135","0.9344412274","","","","","","","","76","L","3","","","76","main_expt",""
"","bandit","156","589877","0.0-117.0-0.0","25614918","wem/bandit_either_3","A3AFC26CB0AXMI","either","4","252","","","","","","","0","1","0","","0.9512527415","0.4","0.6","0.2","0.8","0.7903383215","0.8182773084","0.0510075381","0.9512527415","","","","","","","","","","","","76","L","3","","","77","main_expt",""
"","bandit","157","591739","0.0-118.0-0.0","25614918","wem/bandit_either_3","A3AFC26CB0AXMI","either","4","351","","","","","","","1","0","0","0.945324638","","0.4","0.6","0.2","0.8","","","","","0.8093770606","0.910984946","0.07280641377","0.945324638","","","","","","","","76","L","3","","","78","main_expt",""
"","bandit","158","593427","0.0-119.0-0.0","25614918","wem/bandit_either_3","A3AFC26CB0AXMI","either","4","160","","","","","","","1","0","0","0.9313693401","","0.4","0.6","0.2","0.8","","","","","0.7310189459","0.9303795674","0.06591604593","0.9313693401","","","","","","","","76","L","3","","","79","main_expt",""
"","bandit","159","595225","0.0-120.0-0.0","25614918","wem/bandit_either_3","A3AFC26CB0AXMI","either","4","274","","","","","","","1","0","0","0.9272018461","","0.4","0.6","0.2","0.8","","","","","0.7915113188","0.9581515868","0.02790121052","0.9272018461","","","","","","","","76","L","3","","","80","main_expt",""
"","bandit","160","596936","0.0-121.0-0.0","25614918","wem/bandit_either_3","A3AFC26CB0AXMI","either","4","199","","","","","","","1","0","0","0.9340165544","","0.4","0.6","0.2","0.8","","","","","0.8463201033","0.9107397581","0.03997429631","0.9340165544","","","","","","","","76","L","3","","","81","main_expt",""
"","bandit","161","598797","0.0-122.0-0.0","25614918","wem/bandit_either_3","A3AFC26CB0AXMI","either","4","329","","","","","","","1","0","0","0.9778602254","","0.4","0.6","0.2","0.8","","","","","0.9043915002","0.9531247327","0.03692483048","0.9778602254","","","","","","","","76","L","3","","","82","main_expt",""
"","bandit","162","600357","0.0-123.0-0.0","25614918","wem/bandit_either_3","A3AFC26CB0AXMI","either","4","40","","","","","","","1","0","0","0.9593015187","","0.4","0.6","0.2","0.8","","","","","0.922294541","0.91574064","0.04167024954","0.9593015187","","","","","","","","76","L","3","","","83","main_expt",""
"","bandit","163","602057","0.0-124.0-0.0","25614918","wem/bandit_either_3","A3AFC26CB0AXMI","either","4","183","","","","","","","1","0","0","0.9398758864","","0.4","0.6","0.2","0.8","","","","","0.9079954767","0.9287460716","0.03449326924","0.9398758864","","","","","","","","76","L","3","","","84","main_expt",""
"","bandit","164","603655","0.0-125.0-0.0","25614918","wem/bandit_either_3","A3AFC26CB0AXMI","either","4","60","","","","","","","1","0","0","0.9256746213","","0.4","0.6","0.2","0.8","","","","","0.92293493","0.9817994773","0.07382848834","0.9256746213","","","","","","","","76","L","3","","","85","main_expt",""
"","bandit","165","605467","0.0-126.0-0.0","25614918","wem/bandit_either_3","A3AFC26CB0AXMI","either","4","285","","","","","","","0","1","0","","0.8910640916","0.4","0.6","0.2","0.8","0.8831043051","0.9651028603","0.08839198485","0.8910640916","","","","","","","","","","","","76","L","3","","","86","main_expt",""
"","bandit","166","607077","0.0-127.0-0.0","25614918","wem/bandit_either_3","A3AFC26CB0AXMI","either","4","81","","","","","","","1","0","0","0.8729480744","","0.4","0.6","0.2","0.8","","","","","0.876749115","0.9364705545","0.08767612821","0.8729480744","","","","","","","","76","L","3","","","87","main_expt",""
"","bandit","167","609908","0.0-128.0-0.0","25614918","wem/bandit_either_3","A3AFC26CB0AXMI","either","4","1313","","","","","","","1","0","0","0.8780151739","","0.4","0.6","0.2","0.8","","","","","0.9189432589","0.9235767634","0.1606359608","0.8780151739","","","","","","","","76","L","3","","","88","main_expt",""
"","bandit","168","611690","0.0-129.0-0.0","25614918","wem/bandit_either_3","A3AFC26CB0AXMI","either","4","260","","","","","","","1","0","0","0.8856980863","","0.4","0.6","0.2","0.8","","","","","0.8770582065","0.9375107972","0.2051996915","0.8856980863","","","","","","","","76","L","3","","","89","main_expt",""
"","bandit","169","613217","0.0-130.0-0.0","25614918","wem/bandit_either_3","A3AFC26CB0AXMI","either","4","9","","","","","","","1","0","0","0.8828292745","","0.4","0.6","0.2","0.8","","","","","0.9303780437","0.9201099193","0.1757431166","0.8828292745","","","","","","","","76","L","3","","","90","main_expt",""
"","bandit","170","614951","0.0-131.0-0.0","25614918","wem/bandit_either_3","A3AFC26CB0AXMI","either","4","205","","","","","","","0","1","0","","0.9016480115","0.4","0.6","0.2","0.8","0.8870296602","0.9416722714","0.3470073597","0.9016480115","","","","","","","","","","","","76","L","3","","","91","main_expt",""
"","bandit","171","616553","0.0-132.0-0.0","25614918","wem/bandit_either_3","A3AFC26CB0AXMI","either","4","94","","","","","","","1","0","0","0.9077272713","","0.4","0.6","0.2","0.8","","","","","0.8466670433","0.943817784","0.4969118024","0.9077272713","","","","","","","","76","L","3","","","92","main_expt",""
"","bandit","172","619101","0.0-133.0-0.0","25614918","wem/bandit_either_3","A3AFC26CB0AXMI","either","4","1023","","","","","","","1","0","0","0.875936713","","0.4","0.6","0.2","0.8","","","","","0.850017275","0.9078517942","0.5773598144","0.875936713","","","","","","","","76","L","3","","","93","main_expt",""
"","bandit","173","620744","0.0-134.0-0.0","25614918","wem/bandit_either_3","A3AFC26CB0AXMI","either","4","116","","","","","","","1","0","0","0.8089346838","","0.4","0.6","0.2","0.8","","","","","0.6893652978","0.8983200186","0.5513550223","0.8089346838","","","","","","","","76","L","3","","","94","main_expt",""
"","bandit","174","623270","0.0-135.0-0.0","25614918","wem/bandit_either_3","A3AFC26CB0AXMI","either","4","1012","","","","","","","0","0","1","0.7472177953","","0.4","0.6","0.2","0.8","","","","","0.6025630118","0.8744309931","0.5461825447","0.7472177953","","","","","","","","76","L","3","","","95","main_expt",""
"","bandit","175","624958","0.0-136.0-0.0","25614918","wem/bandit_either_3","A3AFC26CB0AXMI","either","4","169","","","","","","","1","0","0","0.631257407","","0.4","0.6","0.2","0.8","","","","","0.5565182624","0.8894212924","0.5564841108","0.631257407","","","","","","","","76","L","3","","","96","main_expt",""
"","bandit","176","626536","0.0-137.0-0.0","25614918","wem/bandit_either_3","A3AFC26CB0AXMI","either","4","63","","","","","","","1","0","0","0.7474787878","","0.4","0.6","0.2","0.8","","","","","0.4820287155","0.891162681","0.6513715187","0.7474787878","","","","","","","","76","L","3","","","97","main_expt",""
"","bandit","177","628214","0.0-138.0-0.0","25614918","wem/bandit_either_3","A3AFC26CB0AXMI","either","4","143","","","","","","","0","1","0","","0.7753317291","0.4","0.6","0.2","0.8","0.4599621431","0.8495400438","0.7004254565","0.7753317291","","","","","","","","","","","","76","L","3","","","98","main_expt",""
"","bandit","178","629793","0.0-139.0-0.0","25614918","wem/bandit_either_3","A3AFC26CB0AXMI","either","4","64","","","","","","","0","0","1","0.7088399779","","0.4","0.6","0.2","0.8","","","","","0.4109144258","0.8671572546","0.6473310623","0.7088399779","","","","","","","","76","L","3","","","99","main_expt",""
"","bandit","179","631487","0.0-140.0-0.0","25614918","wem/bandit_either_3","A3AFC26CB0AXMI","either","4","179","","","","","","","1","0","0","0.7328055719","","0.4","0.6","0.2","0.8","","","","","0.3466085394","0.8312294914","0.6160818326","0.7328055719","","","","","","","","76","L","3","","","100","main_expt",""
"","bandit","180","633136","0.0-141.0-0.0","25614918","wem/bandit_either_3","A3AFC26CB0AXMI","either","4","133","","","","","","","1","0","0","0.8183789849","","0.4","0.6","0.2","0.8","","","","","0.3712289037","0.8135240708","0.6963675268","0.8183789849","","","","","","","","76","L","3","","","101","main_expt",""
"","bandit","181","634788","0.0-142.0-0.0","25614918","wem/bandit_either_3","A3AFC26CB0AXMI","either","4","110","","","","","","","0","0","1","0.7854635714","","0.4","0.6","0.2","0.8","","","","","0.3626324234","0.8556055773","0.6339579424","0.7854635714","","","","","","","","76","L","3","","","102","main_expt",""
"","bandit","182","636359","0.0-143.0-0.0","25614918","wem/bandit_either_3","A3AFC26CB0AXMI","either","4","49","","","","","","","0","1","0","","0.8481411385","0.4","0.6","0.2","0.8","0.2748825764","0.7632006143","0.6908430899","0.8481411385","","","","","","","","","","","","76","L","3","","","103","main_expt",""
"","bandit","183","638001","0.0-144.0-0.0","25614918","wem/bandit_either_3","A3AFC26CB0AXMI","either","4","111","","","","","","","0","0","1","0.8129446485","","0.4","0.6","0.2","0.8","","","","","0.2381725209","0.8273213265","0.6866318891","0.8129446485","","","","","","","","76","L","3","","","104","main_expt",""
"","bandit","184","639532","0.0-145.0-0.0","25614918","wem/bandit_either_3","A3AFC26CB0AXMI","either","4","18","","","","","","","1","0","0","0.7898688037","","0.4","0.6","0.2","0.8","","","","","0.1939551764","0.7930501456","0.6749941214","0.7898688037","","","","","","","","76","L","3","","","105","main_expt",""
"","bandit","185","641259","0.0-146.0-0.0","25614918","wem/bandit_either_3","A3AFC26CB0AXMI","either","4","207","","","","","","","1","0","0","0.7810744832","","0.4","0.6","0.2","0.8","","","","","0.1884153881","0.7186603115","0.7300347885","0.7810744832","","","","","","","","76","L","3","","","106","main_expt",""
"","bandit","186","642810","0.0-147.0-0.0","25614918","wem/bandit_either_3","A3AFC26CB0AXMI","either","4","23","","","","","","","0","1","0","","0.7837395221","0.4","0.6","0.2","0.8","0.1011451677","0.7155595947","0.8133516847","0.7837395221","","","","","","","","","","","","76","L","3","","","107","main_expt",""
"","bandit","187","644381","0.0-148.0-0.0","25614918","wem/bandit_either_3","A3AFC26CB0AXMI","either","4","47","","","","","","","1","0","0","0.787971135","","0.4","0.6","0.2","0.8","","","","","0.1500242655","0.7654707556","0.8009432675","0.787971135","","","","","","","","76","L","3","","","108","main_expt",""
"","bandit","188","646102","0.0-149.0-0.0","25614918","wem/bandit_either_3","A3AFC26CB0AXMI","either","4","207","","","","","","","1","0","0","0.6866525704","","0.4","0.6","0.2","0.8","","","","","0.1285750889","0.6288612937","0.7379370491","0.6866525704","","","","","","","","76","L","3","","","109","main_expt",""
"","bandit","189","647836","0.0-150.0-0.0","25614918","wem/bandit_either_3","A3AFC26CB0AXMI","either","4","216","","","","","","","0","0","1","0.5824748378","","0.4","0.6","0.2","0.8","","","","","0.06279291231","0.6309058105","0.7379992527","0.5824748378","","","","","","","","76","L","3","","","110","main_expt",""
"","bandit","190","649458","0.0-151.0-0.0","25614918","wem/bandit_either_3","A3AFC26CB0AXMI","either","4","95","","","","","","","0","0","1","0.659702805","","0.4","0.6","0.2","0.8","","","","","0.07144278273","0.6218965746","0.7464430213","0.659702805","","","","","","","","76","L","3","","","111","main_expt",""
"","bandit","191","651178","0.0-152.0-0.0","25614918","wem/bandit_either_3","A3AFC26CB0AXMI","either","4","197","","","","","","","0","1","0","","0.7736339118","0.4","0.6","0.2","0.8","0.06013221683","0.6741482942","0.7736339118","0.5111205641","","","","","","","","","","","","75","K","2","","","112","main_expt",""
"","bandit","192","652841","0.0-153.0-0.0","25614918","wem/bandit_either_3","A3AFC26CB0AXMI","either","4","144","","","","","","","0","1","0","","0.8480767854","0.4","0.6","0.2","0.8","0.1442356489","0.7405202534","0.8480767854","0.4852392648","","","","","","","","","","","","75","K","2","","","113","main_expt",""
"","bandit","193","654677","0.0-154.0-0.0","25614918","wem/bandit_either_3","A3AFC26CB0AXMI","either","4","320","","","","","","","1","0","0","0.8016933152","","0.4","0.6","0.2","0.8","","","","","0.1733870882","0.743157628","0.8016933152","0.3531287621","","","","","","","","75","K","2","","","114","main_expt",""
"","bandit","194","656410","0.0-155.0-0.0","25614918","wem/bandit_either_3","A3AFC26CB0AXMI","either","4","220","","","","","","","1","0","0","0.8200260584","","0.4","0.6","0.2","0.8","","","","","0.2198725907","0.7732583829","0.8200260584","0.4090792957","","","","","","","","75","K","2","","","115","main_expt",""
"","bandit","195","658133","0.0-156.0-0.0","25614918","wem/bandit_either_3","A3AFC26CB0AXMI","either","4","199","","","","","","","0","0","1","","0.7761954976","0.4","0.6","0.2","0.8","0.2116870815","0.6224016225","0.7761954976","0.4927933112","","","","","","","","","","","","75","K","2","","","116","main_expt",""
"","bandit","196","659894","0.0-157.0-0.0","25614918","wem/bandit_either_3","A3AFC26CB0AXMI","either","4","225","","","","","","","0","1","0","","0.7722233998","0.4","0.6","0.2","0.8","0.1293815938","0.6784399158","0.7722233998","0.4255499736","","","","","","","","","","","","75","K","2","","","117","main_expt",""
"","bandit","197","661676","0.0-158.0-0.0","25614918","wem/bandit_either_3","A3AFC26CB0AXMI","either","4","258","","","","","","","0","1","0","","0.8049831996","0.4","0.6","0.2","0.8","0.1442073762","0.7499631032","0.8049831996","0.4073726931","","","","","","","","","","","","75","K","2","","","118","main_expt",""
"","bandit","198","663324","0.0-159.0-0.0","25614918","wem/bandit_either_3","A3AFC26CB0AXMI","either","4","138","","","","","","","0","1","0","","0.8469405197","0.4","0.6","0.2","0.8","0.2098334931","0.6258432538","0.8469405197","0.5447318884","","","","","","","","","","","","75","K","2","","","119","main_expt",""
"","bandit","199","665106","0.0-160.0-0.0","25614918","wem/bandit_either_3","A3AFC26CB0AXMI","either","4","266","","","","","","","0","1","0","","0.783925966","0.4","0.6","0.2","0.8","0.243218138","0.5602994123","0.783925966","0.5336717705","","","","","","","","","","","","75","K","2","","","120","main_expt",""
"","bandit","200","666807","0.0-161.0-0.0","25614918","wem/bandit_either_3","A3AFC26CB0AXMI","either","4","172","","","","","","","0","1","0","","0.8031476983","0.4","0.6","0.2","0.8","0.1595445902","0.5850644561","0.8031476983","0.5621279662","","","","","","","","","","","","75","K","2","","","121","main_expt",""
"","bandit","201","668537","0.0-162.0-0.0","25614918","wem/bandit_either_3","A3AFC26CB0AXMI","either","4","212","","","","","","","0","1","0","","0.776878313","0.4","0.6","0.2","0.8","0.1939767007","0.6205732407","0.776878313","0.5664238538","","","","","","","","","","","","75","K","2","","","122","main_expt",""
"","bandit","202","670267","0.0-163.0-0.0","25614918","wem/bandit_either_3","A3AFC26CB0AXMI","either","4","198","","","","","","","1","0","0","0.7695343448","","0.4","0.6","0.2","0.8","","","","","0.2265728871","0.7954206102","0.7695343448","0.6501842916","","","","","","","","75","K","2","","","123","main_expt",""
"","bandit","203","671844","0.0-164.0-0.0","25614918","wem/bandit_either_3","A3AFC26CB0AXMI","either","4","49","","","","","","","0","0","1","","0.6154230174","0.4","0.6","0.2","0.8","0.2027469411","0.881213352","0.6154230174","0.5413703051","","","","","","","","","","","","75","K","2","","","124","main_expt",""
"","bandit","204","673480","0.0-165.0-0.0","25614918","wem/bandit_either_3","A3AFC26CB0AXMI","either","4","123","","","","","","","0","1","0","","0.4710930195","0.4","0.6","0.2","0.8","0.1506135949","0.8598562332","0.4710930195","0.5191338098","","","","","","","","","","","","75","K","2","","","125","main_expt",""
"","bandit","205","675136","0.0-166.0-0.0","25614918","wem/bandit_either_3","A3AFC26CB0AXMI","either","4","132","","","","","","","0","1","0","","0.5258886302","0.4","0.6","0.2","0.8","0.1875851228","0.867144728","0.5258886302","0.6232591378","","","","","","","","","","","","75","K","2","","","126","main_expt",""
"","bandit","206","676820","0.0-167.0-0.0","25614918","wem/bandit_either_3","A3AFC26CB0AXMI","either","4","157","","","","","","","0","0","1","","0.3996486754","0.4","0.6","0.2","0.8","0.2106184636","0.8677917819","0.3996486754","0.601333273","","","","","","","","","","","","75","K","2","","","127","main_expt",""
"","bandit","207","678520","0.0-168.0-0.0","25614918","wem/bandit_either_3","A3AFC26CB0AXMI","either","4","189","","","","","","","0","0","1","","0.3557241191","0.4","0.6","0.2","0.8","0.1276240755","0.8194058857","0.3557241191","0.6312294041","","","","","","","","","","","","75","K","2","","","128","main_expt",""
"","bandit","208","680158","0.0-169.0-0.0","25614918","wem/bandit_either_3","A3AFC26CB0AXMI","either","4","110","","","","","","","0","1","0","","0.813940224","0.4","0.6","0.2","0.8","0.2163335705","0.813940224","0.2432070908","0.6655034733","","","","","","","","","","","","74","J","1","","","129","main_expt",""
"","bandit","209","681843","0.0-170.0-0.0","25614918","wem/bandit_either_3","A3AFC26CB0AXMI","either","4","163","","","","","","","0","1","0","","0.7296764962","0.4","0.6","0.2","0.8","0.2448863899","0.7296764962","0.1722843937","0.6882303755","","","","","","","","","","","","74","J","1","","","130","main_expt",""
"","bandit","210","683695","0.0-171.0-0.0","25614918","wem/bandit_either_3","A3AFC26CB0AXMI","either","4","339","","","","","","","0","0","1","","0.614258276","0.4","0.6","0.2","0.8","0.3447645787","0.614258276","0.1336027919","0.6772884453","","","","","","","","","","","","74","J","1","","","131","main_expt",""
"","bandit","211","685447","0.0-172.0-0.0","25614918","wem/bandit_either_3","A3AFC26CB0AXMI","either","4","234","","","","","","","1","0","0","0.5349540706","","0.4","0.6","0.2","0.8","","","","","0.3622527956","0.5349540706","0.1351629047","0.6773684555","","","","","","","","74","J","1","","","132","main_expt",""
"","bandit","212","687353","0.0-173.0-0.0","25614918","wem/bandit_either_3","A3AFC26CB0AXMI","either","4","365","","","","","","","0","0","1","","0.5449090787","0.4","0.6","0.2","0.8","0.2961885878","0.5449090787","0.2495029","0.7437755928","","","","","","","","","","","","74","J","1","","","133","main_expt",""
"","bandit","213","689153","0.0-174.0-0.0","25614918","wem/bandit_either_3","A3AFC26CB0AXMI","either","4","267","","","","","","","0","0","1","","0.5037108559","0.4","0.6","0.2","0.8","0.2932126781","0.5037108559","0.2118512663","0.7423545867","","","","","","","","","","","","74","J","1","","","134","main_expt",""
"","bandit","214","691742","0.0-175.0-0.0","25614918","wem/bandit_either_3","A3AFC26CB0AXMI","either","4","1070","","","","","","","0","0","1","","0.2836439675","0.4","0.6","0.2","0.8","0.2836439675","0.5131336393","0.2474577379","0.7462440124","","","","","","","","","","","","72","H","0","img/none_selected.jpg","","135","main_expt",""
"","bandit","215","693301","0.0-176.0-0.0","25614918","wem/bandit_either_3","A3AFC26CB0AXMI","either","4","42","","","","","","","0","1","0","","0.1985775905","0.4","0.6","0.2","0.8","0.1985775905","0.5847952324","0.1496333288","0.6372772774","","","","","","","","","","","","72","H","0","img/none_selected.jpg","","136","main_expt",""
"","bandit","216","695102","0.0-177.0-0.0","25614918","wem/bandit_either_3","A3AFC26CB0AXMI","either","4","280","","","","","","","0","0","1","","0.2655975","0.4","0.6","0.2","0.8","0.2655975","0.5191620222","0.164835495","0.6587707878","","","","","","","","","","","","72","H","0","img/none_selected.jpg","","137","main_expt",""
"","bandit","217","696959","0.0-178.0-0.0","25614918","wem/bandit_either_3","A3AFC26CB0AXMI","either","4","328","","","","","","","0","0","1","","0.4066298912","0.4","0.6","0.2","0.8","0.4066298912","0.3830682141","0.1629561883","0.6545472314","","","","","","","","","","","","72","H","0","img/none_selected.jpg","","138","main_expt",""
"","bandit","218","698633","0.0-179.0-0.0","25614918","wem/bandit_either_3","A3AFC26CB0AXMI","either","4","148","","","","","","","0","1","0","","0.5773899651","0.4","0.6","0.2","0.8","0.4537429859","0.3036015776","0.1162724323","0.5773899651","","","","","","","","","","","","76","L","3","","","139","main_expt",""
"","bandit","219","700256","0.0-180.0-0.0","25614918","wem/bandit_either_3","A3AFC26CB0AXMI","either","4","79","","","","","","","1","0","0","0.5786924042","","0.4","0.6","0.2","0.8","","","","","0.410026376","0.2541790234","0.1262651596","0.5786924042","","","","","","","","76","L","3","","","140","main_expt",""
"","bandit","220","701945","0.0-181.0-0.0","25614918","wem/bandit_either_3","A3AFC26CB0AXMI","either","4","160","","","","","","","0","0","1","","0.4589731036","0.4","0.6","0.2","0.8","0.3978668086","0.1899663758","0.1258799353","0.4589731036","","","","","","","","","","","","76","L","3","","","141","main_expt",""
"","bandit","221","703487","0.0-182.0-0.0","25614918","wem/bandit_either_3","A3AFC26CB0AXMI","either","4","17","","","","","","","0","0","1","0.3667804619","","0.4","0.6","0.2","0.8","","","","","0.4096738096","0.214868544","0.1220135665","0.3667804619","","","","","","","","76","L","3","","","142","main_expt",""
"","bandit","222","705204","0.0-183.0-0.0","25614918","wem/bandit_either_3","A3AFC26CB0AXMI","either","4","191","","","","","","","0","1","0","","0.1600355681","0.4","0.6","0.2","0.8","0.5422751762","0.1549416237","0.1600355681","0.3563831379","","","","","","","","","","","","75","K","2","","","143","main_expt",""
"","bandit","223","706743","0.0-184.0-0.0","25614918","wem/bandit_either_3","A3AFC26CB0AXMI","either","4","23","","","","","","","0","0","1","0.103653669","","0.4","0.6","0.2","0.8","","","","","0.6045197677","0.2142728447","0.103653669","0.3675361202","","","","","","","","75","K","2","","","144","main_expt",""
"","bandit","224","708321","0.0-185.0-0.0","25614918","wem/bandit_either_3","A3AFC26CB0AXMI","either","4","68","","","","","","","0","0","1","0.3266856562","","0.4","0.6","0.2","0.8","","","","","0.6140727406","0.2166472609","0.1417267119","0.3266856562","","","","","","","","76","L","3","","","145","main_expt",""
"","bandit","225","710092","0.0-186.0-0.0","25614918","wem/bandit_either_3","A3AFC26CB0AXMI","either","4","227","","","","","","","0","0","1","0.2446047688","","0.4","0.6","0.2","0.8","","","","","0.5553742365","0.2446047688","0.1508894681","0.2815179259","","","","","","","","74","J","1","","","146","main_expt",""
"","bandit","226","711785","0.0-187.0-0.0","25614918","wem/bandit_either_3","A3AFC26CB0AXMI","either","4","171","","","","","","","0","0","1","","0.52787167","0.4","0.6","0.2","0.8","0.52787167","0.3011136322","0.1207147728","0.3560244833","","","","","","","","","","","","72","H","0","img/none_selected.jpg","","147","main_expt",""
"","bandit","227","713494","0.0-188.0-0.0","25614918","wem/bandit_either_3","A3AFC26CB0AXMI","either","4","179","","","","","","","0","0","1","","0.5053851794","0.4","0.6","0.2","0.8","0.5053851794","0.2519777133","0.1362234148","0.3585854149","","","","","","","","","","","","72","H","0","img/none_selected.jpg","","148","main_expt",""
"","bandit","228","715306","0.0-189.0-0.0","25614918","wem/bandit_either_3","A3AFC26CB0AXMI","either","4","290","","","","","","","0","0","1","0.5431256022","","0.4","0.6","0.2","0.8","","","","","0.5431256022","0.2996109941","0.1244444975","0.284478414","","","","","","","","72","H","0","img/none_selected.jpg","","149","main_expt",""
"","bandit","229","717422","0.0-190.0-0.0","25614918","wem/bandit_either_3","A3AFC26CB0AXMI","either","4","580","","","","","","","0","0","1","","0.2963563975","0.4","0.6","0.2","0.8","0.422574086","0.2963563975","0.1109305632","0.2617238314","","","","","","","","","","","","74","J","1","","","150","main_expt",""
"","bandit","230","719219","0.0-191.0-0.0","25614918","wem/bandit_either_3","A3AFC26CB0AXMI","either","4","265","","","","","","","0","0","1","0.4327396174","","0.4","0.6","0.2","0.8","","","","","0.3907227364","0.4327396174","0.11412436","0.2709462114","","","","","","","","74","J","1","","","151","main_expt",""
"","bandit","231","721001","0.0-192.0-0.0","25614918","wem/bandit_either_3","A3AFC26CB0AXMI","either","4","258","","","","","","","0","0","1","","0.1469045903","0.4","0.6","0.2","0.8","0.5580814469","0.4303068123","0.1469045903","0.2993716907","","","","","","","","","","","","75","K","2","","","152","main_expt",""
"","bandit","232","722722","0.0-193.0-0.0","25614918","wem/bandit_either_3","A3AFC26CB0AXMI","either","4","205","","","","","","","0","1","0","","0.1633028487","0.4","0.6","0.2","0.8","0.51223936","0.455197397","0.1633028487","0.2733354782","","","","","","","","","","","","75","K","2","","","153","main_expt",""
"","bandit","233","724313","0.0-194.0-0.0","25614918","wem/bandit_either_3","A3AFC26CB0AXMI","either","4","72","","","","","","","0","0","1","","0.1340882311","0.4","0.6","0.2","0.8","0.4811601507","0.6184454144","0.1340882311","0.3264007987","","","","","","","","","","","","75","K","2","","","154","main_expt",""
"","bandit","234","726061","0.0-195.0-0.0","25614918","wem/bandit_either_3","A3AFC26CB0AXMI","either","4","230","","","","","","","0","0","1","","0.1041462846","0.4","0.6","0.2","0.8","0.575425417","0.5833601464","0.1041462846","0.204433578","","","","","","","","","","","","75","K","2","","","155","main_expt",""
"","bandit","235","728075","0.0-196.0-0.0","25614918","wem/bandit_either_3","A3AFC26CB0AXMI","either","4","493","","","","","","","0","0","1","","0.07451572188","0.4","0.6","0.2","0.8","0.6109018817","0.646897734","0.08564190031","0.07451572188","","","","","","","","","","","","76","L","3","","","156","main_expt",""
"","bandit","236","730094","0.0-197.0-0.0","25614918","wem/bandit_either_3","A3AFC26CB0AXMI","either","4","500","","","","","","","0","0","1","0.1251686374","","0.4","0.6","0.2","0.8","","","","","0.6812883852","0.6912470103","0.06977116317","0.1251686374","","","","","","","","76","L","3","","","157","main_expt",""
"","bandit","237","731765","0.0-198.0-0.0","25614918","wem/bandit_either_3","A3AFC26CB0AXMI","either","4","151","","","","","","","0","0","1","0.1292052795","","0.4","0.6","0.2","0.8","","","","","0.73777041","0.7865398282","0.1504927074","0.1292052795","","","","","","","","76","L","3","","","158","main_expt",""
"","bandit","238","733533","0.0-199.0-0.0","25614918","wem/bandit_either_3","A3AFC26CB0AXMI","either","4","254","","","","","","","0","0","1","","0.1429264201","0.4","0.6","0.2","0.8","0.8388849062","0.7220910122","0.1429264201","0.1200050714","","","","","","","","","","","","75","K","2","","","159","main_expt",""
"","bandit","239","735336","0.0-200.0-0.0","25614918","wem/bandit_either_3","A3AFC26CB0AXMI","either","4","262","","","","","","","0","1","0","","0.1832893837","0.4","0.6","0.2","0.8","0.8006667519","0.710563805","0.1832893837","0.1156014834","","","","","","","","","","","","75","K","2","","","160","main_expt",""
"","bandit","240","736910","0.0-201.0-0.0","25614918","wem/bandit_either_3","A3AFC26CB0AXMI","either","4","64","","","","","","","0","0","1","","0.2337310763","0.4","0.6","0.2","0.8","0.7406956812","0.6205281072","0.2337310763","0.1425751263","","","","","","","","","","","","75","K","2","","","161","main_expt",""
"","bandit","241","738558","0.0-202.0-0.0","25614918","wem/bandit_either_3","A3AFC26CB0AXMI","either","4","133","","","","","","","0","1","0","","0.5246840185","0.4","0.6","0.2","0.8","0.775259894","0.5246840185","0.2326198937","0.2108345254","","","","","","","","","","","","74","J","1","","","162","main_expt",""
"","bandit","242","740268","0.0-203.0-0.0","25614918","wem/bandit_either_3","A3AFC26CB0AXMI","either","4","193","","","","","","","0","0","1","0.569340372","","0.4","0.6","0.2","0.8","","","","","0.6539471222","0.569340372","0.1584290897","0.1664621688","","","","","","","","74","J","1","","","163","main_expt",""
"","bandit","243","742093","0.0-204.0-0.0","25614918","wem/bandit_either_3","A3AFC26CB0AXMI","either","4","298","","","","","","","0","0","1","0.5688323765","","0.4","0.6","0.2","0.8","","","","","0.7914062868","0.5688323765","0.1417900361","0.1741279052","","","","","","","","74","J","1","","","164","main_expt",""
"","bandit","244","743737","0.0-205.0-0.0","25614918","wem/bandit_either_3","A3AFC26CB0AXMI","either","4","115","","","","","","","0","1","0","","0.8415061218","0.4","0.6","0.2","0.8","0.8415061218","0.5195648955","0.08849486786","0.1891196979","","","","","","","","","","","","72","H","0","img/none_selected.jpg","","165","main_expt",""
"","bandit","245","745328","0.0-206.0-0.0","25614918","wem/bandit_either_3","A3AFC26CB0AXMI","either","4","60","","","","","","","1","0","0","0.9084068317","","0.4","0.6","0.2","0.8","","","","","0.9084068317","0.536500984","0.1010416226","0.3016440744","","","","","","","","72","H","0","img/none_selected.jpg","","166","main_expt",""
"","bandit","246","746859","0.0-207.0-0.0","25614918","wem/bandit_either_3","A3AFC26CB0AXMI","either","4","1","","","","","","","1","0","0","0.8857506799","","0.4","0.6","0.2","0.8","","","","","0.8857506799","0.4243381616","0.1506776516","0.3427468607","","","","","","","","72","H","0","img/none_selected.jpg","","167","main_expt",""
"","bandit","247","748564","0.0-208.0-0.0","25614918","wem/bandit_either_3","A3AFC26CB0AXMI","either","4","186","","","","","","","0","1","0","","0.9247721234","0.4","0.6","0.2","0.8","0.9247721234","0.4877327119","0.2532220847","0.3759001064","","","","","","","","","","","","72","H","0","img/none_selected.jpg","","168","main_expt",""
"","bandit","248","750158","0.0-209.0-0.0","25614918","wem/bandit_either_3","A3AFC26CB0AXMI","either","4","64","","","","","","","0","1","0","","0.8870410368","0.4","0.6","0.2","0.8","0.8870410368","0.5096331713","0.2223654062","0.3824832387","","","","","","","","","","","","72","H","0","img/none_selected.jpg","","169","main_expt",""
"","bandit","249","751892","0.0-210.0-0.0","25614918","wem/bandit_either_3","A3AFC26CB0AXMI","either","4","208","","","","","","","0","1","0","","0.8782412079","0.4","0.6","0.2","0.8","0.8782412079","0.6111595203","0.2161840498","0.3257043992","","","","","","","","","","","","72","H","0","img/none_selected.jpg","","170","main_expt",""
"","bandit","250","753609","0.0-211.0-0.0","25614918","wem/bandit_either_3","A3AFC26CB0AXMI","either","4","200","","","","","","","1","0","0","0.7978982074","","0.4","0.6","0.2","0.8","","","","","0.7978982074","0.5888321224","0.1996440145","0.2943589708","","","","","","","","72","H","0","img/none_selected.jpg","","171","main_expt",""
"","bandit","251","755345","0.0-212.0-0.0","25614918","wem/bandit_either_3","A3AFC26CB0AXMI","either","4","209","","","","","","","0","0","1","","0.7896885826","0.4","0.6","0.2","0.8","0.7896885826","0.6295404033","0.275753823","0.4298537702","","","","","","","","","","","","72","H","0","img/none_selected.jpg","","172","main_expt",""
"","bandit","252","757158","0.0-213.0-0.0","25614918","wem/bandit_either_3","A3AFC26CB0AXMI","either","4","273","","","","","","","1","0","0","0.7771385218","","0.4","0.6","0.2","0.8","","","","","0.7771385218","0.5976712981","0.2850946521","0.4196262671","","","","","","","","72","H","0","img/none_selected.jpg","","173","main_expt",""
"","bandit","253","758804","0.0-214.0-0.0","25614918","wem/bandit_either_3","A3AFC26CB0AXMI","either","4","125","","","","","","","1","0","0","0.8412209493","","0.4","0.6","0.2","0.8","","","","","0.8412209493","0.5936331925","0.2836726952","0.4056978145","","","","","","","","72","H","0","img/none_selected.jpg","","174","main_expt",""
"","bandit","254","760573","0.0-215.0-0.0","25614918","wem/bandit_either_3","A3AFC26CB0AXMI","either","4","252","","","","","","","0","1","0","","0.8433491626","0.4","0.6","0.2","0.8","0.8433491626","0.544145328","0.27413619","0.3323311207","","","","","","","","","","","","72","H","0","img/none_selected.jpg","","175","main_expt",""
"","bandit","255","763076","0.0-216.0-0.0","25614918","wem/bandit_either_3","A3AFC26CB0AXMI","either","4","979","","","","","","","0","1","0","","0.778586436","0.4","0.6","0.2","0.8","0.778586436","0.3584947592","0.2369491767","0.3087900888","","","","","","","","","","","","72","H","0","img/none_selected.jpg","","176","main_expt",""
"","bandit","256","765040","0.0-217.0-0.0","25614918","wem/bandit_either_3","A3AFC26CB0AXMI","either","4","437","","","","","","","0","0","1","","0.7488794252","0.4","0.6","0.2","0.8","0.7488794252","0.436171931","0.3440943848","0.3898613412","","","","","","","","","","","","72","H","0","img/none_selected.jpg","","177","main_expt",""
"","bandit","257","766804","0.0-218.0-0.0","25614918","wem/bandit_either_3","A3AFC26CB0AXMI","either","4","220","","","","","","","1","0","0","0.7738581751","","0.4","0.6","0.2","0.8","","","","","0.7738581751","0.5193680035","0.3529135521","0.5236321052","","","","","","","","72","H","0","img/none_selected.jpg","","178","main_expt",""
"","bandit","258","768524","0.0-219.0-0.0","25614918","wem/bandit_either_3","A3AFC26CB0AXMI","either","4","196","","","","","","","0","0","1","0.7527820287","","0.4","0.6","0.2","0.8","","","","","0.7527820287","0.3957798075","0.3787243664","0.2955080601","","","","","","","","72","H","0","img/none_selected.jpg","","179","main_expt",""
"","bandit","259","770474","0.0-220.0-0.0","25614918","wem/bandit_either_3","A3AFC26CB0AXMI","either","4","410","","","","","","","0","1","0","","0.8022950929","0.4","0.6","0.2","0.8","0.8022950929","0.4249873197","0.3092677326","0.3174151272","","","","","","","","","","","","72","H","0","img/none_selected.jpg","","180","main_expt",""
"","bandit","260","773153","0.0-221.0-0.0","25614918","wem/bandit_either_3","A3AFC26CB0AXMI","either","4","1155","","","","","","","0","1","0","","0.7505347306","0.4","0.6","0.2","0.8","0.7505347306","0.4260342439","0.3701559146","0.3560995969","","","","","","","","","","","","72","H","0","img/none_selected.jpg","","181","main_expt",""
"","bandit","261","774683","0.0-222.0-0.0","25614918","wem/bandit_either_3","A3AFC26CB0AXMI","either","4","2","","","","","","","0","1","0","","0.603349844","0.4","0.6","0.2","0.8","0.603349844","0.4305619521","0.2672844749","0.4649908644","","","","","","","","","","","","72","H","0","img/none_selected.jpg","","182","main_expt",""
"","bandit","262","776510","0.0-223.0-0.0","25614918","wem/bandit_either_3","A3AFC26CB0AXMI","either","4","302","","","","","","","0","0","1","","0.6464544124","0.4","0.6","0.2","0.8","0.6464544124","0.4638513582","0.3046315644","0.4588174784","","","","","","","","","","","","72","H","0","img/none_selected.jpg","","183","main_expt",""
"","bandit","263","778143","0.0-224.0-0.0","25614918","wem/bandit_either_3","A3AFC26CB0AXMI","either","4","107","","","","","","","0","0","1","","0.6606024443","0.4","0.6","0.2","0.8","0.6606024443","0.5084330557","0.3507685813","0.509799977","","","","","","","","","","","","72","H","0","img/none_selected.jpg","","184","main_expt",""
"","bandit","264","781869","0.0-225.0-0.0","25614918","wem/bandit_either_3","A3AFC26CB0AXMI","either","4","2199","","","","","","","1","0","0","0.4557178443","","0.4","0.6","0.2","0.8","","","","","0.7034535028","0.5853778332","0.3250269766","0.4557178443","","","","","","","","76","L","3","","","185","main_expt",""
"","bandit","265","783601","0.0-226.0-0.0","25614918","wem/bandit_either_3","A3AFC26CB0AXMI","either","4","197","","","","","","","0","0","1","0.3250172706","","0.4","0.6","0.2","0.8","","","","","0.7672503758","0.5009207633","0.3636669497","0.3250172706","","","","","","","","76","L","3","","","186","main_expt",""
"","bandit","266","785352","0.0-227.0-0.0","25614918","wem/bandit_either_3","A3AFC26CB0AXMI","either","4","221","","","","","","","0","0","1","0.2982192525","","0.4","0.6","0.2","0.8","","","","","0.7505037824","0.4376492532","0.4095027401","0.2982192525","","","","","","","","76","L","3","","","187","main_expt",""
"","bandit","267","786930","0.0-228.0-0.0","25614918","wem/bandit_either_3","A3AFC26CB0AXMI","either","4","54","","","","","","","0","1","0","","0.3356624093","0.4","0.6","0.2","0.8","0.7458261356","0.317868257","0.3356624093","0.2647713636","","","","","","","","","","","","75","K","2","","","188","main_expt",""
"","bandit","268","788471","0.0-229.0-0.0","25614918","wem/bandit_either_3","A3AFC26CB0AXMI","either","4","18","","","","","","","0","0","1","","0.3717951419","0.4","0.6","0.2","0.8","0.747965221","0.3700786551","0.3717951419","0.2798663258","","","","","","","","","","","","75","K","2","","","189","main_expt",""
"","bandit","269","790108","0.0-230.0-0.0","25614918","wem/bandit_either_3","A3AFC26CB0AXMI","either","4","117","","","","","","","0","1","0","","0.3266606931","0.4","0.6","0.2","0.8","0.7459095382","0.3423477616","0.3266606931","0.2146362806","","","","","","","","","","","","75","K","2","","","190","main_expt",""
"","bandit","270","791831","0.0-231.0-0.0","25614918","wem/bandit_either_3","A3AFC26CB0AXMI","either","4","195","","","","","","","0","0","1","","0.4206899072","0.4","0.6","0.2","0.8","0.6299055833","0.2488230813","0.4206899072","0.3132783624","","","","","","","","","","","","75","K","2","","","191","main_expt",""
"","bandit","271","793493","0.0-232.0-0.0","25614918","wem/bandit_either_3","A3AFC26CB0AXMI","either","4","143","","","","","","","0","0","1","","0.2193108308","0.4","0.6","0.2","0.8","0.688533977","0.2193108308","0.4982817076","0.2488083766","","","","","","","","","","","","74","J","1","","","192","main_expt",""
"","bandit","272","795203","0.0-233.0-0.0","25614918","wem/bandit_either_3","A3AFC26CB0AXMI","either","4","180","","","","","","","1","0","0","0.4057276106","","0.4","0.6","0.2","0.8","","","","","0.7176496952","0.4057276106","0.4820211017","0.225611763","","","","","","","","74","J","1","","","193","main_expt",""
"","bandit","273","796992","0.0-234.0-0.0","25614918","wem/bandit_either_3","A3AFC26CB0AXMI","either","4","264","","","","","","","1","0","0","0.3826056333","","0.4","0.6","0.2","0.8","","","","","0.746212457","0.3826056333","0.5373891537","0.2159393038","","","","","","","","74","J","1","","","194","main_expt",""
"","bandit","274","798971","0.0-235.0-0.0","25614918","wem/bandit_either_3","A3AFC26CB0AXMI","either","4","463","","","","","","","0","1","0","","0.4922935908","0.4","0.6","0.2","0.8","0.6800784202","0.4922935908","0.3890275207","0.3112228701","","","","","","","","","","","","74","J","1","","","195","main_expt",""
"","bandit","275","801895","0.0-236.0-0.0","25614918","wem/bandit_either_3","A3AFC26CB0AXMI","either","4","1399","","","","","","","0","0","1","0.5475793877","","0.4","0.6","0.2","0.8","","","","","0.5986295964","0.5475793877","0.4329462643","0.3249051539","","","","","","","","74","J","1","","","196","main_expt",""
"","bandit","276","803488","0.0-237.0-0.0","25614918","wem/bandit_either_3","A3AFC26CB0AXMI","either","4","44","","","","","","","0","0","1","0.6069385875","","0.4","0.6","0.2","0.8","","","","","0.5323622673","0.6069385875","0.416825946","0.2985018541","","","","","","","","74","J","1","","","197","main_expt",""
"","bandit","277","805302","0.0-238.0-0.0","25614918","wem/bandit_either_3","A3AFC26CB0AXMI","either","4","286","","","","","","","0","1","0","","0.5348043844","0.4","0.6","0.2","0.8","0.5348043844","0.4946816555","0.4063336836","0.3109366799","","","","","","","","","","","","72","H","0","img/none_selected.jpg","","198","main_expt",""
"","bandit","278","807054","0.0-239.0-0.0","25614918","wem/bandit_either_3","A3AFC26CB0AXMI","either","4","232","","","","","","","0","0","1","0.4534403339","","0.4","0.6","0.2","0.8","","","","","0.4534403339","0.479635203","0.361264989","0.3143364341","","","","","","","","72","H","0","img/none_selected.jpg","","199","main_expt",""
"","bandit","279","808810","0.0-240.0-0.0","25614918","wem/bandit_either_3","A3AFC26CB0AXMI","either","4","230","","","","","","","1","0","0","0.4185876589","","0.4","0.6","0.2","0.8","","","","","0.4185876589","0.4969837249","0.4700223374","0.3176919365","","","","","","","","72","H","0","img/none_selected.jpg","","200","main_expt",""
"","bandit","280","810489","0.0-241.0-0.0","25614918","wem/bandit_either_3","A3AFC26CB0AXMI","either","4","146","","","","","","","0","0","1","0.3812211227","","0.4","0.6","0.2","0.8","","","","","0.3812211227","0.4548125401","0.4751543938","0.2848283651","","","","","","","","72","H","0","img/none_selected.jpg","","201","main_expt",""
"","bandit","281","812352","0.0-242.0-0.0","25614918","wem/bandit_either_3","A3AFC26CB0AXMI","either","4","338","","","","","","","0","1","0","","0.4414728031","0.4","0.6","0.2","0.8","0.4414728031","0.5767771981","0.4044794657","0.2439676923","","","","","","","","","","","","72","H","0","img/none_selected.jpg","","202","main_expt",""
"","bandit","282","814227","0.0-243.0-0.0","25614918","wem/bandit_either_3","A3AFC26CB0AXMI","either","4","350","","","","","","","0","1","0","","0.3698030662","0.4","0.6","0.2","0.8","0.3698030662","0.6118171827","0.3321077444","0.2582922662","","","","","","","","","","","","72","H","0","img/none_selected.jpg","","203","main_expt",""
"","bandit","283","816118","0.0-244.0-0.0","25614918","wem/bandit_either_3","A3AFC26CB0AXMI","either","4","365","","","","","","","0","0","1","","0.4899087748","0.4","0.6","0.2","0.8","0.4899087748","0.5373194108","0.3697340749","0.3799793739","","","","","","","","","","","","72","H","0","img/none_selected.jpg","","204","main_expt",""
"","bandit","284","818682","0.0-245.0-0.0","25614918","wem/bandit_either_3","A3AFC26CB0AXMI","either","4","1047","","","","","","","0","0","1","","0.4310108402","0.4","0.6","0.2","0.8","0.4310108402","0.5501461309","0.3998168993","0.4441528059","","","","","","","","","","","","72","H","0","img/none_selected.jpg","","205","main_expt",""
"","bandit","285","822755","0.0-246.0-0.0","25614918","wem/bandit_either_3","A3AFC26CB0AXMI","either","4","2539","","","","","","","0","0","1","0.4468516792","","0.4","0.6","0.2","0.8","","","","","0.3912115078","0.5094027242","0.4929909192","0.4468516792","","","","","","","","76","L","3","","","206","main_expt",""
"","bandit","286","824601","0.0-247.0-0.0","25614918","wem/bandit_either_3","A3AFC26CB0AXMI","either","4","319","","","","","","","0","0","1","0.399366085","","0.4","0.6","0.2","0.8","","","","","0.3195818707","0.6449696869","0.4960693894","0.399366085","","","","","","","","76","L","3","","","207","main_expt",""
"","bandit","287","826456","0.0-248.0-0.0","25614918","wem/bandit_either_3","A3AFC26CB0AXMI","either","4","333","","","","","","","0","1","0","","0.3912862986","0.4","0.6","0.2","0.8","0.2378171997","0.549996868","0.3912862986","0.4206610772","","","","","","","","","","","","75","K","2","","","208","main_expt",""
"","bandit","288","828115","0.0-249.0-0.0","25614918","wem/bandit_either_3","A3AFC26CB0AXMI","either","4","123","","","","","","","0","1","0","","0.4218938049","0.4","0.6","0.2","0.8","0.2339104391","0.5258833792","0.4218938049","0.5145499259","","","","","","","","","","","","75","K","2","","","209","main_expt",""
"","bandit","289","829965","0.0-250.0-0.0","25614918","wem/bandit_either_3","A3AFC26CB0AXMI","either","4","326","","","","","","","0","1","0","","0.6003160005","0.4","0.6","0.2","0.8","0.2506558306","0.5453980868","0.6003160005","0.3497539355","","","","","","","","","","","","75","K","2","","","210","main_expt",""
"","bandit","290","831840","0.0-251.0-0.0","25614918","wem/bandit_either_3","A3AFC26CB0AXMI","either","4","344","","","","","","","0","0","1","0.5481562991","","0.4","0.6","0.2","0.8","","","","","0.3466578502","0.5370950561","0.5481562991","0.3335821388","","","","","","","","75","K","2","","","211","main_expt",""
"","bandit","291","833685","0.0-252.0-0.0","25614918","wem/bandit_either_3","A3AFC26CB0AXMI","either","4","313","","","","","","","0","1","0","","0.6210595125","0.4","0.6","0.2","0.8","0.4162959965","0.5774996514","0.6210595125","0.2778022227","","","","","","","","","","","","75","K","2","","","212","main_expt",""
"","bandit","292","835370","0.0-253.0-0.0","25614918","wem/bandit_either_3","A3AFC26CB0AXMI","either","4","168","","","","","","","0","0","1","","0.7732161257","0.4","0.6","0.2","0.8","0.545788555","0.4826056363","0.7732161257","0.2949104287","","","","","","","","","","","","75","K","2","","","213","main_expt",""
"","bandit","293","837120","0.0-254.0-0.0","25614918","wem/bandit_either_3","A3AFC26CB0AXMI","either","4","219","","","","","","","0","1","0","","0.7689771773","0.4","0.6","0.2","0.8","0.6077749924","0.4913277851","0.7689771773","0.2443343027","","","","","","","","","","","","75","K","2","","","214","main_expt",""
"","bandit","294","838967","0.0-255.0-0.0","25614918","wem/bandit_either_3","A3AFC26CB0AXMI","either","4","323","","","","","","","0","1","0","","0.6841712945","0.4","0.6","0.2","0.8","0.4883429648","0.5415006571","0.6841712945","0.2232989174","","","","","","","","","","","","75","K","2","","","215","main_expt",""
"","bandit","295","840718","0.0-256.0-0.0","25614918","wem/bandit_either_3","A3AFC26CB0AXMI","either","4","232","","","","","","","0","0","1","0.7019934296","","0.4","0.6","0.2","0.8","","","","","0.3309854328","0.5198015267","0.7019934296","0.2918619336","","","","","","","","75","K","2","","","216","main_expt",""
"","bandit","296","842439","0.0-257.0-0.0","25614918","wem/bandit_either_3","A3AFC26CB0AXMI","either","4","185","","","","","","","1","0","0","0.3571058798","","0.4","0.6","0.2","0.8","","","","","0.3310528633","0.545097872","0.7537099884","0.3571058798","","","","","","","","76","L","3","","","217","main_expt",""
"","bandit","297","844090","0.0-258.0-0.0","25614918","wem/bandit_either_3","A3AFC26CB0AXMI","either","4","134","","","","","","","1","0","0","0.3738303097","","0.4","0.6","0.2","0.8","","","","","0.4147218791","0.5776025334","0.8428980993","0.3738303097","","","","","","","","76","L","3","","","218","main_expt",""
"","bandit","298","845706","0.0-259.0-0.0","25614918","wem/bandit_either_3","A3AFC26CB0AXMI","either","4","85","","","","","","","1","0","0","0.4832874948","","0.4","0.6","0.2","0.8","","","","","0.3402104323","0.5616346574","0.8007326434","0.4832874948","","","","","","","","76","L","3","","","219","main_expt",""
"","bandit","299","847587","0.0-260.0-0.0","25614918","wem/bandit_either_3","A3AFC26CB0AXMI","either","4","356","","","","","","","1","0","0","0.475455537","","0.4","0.6","0.2","0.8","","","","","0.3448871422","0.6261942659","0.8518850648","0.475455537","","","","","","","","76","L","3","","","220","main_expt",""
"","bandit","300","849450","0.0-261.0-0.0","25614918","wem/bandit_either_3","A3AFC26CB0AXMI","either","4","347","","","","","","","0","0","1","0.3849790123","","0.4","0.6","0.2","0.8","","","","","0.4438284365","0.6533416475","0.8488451861","0.3849790123","","","","","","","","76","L","3","","","221","main_expt",""
"","bandit","301","851043","0.0-262.0-0.0","25614918","wem/bandit_either_3","A3AFC26CB0AXMI","either","4","61","","","","","","","0","0","1","0.2708628555","","0.4","0.6","0.2","0.8","","","","","0.3768672835","0.6780524799","0.8202185963","0.2708628555","","","","","","","","76","L","3","","","222","main_expt",""
"","bandit","302","853830","0.0-263.0-0.0","25614918","wem/bandit_either_3","A3AFC26CB0AXMI","either","4","1250","","","","","","","1","0","0","0.3886191555","","0.4","0.6","0.2","0.8","","","","","0.4599748191","0.638470603","0.839196386","0.3886191555","","","","","","","","76","L","3","","","223","main_expt",""
"","bandit","303","856659","0.0-264.0-0.0","25614918","wem/bandit_either_3","A3AFC26CB0AXMI","either","4","1302","","","","","","","1","0","0","0.3352763987","","0.4","0.6","0.2","0.8","","","","","0.5868274652","0.560582988","0.8340435664","0.3352763987","","","","","","","","76","L","3","","","224","main_expt",""
"","bandit","304","858306","0.0-265.0-0.0","25614918","wem/bandit_either_3","A3AFC26CB0AXMI","either","4","118","","","","","","","1","0","0","0.3948846532","","0.4","0.6","0.2","0.8","","","","","0.510759767","0.5004803289","0.8229669419","0.3948846532","","","","","","","","76","L","3","","","225","main_expt",""
"","bandit","305","860092","0.0-266.0-0.0","25614918","wem/bandit_either_3","A3AFC26CB0AXMI","either","4","264","","","","","","","0","0","1","0.385279681","","0.4","0.6","0.2","0.8","","","","","0.6026028704","0.5109709899","0.8326575293","0.385279681","","","","","","","","76","L","3","","","226","main_expt",""
"","bandit","306","861735","0.0-267.0-0.0","25614918","wem/bandit_either_3","A3AFC26CB0AXMI","either","4","121","","","","","","","1","0","0","0.3296530349","","0.4","0.6","0.2","0.8","","","","","0.588132951","0.4271661703","0.8904476858","0.3296530349","","","","","","","","76","L","3","","","227","main_expt",""
"","bandit","307","863370","0.0-268.0-0.0","25614918","wem/bandit_either_3","A3AFC26CB0AXMI","either","4","104","","","","","","","0","0","1","0.4227788413","","0.4","0.6","0.2","0.8","","","","","0.5754590721","0.374673526","0.8877596604","0.4227788413","","","","","","","","76","L","3","","","228","main_expt",""
"","bandit","308","864910","0.0-269.0-0.0","25614918","wem/bandit_either_3","A3AFC26CB0AXMI","either","4","18","","","","","","","1","0","0","0.4470353227","","0.4","0.6","0.2","0.8","","","","","0.6311951266","0.393435759","0.8647697669","0.4470353227","","","","","","","","76","L","3","","","229","main_expt",""
"","bandit","309","866625","0.0-270.0-0.0","25614918","wem/bandit_either_3","A3AFC26CB0AXMI","either","4","191","","","","","","","0","0","1","0.2986819632","","0.4","0.6","0.2","0.8","","","","","0.6164228117","0.3299431778","0.8704214291","0.2986819632","","","","","","","","76","L","3","","","230","main_expt",""
"","bandit","310","868439","0.0-271.0-0.0","25614918","wem/bandit_either_3","A3AFC26CB0AXMI","either","4","302","","","","","","","0","0","1","0.4508866759","","0.4","0.6","0.2","0.8","","","","","0.5943568022","0.3477061432","0.8598686354","0.4508866759","","","","","","","","76","L","3","","","231","main_expt",""
"","bandit","311","870993","0.0-272.0-0.0","25614918","wem/bandit_either_3","A3AFC26CB0AXMI","either","4","1023","","","","","","","0","0","1","","0.6032910051","0.4","0.6","0.2","0.8","0.6032910051","0.3430234075","0.7939027672","0.5125968159","","","","","","","","","","","","72","H","0","img/none_selected.jpg","","232","main_expt",""
"","bandit","312","872992","0.0-273.0-0.0","25614918","wem/bandit_either_3","A3AFC26CB0AXMI","either","4","472","","","","","","","0","0","1","0.2812772396","","0.4","0.6","0.2","0.8","","","","","0.7225660168","0.2812772396","0.7930400566","0.6020802482","","","","","","","","74","J","1","","","233","main_expt",""
"","bandit","313","874827","0.0-274.0-0.0","25614918","wem/bandit_either_3","A3AFC26CB0AXMI","either","4","317","","","","","","","0","1","0","","0.7549101179","0.4","0.6","0.2","0.8","0.6718439238","0.2049555934","0.7549101179","0.5927943616","","","","","","","","","","","","75","K","2","","","234","main_expt",""
"","bandit","314","876522","0.0-275.0-0.0","25614918","wem/bandit_either_3","A3AFC26CB0AXMI","either","4","186","","","","","","","0","1","0","","0.7654291135","0.4","0.6","0.2","0.8","0.6025803433","0.144612338","0.7654291135","0.5814417759","","","","","","","","","","","","75","K","2","","","235","main_expt",""
"","bandit","315","878242","0.0-276.0-0.0","25614918","wem/bandit_either_3","A3AFC26CB0AXMI","either","4","192","","","","","","","0","1","0","","0.6965918162","0.4","0.6","0.2","0.8","0.6170166349","0.1509581517","0.6965918162","0.6530024001","","","","","","","","","","","","75","K","2","","","236","main_expt",""
"","bandit","316","879943","0.0-277.0-0.0","25614918","wem/bandit_either_3","A3AFC26CB0AXMI","either","4","175","","","","","","","0","1","0","","0.8151927982","0.4","0.6","0.2","0.8","0.6426153702","0.2267465707","0.8151927982","0.5861490443","","","","","","","","","","","","75","K","2","","","237","main_expt",""
"","bandit","317","881529","0.0-278.0-0.0","25614918","wem/bandit_either_3","A3AFC26CB0AXMI","either","4","64","","","","","","","1","0","0","0.7696745118","","0.4","0.6","0.2","0.8","","","","","0.5421138037","0.1651127221","0.7696745118","0.6086881899","","","","","","","","75","K","2","","","238","main_expt",""
"","bandit","318","883309","0.0-279.0-0.0","25614918","wem/bandit_either_3","A3AFC26CB0AXMI","either","4","239","","","","","","","0","0","1","","0.7368178416","0.4","0.6","0.2","0.8","0.5534077834","0.1587945469","0.7368178416","0.6323362843","","","","","","","","","","","","75","K","2","","","239","main_expt",""
"","bandit","319","885008","0.0-280.0-0.0","25614918","wem/bandit_either_3","A3AFC26CB0AXMI","either","4","168","","","","","","","0","1","0","","0.6443792527","0.4","0.6","0.2","0.8","0.7267030345","0.08644000702","0.6443792527","0.5620837446","","","","","","","","","","","","75","K","2","","","240","main_expt",""
"","bandit","320","886622","0.0-281.0-0.0","25614918","wem/bandit_either_3","A3AFC26CB0AXMI","either","4","83","","","","","","","0","1","0","","0.6467572307","0.4","0.6","0.2","0.8","0.7211407476","0.06677296221","0.6467572307","0.5571148452","","","","","","","","","","","","75","K","2","","","241","main_expt",""
"","bandit","321","888890","0.0-282.0-0.0","25614918","wem/bandit_either_3","A3AFC26CB0AXMI","either","4","753","","","","","","","0","0","1","","0.6131120494","0.4","0.6","0.2","0.8","0.6764936995","0.08066643837","0.6131120494","0.4016720442","","","","","","","","","","","","75","K","2","","","242","main_expt",""
"","bandit","322","890703","0.0-283.0-0.0","25614918","wem/bandit_either_3","A3AFC26CB0AXMI","either","4","257","","","","","","","0","0","1","0.7409975133","","0.4","0.6","0.2","0.8","","","","","0.6677952341","0.08086195374","0.7409975133","0.5389796081","","","","","","","","75","K","2","","","243","main_expt",""
"","bandit","323","892296","0.0-284.0-0.0","25614918","wem/bandit_either_3","A3AFC26CB0AXMI","either","4","52","","","","","","","0","0","1","","0.1496534925","0.4","0.6","0.2","0.8","0.7284567303","0.1496534925","0.6582216966","0.5123058505","","","","","","","","","","","","74","J","1","","","244","main_expt",""
"","bandit","324","894123","0.0-285.0-0.0","25614918","wem/bandit_either_3","A3AFC26CB0AXMI","either","4","300","","","","","","","0","0","1","","0.1788819116","0.4","0.6","0.2","0.8","0.7435316078","0.1788819116","0.7274682542","0.434346282","","","","","","","","","","","","74","J","1","","","245","main_expt",""
"","bandit","325","895888","0.0-286.0-0.0","25614918","wem/bandit_either_3","A3AFC26CB0AXMI","either","4","237","","","","","","","0","0","1","","0.7420547497","0.4","0.6","0.2","0.8","0.7420547497","0.2147576294","0.7675378805","0.4080319695","","","","","","","","","","","","72","H","0","img/none_selected.jpg","","246","main_expt",""
