"consent","trial_type","trial_index","time_elapsed","internal_node_id","subjID","study","MID","cond","drift","rt","responses","key_press","expt_phase","like","value","connected","gems","bombs","no_reward","GemPrChosen","BombPrChosen","GainOverPainPr_0","GainOverPainPr_1","GainOverPainPr_2","GainOverPainPr_3","LosePr_0","LosePr_1","LosePr_2","LosePr_3","WinPr_0","WinPr_1","WinPr_2","WinPr_3","Q0","Q1","Q2","gender","age","ethnicity","target","respCharCode","respKey","respChoiceNum","respChoice","practice","trial_counter","trial_label","button_pressed"
"INL_behavioral_consent_30min_online.html","consent","0","8462","0.0-0.0","25740675","wem/bandit_either_3","A58QOLDFC179Q","either","5","","","","","","","","","","","","","","","","","","","","","","","","","","","","","","","","","","","","","","",""
"","survey-text","1","11587","0.0-1.0","25740675","wem/bandit_either_3","A58QOLDFC179Q","either","5","2118","{""Q0"":""A58QOLDFC179Q""}","","","","","","","","","","","","","","","","","","","","","","","","","","","","","","","","","","","","",""
"","text","2","27754","0.0-2.0","25740675","wem/bandit_either_3","A58QOLDFC179Q","either","5","15164","","32","","","","","","","","","","","","","","","","","","","","","","","","","","","","","","","","","","","",""
"","text","3","47137","0.0-3.0","25740675","wem/bandit_either_3","A58QOLDFC179Q","either","5","19381","","32","","","","","","","","","","","","","","","","","","","","","","","","","","","","","","","","","","","",""
"","text","4","122630","0.0-4.0","25740675","wem/bandit_either_3","A58QOLDFC179Q","either","5","75492","","32","","","","","","","","","","","","","","","","","","","","","","","","","","","","","","","","","","","",""
"","text","5","139698","0.0-5.0","25740675","wem/bandit_either_3","A58QOLDFC179Q","either","5","17067","","32","","","","","","","","","","","","","","","","","","","","","","","","","","","","","","","","","","","",""
"","text","6","149508","0.0-6.0","25740675","wem/bandit_either_3","A58QOLDFC179Q","either","5","9809","","32","","","","","","","","","","","","","","","","","","","","","","","","","","","","","","","","","","","",""
"","text","7","172695","0.0-7.0","25740675","wem/bandit_either_3","A58QOLDFC179Q","either","5","23185","","32","","","","","","","","","","","","","","","","","","","","","","","","","","","","","","","","","","","",""
"","text","8","176715","0.0-8.0","25740675","wem/bandit_either_3","A58QOLDFC179Q","either","5","4019","","32","","","","","","","","","","","","","","","","","","","","","","","","","","","","","","","","","","","",""
"","identification","9","185507","0.0-9.0-0.0","25740675","wem/bandit_either_3","A58QOLDFC179Q","either","5","8781","","","","5","5","5","","","","","","","","","","","","","","","","","","","","","","","","the village of Zur","","","","","","","",""
"","identification","10","193824","0.0-9.0-1.0","25740675","wem/bandit_either_3","A58QOLDFC179Q","either","5","7309","","","","3","3","3","","","","","","","","","","","","","","","","","","","","","","","","the village of Nyx","","","","","","","",""
"","text","11","199238","0.0-10.0","25740675","wem/bandit_either_3","A58QOLDFC179Q","either","5","4401","","32","","","","","","","","","","","","","","","","","","","","","","","","","","","","","","","","","","","",""
"","text","12","202308","0.0-11.0","25740675","wem/bandit_either_3","A58QOLDFC179Q","either","5","3069","","32","","","","","","","","","","","","","","","","","","","","","","","","","","","","","","","","","","","",""
"","text","13","207739","0.0-12.0","25740675","wem/bandit_either_3","A58QOLDFC179Q","either","5","5430","","32","","","","","","","","","","","","","","","","","","","","","","","","","","","","","","","","","","","",""
"","text","14","211068","0.0-13.0","25740675","wem/bandit_either_3","A58QOLDFC179Q","either","5","3329","","32","","","","","","","","","","","","","","","","","","","","","","","","","","","","","","","","","","","",""
"","bandit","15","215370","0.0-14.0-0.0","25740675","wem/bandit_either_3","A58QOLDFC179Q","either","5","2787","","","","","","","0","0","1","0","0","","","","","0","","","","0","","","","","","","","","","","74","J","0","img/none_selected_demo.jpg","true","0","",""
"","bandit","16","218486","0.0-15.0-0.0","25740675","wem/bandit_either_3","A58QOLDFC179Q","either","5","1596","","","","","","","0","0","1","0","0","","","","","0","","","","0","","","","","","","","","","","75","K","0","img/none_selected_demo.jpg","true","0","",""
"","text","17","221448","0.0-16.0","25740675","wem/bandit_either_3","A58QOLDFC179Q","either","5","2960","","32","","","","","","","","","","","","","","","","","","","","","","","","","","","","","","","","","","","",""
"","text","18","231619","0.0-17.0","25740675","wem/bandit_either_3","A58QOLDFC179Q","either","5","10170","","32","","","","","","","","","","","","","","","","","","","","","","","","","","","","","","","","","","","",""
"","text","19","235968","0.0-18.0","25740675","wem/bandit_either_3","A58QOLDFC179Q","either","5","4348","","32","","","","","","","","","","","","","","","","","","","","","","","","","","","","","","","","","","","",""
"","text","20","240508","0.0-19.0","25740675","wem/bandit_either_3","A58QOLDFC179Q","either","5","4538","","32","","","","","","","","","","","","","","","","","","","","","","","","","","","","","","","","","","","",""
"","bandit","21","243426","0.0-20.0-0.0","25740675","wem/bandit_either_3","A58QOLDFC179Q","either","5","1409","","","","","","","0","0","1","","0.2","0.5","0.5","","","0.8","0.2","","","","","","","","","","","","","","75","K","1","","true","0","80_20_practice",""
"","bandit","22","245778","0.0-20.0-1.0","25740675","wem/bandit_either_3","A58QOLDFC179Q","either","5","818","","","","","","","1","0","0","0.8","","0.5","0.5","","","","","","","0.8","0.2","","","","","","","","","","74","J","0","img/none_selected_demo.jpg","true","0","80_20_practice",""
"","bandit","23","247838","0.0-20.0-2.0","25740675","wem/bandit_either_3","A58QOLDFC179Q","either","5","538","","","","","","","0","0","1","0.8","","0.5","0.5","","","","","","","0.8","0.2","","","","","","","","","","74","J","0","img/none_selected_demo.jpg","true","0","80_20_practice",""
"","bandit","24","249944","0.0-20.0-3.0","25740675","wem/bandit_either_3","A58QOLDFC179Q","either","5","587","","","","","","","0","0","1","0.8","","0.5","0.5","","","","","","","0.8","0.2","","","","","","","","","","74","J","0","img/none_selected_demo.jpg","true","0","80_20_practice",""
"","bandit","25","252045","0.0-20.0-4.0","25740675","wem/bandit_either_3","A58QOLDFC179Q","either","5","592","","","","","","","1","0","0","0.8","","0.5","0.5","","","","","","","0.8","0.2","","","","","","","","","","74","J","0","img/none_selected_demo.jpg","true","0","80_20_practice",""
"","bandit","26","254218","0.0-20.0-5.0","25740675","wem/bandit_either_3","A58QOLDFC179Q","either","5","661","","","","","","","0","0","1","","0.2","0.5","0.5","","","0.8","0.2","","","","","","","","","","","","","","75","K","1","","true","0","80_20_practice",""
"","bandit","27","256301","0.0-20.0-6.0","25740675","wem/bandit_either_3","A58QOLDFC179Q","either","5","558","","","","","","","0","0","1","","0.2","0.5","0.5","","","0.8","0.2","","","","","","","","","","","","","","75","K","1","","true","0","80_20_practice",""
"","bandit","28","258510","0.0-20.0-7.0","25740675","wem/bandit_either_3","A58QOLDFC179Q","either","5","694","","","","","","","0","0","1","0.2","","0.5","0.5","","","","","","","0.8","0.2","","","","","","","","","","75","K","1","","true","0","80_20_practice",""
"","bandit","29","260765","0.0-20.0-8.0","25740675","wem/bandit_either_3","A58QOLDFC179Q","either","5","745","","","","","","","0","1","0","","0.8","0.5","0.5","","","0.8","0.2","","","","","","","","","","","","","","74","J","0","img/none_selected_demo.jpg","true","0","80_20_practice",""
"","bandit","30","262976","0.0-20.0-9.0","25740675","wem/bandit_either_3","A58QOLDFC179Q","either","5","691","","","","","","","0","0","1","","0.2","0.5","0.5","","","0.8","0.2","","","","","","","","","","","","","","75","K","1","","true","0","80_20_practice",""
"","bandit","31","265070","0.0-20.0-10.0","25740675","wem/bandit_either_3","A58QOLDFC179Q","either","5","580","","","","","","","0","0","1","0.2","","0.5","0.5","","","","","","","0.8","0.2","","","","","","","","","","75","K","1","","true","0","80_20_practice",""
"","bandit","32","266999","0.0-20.0-11.0","25740675","wem/bandit_either_3","A58QOLDFC179Q","either","5","405","","","","","","","1","0","0","0.8","","0.5","0.5","","","","","","","0.8","0.2","","","","","","","","","","74","J","0","img/none_selected_demo.jpg","true","0","80_20_practice",""
"","bandit","33","269011","0.0-20.0-12.0","25740675","wem/bandit_either_3","A58QOLDFC179Q","either","5","507","","","","","","","0","1","0","","0.8","0.5","0.5","","","0.8","0.2","","","","","","","","","","","","","","74","J","0","img/none_selected_demo.jpg","true","0","80_20_practice",""
"","bandit","34","270854","0.0-20.0-13.0","25740675","wem/bandit_either_3","A58QOLDFC179Q","either","5","334","","","","","","","1","0","0","0.8","","0.5","0.5","","","","","","","0.8","0.2","","","","","","","","","","74","J","0","img/none_selected_demo.jpg","true","0","80_20_practice",""
"","bandit","35","272909","0.0-20.0-14.0","25740675","wem/bandit_either_3","A58QOLDFC179Q","either","5","540","","","","","","","0","0","1","0.2","","0.5","0.5","","","","","","","0.8","0.2","","","","","","","","","","75","K","1","","true","0","80_20_practice",""
"","bandit","36","274716","0.0-20.0-15.0","25740675","wem/bandit_either_3","A58QOLDFC179Q","either","5","296","","","","","","","0","1","0","","0.8","0.5","0.5","","","0.8","0.2","","","","","","","","","","","","","","74","J","0","img/none_selected_demo.jpg","true","0","80_20_practice",""
"","bandit","37","276585","0.0-20.0-16.0","25740675","wem/bandit_either_3","A58QOLDFC179Q","either","5","350","","","","","","","0","1","0","","0.8","0.5","0.5","","","0.8","0.2","","","","","","","","","","","","","","74","J","0","img/none_selected_demo.jpg","true","0","80_20_practice",""
"","bandit","38","278492","0.0-20.0-17.0","25740675","wem/bandit_either_3","A58QOLDFC179Q","either","5","400","","","","","","","0","0","1","0.2","","0.5","0.5","","","","","","","0.8","0.2","","","","","","","","","","75","K","1","","true","0","80_20_practice",""
"","bandit","39","280473","0.0-20.0-18.0","25740675","wem/bandit_either_3","A58QOLDFC179Q","either","5","464","","","","","","","0","1","0","","0.8","0.5","0.5","","","0.8","0.2","","","","","","","","","","","","","","74","J","0","img/none_selected_demo.jpg","true","0","80_20_practice",""
"","bandit","40","282440","0.0-20.0-19.0","25740675","wem/bandit_either_3","A58QOLDFC179Q","either","5","453","","","","","","","1","0","0","0.8","","0.5","0.5","","","","","","","0.8","0.2","","","","","","","","","","74","J","0","img/none_selected_demo.jpg","true","0","80_20_practice",""
"","text","41","287199","0.0-21.0","25740675","wem/bandit_either_3","A58QOLDFC179Q","either","5","4757","","32","","","","","","","","","","","","","","","","","","","","","","","","","","","","","","","","","","","",""
"","bandit","42","290443","0.0-22.0-0.0","25740675","wem/bandit_either_3","A58QOLDFC179Q","either","5","1737","","","","","","","1","0","0","1","0","","","","","0","1","","","1","0","","","","","","","","","","74","J","0","img/none_selected_demo.jpg","true","0","",""
"","text","43","293847","0.0-23.0","25740675","wem/bandit_either_3","A58QOLDFC179Q","either","5","3403","","32","","","","","","","","","","","","","","","","","","","","","","","","","","","","","","","","","","","",""
"","text","44","298338","0.0-24.0","25740675","wem/bandit_either_3","A58QOLDFC179Q","either","5","4489","","32","","","","","","","","","","","","","","","","","","","","","","","","","","","","","","","","","","","",""
"","text","45","305958","0.0-25.0","25740675","wem/bandit_either_3","A58QOLDFC179Q","either","5","7618","","32","","","","","","","","","","","","","","","","","","","","","","","","","","","","","","","","","","","",""
"","text","46","310658","0.0-26.0","25740675","wem/bandit_either_3","A58QOLDFC179Q","either","5","4699","","32","","","","","","","","","","","","","","","","","","","","","","","","","","","","","","","","","","","",""
"","text","47","320018","0.0-27.0","25740675","wem/bandit_either_3","A58QOLDFC179Q","either","5","9357","","32","","","","","","","","","","","","","","","","","","","","","","","","","","","","","","","","","","","",""
"","text","48","324008","0.0-28.0","25740675","wem/bandit_either_3","A58QOLDFC179Q","either","5","3989","","32","","","","","","","","","","","","","","","","","","","","","","","","","","","","","","","","","","","",""
"","text","49","326757","0.0-29.0","25740675","wem/bandit_either_3","A58QOLDFC179Q","either","5","2748","","32","","","","","","","","","","","","","","","","","","","","","","","","","","","","","","","","","","","",""
"","text","50","333197","0.0-30.0","25740675","wem/bandit_either_3","A58QOLDFC179Q","either","5","6439","","32","","","","","","","","","","","","","","","","","","","","","","","","","","","","","","","","","","","",""
"","text","51","337118","0.0-31.0","25740675","wem/bandit_either_3","A58QOLDFC179Q","either","5","3920","","32","","","","","","","","","","","","","","","","","","","","","","","","","","","","","","","","","","","",""
"","text","52","340887","0.0-32.0","25740675","wem/bandit_either_3","A58QOLDFC179Q","either","5","3768","","32","","","","","","","","","","","","","","","","","","","","","","","","","","","","","","","","","","","",""
"","text","53","344238","0.0-33.0","25740675","wem/bandit_either_3","A58QOLDFC179Q","either","5","3348","","32","","","","","","","","","","","","","","","","","","","","","","","","","","","","","","","","","","","",""
"","bandit","54","347153","0.0-34.0-0.0","25740675","wem/bandit_either_3","A58QOLDFC179Q","either","5","1397","","","","","","","0","0","1","","0.2","0.5","0.5","0.5","0.5","0.8","0.2","0.6","0.2","","","","","","","","","","","","74","J","1","","true","0","full_practice",""
"","bandit","55","350103","0.0-34.0-1.0","25740675","wem/bandit_either_3","A58QOLDFC179Q","either","5","1423","","","","","","","0","0","1","0.2","","0.5","0.5","0.5","0.5","","","","","0.8","0.2","0.6","0.2","","","","","","","","76","L","3","","true","0","full_practice",""
"","bandit","56","352630","0.0-34.0-2.0","25740675","wem/bandit_either_3","A58QOLDFC179Q","either","5","1022","","","","","","","1","0","0","0.8","","0.5","0.5","0.5","0.5","","","","","0.8","0.2","0.6","0.2","","","","","","","","72","H","0","img/none_selected.jpg","true","0","full_practice",""
"","bandit","57","355222","0.0-34.0-3.0","25740675","wem/bandit_either_3","A58QOLDFC179Q","either","5","1075","","","","","","","1","0","0","0.6","","0.5","0.5","0.5","0.5","","","","","0.8","0.2","0.6","0.2","","","","","","","","75","K","2","","true","0","full_practice",""
"","bandit","58","358662","0.0-34.0-4.0","25740675","wem/bandit_either_3","A58QOLDFC179Q","either","5","1913","","","","","","","0","1","0","","0.2","0.5","0.5","0.5","0.5","0.8","0.2","0.6","0.2","","","","","","","","","","","","74","J","1","","true","0","full_practice",""
"","bandit","59","361540","0.0-34.0-5.0","25740675","wem/bandit_either_3","A58QOLDFC179Q","either","5","1365","","","","","","","0","0","1","","0.2","0.5","0.5","0.5","0.5","0.8","0.2","0.6","0.2","","","","","","","","","","","","74","J","1","","true","0","full_practice",""
"","bandit","60","363838","0.0-34.0-6.0","25740675","wem/bandit_either_3","A58QOLDFC179Q","either","5","776","","","","","","","0","0","1","0.2","","0.5","0.5","0.5","0.5","","","","","0.8","0.2","0.6","0.2","","","","","","","","76","L","3","","true","0","full_practice",""
"","bandit","61","366095","0.0-34.0-7.0","25740675","wem/bandit_either_3","A58QOLDFC179Q","either","5","747","","","","","","","0","0","1","","0.2","0.5","0.5","0.5","0.5","0.8","0.2","0.6","0.2","","","","","","","","","","","","76","L","3","","true","0","full_practice",""
"","bandit","62","368209","0.0-34.0-8.0","25740675","wem/bandit_either_3","A58QOLDFC179Q","either","5","609","","","","","","","0","0","1","","0.2","0.5","0.5","0.5","0.5","0.8","0.2","0.6","0.2","","","","","","","","","","","","76","L","3","","true","0","full_practice",""
"","bandit","63","370442","0.0-34.0-9.0","25740675","wem/bandit_either_3","A58QOLDFC179Q","either","5","716","","","","","","","0","1","0","","0.8","0.5","0.5","0.5","0.5","0.8","0.2","0.6","0.2","","","","","","","","","","","","72","H","0","img/none_selected.jpg","true","0","full_practice",""
"","bandit","64","372347","0.0-34.0-10.0","25740675","wem/bandit_either_3","A58QOLDFC179Q","either","5","384","","","","","","","0","0","1","0.2","","0.5","0.5","0.5","0.5","","","","","0.8","0.2","0.6","0.2","","","","","","","","74","J","1","","true","0","full_practice",""
"","bandit","65","374248","0.0-34.0-11.0","25740675","wem/bandit_either_3","A58QOLDFC179Q","either","5","368","","","","","","","1","0","0","0.6","","0.5","0.5","0.5","0.5","","","","","0.8","0.2","0.6","0.2","","","","","","","","75","K","2","","true","0","full_practice",""
"","bandit","66","376087","0.0-34.0-12.0","25740675","wem/bandit_either_3","A58QOLDFC179Q","either","5","326","","","","","","","0","0","1","0.2","","0.5","0.5","0.5","0.5","","","","","0.8","0.2","0.6","0.2","","","","","","","","76","L","3","","true","0","full_practice",""
"","bandit","67","378478","0.0-34.0-13.0","25740675","wem/bandit_either_3","A58QOLDFC179Q","either","5","877","","","","","","","0","0","1","","0.6","0.5","0.5","0.5","0.5","0.8","0.2","0.6","0.2","","","","","","","","","","","","75","K","2","","true","0","full_practice",""
"","bandit","68","380278","0.0-34.0-14.0","25740675","wem/bandit_either_3","A58QOLDFC179Q","either","5","286","","","","","","","0","0","1","0.2","","0.5","0.5","0.5","0.5","","","","","0.8","0.2","0.6","0.2","","","","","","","","76","L","3","","true","0","full_practice",""
"","bandit","69","382248","0.0-34.0-15.0","25740675","wem/bandit_either_3","A58QOLDFC179Q","either","5","457","","","","","","","0","0","1","0.2","","0.5","0.5","0.5","0.5","","","","","0.8","0.2","0.6","0.2","","","","","","","","74","J","1","","true","0","full_practice",""
"","bandit","70","384507","0.0-34.0-16.0","25740675","wem/bandit_either_3","A58QOLDFC179Q","either","5","746","","","","","","","1","0","0","0.2","","0.5","0.5","0.5","0.5","","","","","0.8","0.2","0.6","0.2","","","","","","","","74","J","1","","true","0","full_practice",""
"","bandit","71","386831","0.0-34.0-17.0","25740675","wem/bandit_either_3","A58QOLDFC179Q","either","5","798","","","","","","","0","0","1","","0.8","0.5","0.5","0.5","0.5","0.8","0.2","0.6","0.2","","","","","","","","","","","","72","H","0","img/none_selected.jpg","true","0","full_practice",""
"","bandit","72","388763","0.0-34.0-18.0","25740675","wem/bandit_either_3","A58QOLDFC179Q","either","5","426","","","","","","","0","0","1","0.6","","0.5","0.5","0.5","0.5","","","","","0.8","0.2","0.6","0.2","","","","","","","","75","K","2","","true","0","full_practice",""
"","bandit","73","390547","0.0-34.0-19.0","25740675","wem/bandit_either_3","A58QOLDFC179Q","either","5","272","","","","","","","0","0","1","0.2","","0.5","0.5","0.5","0.5","","","","","0.8","0.2","0.6","0.2","","","","","","","","76","L","3","","true","0","full_practice",""
"","text","74","394489","0.0-35.0","25740675","wem/bandit_either_3","A58QOLDFC179Q","either","5","3938","","32","","","","","","","","","","","","","","","","","","","","","","","","","","","","","","","","","","","",""
"","text","75","403318","0.0-36.0","25740675","wem/bandit_either_3","A58QOLDFC179Q","either","5","7824","","32","","","","","","","","","","","","","","","","","","","","","","","","","","","","","","","","","","","",""
"","text","76","405078","0.0-37.0","25740675","wem/bandit_either_3","A58QOLDFC179Q","either","5","1758","","32","","","","","","","","","","","","","","","","","","","","","","","","","","","","","","","","","","","",""
"","text","77","412167","0.0-38.0","25740675","wem/bandit_either_3","A58QOLDFC179Q","either","5","7088","","32","","","","","","","","","","","","","","","","","","","","","","","","","","","","","","","","","","","",""
"","text","78","421669","0.0-39.0","25740675","wem/bandit_either_3","A58QOLDFC179Q","either","5","9500","","32","","","","","","","","","","","","","","","","","","","","","","","","","","","","","","","","","","","",""
"","text","79","426837","0.0-40.0","25740675","wem/bandit_either_3","A58QOLDFC179Q","either","5","5167","","32","","","","","","","","","","","","","","","","","","","","","","","","","","","","","","","","","","","",""
"","bandit","80","429678","0.0-41.0-0.0","25740675","wem/bandit_either_3","A58QOLDFC179Q","either","5","1327","","","","","","","0","0","1","0.4253928501","","0.6","0.2","0.8","0.4","","","","","0.4909711759","0.4253928501","0.32692793","0.6131215568","","","","","","","","74","J","1","","","1","main_expt",""
"","bandit","81","431592","0.0-42.0-0.0","25740675","wem/bandit_either_3","A58QOLDFC179Q","either","5","396","","","","","","","0","0","1","","0.3068321923","0.6","0.2","0.8","0.4","0.5514346198","0.5447097682","0.3068321923","0.6783759564","","","","","","","","","","","","75","K","2","","","2","main_expt",""
"","bandit","82","433550","0.0-43.0-0.0","25740675","wem/bandit_either_3","A58QOLDFC179Q","either","5","434","","","","","","","0","0","1","0.6535049038","","0.6","0.2","0.8","0.4","","","","","0.5966913043","0.5631376832","0.2871808385","0.6535049038","","","","","","","","76","L","3","","","3","main_expt",""
"","bandit","83","435297","0.0-44.0-0.0","25740675","wem/bandit_either_3","A58QOLDFC179Q","either","5","234","","","","","","","0","0","1","0.3062311279","","0.6","0.2","0.8","0.4","","","","","0.6236804691","0.5889355808","0.3062311279","0.5433476707","","","","","","","","75","K","2","","","4","main_expt",""
"","bandit","84","437104","0.0-45.0-0.0","25740675","wem/bandit_either_3","A58QOLDFC179Q","either","5","288","","","","","","","0","0","1","","0.2453374439","0.6","0.2","0.8","0.4","0.5844938386","0.6125363118","0.2453374439","0.4256320799","","","","","","","","","","","","75","K","2","","","5","main_expt",""
"","bandit","85","438764","0.0-46.0-0.0","25740675","wem/bandit_either_3","A58QOLDFC179Q","either","5","141","","","","","","","0","0","1","0.4097031487","","0.6","0.2","0.8","0.4","","","","","0.4929788692","0.5204159956","0.2258644136","0.4097031487","","","","","","","","76","L","3","","","6","main_expt",""
"","bandit","86","440674","0.0-47.0-0.0","25740675","wem/bandit_either_3","A58QOLDFC179Q","either","5","401","","","","","","","0","0","1","0.3978044106","","0.6","0.2","0.8","0.4","","","","","0.3978044106","0.5949894572","0.2251512132","0.4614862243","","","","","","","","72","H","0","img/none_selected.jpg","","7","main_expt",""
"","bandit","87","442504","0.0-48.0-0.0","25740675","wem/bandit_either_3","A58QOLDFC179Q","either","5","320","","","","","","","1","0","0","0.5080346622","","0.6","0.2","0.8","0.4","","","","","0.5080346622","0.7043393759","0.1597376121","0.4305419438","","","","","","","","72","H","0","img/none_selected.jpg","","8","main_expt",""
"","bandit","88","444400","0.0-49.0-0.0","25740675","wem/bandit_either_3","A58QOLDFC179Q","either","5","363","","","","","","","0","0","1","0.1395884133","","0.6","0.2","0.8","0.4","","","","","0.440708512","0.6866437556","0.1395884133","0.6000641755","","","","","","","","75","K","2","","","9","main_expt",""
"","bandit","89","446173","0.0-50.0-0.0","25740675","wem/bandit_either_3","A58QOLDFC179Q","either","5","254","","","","","","","1","0","0","0.6743415364","","0.6","0.2","0.8","0.4","","","","","0.4862198985","0.6743415364","0.1529628815","0.66675231","","","","","","","","74","J","1","","","10","main_expt",""
"","bandit","90","448319","0.0-51.0-0.0","25740675","wem/bandit_either_3","A58QOLDFC179Q","either","5","621","","","","","","","1","0","0","0.1918890603","","0.6","0.2","0.8","0.4","","","","","0.4942886423","0.6907290289","0.1918890603","0.538431352","","","","","","","","75","K","2","","","11","main_expt",""
"","bandit","91","450052","0.0-52.0-0.0","25740675","wem/bandit_either_3","A58QOLDFC179Q","either","5","226","","","","","","","0","1","0","","0.5683478731","0.6","0.2","0.8","0.4","0.4999864232","0.7254617755","0.1412308375","0.5683478731","","","","","","","","","","","","76","L","3","","","12","main_expt",""
"","bandit","92","451965","0.0-53.0-0.0","25740675","wem/bandit_either_3","A58QOLDFC179Q","either","5","393","","","","","","","0","0","1","","0.5870071372","0.6","0.2","0.8","0.4","0.3945724157","0.7533793381","0.1854965676","0.5870071372","","","","","","","","","","","","76","L","3","","","13","main_expt",""
"","bandit","93","453866","0.0-54.0-0.0","25740675","wem/bandit_either_3","A58QOLDFC179Q","either","5","380","","","","","","","0","0","1","0.2200151947","","0.6","0.2","0.8","0.4","","","","","0.458684297","0.6909187676","0.2200151947","0.3389967741","","","","","","","","75","K","2","","","14","main_expt",""
"","bandit","94","455523","0.0-55.0-0.0","25740675","wem/bandit_either_3","A58QOLDFC179Q","either","5","139","","","","","","","0","0","1","","0.2927381815","0.6","0.2","0.8","0.4","0.5338449271","0.7916820586","0.1497743902","0.2927381815","","","","","","","","","","","","76","L","3","","","15","main_expt",""
"","bandit","95","457588","0.0-56.0-0.0","25740675","wem/bandit_either_3","A58QOLDFC179Q","either","5","542","","","","","","","0","1","0","","0.7991661796","0.6","0.2","0.8","0.4","0.6821016448","0.7991661796","0.1767244745","0.2268478953","","","","","","","","","","","","74","J","1","","","16","main_expt",""
"","bandit","96","459404","0.0-57.0-0.0","25740675","wem/bandit_either_3","A58QOLDFC179Q","either","5","285","","","","","","","0","1","0","","0.6963612506","0.6","0.2","0.8","0.4","0.6963612506","0.7352739439","0.1953364786","0.2364877179","","","","","","","","","","","","72","H","0","img/none_selected.jpg","","17","main_expt",""
"","bandit","97","461263","0.0-58.0-0.0","25740675","wem/bandit_either_3","A58QOLDFC179Q","either","5","330","","","","","","","1","0","0","0.7035779666","","0.6","0.2","0.8","0.4","","","","","0.7035779666","0.6911569498","0.139355503","0.280777314","","","","","","","","72","H","0","img/none_selected.jpg","","18","main_expt",""
"","bandit","98","463248","0.0-59.0-0.0","25740675","wem/bandit_either_3","A58QOLDFC179Q","either","5","461","","","","","","","0","0","1","","0.129677489","0.6","0.2","0.8","0.4","0.677086514","0.6372159304","0.129677489","0.3280428268","","","","","","","","","","","","75","K","2","","","19","main_expt",""
"","bandit","99","465007","0.0-60.0-0.0","25740675","wem/bandit_either_3","A58QOLDFC179Q","either","5","245","","","","","","","0","1","0","","0.213865824","0.6","0.2","0.8","0.4","0.5211019236","0.5917564331","0.1584506979","0.213865824","","","","","","","","","","","","76","L","3","","","20","main_expt",""
"","bandit","100","467267","0.0-61.0-0.0","25740675","wem/bandit_either_3","A58QOLDFC179Q","either","5","735","","","","","","","0","1","0","","0.6351733259","0.6","0.2","0.8","0.4","0.6040081297","0.6351733259","0.1934985877","0.2755747612","","","","","","","","","","","","74","J","1","","","21","main_expt",""
"","bandit","101","469063","0.0-62.0-0.0","25740675","wem/bandit_either_3","A58QOLDFC179Q","either","5","268","","","","","","","0","0","1","0.1184813826","","0.6","0.2","0.8","0.4","","","","","0.5276460007","0.57448168","0.1184813826","0.3096891892","","","","","","","","75","K","2","","","22","main_expt",""
"","bandit","102","470852","0.0-63.0-0.0","25740675","wem/bandit_either_3","A58QOLDFC179Q","either","5","261","","","","","","","0","0","1","","0.1855444332","0.6","0.2","0.8","0.4","0.4373756081","0.532235281","0.1387482349","0.1855444332","","","","","","","","","","","","76","L","3","","","23","main_expt",""
"","bandit","103","472749","0.0-64.0-0.0","25740675","wem/bandit_either_3","A58QOLDFC179Q","either","5","373","","","","","","","0","0","1","0.4051577966","","0.6","0.2","0.8","0.4","","","","","0.4051577966","0.4695599312","0.1275075135","0.2026045625","","","","","","","","72","H","0","img/none_selected.jpg","","24","main_expt",""
"","bandit","104","474714","0.0-65.0-0.0","25740675","wem/bandit_either_3","A58QOLDFC179Q","either","5","454","","","","","","","0","0","1","0.3710761786","","0.6","0.2","0.8","0.4","","","","","0.3583026632","0.3710761786","0.1324238285","0.2610081957","","","","","","","","74","J","1","","","25","main_expt",""
"","bandit","105","476602","0.0-66.0-0.0","25740675","wem/bandit_either_3","A58QOLDFC179Q","either","5","372","","","","","","","0","0","1","0.4070676783","","0.6","0.2","0.8","0.4","","","","","0.4070676783","0.3104834237","0.2222282692","0.2068764453","","","","","","","","72","H","0","img/none_selected.jpg","","26","main_expt",""
"","bandit","106","478480","0.0-67.0-0.0","25740675","wem/bandit_either_3","A58QOLDFC179Q","either","5","362","","","","","","","0","0","1","0.2367528544","","0.6","0.2","0.8","0.4","","","","","0.3962805628","0.4250638914","0.2367528544","0.1387354037","","","","","","","","75","K","2","","","27","main_expt",""
"","bandit","107","480159","0.0-68.0-0.0","25740675","wem/bandit_either_3","A58QOLDFC179Q","either","5","165","","","","","","","0","0","1","","0.2065421522","0.6","0.2","0.8","0.4","0.3381264529","0.3738912408","0.1581712713","0.2065421522","","","","","","","","","","","","76","L","3","","","28","main_expt",""
"","bandit","108","481911","0.0-69.0-0.0","25740675","wem/bandit_either_3","A58QOLDFC179Q","either","5","236","","","","","","","0","0","1","","0.2452437498","0.6","0.2","0.8","0.4","0.3405446746","0.411092256","0.2361440946","0.2452437498","","","","","","","","","","","","76","L","3","","","29","main_expt",""
"","bandit","109","483717","0.0-70.0-0.0","25740675","wem/bandit_either_3","A58QOLDFC179Q","either","5","295","","","","","","","0","0","1","","0.3076129501","0.6","0.2","0.8","0.4","0.3536414415","0.306262239","0.3051502752","0.3076129501","","","","","","","","","","","","76","L","3","","","30","main_expt",""
"","bandit","110","485449","0.0-71.0-0.0","25740675","wem/bandit_either_3","A58QOLDFC179Q","either","5","199","","","","","","","0","0","1","","0.2846857217","0.6","0.2","0.8","0.4","0.3201297868","0.2846857217","0.3588845582","0.275744379","","","","","","","","","","","","74","J","1","","","31","main_expt",""
"","bandit","111","487158","0.0-72.0-0.0","25740675","wem/bandit_either_3","A58QOLDFC179Q","either","5","184","","","","","","","0","0","1","0.3351264969","","0.6","0.2","0.8","0.4","","","","","0.414050106","0.260797537","0.3351264969","0.1582224348","","","","","","","","75","K","2","","","32","main_expt",""
"","bandit","112","488857","0.0-73.0-0.0","25740675","wem/bandit_either_3","A58QOLDFC179Q","either","5","177","","","","","","","0","0","1","","0.3108282978","0.6","0.2","0.8","0.4","0.4846208784","0.3108282978","0.3369799553","0.07234251762","","","","","","","","","","","","74","J","1","","","33","main_expt",""
"","bandit","113","490909","0.0-74.0-0.0","25740675","wem/bandit_either_3","A58QOLDFC179Q","either","5","528","","","","","","","0","0","1","0.3040676539","","0.6","0.2","0.8","0.4","","","","","0.4250330595","0.3996464291","0.3040676539","0.07244310326","","","","","","","","75","K","2","","","34","main_expt",""
"","bandit","114","492836","0.0-75.0-0.0","25740675","wem/bandit_either_3","A58QOLDFC179Q","either","5","406","","","","","","","0","0","1","0.499329675","","0.6","0.2","0.8","0.4","","","","","0.499329675","0.4368131495","0.2974236485","0.07140094546","","","","","","","","72","H","0","img/none_selected.jpg","","35","main_expt",""
"","bandit","115","494675","0.0-76.0-0.0","25740675","wem/bandit_either_3","A58QOLDFC179Q","either","5","329","","","","","","","0","1","0","","0.3892953339","0.6","0.2","0.8","0.4","0.3892953339","0.3396719642","0.310238309","0.08624361683","","","","","","","","","","","","72","H","0","img/none_selected.jpg","","36","main_expt",""
"","bandit","116","496562","0.0-77.0-0.0","25740675","wem/bandit_either_3","A58QOLDFC179Q","either","5","358","","","","","","","0","1","0","","0.3680424748","0.6","0.2","0.8","0.4","0.3680424748","0.4409026667","0.2818719109","0.07543251018","","","","","","","","","","","","72","H","0","img/none_selected.jpg","","37","main_expt",""
"","bandit","117","498399","0.0-78.0-0.0","25740675","wem/bandit_either_3","A58QOLDFC179Q","either","5","331","","","","","","","0","0","1","0.4909804269","","0.6","0.2","0.8","0.4","","","","","0.4909804269","0.489392614","0.2925765749","0.1324785543","","","","","","","","72","H","0","img/none_selected.jpg","","38","main_expt",""
"","bandit","118","500163","0.0-79.0-0.0","25740675","wem/bandit_either_3","A58QOLDFC179Q","either","5","234","","","","","","","0","0","1","","0.5165168671","0.6","0.2","0.8","0.4","0.5165168671","0.4403114744","0.3033582507","0.1824024676","","","","","","","","","","","","72","H","0","img/none_selected.jpg","","39","main_expt",""
"","bandit","119","501902","0.0-80.0-0.0","25740675","wem/bandit_either_3","A58QOLDFC179Q","either","5","220","","","","","","","0","1","0","","0.6036007873","0.6","0.2","0.8","0.4","0.6036007873","0.343221944","0.2371445562","0.09861269436","","","","","","","","","","","","72","H","0","img/none_selected.jpg","","40","main_expt",""
"","bandit","120","503753","0.0-81.0-0.0","25740675","wem/bandit_either_3","A58QOLDFC179Q","either","5","332","","","","","","","1","0","0","0.6078828369","","0.6","0.2","0.8","0.4","","","","","0.6078828369","0.450343793","0.2072661203","0.1028082326","","","","","","","","72","H","0","img/none_selected.jpg","","41","main_expt",""
"","bandit","121","505562","0.0-82.0-0.0","25740675","wem/bandit_either_3","A58QOLDFC179Q","either","5","302","","","","","","","1","0","0","0.5757077757","","0.6","0.2","0.8","0.4","","","","","0.5757077757","0.4422822993","0.1850700716","0.1326350751","","","","","","","","72","H","0","img/none_selected.jpg","","42","main_expt",""
"","bandit","122","507438","0.0-83.0-0.0","25740675","wem/bandit_either_3","A58QOLDFC179Q","either","5","351","","","","","","","0","0","1","0.504524575","","0.6","0.2","0.8","0.4","","","","","0.504524575","0.4755437476","0.1700345657","0.1591685393","","","","","","","","72","H","0","img/none_selected.jpg","","43","main_expt",""
"","bandit","123","509264","0.0-84.0-0.0","25740675","wem/bandit_either_3","A58QOLDFC179Q","either","5","297","","","","","","","0","0","1","","0.6211160782","0.6","0.2","0.8","0.4","0.3354744533","0.6211160782","0.150922449","0.1558361793","","","","","","","","","","","","74","J","1","","","44","main_expt",""
"","bandit","124","511060","0.0-85.0-0.0","25740675","wem/bandit_either_3","A58QOLDFC179Q","either","5","273","","","","","","","0","1","0","","0.5950963145","0.6","0.2","0.8","0.4","0.2259933845","0.5950963145","0.08792573626","0.08224127908","","","","","","","","","","","","74","J","1","","","45","main_expt",""
"","bandit","125","512822","0.0-86.0-0.0","25740675","wem/bandit_either_3","A58QOLDFC179Q","either","5","233","","","","","","","0","1","0","","0.600883672","0.6","0.2","0.8","0.4","0.1991815266","0.600883672","0.05210962111","0.05681632526","","","","","","","","","","","","74","J","1","","","46","main_expt",""
"","bandit","126","514479","0.0-87.0-0.0","25740675","wem/bandit_either_3","A58QOLDFC179Q","either","5","134","","","","","","","0","0","1","0.6018426621","","0.6","0.2","0.8","0.4","","","","","0.1821259253","0.6018426621","0.1658512007","0.02046531905","","","","","","","","74","J","1","","","47","main_expt",""
"","bandit","127","516203","0.0-88.0-0.0","25740675","wem/bandit_either_3","A58QOLDFC179Q","either","5","215","","","","","","","0","1","0","","0.6719149388","0.6","0.2","0.8","0.4","0.1850219792","0.6719149388","0.2171730843","0.02793369594","","","","","","","","","","","","74","J","1","","","48","main_expt",""
"","bandit","128","517962","0.0-89.0-0.0","25740675","wem/bandit_either_3","A58QOLDFC179Q","either","5","232","","","","","","","0","1","0","","0.5824093935","0.6","0.2","0.8","0.4","0.2843491098","0.5824093935","0.2545874694","0.01520235592","","","","","","","","","","","","74","J","1","","","49","main_expt",""
"","bandit","129","519732","0.0-90.0-0.0","25740675","wem/bandit_either_3","A58QOLDFC179Q","either","5","261","","","","","","","0","0","1","","0.5697547833","0.6","0.2","0.8","0.4","0.2385085868","0.5697547833","0.1971443839","0.008868670712","","","","","","","","","","","","74","J","1","","","50","main_expt",""
"","bandit","130","521367","0.0-91.0-0.0","25740675","wem/bandit_either_3","A58QOLDFC179Q","either","5","123","","","","","","","0","0","1","0.1743954459","","0.6","0.2","0.8","0.4","","","","","0.2762119933","0.5875551098","0.1743954459","0.004668439046","","","","","","","","75","K","2","","","51","main_expt",""
"","bandit","131","523921","0.0-92.0-0.0","25740675","wem/bandit_either_3","A58QOLDFC179Q","either","5","1038","","","","","","","0","0","1","","0.2350807626","0.6","0.2","0.8","0.4","0.2350807626","0.691822337","0.1007451992","0.003090075005","","","","","","","","","","","","72","H","0","img/none_selected.jpg","","52","main_expt",""
"","bandit","132","526788","0.0-93.0-0.0","25740675","wem/bandit_either_3","A58QOLDFC179Q","either","5","1353","","","","","","","0","1","0","","0.2301492847","0.6","0.2","0.8","0.4","0.2301492847","0.7363191169","0.1648918076","0.003474758773","","","","","","","","","","","","72","H","0","img/none_selected.jpg","","53","main_expt",""
"","bandit","133","528570","0.0-94.0-0.0","25740675","wem/bandit_either_3","A58QOLDFC179Q","either","5","275","","","","","","","0","0","1","0.1761014763","","0.6","0.2","0.8","0.4","","","","","0.2779325162","0.7639548597","0.1761014763","0.003279238457","","","","","","","","75","K","2","","","54","main_expt",""
"","bandit","134","530274","0.0-95.0-0.0","25740675","wem/bandit_either_3","A58QOLDFC179Q","either","5","195","","","","","","","0","0","1","","0.001847339967","0.6","0.2","0.8","0.4","0.2882189161","0.7264154962","0.1460392243","0.001847339967","","","","","","","","","","","","76","L","3","","","55","main_expt",""
"","bandit","135","531892","0.0-96.0-0.0","25740675","wem/bandit_either_3","A58QOLDFC179Q","either","5","100","","","","","","","0","0","1","","0.2646822794","0.6","0.2","0.8","0.4","0.2646822794","0.7511403137","0.1882527018","0.001186331615","","","","","","","","","","","","72","H","0","img/none_selected.jpg","","56","main_expt",""
"","bandit","136","533858","0.0-97.0-0.0","25740675","wem/bandit_either_3","A58QOLDFC179Q","either","5","451","","","","","","","1","0","0","0.6292194553","","0.6","0.2","0.8","0.4","","","","","0.3080117871","0.6292194553","0.1836596221","0.001917609755","","","","","","","","74","J","1","","","57","main_expt",""
"","bandit","137","535829","0.0-98.0-0.0","25740675","wem/bandit_either_3","A58QOLDFC179Q","either","5","443","","","","","","","0","1","0","","0.5622591622","0.6","0.2","0.8","0.4","0.2609020091","0.5622591622","0.2259562874","0.004115025419","","","","","","","","","","","","74","J","1","","","58","main_expt",""
"","bandit","138","537564","0.0-99.0-0.0","25740675","wem/bandit_either_3","A58QOLDFC179Q","either","5","216","","","","","","","1","0","0","0.1673227733","","0.6","0.2","0.8","0.4","","","","","0.3014652953","0.6394190939","0.1673227733","0.007083433589","","","","","","","","75","K","2","","","59","main_expt",""
"","bandit","139","539367","0.0-100.0-0.0","25740675","wem/bandit_either_3","A58QOLDFC179Q","either","5","281","","","","","","","0","1","0","","0.2872544729","0.6","0.2","0.8","0.4","0.2872544729","0.502148976","0.1404143731","0.0100473459","","","","","","","","","","","","72","H","0","img/none_selected.jpg","","60","main_expt",""
"","bandit","140","541270","0.0-101.0-0.0","25740675","wem/bandit_either_3","A58QOLDFC179Q","either","5","385","","","","","","","0","0","1","0.02288810402","","0.6","0.2","0.8","0.4","","","","","0.2347068593","0.5541662771","0.1087230511","0.02288810402","","","","","","","","76","L","3","","","61","main_expt",""
"","bandit","141","542919","0.0-102.0-0.0","25740675","wem/bandit_either_3","A58QOLDFC179Q","either","5","134","","","","","","","0","0","1","0.04890713094","","0.6","0.2","0.8","0.4","","","","","0.1786743828","0.6016144889","0.1173770395","0.04890713094","","","","","","","","76","L","3","","","62","main_expt",""
"","bandit","142","544617","0.0-103.0-0.0","25740675","wem/bandit_either_3","A58QOLDFC179Q","either","5","187","","","","","","","0","0","1","0.1627017484","","0.6","0.2","0.8","0.4","","","","","0.1627017484","0.6306423252","0.1173961002","0.06015841579","","","","","","","","72","H","0","img/none_selected.jpg","","63","main_expt",""
"","bandit","143","546756","0.0-104.0-0.0","25740675","wem/bandit_either_3","A58QOLDFC179Q","either","5","616","","","","","","","1","0","0","0.2220220934","","0.6","0.2","0.8","0.4","","","","","0.2220220934","0.5963496952","0.1093057248","0.0697324588","","","","","","","","72","H","0","img/none_selected.jpg","","64","main_expt",""
"","bandit","144","548508","0.0-105.0-0.0","25740675","wem/bandit_either_3","A58QOLDFC179Q","either","5","217","","","","","","","0","0","1","","0.03955641554","0.6","0.2","0.8","0.4","0.1387290973","0.5835424673","0.1437581537","0.03955641554","","","","","","","","","","","","76","L","3","","","65","main_expt",""
"","bandit","145","550126","0.0-106.0-0.0","25740675","wem/bandit_either_3","A58QOLDFC179Q","either","5","96","","","","","","","0","0","1","0.1321246006","","0.6","0.2","0.8","0.4","","","","","0.1481952943","0.5789137396","0.1321246006","0.04104317144","","","","","","","","75","K","2","","","66","main_expt",""
"","bandit","146","551863","0.0-107.0-0.0","25740675","wem/bandit_either_3","A58QOLDFC179Q","either","5","231","","","","","","","0","0","1","0.07749417123","","0.6","0.2","0.8","0.4","","","","","0.1354395346","0.6503196648","0.1441415222","0.07749417123","","","","","","","","76","L","3","","","67","main_expt",""
"","bandit","147","553580","0.0-108.0-0.0","25740675","wem/bandit_either_3","A58QOLDFC179Q","either","5","210","","","","","","","0","0","1","","0.09431815687","0.6","0.2","0.8","0.4","0.09431815687","0.7295955131","0.1794787892","0.1606162296","","","","","","","","","","","","72","H","0","img/none_selected.jpg","","68","main_expt",""
"","bandit","148","555303","0.0-109.0-0.0","25740675","wem/bandit_either_3","A58QOLDFC179Q","either","5","195","","","","","","","0","0","1","0.09491494314","","0.6","0.2","0.8","0.4","","","","","0.09491494314","0.7924649224","0.2467892919","0.1458723802","","","","","","","","72","H","0","img/none_selected.jpg","","69","main_expt",""
"","bandit","149","557163","0.0-110.0-0.0","25740675","wem/bandit_either_3","A58QOLDFC179Q","either","5","341","","","","","","","0","0","1","","0.7104550926","0.6","0.2","0.8","0.4","0.144379617","0.7104550926","0.2683381141","0.09936082334","","","","","","","","","","","","74","J","1","","","70","main_expt",""
"","bandit","150","559115","0.0-111.0-0.0","25740675","wem/bandit_either_3","A58QOLDFC179Q","either","5","442","","","","","","","0","0","1","0.3513633517","","0.6","0.2","0.8","0.4","","","","","0.1522740794","0.6350436987","0.3513633517","0.08487306657","","","","","","","","75","K","2","","","71","main_expt",""
"","bandit","151","560991","0.0-112.0-0.0","25740675","wem/bandit_either_3","A58QOLDFC179Q","either","5","359","","","","","","","0","0","1","0.2914052368","","0.6","0.2","0.8","0.4","","","","","0.1668466162","0.5987872161","0.2914052368","0.08819471669","","","","","","","","75","K","2","","","72","main_expt",""
"","bandit","152","562827","0.0-113.0-0.0","25740675","wem/bandit_either_3","A58QOLDFC179Q","either","5","314","","","","","","","0","1","0","","0.5985066563","0.6","0.2","0.8","0.4","0.1896474075","0.5985066563","0.2877488323","0.1283432424","","","","","","","","","","","","74","J","1","","","73","main_expt",""
"","bandit","153","564693","0.0-114.0-0.0","25740675","wem/bandit_either_3","A58QOLDFC179Q","either","5","349","","","","","","","0","0","1","","0.2374421278","0.6","0.2","0.8","0.4","0.2374421278","0.6384302553","0.2562899571","0.09379917772","","","","","","","","","","","","72","H","0","img/none_selected.jpg","","74","main_expt",""
"","bandit","154","566476","0.0-115.0-0.0","25740675","wem/bandit_either_3","A58QOLDFC179Q","either","5","261","","","","","","","0","0","1","0.2733605005","","0.6","0.2","0.8","0.4","","","","","0.2083661751","0.5658832615","0.2733605005","0.09049970266","","","","","","","","75","K","2","","","75","main_expt",""
"","bandit","155","568498","0.0-116.0-0.0","25740675","wem/bandit_either_3","A58QOLDFC179Q","either","5","489","","","","","","","0","0","1","","0.2438220339","0.6","0.2","0.8","0.4","0.2438220339","0.6242699585","0.3937912108","0.08721668036","","","","","","","","","","","","72","H","0","img/none_selected.jpg","","76","main_expt",""
"","bandit","156","570441","0.0-117.0-0.0","25740675","wem/bandit_either_3","A58QOLDFC179Q","either","5","435","","","","","","","1","0","0","0.2317864895","","0.6","0.2","0.8","0.4","","","","","0.2688374605","0.5744400186","0.2317864895","0.06435523183","","","","","","","","75","K","2","","","77","main_expt",""
"","bandit","157","572344","0.0-118.0-0.0","25740675","wem/bandit_either_3","A58QOLDFC179Q","either","5","393","","","","","","","0","0","1","0.354885782","","0.6","0.2","0.8","0.4","","","","","0.354885782","0.5888420407","0.1809738678","0.0482567949","","","","","","","","72","H","0","img/none_selected.jpg","","78","main_expt",""
"","bandit","158","574259","0.0-119.0-0.0","25740675","wem/bandit_either_3","A58QOLDFC179Q","either","5","401","","","","","","","0","0","1","","0.6367332082","0.6","0.2","0.8","0.4","0.3618930149","0.6367332082","0.1139783564","0.0437210955","","","","","","","","","","","","74","J","1","","","79","main_expt",""
"","bandit","159","576254","0.0-120.0-0.0","25740675","wem/bandit_either_3","A58QOLDFC179Q","either","5","475","","","","","","","0","1","0","","0.02877808334","0.6","0.2","0.8","0.4","0.2656346555","0.6870764151","0.08785846653","0.02877808334","","","","","","","","","","","","76","L","3","","","80","main_expt",""
"","bandit","160","578255","0.0-121.0-0.0","25740675","wem/bandit_either_3","A58QOLDFC179Q","either","5","480","","","","","","","0","0","1","","0.594282643","0.6","0.2","0.8","0.4","0.4245431589","0.594282643","0.09113866108","0.01921293631","","","","","","","","","","","","74","J","1","","","81","main_expt",""
"","bandit","161","580132","0.0-122.0-0.0","25740675","wem/bandit_either_3","A58QOLDFC179Q","either","5","360","","","","","","","0","0","1","0.1055231707","","0.6","0.2","0.8","0.4","","","","","0.4469352605","0.6134463007","0.1055231707","0.04933803159","","","","","","","","75","K","2","","","82","main_expt",""
"","bandit","162","581890","0.0-123.0-0.0","25740675","wem/bandit_either_3","A58QOLDFC179Q","either","5","243","","","","","","","0","1","0","","0.4492602846","0.6","0.2","0.8","0.4","0.4492602846","0.573719985","0.09865920741","0.03134335394","","","","","","","","","","","","72","H","0","img/none_selected.jpg","","83","main_expt",""
"","bandit","163","583754","0.0-124.0-0.0","25740675","wem/bandit_either_3","A58QOLDFC179Q","either","5","353","","","","","","","0","1","0","","0.06745845416","0.6","0.2","0.8","0.4","0.4800113203","0.5666188995","0.06745845416","0.08181594064","","","","","","","","","","","","75","K","2","","","84","main_expt",""
"","bandit","164","585664","0.0-125.0-0.0","25740675","wem/bandit_either_3","A58QOLDFC179Q","either","5","391","","","","","","","0","1","0","","0.5161506384","0.6","0.2","0.8","0.4","0.53417275","0.5161506384","0.05723787215","0.09326949564","","","","","","","","","","","","74","J","1","","","85","main_expt",""
"","bandit","165","587652","0.0-126.0-0.0","25740675","wem/bandit_either_3","A58QOLDFC179Q","either","5","462","","","","","","","0","0","1","0.1365856799","","0.6","0.2","0.8","0.4","","","","","0.4431594274","0.4408304524","0.04283717318","0.1365856799","","","","","","","","76","L","3","","","86","main_expt",""
"","bandit","166","589385","0.0-127.0-0.0","25740675","wem/bandit_either_3","A58QOLDFC179Q","either","5","211","","","","","","","0","1","0","","0.1845868617","0.6","0.2","0.8","0.4","0.4135642243","0.4926691315","0.04801612347","0.1845868617","","","","","","","","","","","","76","L","3","","","87","main_expt",""
"","bandit","167","591401","0.0-128.0-0.0","25740675","wem/bandit_either_3","A58QOLDFC179Q","either","5","489","","","","","","","0","0","1","0.4785462387","","0.6","0.2","0.8","0.4","","","","","0.4785462387","0.6047228172","0.1154775412","0.2304222619","","","","","","","","72","H","0","img/none_selected.jpg","","88","main_expt",""
"","bandit","168","593234","0.0-129.0-0.0","25740675","wem/bandit_either_3","A58QOLDFC179Q","either","5","324","","","","","","","1","0","0","0.6395163219","","0.6","0.2","0.8","0.4","","","","","0.6395163219","0.5311406509","0.1308375778","0.1408060154","","","","","","","","72","H","0","img/none_selected.jpg","","89","main_expt",""
"","bandit","169","595027","0.0-130.0-0.0","25740675","wem/bandit_either_3","A58QOLDFC179Q","either","5","270","","","","","","","0","0","1","","0.6143207643","0.6","0.2","0.8","0.4","0.6143207643","0.6262376813","0.07282967421","0.1870966622","","","","","","","","","","","","72","H","0","img/none_selected.jpg","","90","main_expt",""
"","bandit","170","597260","0.0-131.0-0.0","25740675","wem/bandit_either_3","A58QOLDFC179Q","either","5","718","","","","","","","0","0","1","0.07599207753","","0.6","0.2","0.8","0.4","","","","","0.446485487","0.690423555","0.07599207753","0.192698437","","","","","","","","75","K","2","","","91","main_expt",""
"","bandit","171","599431","0.0-132.0-0.0","25740675","wem/bandit_either_3","A58QOLDFC179Q","either","5","653","","","","","","","0","0","1","0.1683480261","","0.6","0.2","0.8","0.4","","","","","0.5169677416","0.6517149298","0.04323911508","0.1683480261","","","","","","","","76","L","3","","","92","main_expt",""
"","bandit","172","601342","0.0-133.0-0.0","25740675","wem/bandit_either_3","A58QOLDFC179Q","either","5","400","","","","","","","1","0","0","0.5656193004","","0.6","0.2","0.8","0.4","","","","","0.4242737166","0.5656193004","0.04253576945","0.1330499919","","","","","","","","74","J","1","","","93","main_expt",""
"","bandit","173","603139","0.0-134.0-0.0","25740675","wem/bandit_either_3","A58QOLDFC179Q","either","5","281","","","","","","","0","0","1","","0.3479993201","0.6","0.2","0.8","0.4","0.3479993201","0.4344563295","0.04534385772","0.1880917327","","","","","","","","","","","","72","H","0","img/none_selected.jpg","","94","main_expt",""
"","bandit","174","605319","0.0-135.0-0.0","25740675","wem/bandit_either_3","A58QOLDFC179Q","either","5","665","","","","","","","0","0","1","","0.1867575465","0.6","0.2","0.8","0.4","0.3701135783","0.5651083109","0.03318992591","0.1867575465","","","","","","","","","","","","76","L","3","","","95","main_expt",""
"","bandit","175","607156","0.0-136.0-0.0","25740675","wem/bandit_either_3","A58QOLDFC179Q","either","5","291","","","","","","","0","0","1","","0.3430407586","0.6","0.2","0.8","0.4","0.3430407586","0.5348041914","0.03408771876","0.2231999883","","","","","","","","","","","","72","H","0","img/none_selected.jpg","","96","main_expt",""
"","bandit","176","608945","0.0-137.0-0.0","25740675","wem/bandit_either_3","A58QOLDFC179Q","either","5","277","","","","","","","0","0","1","0.5627844697","","0.6","0.2","0.8","0.4","","","","","0.2876443713","0.5627844697","0.05013144164","0.2149045243","","","","","","","","74","J","1","","","97","main_expt",""
"","bandit","177","610803","0.0-138.0-0.0","25740675","wem/bandit_either_3","A58QOLDFC179Q","either","5","330","","","","","","","0","1","0","","0.6177525637","0.6","0.2","0.8","0.4","0.3310412313","0.6177525637","0.03739082544","0.1963416079","","","","","","","","","","","","74","J","1","","","98","main_expt",""
"","bandit","178","612583","0.0-139.0-0.0","25740675","wem/bandit_either_3","A58QOLDFC179Q","either","5","259","","","","","","","0","1","0","","0.3893078888","0.6","0.2","0.8","0.4","0.3893078888","0.7429557604","0.1018336486","0.1659387142","","","","","","","","","","","","72","H","0","img/none_selected.jpg","","99","main_expt",""
"","bandit","179","614500","0.0-140.0-0.0","25740675","wem/bandit_either_3","A58QOLDFC179Q","either","5","402","","","","","","","0","0","1","0.4049224607","","0.6","0.2","0.8","0.4","","","","","0.4049224607","0.6717563967","0.1398961818","0.145948344","","","","","","","","72","H","0","img/none_selected.jpg","","100","main_expt",""
"","bandit","180","616544","0.0-141.0-0.0","25740675","wem/bandit_either_3","A58QOLDFC179Q","either","5","522","","","","","","","0","0","1","0.1830356504","","0.6","0.2","0.8","0.4","","","","","0.3259939159","0.6929666651","0.1830356504","0.1366695263","","","","","","","","75","K","2","","","101","main_expt",""
"","bandit","181","618295","0.0-142.0-0.0","25740675","wem/bandit_either_3","A58QOLDFC179Q","either","5","228","","","","","","","1","0","0","0.3598161211","","0.6","0.2","0.8","0.4","","","","","0.3598161211","0.6827494989","0.1396005595","0.1543059156","","","","","","","","72","H","0","img/none_selected.jpg","","102","main_expt",""
"","bandit","182","620238","0.0-143.0-0.0","25740675","wem/bandit_either_3","A58QOLDFC179Q","either","5","418","","","","","","","0","1","0","","0.7315485361","0.6","0.2","0.8","0.4","0.3385951472","0.7315485361","0.0853830874","0.1484193465","","","","","","","","","","","","74","J","1","","","103","main_expt",""
"","bandit","183","622452","0.0-144.0-0.0","25740675","wem/bandit_either_3","A58QOLDFC179Q","either","5","707","","","","","","","0","0","1","","0.1516288854","0.6","0.2","0.8","0.4","0.4881545817","0.6852971926","0.09317924201","0.1516288854","","","","","","","","","","","","76","L","3","","","104","main_expt",""
"","bandit","184","624143","0.0-145.0-0.0","25740675","wem/bandit_either_3","A58QOLDFC179Q","either","5","159","","","","","","","0","0","1","0.08203708102","","0.6","0.2","0.8","0.4","","","","","0.4790883063","0.693594393","0.08203708102","0.1283123627","","","","","","","","75","K","2","","","105","main_expt",""
"","bandit","185","625883","0.0-146.0-0.0","25740675","wem/bandit_either_3","A58QOLDFC179Q","either","5","227","","","","","","","0","1","0","","0.6101065231","0.6","0.2","0.8","0.4","0.4354998123","0.6101065231","0.07160056992","0.2016068708","","","","","","","","","","","","74","J","1","","","106","main_expt",""
"","bandit","186","627690","0.0-147.0-0.0","25740675","wem/bandit_either_3","A58QOLDFC179Q","either","5","275","","","","","","","0","1","0","","0.5549317608","0.6","0.2","0.8","0.4","0.4789065637","0.5549317608","0.09799112372","0.2344181992","","","","","","","","","","","","74","J","1","","","107","main_expt",""
"","bandit","187","629439","0.0-148.0-0.0","25740675","wem/bandit_either_3","A58QOLDFC179Q","either","5","233","","","","","","","0","1","0","","0.5753690117","0.6","0.2","0.8","0.4","0.2921896665","0.5753690117","0.1101799882","0.2234564856","","","","","","","","","","","","74","J","1","","","108","main_expt",""
"","bandit","188","631179","0.0-149.0-0.0","25740675","wem/bandit_either_3","A58QOLDFC179Q","either","5","226","","","","","","","0","0","1","","0.07189968831","0.6","0.2","0.8","0.4","0.3545905428","0.5748544728","0.07189968831","0.2494485671","","","","","","","","","","","","75","K","2","","","109","main_expt",""
"","bandit","189","632914","0.0-150.0-0.0","25740675","wem/bandit_either_3","A58QOLDFC179Q","either","5","215","","","","","","","0","0","1","0.06101418375","","0.6","0.2","0.8","0.4","","","","","0.3110769573","0.6473038793","0.06101418375","0.2804015825","","","","","","","","75","K","2","","","110","main_expt",""
"","bandit","190","634805","0.0-151.0-0.0","25740675","wem/bandit_either_3","A58QOLDFC179Q","either","5","370","","","","","","","0","0","1","","0.1032726654","0.6","0.2","0.8","0.4","0.3673577619","0.6296147118","0.1032726654","0.254644275","","","","","","","","","","","","75","K","2","","","111","main_expt",""
"","bandit","191","636521","0.0-152.0-0.0","25740675","wem/bandit_either_3","A58QOLDFC179Q","either","5","207","","","","","","","0","0","1","","0.2686709136","0.6","0.2","0.8","0.4","0.3439961468","0.6174722021","0.1061240248","0.2686709136","","","","","","","","","","","","76","L","3","","","112","main_expt",""
"","bandit","192","638169","0.0-153.0-0.0","25740675","wem/bandit_either_3","A58QOLDFC179Q","either","5","142","","","","","","","0","0","1","0.3389202036","","0.6","0.2","0.8","0.4","","","","","0.3389202036","0.7467975424","0.1150632514","0.3211503982","","","","","","","","72","H","0","img/none_selected.jpg","","113","main_expt",""
"","bandit","193","640182","0.0-154.0-0.0","25740675","wem/bandit_either_3","A58QOLDFC179Q","either","5","496","","","","","","","0","0","1","","0.3067152309","0.6","0.2","0.8","0.4","0.3122185675","0.7797220863","0.1491479201","0.3067152309","","","","","","","","","","","","76","L","3","","","114","main_expt",""
"","bandit","194","641971","0.0-155.0-0.0","25740675","wem/bandit_either_3","A58QOLDFC179Q","either","5","272","","","","","","","0","0","1","0.2431064996","","0.6","0.2","0.8","0.4","","","","","0.2431064996","0.8152411921","0.08304421353","0.3274584286","","","","","","","","72","H","0","img/none_selected.jpg","","115","main_expt",""
"","bandit","195","643822","0.0-156.0-0.0","25740675","wem/bandit_either_3","A58QOLDFC179Q","either","5","333","","","","","","","1","0","0","0.2491959293","","0.6","0.2","0.8","0.4","","","","","0.2225404561","0.7362727539","0.1391191417","0.2491959293","","","","","","","","76","L","3","","","116","main_expt",""
"","bandit","196","645485","0.0-157.0-0.0","25740675","wem/bandit_either_3","A58QOLDFC179Q","either","5","152","","","","","","","0","0","1","0.7051771602","","0.6","0.2","0.8","0.4","","","","","0.2891792411","0.7051771602","0.1689833708","0.1425156065","","","","","","","","74","J","1","","","117","main_expt",""
"","bandit","197","647330","0.0-158.0-0.0","25740675","wem/bandit_either_3","A58QOLDFC179Q","either","5","328","","","","","","","0","0","1","0.3147139712","","0.6","0.2","0.8","0.4","","","","","0.3147139712","0.7099604309","0.1341186766","0.1550025764","","","","","","","","72","H","0","img/none_selected.jpg","","118","main_expt",""
"","bandit","198","649081","0.0-159.0-0.0","25740675","wem/bandit_either_3","A58QOLDFC179Q","either","5","224","","","","","","","1","0","0","0.1211065448","","0.6","0.2","0.8","0.4","","","","","0.4890071061","0.6633752461","0.1211065448","0.1733664784","","","","","","","","75","K","2","","","119","main_expt",""
"","bandit","199","650838","0.0-160.0-0.0","25740675","wem/bandit_either_3","A58QOLDFC179Q","either","5","231","","","","","","","0","1","0","","0.6748815414","0.6","0.2","0.8","0.4","0.5238994176","0.6748815414","0.1317257861","0.2091577514","","","","","","","","","","","","74","J","1","","","120","main_expt",""
"","bandit","200","652579","0.0-161.0-0.0","25740675","wem/bandit_either_3","A58QOLDFC179Q","either","5","214","","","","","","","0","0","1","","0.4821854017","0.6","0.2","0.8","0.4","0.4821854017","0.694041989","0.08851148741","0.2038206067","","","","","","","","","","","","72","H","0","img/none_selected.jpg","","121","main_expt",""
"","bandit","201","654503","0.0-162.0-0.0","25740675","wem/bandit_either_3","A58QOLDFC179Q","either","5","413","","","","","","","0","0","1","0.1313095228","","0.6","0.2","0.8","0.4","","","","","0.5695824443","0.7808088803","0.1313095228","0.1646827865","","","","","","","","75","K","2","","","122","main_expt",""
"","bandit","202","656134","0.0-163.0-0.0","25740675","wem/bandit_either_3","A58QOLDFC179Q","either","5","118","","","","","","","0","0","1","0.08951947698","","0.6","0.2","0.8","0.4","","","","","0.5884468641","0.7513243775","0.1990721176","0.08951947698","","","","","","","","76","L","3","","","123","main_expt",""
"","bandit","203","657906","0.0-164.0-0.0","25740675","wem/bandit_either_3","A58QOLDFC179Q","either","5","249","","","","","","","0","1","0","","0.7095593687","0.6","0.2","0.8","0.4","0.6578864121","0.7095593687","0.3510587203","0.09676311751","","","","","","","","","","","","74","J","1","","","124","main_expt",""
"","bandit","204","659635","0.0-165.0-0.0","25740675","wem/bandit_either_3","A58QOLDFC179Q","either","5","209","","","","","","","0","0","1","0.6610648035","","0.6","0.2","0.8","0.4","","","","","0.6610648035","0.6464373278","0.2829787335","0.08914634913","","","","","","","","72","H","0","img/none_selected.jpg","","125","main_expt",""
"","bandit","205","661503","0.0-166.0-0.0","25740675","wem/bandit_either_3","A58QOLDFC179Q","either","5","336","","","","","","","0","0","1","0.3253732313","","0.6","0.2","0.8","0.4","","","","","0.6745370829","0.69855693","0.3253732313","0.1104844084","","","","","","","","75","K","2","","","126","main_expt",""
"","bandit","206","663030","0.0-167.0-0.0","25740675","wem/bandit_either_3","A58QOLDFC179Q","either","5","1","","","","","","","0","0","1","","0.6394960802","0.6","0.2","0.8","0.4","0.6357656308","0.6394960802","0.2969307539","0.1302598269","","","","","","","","","","","","74","J","1","","","127","main_expt",""
"","bandit","207","664677","0.0-168.0-0.0","25740675","wem/bandit_either_3","A58QOLDFC179Q","either","5","115","","","","","","","0","0","1","0.5912569563","","0.6","0.2","0.8","0.4","","","","","0.6746479632","0.5912569563","0.3862322559","0.1739983423","","","","","","","","74","J","1","","","128","main_expt",""
"","bandit","208","666411","0.0-169.0-0.0","25740675","wem/bandit_either_3","A58QOLDFC179Q","either","5","224","","","","","","","0","0","1","0.609360971","","0.6","0.2","0.8","0.4","","","","","0.609360971","0.6408154383","0.3399993615","0.2144078185","","","","","","","","72","H","0","img/none_selected.jpg","","129","main_expt",""
"","bandit","209","668194","0.0-170.0-0.0","25740675","wem/bandit_either_3","A58QOLDFC179Q","either","5","262","","","","","","","0","0","1","","0.6160079471","0.6","0.2","0.8","0.4","0.5791775941","0.6160079471","0.4343217783","0.2133227205","","","","","","","","","","","","74","J","1","","","130","main_expt",""
"","bandit","210","669853","0.0-171.0-0.0","25740675","wem/bandit_either_3","A58QOLDFC179Q","either","5","140","","","","","","","0","0","1","","0.6639311205","0.6","0.2","0.8","0.4","0.6039133906","0.6639311205","0.4116870082","0.3009586135","","","","","","","","","","","","74","J","1","","","131","main_expt",""
"","bandit","211","671736","0.0-172.0-0.0","25740675","wem/bandit_either_3","A58QOLDFC179Q","either","5","359","","","","","","","0","1","0","","0.3257006372","0.6","0.2","0.8","0.4","0.5564977279","0.7314418876","0.3235444519","0.3257006372","","","","","","","","","","","","76","L","3","","","132","main_expt",""
"","bandit","212","673622","0.0-173.0-0.0","25740675","wem/bandit_either_3","A58QOLDFC179Q","either","5","368","","","","","","","1","0","0","0.7343064015","","0.6","0.2","0.8","0.4","","","","","0.5453182718","0.7343064015","0.4204005917","0.3286432436","","","","","","","","74","J","1","","","133","main_expt",""
"","bandit","213","675403","0.0-174.0-0.0","25740675","wem/bandit_either_3","A58QOLDFC179Q","either","5","253","","","","","","","0","0","1","0.5326734174","","0.6","0.2","0.8","0.4","","","","","0.5557967555","0.6345074403","0.5326734174","0.3343575241","","","","","","","","75","K","2","","","134","main_expt",""
"","bandit","214","677153","0.0-175.0-0.0","25740675","wem/bandit_either_3","A58QOLDFC179Q","either","5","239","","","","","","","1","0","0","0.752921597","","0.6","0.2","0.8","0.4","","","","","0.5719827955","0.752921597","0.6096825818","0.2917270645","","","","","","","","74","J","1","","","135","main_expt",""
"","bandit","215","679230","0.0-176.0-0.0","25740675","wem/bandit_either_3","A58QOLDFC179Q","either","5","560","","","","","","","1","0","0","0.4756276611","","0.6","0.2","0.8","0.4","","","","","0.4756276611","0.7642539739","0.6827328332","0.3972485531","","","","","","","","72","H","0","img/none_selected.jpg","","136","main_expt",""
"","bandit","216","680975","0.0-177.0-0.0","25740675","wem/bandit_either_3","A58QOLDFC179Q","either","5","224","","","","","","","0","1","0","","0.7166238274","0.6","0.2","0.8","0.4","0.5078949877","0.7166238274","0.6604068036","0.4294090248","","","","","","","","","","","","74","J","1","","","137","main_expt",""
"","bandit","217","683013","0.0-178.0-0.0","25740675","wem/bandit_either_3","A58QOLDFC179Q","either","5","518","","","","","","","0","0","1","","0.5009988565","0.6","0.2","0.8","0.4","0.4938131475","0.713549589","0.653661868","0.5009988565","","","","","","","","","","","","76","L","3","","","138","main_expt",""
"","bandit","218","684669","0.0-179.0-0.0","25740675","wem/bandit_either_3","A58QOLDFC179Q","either","5","131","","","","","","","0","0","1","0.6169918179","","0.6","0.2","0.8","0.4","","","","","0.654612375","0.6905374229","0.6169918179","0.4993746949","","","","","","","","75","K","2","","","139","main_expt",""
"","bandit","219","686521","0.0-180.0-0.0","25740675","wem/bandit_either_3","A58QOLDFC179Q","either","5","345","","","","","","","0","0","1","","0.5448973659","0.6","0.2","0.8","0.4","0.52663091","0.6614813372","0.6657435074","0.5448973659","","","","","","","","","","","","76","L","3","","","140","main_expt",""
"","bandit","220","688413","0.0-181.0-0.0","25740675","wem/bandit_either_3","A58QOLDFC179Q","either","5","373","","","","","","","0","0","1","","0.4829720837","0.6","0.2","0.8","0.4","0.5976356642","0.7024355817","0.6349341703","0.4829720837","","","","","","","","","","","","76","L","3","","","141","main_expt",""
"","bandit","221","690146","0.0-182.0-0.0","25740675","wem/bandit_either_3","A58QOLDFC179Q","either","5","211","","","","","","","0","0","1","","0.5402580016","0.6","0.2","0.8","0.4","0.5956183516","0.7185929435","0.6379356982","0.5402580016","","","","","","","","","","","","76","L","3","","","142","main_expt",""
"","bandit","222","691883","0.0-183.0-0.0","25740675","wem/bandit_either_3","A58QOLDFC179Q","either","5","217","","","","","","","0","1","0","","0.6240660549","0.6","0.2","0.8","0.4","0.6432894639","0.6240660549","0.6022688156","0.5478015274","","","","","","","","","","","","74","J","1","","","143","main_expt",""
"","bandit","223","693514","0.0-184.0-0.0","25740675","wem/bandit_either_3","A58QOLDFC179Q","either","5","111","","","","","","","0","1","0","","0.5189832842","0.6","0.2","0.8","0.4","0.6691106198","0.5797935966","0.5806731621","0.5189832842","","","","","","","","","","","","76","L","3","","","144","main_expt",""
"","bandit","224","695272","0.0-185.0-0.0","25740675","wem/bandit_either_3","A58QOLDFC179Q","either","5","250","","","","","","","0","0","1","0.5512406412","","0.6","0.2","0.8","0.4","","","","","0.677031803","0.520403766","0.5512406412","0.4556604905","","","","","","","","75","K","2","","","145","main_expt",""
"","bandit","225","696965","0.0-186.0-0.0","25740675","wem/bandit_either_3","A58QOLDFC179Q","either","5","172","","","","","","","0","0","1","0.6055708535","","0.6","0.2","0.8","0.4","","","","","0.6697886415","0.5330345992","0.6055708535","0.48011385","","","","","","","","75","K","2","","","146","main_expt",""
"","bandit","226","698776","0.0-187.0-0.0","25740675","wem/bandit_either_3","A58QOLDFC179Q","either","5","279","","","","","","","1","0","0","0.7101623398","","0.6","0.2","0.8","0.4","","","","","0.7101623398","0.5692896821","0.5711328773","0.5363471167","","","","","","","","72","H","0","img/none_selected.jpg","","147","main_expt",""
"","bandit","227","700504","0.0-188.0-0.0","25740675","wem/bandit_either_3","A58QOLDFC179Q","either","5","217","","","","","","","1","0","0","0.4258462921","","0.6","0.2","0.8","0.4","","","","","0.733230793","0.4877368026","0.4258462921","0.4929714004","","","","","","","","75","K","2","","","148","main_expt",""
"","bandit","228","702360","0.0-189.0-0.0","25740675","wem/bandit_either_3","A58QOLDFC179Q","either","5","340","","","","","","","0","1","0","","0.7010449773","0.6","0.2","0.8","0.4","0.7010449773","0.5936336812","0.327967402","0.4356177925","","","","","","","","","","","","72","H","0","img/none_selected.jpg","","149","main_expt",""
"","bandit","229","704183","0.0-190.0-0.0","25740675","wem/bandit_either_3","A58QOLDFC179Q","either","5","303","","","","","","","0","0","1","0.7027445866","","0.6","0.2","0.8","0.4","","","","","0.6668672445","0.7027445866","0.4343474627","0.4054894896","","","","","","","","74","J","1","","","150","main_expt",""
"","bandit","230","706081","0.0-191.0-0.0","25740675","wem/bandit_either_3","A58QOLDFC179Q","either","5","371","","","","","","","0","0","1","","0.5283130311","0.6","0.2","0.8","0.4","0.5612636021","0.7690633033","0.5382828223","0.5283130311","","","","","","","","","","","","76","L","3","","","151","main_expt",""
"","bandit","231","708020","0.0-192.0-0.0","25740675","wem/bandit_either_3","A58QOLDFC179Q","either","5","403","","","","","","","0","1","0","","0.5989969619","0.6","0.2","0.8","0.4","0.7032448324","0.5989969619","0.6572277468","0.6323123958","","","","","","","","","","","","74","J","1","","","152","main_expt",""
"","bandit","232","709833","0.0-193.0-0.0","25740675","wem/bandit_either_3","A58QOLDFC179Q","either","5","284","","","","","","","0","1","0","","0.5847243132","0.6","0.2","0.8","0.4","0.6918543646","0.6126787421","0.668560183","0.5847243132","","","","","","","","","","","","76","L","3","","","153","main_expt",""
"","bandit","233","711624","0.0-194.0-0.0","25740675","wem/bandit_either_3","A58QOLDFC179Q","either","5","271","","","","","","","1","0","0","0.6954524596","","0.6","0.2","0.8","0.4","","","","","0.647195156","0.5461115941","0.6954524596","0.4285456013","","","","","","","","75","K","2","","","154","main_expt",""
"","bandit","234","713441","0.0-195.0-0.0","25740675","wem/bandit_either_3","A58QOLDFC179Q","either","5","309","","","","","","","1","0","0","0.6135998722","","0.6","0.2","0.8","0.4","","","","","0.6135998722","0.5456348337","0.5684527538","0.4772645207","","","","","","","","72","H","0","img/none_selected.jpg","","155","main_expt",""
"","bandit","235","715782","0.0-196.0-0.0","25740675","wem/bandit_either_3","A58QOLDFC179Q","either","5","812","","","","","","","1","0","0","0.4782917504","","0.6","0.2","0.8","0.4","","","","","0.5591033916","0.4782917504","0.6034375159","0.4982711843","","","","","","","","74","J","1","","","156","main_expt",""
"","bandit","236","717598","0.0-197.0-0.0","25740675","wem/bandit_either_3","A58QOLDFC179Q","either","5","291","","","","","","","0","0","1","","0.5275183668","0.6","0.2","0.8","0.4","0.5090787948","0.4868537485","0.5835723018","0.5275183668","","","","","","","","","","","","76","L","3","","","157","main_expt",""
"","bandit","237","719417","0.0-198.0-0.0","25740675","wem/bandit_either_3","A58QOLDFC179Q","either","5","306","","","","","","","0","0","1","","0.6087372924","0.6","0.2","0.8","0.4","0.6087372924","0.5361642224","0.5234712835","0.4489423754","","","","","","","","","","","","72","H","0","img/none_selected.jpg","","158","main_expt",""
"","bandit","238","721062","0.0-199.0-0.0","25740675","wem/bandit_either_3","A58QOLDFC179Q","either","5","135","","","","","","","0","0","1","0.5636881177","","0.6","0.2","0.8","0.4","","","","","0.6064578463","0.4947944436","0.5636881177","0.4933275403","","","","","","","","75","K","2","","","159","main_expt",""
"","bandit","239","723032","0.0-200.0-0.0","25740675","wem/bandit_either_3","A58QOLDFC179Q","either","5","460","","","","","","","0","0","1","","0.5106889885","0.6","0.2","0.8","0.4","0.6951258233","0.5106889885","0.4785340868","0.4521998099","","","","","","","","","","","","74","J","1","","","160","main_expt",""
"","bandit","240","724867","0.0-201.0-0.0","25740675","wem/bandit_either_3","A58QOLDFC179Q","either","5","308","","","","","","","0","1","0","","0.5114636712","0.6","0.2","0.8","0.4","0.7129510734","0.4566704777","0.5038962889","0.5114636712","","","","","","","","","","","","76","L","3","","","161","main_expt",""
"","bandit","241","726657","0.0-202.0-0.0","25740675","wem/bandit_either_3","A58QOLDFC179Q","either","5","265","","","","","","","0","0","1","","0.3259271754","0.6","0.2","0.8","0.4","0.7028034005","0.3259271754","0.4448395692","0.5242674757","","","","","","","","","","","","74","J","1","","","162","main_expt",""
"","bandit","242","728288","0.0-203.0-0.0","25740675","wem/bandit_either_3","A58QOLDFC179Q","either","5","106","","","","","","","0","0","1","","0.5687322637","0.6","0.2","0.8","0.4","0.6293758899","0.2806734392","0.471982621","0.5687322637","","","","","","","","","","","","76","L","3","","","163","main_expt",""
"","bandit","243","730090","0.0-204.0-0.0","25740675","wem/bandit_either_3","A58QOLDFC179Q","either","5","275","","","","","","","0","0","1","0.6813427096","","0.6","0.2","0.8","0.4","","","","","0.6813427096","0.2973163189","0.6517066897","0.5635146256","","","","","","","","72","H","0","img/none_selected.jpg","","164","main_expt",""
"","bandit","244","731878","0.0-205.0-0.0","25740675","wem/bandit_either_3","A58QOLDFC179Q","either","5","272","","","","","","","0","1","0","","0.6339143586","0.6","0.2","0.8","0.4","0.7231406025","0.2872552927","0.6339143586","0.6588968294","","","","","","","","","","","","75","K","2","","","165","main_expt",""
"","bandit","245","733657","0.0-206.0-0.0","25740675","wem/bandit_either_3","A58QOLDFC179Q","either","5","266","","","","","","","1","0","0","0.6274448994","","0.6","0.2","0.8","0.4","","","","","0.6274448994","0.325395791","0.6507743373","0.74872254","","","","","","","","72","H","0","img/none_selected.jpg","","166","main_expt",""
"","bandit","246","735379","0.0-207.0-0.0","25740675","wem/bandit_either_3","A58QOLDFC179Q","either","5","206","","","","","","","0","1","0","","0.7741304825","0.6","0.2","0.8","0.4","0.6778384319","0.3307719744","0.6753437353","0.7741304825","","","","","","","","","","","","76","L","3","","","167","main_expt",""
"","bandit","247","737160","0.0-208.0-0.0","25740675","wem/bandit_either_3","A58QOLDFC179Q","either","5","274","","","","","","","0","0","1","","0.4033689778","0.6","0.2","0.8","0.4","0.6928942004","0.4033689778","0.6308788189","0.8873722237","","","","","","","","","","","","74","J","1","","","168","main_expt",""
"","bandit","248","738913","0.0-209.0-0.0","25740675","wem/bandit_either_3","A58QOLDFC179Q","either","5","244","","","","","","","1","0","0","0.6289357746","","0.6","0.2","0.8","0.4","","","","","0.6181376835","0.4089274666","0.6289357746","0.8649989169","","","","","","","","75","K","2","","","169","main_expt",""
"","bandit","249","740708","0.0-210.0-0.0","25740675","wem/bandit_either_3","A58QOLDFC179Q","either","5","261","","","","","","","0","0","1","","0.8634323334","0.6","0.2","0.8","0.4","0.6539136718","0.4033631647","0.6308829817","0.8634323334","","","","","","","","","","","","76","L","3","","","170","main_expt",""
"","bandit","250","742424","0.0-211.0-0.0","25740675","wem/bandit_either_3","A58QOLDFC179Q","either","5","194","","","","","","","0","1","0","","0.7935188527","0.6","0.2","0.8","0.4","0.7935188527","0.3743415885","0.6008061885","0.8050812792","","","","","","","","","","","","72","H","0","img/none_selected.jpg","","171","main_expt",""
"","bandit","251","744572","0.0-212.0-0.0","25740675","wem/bandit_either_3","A58QOLDFC179Q","either","5","617","","","","","","","0","1","0","","0.4145867416","0.6","0.2","0.8","0.4","0.7959482017","0.4145867416","0.6498855282","0.7635000848","","","","","","","","","","","","74","J","1","","","172","main_expt",""
"","bandit","252","746340","0.0-213.0-0.0","25740675","wem/bandit_either_3","A58QOLDFC179Q","either","5","252","","","","","","","1","0","0","0.6361658802","","0.6","0.2","0.8","0.4","","","","","0.7720377381","0.4421490518","0.6361658802","0.7793560846","","","","","","","","75","K","2","","","173","main_expt",""
"","bandit","253","748153","0.0-214.0-0.0","25740675","wem/bandit_either_3","A58QOLDFC179Q","either","5","283","","","","","","","1","0","0","0.7290013271","","0.6","0.2","0.8","0.4","","","","","0.7751150559","0.373112653","0.5494915933","0.7290013271","","","","","","","","76","L","3","","","174","main_expt",""
"","bandit","254","750016","0.0-215.0-0.0","25740675","wem/bandit_either_3","A58QOLDFC179Q","either","5","340","","","","","","","0","1","0","","0.7699246652","0.6","0.2","0.8","0.4","0.7699246652","0.372221374","0.6292002022","0.8353873757","","","","","","","","","","","","72","H","0","img/none_selected.jpg","","175","main_expt",""
"","bandit","255","751800","0.0-216.0-0.0","25740675","wem/bandit_either_3","A58QOLDFC179Q","either","5","257","","","","","","","1","0","0","0.8589437223","","0.6","0.2","0.8","0.4","","","","","0.8092821718","0.3594456443","0.4999600136","0.8589437223","","","","","","","","76","L","3","","","176","main_expt",""
"","bandit","256","753602","0.0-217.0-0.0","25740675","wem/bandit_either_3","A58QOLDFC179Q","either","5","282","","","","","","","1","0","0","0.4500304274","","0.6","0.2","0.8","0.4","","","","","0.7728258073","0.3705823864","0.4500304274","0.8824379228","","","","","","","","75","K","2","","","177","main_expt",""
"","bandit","257","755359","0.0-218.0-0.0","25740675","wem/bandit_either_3","A58QOLDFC179Q","either","5","230","","","","","","","0","0","1","0.3042584581","","0.6","0.2","0.8","0.4","","","","","0.8128952128","0.3042584581","0.4626099748","0.8862787626","","","","","","","","74","J","1","","","178","main_expt",""
"","bandit","258","757018","0.0-219.0-0.0","25740675","wem/bandit_either_3","A58QOLDFC179Q","either","5","133","","","","","","","0","0","1","","0.7878088044","0.6","0.2","0.8","0.4","0.7878088044","0.3056645996","0.3074659707","0.8851661012","","","","","","","","","","","","72","H","0","img/none_selected.jpg","","179","main_expt",""
"","bandit","259","758754","0.0-220.0-0.0","25740675","wem/bandit_either_3","A58QOLDFC179Q","either","5","214","","","","","","","0","0","1","","0.8623840347","0.6","0.2","0.8","0.4","0.7626215198","0.3124458775","0.2445312817","0.8623840347","","","","","","","","","","","","76","L","3","","","180","main_expt",""
"","bandit","260","760499","0.0-221.0-0.0","25740675","wem/bandit_either_3","A58QOLDFC179Q","either","5","218","","","","","","","0","0","1","","0.2597333415","0.6","0.2","0.8","0.4","0.7059637017","0.2597333415","0.2284870313","0.8815853427","","","","","","","","","","","","74","J","1","","","181","main_expt",""
"","bandit","261","762227","0.0-222.0-0.0","25740675","wem/bandit_either_3","A58QOLDFC179Q","either","5","204","","","","","","","0","0","1","","0.2195648065","0.6","0.2","0.8","0.4","0.6691747745","0.2117009826","0.2195648065","0.8955826305","","","","","","","","","","","","75","K","2","","","182","main_expt",""
"","bandit","262","763874","0.0-223.0-0.0","25740675","wem/bandit_either_3","A58QOLDFC179Q","either","5","125","","","","","","","0","1","0","","0.5523838876","0.6","0.2","0.8","0.4","0.5523838876","0.2327762041","0.2327716204","0.9362873759","","","","","","","","","","","","72","H","0","img/none_selected.jpg","","183","main_expt",""
"","bandit","263","765659","0.0-224.0-0.0","25740675","wem/bandit_either_3","A58QOLDFC179Q","either","5","268","","","","","","","0","0","1","0.3207903029","","0.6","0.2","0.8","0.4","","","","","0.5451875246","0.2750618684","0.3207903029","0.9484326647","","","","","","","","75","K","2","","","184","main_expt",""
"","bandit","264","767394","0.0-225.0-0.0","25740675","wem/bandit_either_3","A58QOLDFC179Q","either","5","223","","","","","","","0","1","0","","0.2305846964","0.6","0.2","0.8","0.4","0.6090771744","0.2305846964","0.3609723674","0.9660783121","","","","","","","","","","","","74","J","1","","","185","main_expt",""
"","bandit","265","769180","0.0-226.0-0.0","25740675","wem/bandit_either_3","A58QOLDFC179Q","either","5","258","","","","","","","0","0","1","0.5810996076","","0.6","0.2","0.8","0.4","","","","","0.5810996076","0.2597669424","0.4442397518","0.9665376101","","","","","","","","72","H","0","img/none_selected.jpg","","186","main_expt",""
"","bandit","266","771050","0.0-227.0-0.0","25740675","wem/bandit_either_3","A58QOLDFC179Q","either","5","351","","","","","","","0","1","0","","0.9644184371","0.6","0.2","0.8","0.4","0.4445572548","0.2143742246","0.4478442549","0.9644184371","","","","","","","","","","","","76","L","3","","","187","main_expt",""
"","bandit","267","772815","0.0-228.0-0.0","25740675","wem/bandit_either_3","A58QOLDFC179Q","either","5","253","","","","","","","0","0","1","0.4026396634","","0.6","0.2","0.8","0.4","","","","","0.4113554433","0.2294707647","0.4026396634","0.9731237162","","","","","","","","75","K","2","","","188","main_expt",""
"","bandit","268","774565","0.0-229.0-0.0","25740675","wem/bandit_either_3","A58QOLDFC179Q","either","5","236","","","","","","","0","0","1","0.5072589837","","0.6","0.2","0.8","0.4","","","","","0.4053553249","0.2469430613","0.5072589837","0.9787475226","","","","","","","","75","K","2","","","189","main_expt",""
"","bandit","269","776173","0.0-230.0-0.0","25740675","wem/bandit_either_3","A58QOLDFC179Q","either","5","86","","","","","","","1","0","0","0.9847816181","","0.6","0.2","0.8","0.4","","","","","0.4927633492","0.2437728268","0.5234843415","0.9847816181","","","","","","","","76","L","3","","","190","main_expt",""
"","bandit","270","778031","0.0-231.0-0.0","25740675","wem/bandit_either_3","A58QOLDFC179Q","either","5","350","","","","","","","0","1","0","","0.1655579887","0.6","0.2","0.8","0.4","0.428678546","0.1655579887","0.5054414672","0.9713064587","","","","","","","","","","","","74","J","1","","","191","main_expt",""
"","bandit","271","779852","0.0-232.0-0.0","25740675","wem/bandit_either_3","A58QOLDFC179Q","either","5","300","","","","","","","0","0","1","","0.3358015867","0.6","0.2","0.8","0.4","0.3358015867","0.1501427492","0.7037613703","0.9558555722","","","","","","","","","","","","72","H","0","img/none_selected.jpg","","192","main_expt",""
"","bandit","272","781520","0.0-233.0-0.0","25740675","wem/bandit_either_3","A58QOLDFC179Q","either","5","160","","","","","","","1","0","0","0.5980286963","","0.6","0.2","0.8","0.4","","","","","0.2816430679","0.2062706367","0.5980286963","0.9443800135","","","","","","","","75","K","2","","","193","main_expt",""
"","bandit","273","786594","0.0-234.0-0.0","25740675","wem/bandit_either_3","A58QOLDFC179Q","either","5","3563","","","","","","","0","0","1","0.2951519504","","0.6","0.2","0.8","0.4","","","","","0.2951519504","0.2782937815","0.5607231578","0.947825408","","","","","","","","72","H","0","img/none_selected.jpg","","194","main_expt",""
"","bandit","274","788744","0.0-235.0-0.0","25740675","wem/bandit_either_3","A58QOLDFC179Q","either","5","638","","","","","","","0","0","1","","0.2393938873","0.6","0.2","0.8","0.4","0.2482291913","0.2393938873","0.6222063369","0.9531013361","","","","","","","","","","","","74","J","1","","","195","main_expt",""
"","bandit","275","790698","0.0-236.0-0.0","25740675","wem/bandit_either_3","A58QOLDFC179Q","either","5","437","","","","","","","0","0","1","0.7092042058","","0.6","0.2","0.8","0.4","","","","","0.2548661126","0.3385483064","0.7092042058","0.9653581558","","","","","","","","75","K","2","","","196","main_expt",""
"","bandit","276","792496","0.0-237.0-0.0","25740675","wem/bandit_either_3","A58QOLDFC179Q","either","5","274","","","","","","","0","0","1","","0.3474357388","0.6","0.2","0.8","0.4","0.2789697966","0.3474357388","0.7397780251","0.9774234012","","","","","","","","","","","","74","J","1","","","197","main_expt",""
"","bandit","277","794635","0.0-238.0-0.0","25740675","wem/bandit_either_3","A58QOLDFC179Q","either","5","618","","","","","","","0","0","1","0.4511600961","","0.6","0.2","0.8","0.4","","","","","0.2893473624","0.4511600961","0.6977166648","0.9866112083","","","","","","","","74","J","1","","","198","main_expt",""
"","bandit","278","796502","0.0-239.0-0.0","25740675","wem/bandit_either_3","A58QOLDFC179Q","either","5","347","","","","","","","0","0","1","","0.591703898","0.6","0.2","0.8","0.4","0.2499124536","0.4387406867","0.591703898","0.9889390623","","","","","","","","","","","","75","K","2","","","199","main_expt",""
"","bandit","279","798296","0.0-240.0-0.0","25740675","wem/bandit_either_3","A58QOLDFC179Q","either","5","269","","","","","","","0","1","0","","0.9894921125","0.6","0.2","0.8","0.4","0.2643429758","0.4368135332","0.5107967375","0.9894921125","","","","","","","","","","","","76","L","3","","","200","main_expt",""
"","bandit","280","800108","0.0-241.0-0.0","25740675","wem/bandit_either_3","A58QOLDFC179Q","either","5","286","","","","","","","0","0","1","","0.3070084091","0.6","0.2","0.8","0.4","0.2382870841","0.3070084091","0.6528148869","0.989248002","","","","","","","","","","","","74","J","1","","","201","main_expt",""
"","bandit","281","801897","0.0-242.0-0.0","25740675","wem/bandit_either_3","A58QOLDFC179Q","either","5","254","","","","","","","0","0","1","0.6892998309","","0.6","0.2","0.8","0.4","","","","","0.1604624283","0.3603585946","0.6892998309","0.9957983392","","","","","","","","75","K","2","","","202","main_expt",""
"","bandit","282","803736","0.0-243.0-0.0","25740675","wem/bandit_either_3","A58QOLDFC179Q","either","5","305","","","","","","","0","0","1","0.1407610566","","0.6","0.2","0.8","0.4","","","","","0.1407610566","0.260320329","0.6989476798","0.9958893","","","","","","","","72","H","0","img/none_selected.jpg","","203","main_expt",""
"","bandit","283","805529","0.0-244.0-0.0","25740675","wem/bandit_either_3","A58QOLDFC179Q","either","5","267","","","","","","","0","1","0","","0.2003029851","0.6","0.2","0.8","0.4","0.1343245238","0.2003029851","0.772264117","0.9955962674","","","","","","","","","","","","74","J","1","","","204","main_expt",""
"","bandit","284","807316","0.0-245.0-0.0","25740675","wem/bandit_either_3","A58QOLDFC179Q","either","5","262","","","","","","","1","0","0","0.7366863645","","0.6","0.2","0.8","0.4","","","","","0.1715400642","0.1922312923","0.7366863645","0.9943432705","","","","","","","","75","K","2","","","205","main_expt",""
"","bandit","285","809214","0.0-246.0-0.0","25740675","wem/bandit_either_3","A58QOLDFC179Q","either","5","367","","","","","","","1","0","0","0.9982320458","","0.6","0.2","0.8","0.4","","","","","0.117617648","0.1936085521","0.7477287432","0.9982320458","","","","","","","","76","L","3","","","206","main_expt",""
"","bandit","286","811071","0.0-247.0-0.0","25740675","wem/bandit_either_3","A58QOLDFC179Q","either","5","327","","","","","","","0","0","1","0.1182717864","","0.6","0.2","0.8","0.4","","","","","0.1182717864","0.1821705986","0.8185776196","0.9976530308","","","","","","","","72","H","0","img/none_selected.jpg","","207","main_expt",""
"","bandit","287","812849","0.0-248.0-0.0","25740675","wem/bandit_either_3","A58QOLDFC179Q","either","5","262","","","","","","","0","0","1","0.1145050302","","0.6","0.2","0.8","0.4","","","","","0.1445047472","0.1145050302","0.8161769506","0.9961811318","","","","","","","","74","J","1","","","208","main_expt",""
"","bandit","288","814584","0.0-249.0-0.0","25740675","wem/bandit_either_3","A58QOLDFC179Q","either","5","213","","","","","","","0","0","1","0.1264159314","","0.6","0.2","0.8","0.4","","","","","0.1264159314","0.1206637037","0.8224464957","0.9977639941","","","","","","","","72","H","0","img/none_selected.jpg","","209","main_expt",""
"","bandit","289","816329","0.0-250.0-0.0","25740675","wem/bandit_either_3","A58QOLDFC179Q","either","5","218","","","","","","","1","0","0","0.9953783407","","0.6","0.2","0.8","0.4","","","","","0.1208777168","0.1422927172","0.7392866018","0.9953783407","","","","","","","","76","L","3","","","210","main_expt",""
"","bandit","290","817982","0.0-251.0-0.0","25740675","wem/bandit_either_3","A58QOLDFC179Q","either","5","133","","","","","","","1","0","0","0.7125411919","","0.6","0.2","0.8","0.4","","","","","0.1733448518","0.1811219169","0.7125411919","0.9976351195","","","","","","","","75","K","2","","","211","main_expt",""
"","bandit","291","819858","0.0-252.0-0.0","25740675","wem/bandit_either_3","A58QOLDFC179Q","either","5","350","","","","","","","1","0","0","0.7191881067","","0.6","0.2","0.8","0.4","","","","","0.1085262221","0.1982527665","0.7191881067","0.9983589292","","","","","","","","75","K","2","","","212","main_expt",""
"","bandit","292","821663","0.0-253.0-0.0","25740675","wem/bandit_either_3","A58QOLDFC179Q","either","5","283","","","","","","","1","0","0","0.9960427138","","0.6","0.2","0.8","0.4","","","","","0.08145678985","0.124448309","0.7523845147","0.9960427138","","","","","","","","76","L","3","","","213","main_expt",""
"","bandit","293","823528","0.0-254.0-0.0","25740675","wem/bandit_either_3","A58QOLDFC179Q","either","5","349","","","","","","","0","0","1","","0.05725631888","0.6","0.2","0.8","0.4","0.05725631888","0.1036015692","0.7193420906","0.9924650588","","","","","","","","","","","","72","H","0","img/none_selected.jpg","","214","main_expt",""
"","bandit","294","825185","0.0-255.0-0.0","25740675","wem/bandit_either_3","A58QOLDFC179Q","either","5","135","","","","","","","0","0","1","0.6784461291","","0.6","0.2","0.8","0.4","","","","","0.04356988172","0.14458031","0.6784461291","0.9858211903","","","","","","","","75","K","2","","","215","main_expt",""
"","bandit","295","826846","0.0-256.0-0.0","25740675","wem/bandit_either_3","A58QOLDFC179Q","either","5","147","","","","","","","0","1","0","","0.9915289077","0.6","0.2","0.8","0.4","0.04316154837","0.2094876981","0.5658185063","0.9915289077","","","","","","","","","","","","76","L","3","","","216","main_expt",""
"","bandit","296","828594","0.0-257.0-0.0","25740675","wem/bandit_either_3","A58QOLDFC179Q","either","5","236","","","","","","","0","1","0","","0.24936904","0.6","0.2","0.8","0.4","0.03453558383","0.24936904","0.4886301847","0.9929544916","","","","","","","","","","","","74","J","1","","","217","main_expt",""
"","bandit","297","830432","0.0-258.0-0.0","25740675","wem/bandit_either_3","A58QOLDFC179Q","either","5","319","","","","","","","1","0","0","0.5674985979","","0.6","0.2","0.8","0.4","","","","","0.03800932399","0.2006789107","0.5674985979","0.9741721496","","","","","","","","75","K","2","","","218","main_expt",""
"","bandit","298","832230","0.0-259.0-0.0","25740675","wem/bandit_either_3","A58QOLDFC179Q","either","5","266","","","","","","","0","0","1","0.07914639327","","0.6","0.2","0.8","0.4","","","","","0.07914639327","0.2118480588","0.6088772151","0.9413517393","","","","","","","","72","H","0","img/none_selected.jpg","","219","main_expt",""
"","bandit","299","833852","0.0-260.0-0.0","25740675","wem/bandit_either_3","A58QOLDFC179Q","either","5","102","","","","","","","0","0","1","","0.5856238885","0.6","0.2","0.8","0.4","0.07044987786","0.2159213458","0.5856238885","0.9230346446","","","","","","","","","","","","75","K","2","","","220","main_expt",""
"","bandit","300","835663","0.0-261.0-0.0","25740675","wem/bandit_either_3","A58QOLDFC179Q","either","5","291","","","","","","","0","0","1","0.1351506501","","0.6","0.2","0.8","0.4","","","","","0.1351506501","0.2097338805","0.6601978635","0.9216350241","","","","","","","","72","H","0","img/none_selected.jpg","","221","main_expt",""
"","bandit","301","837451","0.0-262.0-0.0","25740675","wem/bandit_either_3","A58QOLDFC179Q","either","5","280","","","","","","","0","1","0","","0.9093406134","0.6","0.2","0.8","0.4","0.2099108548","0.1468233299","0.6540659739","0.9093406134","","","","","","","","","","","","76","L","3","","","222","main_expt",""
"","bandit","302","839285","0.0-263.0-0.0","25740675","wem/bandit_either_3","A58QOLDFC179Q","either","5","301","","","","","","","0","0","1","","0.2971693323","0.6","0.2","0.8","0.4","0.2971693323","0.1379540926","0.7010542315","0.8361447498","","","","","","","","","","","","72","H","0","img/none_selected.jpg","","223","main_expt",""
"","bandit","303","841015","0.0-264.0-0.0","25740675","wem/bandit_either_3","A58QOLDFC179Q","either","5","217","","","","","","","0","0","1","","0.1943723139","0.6","0.2","0.8","0.4","0.2754671199","0.1943723139","0.7972730751","0.8626161161","","","","","","","","","","","","74","J","1","","","224","main_expt",""
"","bandit","304","842831","0.0-265.0-0.0","25740675","wem/bandit_either_3","A58QOLDFC179Q","either","5","297","","","","","","","1","0","0","0.8726314772","","0.6","0.2","0.8","0.4","","","","","0.2483133052","0.2949344278","0.8726314772","0.9176165053","","","","","","","","75","K","2","","","225","main_expt",""
"","bandit","305","845339","0.0-266.0-0.0","25740675","wem/bandit_either_3","A58QOLDFC179Q","either","5","981","","","","","","","0","0","1","0.2945032007","","0.6","0.2","0.8","0.4","","","","","0.2945032007","0.4040967375","0.8569150835","0.9516545376","","","","","","","","72","H","0","img/none_selected.jpg","","226","main_expt",""
"","bandit","306","846995","0.0-267.0-0.0","25740675","wem/bandit_either_3","A58QOLDFC179Q","either","5","123","","","","","","","0","1","0","","0.4369809926","0.6","0.2","0.8","0.4","0.2544933329","0.4369809926","0.8773762417","0.9448551655","","","","","","","","","","","","74","J","1","","","227","main_expt",""
"","bandit","307","848908","0.0-268.0-0.0","25740675","wem/bandit_either_3","A58QOLDFC179Q","either","5","396","","","","","","","0","1","0","","0.9298030406","0.6","0.2","0.8","0.4","0.22227057","0.4228749262","0.8514828757","0.9298030406","","","","","","","","","","","","76","L","3","","","228","main_expt",""
"","bandit","308","850690","0.0-269.0-0.0","25740675","wem/bandit_either_3","A58QOLDFC179Q","either","5","263","","","","","","","1","0","0","0.893786405","","0.6","0.2","0.8","0.4","","","","","0.2319557967","0.4953143479","0.893786405","0.9022116856","","","","","","","","75","K","2","","","229","main_expt",""
"","bandit","309","852520","0.0-270.0-0.0","25740675","wem/bandit_either_3","A58QOLDFC179Q","either","5","311","","","","","","","0","1","0","","0.3107577299","0.6","0.2","0.8","0.4","0.3107577299","0.4752889979","0.9350514117","0.8934587516","","","","","","","","","","","","72","H","0","img/none_selected.jpg","","230","main_expt",""
"","bandit","310","854292","0.0-271.0-0.0","25740675","wem/bandit_either_3","A58QOLDFC179Q","either","5","260","","","","","","","1","0","0","0.9139197991","","0.6","0.2","0.8","0.4","","","","","0.3046703461","0.4887049862","0.9139197991","0.8403693225","","","","","","","","75","K","2","","","231","main_expt",""
"","bandit","311","856088","0.0-272.0-0.0","25740675","wem/bandit_either_3","A58QOLDFC179Q","either","5","270","","","","","","","1","0","0","0.8753904063","","0.6","0.2","0.8","0.4","","","","","0.4259459217","0.6065944358","0.8753904063","0.7373772703","","","","","","","","75","K","2","","","232","main_expt",""
"","bandit","312","857894","0.0-273.0-0.0","25740675","wem/bandit_either_3","A58QOLDFC179Q","either","5","273","","","","","","","1","0","0","0.807664976","","0.6","0.2","0.8","0.4","","","","","0.3391655585","0.5320380184","0.807664976","0.7275490615","","","","","","","","75","K","2","","","233","main_expt",""
"","bandit","313","859556","0.0-274.0-0.0","25740675","wem/bandit_either_3","A58QOLDFC179Q","either","5","148","","","","","","","0","0","1","0.817303243","","0.6","0.2","0.8","0.4","","","","","0.3380141995","0.5845689413","0.817303243","0.6910989812","","","","","","","","75","K","2","","","234","main_expt",""
"","bandit","314","861335","0.0-275.0-0.0","25740675","wem/bandit_either_3","A58QOLDFC179Q","either","5","266","","","","","","","1","0","0","0.6506848601","","0.6","0.2","0.8","0.4","","","","","0.2949514339","0.4424117598","0.8320050337","0.6506848601","","","","","","","","76","L","3","","","235","main_expt",""
"","bandit","315","863111","0.0-276.0-0.0","25740675","wem/bandit_either_3","A58QOLDFC179Q","either","5","257","","","","","","","0","0","1","","0.589166471","0.6","0.2","0.8","0.4","0.2575094814","0.4411324282","0.8539654836","0.589166471","","","","","","","","","","","","76","L","3","","","236","main_expt",""
"","bandit","316","865061","0.0-277.0-0.0","25740675","wem/bandit_either_3","A58QOLDFC179Q","either","5","430","","","","","","","0","0","1","0.5792865955","","0.6","0.2","0.8","0.4","","","","","0.3298960346","0.5792865955","0.8151920012","0.5475273787","","","","","","","","74","J","1","","","237","main_expt",""
"","bandit","317","866656","0.0-278.0-0.0","25740675","wem/bandit_either_3","A58QOLDFC179Q","either","5","71","","","","","","","0","0","1","0.3922637729","","0.6","0.2","0.8","0.4","","","","","0.3922637729","0.6435093149","0.8724257749","0.5644141111","","","","","","","","72","H","0","img/none_selected.jpg","","238","main_expt",""
"","bandit","318","868323","0.0-279.0-0.0","25740675","wem/bandit_either_3","A58QOLDFC179Q","either","5","155","","","","","","","1","0","0","0.3200188668","","0.6","0.2","0.8","0.4","","","","","0.3200188668","0.571754567","0.8232187668","0.557522906","","","","","","","","72","H","0","img/none_selected.jpg","","239","main_expt",""
"","bandit","319","870180","0.0-280.0-0.0","25740675","wem/bandit_either_3","A58QOLDFC179Q","either","5","329","","","","","","","0","0","1","","0.3427015143","0.6","0.2","0.8","0.4","0.3427015143","0.6642130709","0.8306623225","0.603497511","","","","","","","","","","","","72","H","0","img/none_selected.jpg","","240","main_expt",""
"","bandit","320","871759","0.0-281.0-0.0","25740675","wem/bandit_either_3","A58QOLDFC179Q","either","5","62","","","","","","","1","0","0","0.7592816599","","0.6","0.2","0.8","0.4","","","","","0.3027961335","0.702894688","0.7592816599","0.5998739494","","","","","","","","75","K","2","","","241","main_expt",""
"","bandit","321","873590","0.0-282.0-0.0","25740675","wem/bandit_either_3","A58QOLDFC179Q","either","5","303","","","","","","","1","0","0","0.8354326854","","0.6","0.2","0.8","0.4","","","","","0.2916945226","0.6468691102","0.8354326854","0.5674661637","","","","","","","","75","K","2","","","242","main_expt",""
"","bandit","322","875435","0.0-283.0-0.0","25740675","wem/bandit_either_3","A58QOLDFC179Q","either","5","331","","","","","","","0","1","0","","0.8387573723","0.6","0.2","0.8","0.4","0.2703759756","0.7073159297","0.8387573723","0.620083209","","","","","","","","","","","","75","K","2","","","243","main_expt",""
"","bandit","323","877069","0.0-284.0-0.0","25740675","wem/bandit_either_3","A58QOLDFC179Q","either","5","106","","","","","","","1","0","0","0.7089992968","","0.6","0.2","0.8","0.4","","","","","0.2055036404","0.6719420595","0.8683205951","0.7089992968","","","","","","","","76","L","3","","","244","main_expt",""
"","bandit","324","878846","0.0-285.0-0.0","25740675","wem/bandit_either_3","A58QOLDFC179Q","either","5","252","","","","","","","1","0","0","0.6816226354","","0.6","0.2","0.8","0.4","","","","","0.2458168489","0.7396289485","0.7825192054","0.6816226354","","","","","","","","76","L","3","","","245","main_expt",""
