"consent","trial_type","trial_index","time_elapsed","internal_node_id","subjID","study","MID","cond","drift","rt","responses","key_press","expt_phase","like","value","connected","gems","bombs","no_reward","GemPrChosen","BombPrChosen","GainOverPainPr_0","GainOverPainPr_1","GainOverPainPr_2","GainOverPainPr_3","LosePr_0","LosePr_1","LosePr_2","LosePr_3","WinPr_0","WinPr_1","WinPr_2","WinPr_3","Q0","Q1","Q2","gender","age","ethnicity","target","respCharCode","respKey","respChoiceNum","respChoice","practice","trial_counter","trial_label","button_pressed"
"INL_behavioral_consent_30min_online.html","consent","0","9382","0.0-0.0","25837211","wem/bandit_either_3","A1VNYP58BTF4HX","either","1","","","","","","","","","","","","","","","","","","","","","","","","","","","","","","","","","","","","","","",""
"","survey-text","1","22232","0.0-1.0","25837211","wem/bandit_either_3","A1VNYP58BTF4HX","either","1","11781","{""Q0"":""A1VNYP58BTF4HX""}","","","","","","","","","","","","","","","","","","","","","","","","","","","","","","","","","","","","",""
"","text","2","117802","0.0-2.0","25837211","wem/bandit_either_3","A1VNYP58BTF4HX","either","1","94558","","32","","","","","","","","","","","","","","","","","","","","","","","","","","","","","","","","","","","",""
"","text","3","120829","0.0-3.0","25837211","wem/bandit_either_3","A1VNYP58BTF4HX","either","1","3016","","32","","","","","","","","","","","","","","","","","","","","","","","","","","","","","","","","","","","",""
"","text","4","123855","0.0-4.0","25837211","wem/bandit_either_3","A1VNYP58BTF4HX","either","1","3019","","32","","","","","","","","","","","","","","","","","","","","","","","","","","","","","","","","","","","",""
"","text","5","126891","0.0-5.0","25837211","wem/bandit_either_3","A1VNYP58BTF4HX","either","1","3031","","32","","","","","","","","","","","","","","","","","","","","","","","","","","","","","","","","","","","",""
"","text","6","129992","0.0-6.0","25837211","wem/bandit_either_3","A1VNYP58BTF4HX","either","1","3092","","32","","","","","","","","","","","","","","","","","","","","","","","","","","","","","","","","","","","",""
"","text","7","132951","0.0-7.0","25837211","wem/bandit_either_3","A1VNYP58BTF4HX","either","1","2951","","32","","","","","","","","","","","","","","","","","","","","","","","","","","","","","","","","","","","",""
"","text","8","135986","0.0-8.0","25837211","wem/bandit_either_3","A1VNYP58BTF4HX","either","1","3029","","32","","","","","","","","","","","","","","","","","","","","","","","","","","","","","","","","","","","",""
"","identification","9","297643","0.0-9.0-0.0","25837211","wem/bandit_either_3","A1VNYP58BTF4HX","either","1","161531","","","","4","6","4","","","","","","","","","","","","","","","","","","","","","","","","the village of Zur","","","","","","","",""
"","identification","10","303963","0.0-9.0-1.0","25837211","wem/bandit_either_3","A1VNYP58BTF4HX","either","1","5165","","","","1","4","3","","","","","","","","","","","","","","","","","","","","","","","","the village of Nyx","","","","","","","",""
"","text","11","305737","0.0-10.0","25837211","wem/bandit_either_3","A1VNYP58BTF4HX","either","1","762","","32","","","","","","","","","","","","","","","","","","","","","","","","","","","","","","","","","","","",""
"","text","12","308764","0.0-11.0","25837211","wem/bandit_either_3","A1VNYP58BTF4HX","either","1","3018","","32","","","","","","","","","","","","","","","","","","","","","","","","","","","","","","","","","","","",""
"","text","13","311796","0.0-12.0","25837211","wem/bandit_either_3","A1VNYP58BTF4HX","either","1","3022","","32","","","","","","","","","","","","","","","","","","","","","","","","","","","","","","","","","","","",""
"","text","14","314836","0.0-13.0","25837211","wem/bandit_either_3","A1VNYP58BTF4HX","either","1","3030","","32","","","","","","","","","","","","","","","","","","","","","","","","","","","","","","","","","","","",""
"","bandit","15","317627","0.0-14.0-0.0","25837211","wem/bandit_either_3","A1VNYP58BTF4HX","either","1","1242","","","","","","","0","0","1","0","0","","","","","0","","","","0","","","","","","","","","","","74","J","0","img/none_selected_demo.jpg","true","0","",""
"","bandit","16","321332","0.0-15.0-0.0","25837211","wem/bandit_either_3","A1VNYP58BTF4HX","either","1","2167","","","","","","","0","0","1","0","0","","","","","0","","","","0","","","","","","","","","","","75","K","0","img/none_selected_demo.jpg","true","0","",""
"","text","17","323925","0.0-16.0","25837211","wem/bandit_either_3","A1VNYP58BTF4HX","either","1","2577","","32","","","","","","","","","","","","","","","","","","","","","","","","","","","","","","","","","","","",""
"","text","18","326951","0.0-17.0","25837211","wem/bandit_either_3","A1VNYP58BTF4HX","either","1","3015","","32","","","","","","","","","","","","","","","","","","","","","","","","","","","","","","","","","","","",""
"","text","19","329983","0.0-18.0","25837211","wem/bandit_either_3","A1VNYP58BTF4HX","either","1","3024","","32","","","","","","","","","","","","","","","","","","","","","","","","","","","","","","","","","","","",""
"","text","20","333016","0.0-19.0","25837211","wem/bandit_either_3","A1VNYP58BTF4HX","either","1","3024","","32","","","","","","","","","","","","","","","","","","","","","","","","","","","","","","","","","","","",""
"","bandit","21","335812","0.0-20.0-0.0","25837211","wem/bandit_either_3","A1VNYP58BTF4HX","either","1","1261","","","","","","","1","0","0","0.8","","0.5","0.5","","","","","","","0.8","0.2","","","","","","","","","","74","J","0","img/none_selected_demo.jpg","true","0","80_20_practice",""
"","bandit","22","338843","0.0-20.0-1.0","25837211","wem/bandit_either_3","A1VNYP58BTF4HX","either","1","1487","","","","","","","0","1","0","","0.8","0.5","0.5","","","0.8","0.2","","","","","","","","","","","","","","74","J","0","img/none_selected_demo.jpg","true","0","80_20_practice",""
"","bandit","23","341879","0.0-20.0-2.0","25837211","wem/bandit_either_3","A1VNYP58BTF4HX","either","1","1496","","","","","","","0","1","0","","0.8","0.5","0.5","","","0.8","0.2","","","","","","","","","","","","","","74","J","0","img/none_selected_demo.jpg","true","0","80_20_practice",""
"","bandit","24","344909","0.0-20.0-3.0","25837211","wem/bandit_either_3","A1VNYP58BTF4HX","either","1","1486","","","","","","","0","0","1","","0.8","0.5","0.5","","","0.8","0.2","","","","","","","","","","","","","","74","J","0","img/none_selected_demo.jpg","true","0","80_20_practice",""
"","bandit","25","348007","0.0-20.0-4.0","25837211","wem/bandit_either_3","A1VNYP58BTF4HX","either","1","1557","","","","","","","1","0","0","0.8","","0.5","0.5","","","","","","","0.8","0.2","","","","","","","","","","74","J","0","img/none_selected_demo.jpg","true","0","80_20_practice",""
"","bandit","26","350971","0.0-20.0-5.0","25837211","wem/bandit_either_3","A1VNYP58BTF4HX","either","1","1426","","","","","","","1","0","0","0.8","","0.5","0.5","","","","","","","0.8","0.2","","","","","","","","","","74","J","0","img/none_selected_demo.jpg","true","0","80_20_practice",""
"","bandit","27","353996","0.0-20.0-6.0","25837211","wem/bandit_either_3","A1VNYP58BTF4HX","either","1","1482","","","","","","","0","0","1","0.8","","0.5","0.5","","","","","","","0.8","0.2","","","","","","","","","","74","J","0","img/none_selected_demo.jpg","true","0","80_20_practice",""
"","bandit","28","357030","0.0-20.0-7.0","25837211","wem/bandit_either_3","A1VNYP58BTF4HX","either","1","1491","","","","","","","1","0","0","0.8","","0.5","0.5","","","","","","","0.8","0.2","","","","","","","","","","74","J","0","img/none_selected_demo.jpg","true","0","80_20_practice",""
"","bandit","29","360066","0.0-20.0-8.0","25837211","wem/bandit_either_3","A1VNYP58BTF4HX","either","1","1492","","","","","","","0","1","0","","0.8","0.5","0.5","","","0.8","0.2","","","","","","","","","","","","","","74","J","0","img/none_selected_demo.jpg","true","0","80_20_practice",""
"","bandit","30","363095","0.0-20.0-9.0","25837211","wem/bandit_either_3","A1VNYP58BTF4HX","either","1","1486","","","","","","","0","1","0","","0.8","0.5","0.5","","","0.8","0.2","","","","","","","","","","","","","","74","J","0","img/none_selected_demo.jpg","true","0","80_20_practice",""
"","bandit","31","369157","0.0-20.0-10.0","25837211","wem/bandit_either_3","A1VNYP58BTF4HX","either","1","4517","","","","","","","1","0","0","0.8","","0.5","0.5","","","","","","","0.8","0.2","","","","","","","","","","74","J","0","img/none_selected_demo.jpg","true","0","80_20_practice",""
"","bandit","32","372198","0.0-20.0-11.0","25837211","wem/bandit_either_3","A1VNYP58BTF4HX","either","1","1487","","","","","","","0","1","0","","0.8","0.5","0.5","","","0.8","0.2","","","","","","","","","","","","","","74","J","0","img/none_selected_demo.jpg","true","0","80_20_practice",""
"","bandit","33","374962","0.0-20.0-12.0","25837211","wem/bandit_either_3","A1VNYP58BTF4HX","either","1","1193","","","","","","","0","0","1","","0.8","0.5","0.5","","","0.8","0.2","","","","","","","","","","","","","","74","J","0","img/none_selected_demo.jpg","true","0","80_20_practice",""
"","bandit","34","376584","0.0-20.0-13.0","25837211","wem/bandit_either_3","A1VNYP58BTF4HX","either","1","77","","","","","","","0","0","1","","0.2","0.5","0.5","","","0.8","0.2","","","","","","","","","","","","","","75","K","1","","true","0","80_20_practice",""
"","bandit","35","378156","0.0-20.0-14.0","25837211","wem/bandit_either_3","A1VNYP58BTF4HX","either","1","27","","","","","","","0","1","0","","0.2","0.5","0.5","","","0.8","0.2","","","","","","","","","","","","","","75","K","1","","true","0","80_20_practice",""
"","bandit","36","379866","0.0-20.0-15.0","25837211","wem/bandit_either_3","A1VNYP58BTF4HX","either","1","168","","","","","","","0","0","1","0.2","","0.5","0.5","","","","","","","0.8","0.2","","","","","","","","","","75","K","1","","true","0","80_20_practice",""
"","bandit","37","381421","0.0-20.0-16.0","25837211","wem/bandit_either_3","A1VNYP58BTF4HX","either","1","6","","","","","","","0","1","0","","0.2","0.5","0.5","","","0.8","0.2","","","","","","","","","","","","","","75","K","1","","true","0","80_20_practice",""
"","bandit","38","382983","0.0-20.0-17.0","25837211","wem/bandit_either_3","A1VNYP58BTF4HX","either","1","11","","","","","","","0","0","1","","0.2","0.5","0.5","","","0.8","0.2","","","","","","","","","","","","","","75","K","1","","true","0","80_20_practice",""
"","bandit","39","384660","0.0-20.0-18.0","25837211","wem/bandit_either_3","A1VNYP58BTF4HX","either","1","131","","","","","","","0","0","1","","0.2","0.5","0.5","","","0.8","0.2","","","","","","","","","","","","","","75","K","1","","true","0","80_20_practice",""
"","bandit","40","386258","0.0-20.0-19.0","25837211","wem/bandit_either_3","A1VNYP58BTF4HX","either","1","45","","","","","","","0","0","1","","0.8","0.5","0.5","","","0.8","0.2","","","","","","","","","","","","","","74","J","0","img/none_selected_demo.jpg","true","0","80_20_practice",""
"","text","41","387649","0.0-21.0","25837211","wem/bandit_either_3","A1VNYP58BTF4HX","either","1","1372","","32","","","","","","","","","","","","","","","","","","","","","","","","","","","","","","","","","","","",""
"","bandit","42","389388","0.0-22.0-0.0","25837211","wem/bandit_either_3","A1VNYP58BTF4HX","either","1","202","","","","","","","1","0","0","1","0","","","","","0","1","","","1","0","","","","","","","","","","74","J","0","img/none_selected_demo.jpg","true","0","",""
"","text","43","389538","0.0-23.0","25837211","wem/bandit_either_3","A1VNYP58BTF4HX","either","1","132","","75","","","","","","","","","","","","","","","","","","","","","","","","","","","","","","","","","","","",""
"","text","44","390611","0.0-24.0","25837211","wem/bandit_either_3","A1VNYP58BTF4HX","either","1","1059","","32","","","","","","","","","","","","","","","","","","","","","","","","","","","","","","","","","","","",""
"","text","45","393641","0.0-25.0","25837211","wem/bandit_either_3","A1VNYP58BTF4HX","either","1","3012","","32","","","","","","","","","","","","","","","","","","","","","","","","","","","","","","","","","","","",""
"","text","46","396675","0.0-26.0","25837211","wem/bandit_either_3","A1VNYP58BTF4HX","either","1","3020","","32","","","","","","","","","","","","","","","","","","","","","","","","","","","","","","","","","","","",""
"","text","47","399710","0.0-27.0","25837211","wem/bandit_either_3","A1VNYP58BTF4HX","either","1","3024","","32","","","","","","","","","","","","","","","","","","","","","","","","","","","","","","","","","","","",""
"","text","48","402731","0.0-28.0","25837211","wem/bandit_either_3","A1VNYP58BTF4HX","either","1","3007","","32","","","","","","","","","","","","","","","","","","","","","","","","","","","","","","","","","","","",""
"","text","49","405244","0.0-29.0","25837211","wem/bandit_either_3","A1VNYP58BTF4HX","either","1","2496","","32","","","","","","","","","","","","","","","","","","","","","","","","","","","","","","","","","","","",""
"","text","50","405568","0.0-30.0","25837211","wem/bandit_either_3","A1VNYP58BTF4HX","either","1","311","","32","","","","","","","","","","","","","","","","","","","","","","","","","","","","","","","","","","","",""
"","text","51","405927","0.0-31.0","25837211","wem/bandit_either_3","A1VNYP58BTF4HX","either","1","342","","32","","","","","","","","","","","","","","","","","","","","","","","","","","","","","","","","","","","",""
"","text","52","406151","0.0-32.0","25837211","wem/bandit_either_3","A1VNYP58BTF4HX","either","1","210","","32","","","","","","","","","","","","","","","","","","","","","","","","","","","","","","","","","","","",""
"","text","53","406373","0.0-33.0","25837211","wem/bandit_either_3","A1VNYP58BTF4HX","either","1","208","","32","","","","","","","","","","","","","","","","","","","","","","","","","","","","","","","","","","","",""
"","bandit","54","408049","0.0-34.0-0.0","25837211","wem/bandit_either_3","A1VNYP58BTF4HX","either","1","135","","","","","","","1","0","0","0.8","","0.5","0.5","0.5","0.5","","","","","0.8","0.2","0.6","0.2","","","","","","","","72","H","0","img/none_selected.jpg","true","0","full_practice",""
"","bandit","55","409809","0.0-34.0-1.0","25837211","wem/bandit_either_3","A1VNYP58BTF4HX","either","1","201","","","","","","","0","0","1","","0.2","0.5","0.5","0.5","0.5","0.8","0.2","0.6","0.2","","","","","","","","","","","","76","L","3","","true","0","full_practice",""
"","bandit","56","411598","0.0-34.0-2.0","25837211","wem/bandit_either_3","A1VNYP58BTF4HX","either","1","243","","","","","","","0","0","1","0.2","","0.5","0.5","0.5","0.5","","","","","0.8","0.2","0.6","0.2","","","","","","","","74","J","1","","true","0","full_practice",""
"","bandit","57","414104","0.0-34.0-3.0","25837211","wem/bandit_either_3","A1VNYP58BTF4HX","either","1","959","","","","","","","0","0","1","0.8","","0.5","0.5","0.5","0.5","","","","","0.8","0.2","0.6","0.2","","","","","","","","72","H","0","img/none_selected.jpg","true","0","full_practice",""
"","bandit","58","415877","0.0-34.0-4.0","25837211","wem/bandit_either_3","A1VNYP58BTF4HX","either","1","217","","","","","","","0","0","1","","0.2","0.5","0.5","0.5","0.5","0.8","0.2","0.6","0.2","","","","","","","","","","","","76","L","3","","true","0","full_practice",""
"","bandit","59","417650","0.0-34.0-5.0","25837211","wem/bandit_either_3","A1VNYP58BTF4HX","either","1","220","","","","","","","0","0","1","","0.2","0.5","0.5","0.5","0.5","0.8","0.2","0.6","0.2","","","","","","","","","","","","74","J","1","","true","0","full_practice",""
"","bandit","60","420172","0.0-34.0-6.0","25837211","wem/bandit_either_3","A1VNYP58BTF4HX","either","1","972","","","","","","","1","0","0","0.8","","0.5","0.5","0.5","0.5","","","","","0.8","0.2","0.6","0.2","","","","","","","","72","H","0","img/none_selected.jpg","true","0","full_practice",""
"","bandit","61","421927","0.0-34.0-7.0","25837211","wem/bandit_either_3","A1VNYP58BTF4HX","either","1","205","","","","","","","0","0","1","","0.2","0.5","0.5","0.5","0.5","0.8","0.2","0.6","0.2","","","","","","","","","","","","76","L","3","","true","0","full_practice",""
"","bandit","62","423707","0.0-34.0-8.0","25837211","wem/bandit_either_3","A1VNYP58BTF4HX","either","1","233","","","","","","","0","0","1","0.2","","0.5","0.5","0.5","0.5","","","","","0.8","0.2","0.6","0.2","","","","","","","","74","J","1","","true","0","full_practice",""
"","bandit","63","426242","0.0-34.0-9.0","25837211","wem/bandit_either_3","A1VNYP58BTF4HX","either","1","985","","","","","","","1","0","0","0.8","","0.5","0.5","0.5","0.5","","","","","0.8","0.2","0.6","0.2","","","","","","","","72","H","0","img/none_selected.jpg","true","0","full_practice",""
"","bandit","64","427990","0.0-34.0-10.0","25837211","wem/bandit_either_3","A1VNYP58BTF4HX","either","1","201","","","","","","","0","0","1","","0.2","0.5","0.5","0.5","0.5","0.8","0.2","0.6","0.2","","","","","","","","","","","","76","L","3","","true","0","full_practice",""
"","bandit","65","429857","0.0-34.0-11.0","25837211","wem/bandit_either_3","A1VNYP58BTF4HX","either","1","315","","","","","","","0","0","1","","0.2","0.5","0.5","0.5","0.5","0.8","0.2","0.6","0.2","","","","","","","","","","","","74","J","1","","true","0","full_practice",""
"","bandit","66","432300","0.0-34.0-12.0","25837211","wem/bandit_either_3","A1VNYP58BTF4HX","either","1","895","","","","","","","0","1","0","","0.8","0.5","0.5","0.5","0.5","0.8","0.2","0.6","0.2","","","","","","","","","","","","72","H","0","img/none_selected.jpg","true","0","full_practice",""
"","bandit","67","434040","0.0-34.0-13.0","25837211","wem/bandit_either_3","A1VNYP58BTF4HX","either","1","208","","","","","","","0","0","1","0.2","","0.5","0.5","0.5","0.5","","","","","0.8","0.2","0.6","0.2","","","","","","","","76","L","3","","true","0","full_practice",""
"","bandit","68","435844","0.0-34.0-14.0","25837211","wem/bandit_either_3","A1VNYP58BTF4HX","either","1","257","","","","","","","0","0","1","0.2","","0.5","0.5","0.5","0.5","","","","","0.8","0.2","0.6","0.2","","","","","","","","74","J","1","","true","0","full_practice",""
"","bandit","69","438362","0.0-34.0-15.0","25837211","wem/bandit_either_3","A1VNYP58BTF4HX","either","1","972","","","","","","","0","1","0","","0.8","0.5","0.5","0.5","0.5","0.8","0.2","0.6","0.2","","","","","","","","","","","","72","H","0","img/none_selected.jpg","true","0","full_practice",""
"","bandit","70","440145","0.0-34.0-16.0","25837211","wem/bandit_either_3","A1VNYP58BTF4HX","either","1","206","","","","","","","0","0","1","","0.2","0.5","0.5","0.5","0.5","0.8","0.2","0.6","0.2","","","","","","","","","","","","76","L","3","","true","0","full_practice",""
"","bandit","71","441905","0.0-34.0-17.0","25837211","wem/bandit_either_3","A1VNYP58BTF4HX","either","1","208","","","","","","","0","0","1","0.2","","0.5","0.5","0.5","0.5","","","","","0.8","0.2","0.6","0.2","","","","","","","","74","J","1","","true","0","full_practice",""
"","bandit","72","444419","0.0-34.0-18.0","25837211","wem/bandit_either_3","A1VNYP58BTF4HX","either","1","958","","","","","","","0","1","0","","0.8","0.5","0.5","0.5","0.5","0.8","0.2","0.6","0.2","","","","","","","","","","","","72","H","0","img/none_selected.jpg","true","0","full_practice",""
"","bandit","73","446178","0.0-34.0-19.0","25837211","wem/bandit_either_3","A1VNYP58BTF4HX","either","1","201","","","","","","","1","0","0","0.2","","0.5","0.5","0.5","0.5","","","","","0.8","0.2","0.6","0.2","","","","","","","","76","L","3","","true","0","full_practice",""
"","text","74","448200","0.0-35.0","25837211","wem/bandit_either_3","A1VNYP58BTF4HX","either","1","1960","","32","","","","","","","","","","","","","","","","","","","","","","","","","","","","","","","","","","","",""
"","text","75","451231","0.0-36.0","25837211","wem/bandit_either_3","A1VNYP58BTF4HX","either","1","2010","","32","","","","","","","","","","","","","","","","","","","","","","","","","","","","","","","","","","","",""
"","text","76","454272","0.0-37.0","25837211","wem/bandit_either_3","A1VNYP58BTF4HX","either","1","3023","","32","","","","","","","","","","","","","","","","","","","","","","","","","","","","","","","","","","","",""
"","text","77","456918","0.0-38.0","25837211","wem/bandit_either_3","A1VNYP58BTF4HX","either","1","2626","","32","","","","","","","","","","","","","","","","","","","","","","","","","","","","","","","","","","","",""
"","text","78","457299","0.0-39.0","25837211","wem/bandit_either_3","A1VNYP58BTF4HX","either","1","362","","32","","","","","","","","","","","","","","","","","","","","","","","","","","","","","","","","","","","",""
"","text","79","457659","0.0-40.0","25837211","wem/bandit_either_3","A1VNYP58BTF4HX","either","1","339","","32","","","","","","","","","","","","","","","","","","","","","","","","","","","","","","","","","","","",""
"","bandit","80","459581","0.0-41.0-0.0","25837211","wem/bandit_either_3","A1VNYP58BTF4HX","either","1","370","","","","","","","1","0","0","0.5202783506","","0.2","0.6","0.8","0.4","","","","","0.5202783506","0.4995060561","0.8101107889","0.7674833066","","","","","","","","72","H","0","img/none_selected.jpg","","1","main_expt",""
"","bandit","81","489540","0.0-42.0-0.0","25837211","wem/bandit_either_3","A1VNYP58BTF4HX","either","1","28404","","","","","","","0","0","1","","0.4559554218","0.2","0.6","0.8","0.4","0.4559554218","0.4452888422","0.8827976921","0.7786696111","","","","","","","","","","","","72","H","0","img/none_selected.jpg","","2","main_expt",""
"","bandit","82","491109","0.0-43.0-0.0","25837211","wem/bandit_either_3","A1VNYP58BTF4HX","either","1","19","","","","","","","0","0","1","0.4956599627","","0.2","0.6","0.8","0.4","","","","","0.3791335739","0.4956599627","0.918633781","0.7883912796","","","","","","","","74","J","1","","","3","main_expt",""
"","bandit","83","492680","0.0-44.0-0.0","25837211","wem/bandit_either_3","A1VNYP58BTF4HX","either","1","24","","","","","","","1","0","0","0.8961075186","","0.2","0.6","0.8","0.4","","","","","0.362446662","0.3939226057","0.8961075186","0.8311681014","","","","","","","","75","K","2","","","4","main_expt",""
"","bandit","84","494263","0.0-45.0-0.0","25837211","wem/bandit_either_3","A1VNYP58BTF4HX","either","1","54","","","","","","","0","1","0","","0.706748425","0.2","0.6","0.8","0.4","0.4337427147","0.4737796053","0.9065038385","0.706748425","","","","","","","","","","","","76","L","3","","","5","main_expt",""
"","bandit","85","495918","0.0-46.0-0.0","25837211","wem/bandit_either_3","A1VNYP58BTF4HX","either","1","108","","","","","","","0","1","0","","0.4260566605","0.2","0.6","0.8","0.4","0.4260566605","0.5798080576","0.9628954729","0.7246132019","","","","","","","","","","","","72","H","0","img/none_selected.jpg","","6","main_expt",""
"","bandit","86","497483","0.0-47.0-0.0","25837211","wem/bandit_either_3","A1VNYP58BTF4HX","either","1","16","","","","","","","1","0","0","0.6184433593","","0.2","0.6","0.8","0.4","","","","","0.5595739282","0.6184433593","0.9244273404","0.822103072","","","","","","","","74","J","1","","","7","main_expt",""
"","bandit","87","499068","0.0-48.0-0.0","25837211","wem/bandit_either_3","A1VNYP58BTF4HX","either","1","34","","","","","","","1","0","0","0.9214665689","","0.2","0.6","0.8","0.4","","","","","0.5757792393","0.5380809204","0.9214665689","0.8176183596","","","","","","","","75","K","2","","","8","main_expt",""
"","bandit","88","500657","0.0-49.0-0.0","25837211","wem/bandit_either_3","A1VNYP58BTF4HX","either","1","51","","","","","","","1","0","0","0.7421782695","","0.2","0.6","0.8","0.4","","","","","0.5508288143","0.4884558296","0.9604963414","0.7421782695","","","","","","","","76","L","3","","","9","main_expt",""
"","bandit","89","502301","0.0-50.0-0.0","25837211","wem/bandit_either_3","A1VNYP58BTF4HX","either","1","91","","","","","","","0","0","1","","0.4615344473","0.2","0.6","0.8","0.4","0.4615344473","0.6062827564","0.973544224","0.7112185725","","","","","","","","","","","","72","H","0","img/none_selected.jpg","","10","main_expt",""
"","bandit","90","503865","0.0-51.0-0.0","25837211","wem/bandit_either_3","A1VNYP58BTF4HX","either","1","31","","","","","","","0","0","1","","0.6618996933","0.2","0.6","0.8","0.4","0.4731032433","0.6618996933","0.9756729976","0.6656122322","","","","","","","","","","","","74","J","1","","","11","main_expt",""
"","bandit","91","505437","0.0-52.0-0.0","25837211","wem/bandit_either_3","A1VNYP58BTF4HX","either","1","19","","","","","","","1","0","0","0.9824084628","","0.2","0.6","0.8","0.4","","","","","0.5028989732","0.6589688621","0.9824084628","0.632951522","","","","","","","","75","K","2","","","12","main_expt",""
"","bandit","92","507091","0.0-53.0-0.0","25837211","wem/bandit_either_3","A1VNYP58BTF4HX","either","1","89","","","","","","","0","1","0","","0.6428643634","0.2","0.6","0.8","0.4","0.5252386458","0.7483501345","0.9852841122","0.6428643634","","","","","","","","","","","","76","L","3","","","13","main_expt",""
"","bandit","93","508663","0.0-54.0-0.0","25837211","wem/bandit_either_3","A1VNYP58BTF4HX","either","1","34","","","","","","","0","0","1","","0.4883642101","0.2","0.6","0.8","0.4","0.4883642101","0.7642220585","0.9844185579","0.5693663763","","","","","","","","","","","","72","H","0","img/none_selected.jpg","","14","main_expt",""
"","bandit","94","510223","0.0-55.0-0.0","25837211","wem/bandit_either_3","A1VNYP58BTF4HX","either","1","1","","","","","","","0","0","1","0.5125695872","","0.2","0.6","0.8","0.4","","","","","0.5125695872","0.8255663415","0.9716790186","0.6354763258","","","","","","","","72","H","0","img/none_selected.jpg","","15","main_expt",""
"","bandit","95","511813","0.0-56.0-0.0","25837211","wem/bandit_either_3","A1VNYP58BTF4HX","either","1","36","","","","","","","0","1","0","","0.9724226268","0.2","0.6","0.8","0.4","0.483313844","0.8262734196","0.9724226268","0.6074668868","","","","","","","","","","","","75","K","2","","","16","main_expt",""
"","bandit","96","513421","0.0-57.0-0.0","25837211","wem/bandit_either_3","A1VNYP58BTF4HX","either","1","71","","","","","","","0","0","1","","0.634379517","0.2","0.6","0.8","0.4","0.4764119597","0.8957105494","0.969397438","0.634379517","","","","","","","","","","","","76","L","3","","","17","main_expt",""
"","bandit","97","515045","0.0-58.0-0.0","25837211","wem/bandit_either_3","A1VNYP58BTF4HX","either","1","70","","","","","","","0","1","0","","0.4742144938","0.2","0.6","0.8","0.4","0.4742144938","0.8243017832","0.9487821198","0.7399013172","","","","","","","","","","","","72","H","0","img/none_selected.jpg","","18","main_expt",""
"","bandit","98","516607","0.0-59.0-0.0","25837211","wem/bandit_either_3","A1VNYP58BTF4HX","either","1","35","","","","","","","1","0","0","0.8174393347","","0.2","0.6","0.8","0.4","","","","","0.5445729057","0.8174393347","0.8822386923","0.6892422428","","","","","","","","74","J","1","","","19","main_expt",""
"","bandit","99","518222","0.0-60.0-0.0","25837211","wem/bandit_either_3","A1VNYP58BTF4HX","either","1","7","","","","","","","0","1","0","","0.8658452863","0.2","0.6","0.8","0.4","0.5114357523","0.8457625901","0.8658452863","0.5544472153","","","","","","","","","","","","75","K","2","","","20","main_expt",""
"","bandit","100","519843","0.0-61.0-0.0","25837211","wem/bandit_either_3","A1VNYP58BTF4HX","either","1","8","","","","","","","0","1","0","","0.4705077418","0.2","0.6","0.8","0.4","0.4948626968","0.8565453533","0.8597265301","0.4705077418","","","","","","","","","","","","76","L","3","","","21","main_expt",""
"","bandit","101","521422","0.0-62.0-0.0","25837211","wem/bandit_either_3","A1VNYP58BTF4HX","either","1","26","","","","","","","0","0","1","","0.3750889156","0.2","0.6","0.8","0.4","0.3750889156","0.8821281293","0.929530396","0.5364913494","","","","","","","","","","","","72","H","0","img/none_selected.jpg","","22","main_expt",""
"","bandit","102","522984","0.0-63.0-0.0","25837211","wem/bandit_either_3","A1VNYP58BTF4HX","either","1","13","","","","","","","1","0","0","0.8253896901","","0.2","0.6","0.8","0.4","","","","","0.3874093852","0.8253896901","0.9149061772","0.5450887529","","","","","","","","74","J","1","","","23","main_expt",""
"","bandit","103","524569","0.0-64.0-0.0","25837211","wem/bandit_either_3","A1VNYP58BTF4HX","either","1","33","","","","","","","1","0","0","0.9389899916","","0.2","0.6","0.8","0.4","","","","","0.4126546177","0.8682133559","0.9389899916","0.6013055931","","","","","","","","75","K","2","","","24","main_expt",""
"","bandit","104","526134","0.0-65.0-0.0","25837211","wem/bandit_either_3","A1VNYP58BTF4HX","either","1","15","","","","","","","0","1","0","","0.7116226269","0.2","0.6","0.8","0.4","0.3871809826","0.8186134727","0.9583062328","0.7116226269","","","","","","","","","","","","76","L","3","","","25","main_expt",""
"","bandit","105","527803","0.0-66.0-0.0","25837211","wem/bandit_either_3","A1VNYP58BTF4HX","either","1","112","","","","","","","0","0","1","0.4162773602","","0.2","0.6","0.8","0.4","","","","","0.4162773602","0.841170918","0.9349434311","0.7284905038","","","","","","","","72","H","0","img/none_selected.jpg","","26","main_expt",""
"","bandit","106","529355","0.0-67.0-0.0","25837211","wem/bandit_either_3","A1VNYP58BTF4HX","either","1","26","","","","","","","0","1","0","","0.8332298301","0.2","0.6","0.8","0.4","0.4153433109","0.8332298301","0.9147743466","0.7007901837","","","","","","","","","","","","74","J","1","","","27","main_expt",""
"","bandit","107","530954","0.0-68.0-0.0","25837211","wem/bandit_either_3","A1VNYP58BTF4HX","either","1","26","","","","","","","0","1","0","","0.8913744663","0.2","0.6","0.8","0.4","0.3083156359","0.8340804883","0.8913744663","0.7197690037","","","","","","","","","","","","75","K","2","","","28","main_expt",""
"","bandit","108","532511","0.0-69.0-0.0","25837211","wem/bandit_either_3","A1VNYP58BTF4HX","either","1","20","","","","","","","0","1","0","","0.7569205749","0.2","0.6","0.8","0.4","0.4048150761","0.8800986549","0.9004815278","0.7569205749","","","","","","","","","","","","76","L","3","","","29","main_expt",""
"","bandit","109","534172","0.0-70.0-0.0","25837211","wem/bandit_either_3","A1VNYP58BTF4HX","either","1","128","","","","","","","0","0","1","","0.5604470694","0.2","0.6","0.8","0.4","0.5604470694","0.800988266","0.8335499875","0.7007062976","","","","","","","","","","","","72","H","0","img/none_selected.jpg","","30","main_expt",""
"","bandit","110","535733","0.0-71.0-0.0","25837211","wem/bandit_either_3","A1VNYP58BTF4HX","either","1","10","","","","","","","0","0","1","0.8092707987","","0.2","0.6","0.8","0.4","","","","","0.5114456598","0.8092707987","0.7904098286","0.6218809145","","","","","","","","74","J","1","","","31","main_expt",""
"","bandit","111","537348","0.0-72.0-0.0","25837211","wem/bandit_either_3","A1VNYP58BTF4HX","either","1","21","","","","","","","1","0","0","0.8156470634","","0.2","0.6","0.8","0.4","","","","","0.5195843055","0.7600689364","0.8156470634","0.5448888872","","","","","","","","75","K","2","","","32","main_expt",""
"","bandit","112","538879","0.0-73.0-0.0","25837211","wem/bandit_either_3","A1VNYP58BTF4HX","either","1","1","","","","","","","0","0","1","0.7458483223","","0.2","0.6","0.8","0.4","","","","","0.4278216128","0.7268405739","0.7458483223","0.4396040002","","","","","","","","75","K","2","","","33","main_expt",""
"","bandit","113","540446","0.0-74.0-0.0","25837211","wem/bandit_either_3","A1VNYP58BTF4HX","either","1","1","","","","","","","0","0","1","0.3418027302","","0.2","0.6","0.8","0.4","","","","","0.4581725564","0.7867385379","0.8745519215","0.3418027302","","","","","","","","76","L","3","","","34","main_expt",""
"","bandit","114","542039","0.0-75.0-0.0","25837211","wem/bandit_either_3","A1VNYP58BTF4HX","either","1","41","","","","","","","0","1","0","","0.5170179058","0.2","0.6","0.8","0.4","0.5170179058","0.7776722478","0.8761773117","0.3770378826","","","","","","","","","","","","72","H","0","img/none_selected.jpg","","35","main_expt",""
"","bandit","115","543613","0.0-76.0-0.0","25837211","wem/bandit_either_3","A1VNYP58BTF4HX","either","1","9","","","","","","","0","1","0","","0.8110731924","0.2","0.6","0.8","0.4","0.5761285305","0.8110731924","0.8898579413","0.3264650107","","","","","","","","","","","","74","J","1","","","36","main_expt",""
"","bandit","116","545190","0.0-77.0-0.0","25837211","wem/bandit_either_3","A1VNYP58BTF4HX","either","1","16","","","","","","","0","1","0","","0.9189960073","0.2","0.6","0.8","0.4","0.5824592389","0.8371501114","0.9189960073","0.1696248696","","","","","","","","","","","","75","K","2","","","37","main_expt",""
"","bandit","117","546769","0.0-78.0-0.0","25837211","wem/bandit_either_3","A1VNYP58BTF4HX","either","1","21","","","","","","","0","0","1","","0.3008725236","0.2","0.6","0.8","0.4","0.5039158184","0.801984358","0.9429067042","0.3008725236","","","","","","","","","","","","76","L","3","","","38","main_expt",""
"","bandit","118","548431","0.0-79.0-0.0","25837211","wem/bandit_either_3","A1VNYP58BTF4HX","either","1","33","","","","","","","0","0","1","","0.4906961915","0.2","0.6","0.8","0.4","0.4906961915","0.836760671","0.8860185862","0.3612597963","","","","","","","","","","","","72","H","0","img/none_selected.jpg","","39","main_expt",""
"","bandit","119","550035","0.0-80.0-0.0","25837211","wem/bandit_either_3","A1VNYP58BTF4HX","either","1","44","","","","","","","0","1","0","","0.7930168878","0.2","0.6","0.8","0.4","0.5118773476","0.7930168878","0.8958725565","0.3316001813","","","","","","","","","","","","74","J","1","","","40","main_expt",""
"","bandit","120","551586","0.0-81.0-0.0","25837211","wem/bandit_either_3","A1VNYP58BTF4HX","either","1","4","","","","","","","1","0","0","0.8369757826","","0.2","0.6","0.8","0.4","","","","","0.5207000815","0.6758505439","0.8369757826","0.251761063","","","","","","","","75","K","2","","","41","main_expt",""
"","bandit","121","553150","0.0-82.0-0.0","25837211","wem/bandit_either_3","A1VNYP58BTF4HX","either","1","5","","","","","","","0","1","0","","0.3764367217","0.2","0.6","0.8","0.4","0.6208632684","0.669091732","0.8724413244","0.3764367217","","","","","","","","","","","","76","L","3","","","42","main_expt",""
"","bandit","122","554800","0.0-83.0-0.0","25837211","wem/bandit_either_3","A1VNYP58BTF4HX","either","1","88","","","","","","","0","0","1","","0.6736877605","0.2","0.6","0.8","0.4","0.6736877605","0.5774386383","0.8721156492","0.4280411123","","","","","","","","","","","","72","H","0","img/none_selected.jpg","","43","main_expt",""
"","bandit","123","556375","0.0-84.0-0.0","25837211","wem/bandit_either_3","A1VNYP58BTF4HX","either","1","5","","","","","","","0","0","1","0.5402750746","","0.2","0.6","0.8","0.4","","","","","0.6770598463","0.5402750746","0.874486911","0.4250007774","","","","","","","","74","J","1","","","44","main_expt",""
"","bandit","124","557946","0.0-85.0-0.0","25837211","wem/bandit_either_3","A1VNYP58BTF4HX","either","1","5","","","","","","","1","0","0","0.7653026016","","0.2","0.6","0.8","0.4","","","","","0.6811336834","0.4769525635","0.7653026016","0.3964774122","","","","","","","","75","K","2","","","45","main_expt",""
"","bandit","125","559523","0.0-86.0-0.0","25837211","wem/bandit_either_3","A1VNYP58BTF4HX","either","1","13","","","","","","","0","0","1","0.3755541509","","0.2","0.6","0.8","0.4","","","","","0.7409040253","0.460739512","0.6884850605","0.3755541509","","","","","","","","76","L","3","","","46","main_expt",""
"","bandit","126","561115","0.0-87.0-0.0","25837211","wem/bandit_either_3","A1VNYP58BTF4HX","either","1","11","","","","","","","0","0","1","0.3698766084","","0.2","0.6","0.8","0.4","","","","","0.8602274841","0.3953603582","0.6869729855","0.3698766084","","","","","","","","76","L","3","","","47","main_expt",""
"","bandit","127","562669","0.0-88.0-0.0","25837211","wem/bandit_either_3","A1VNYP58BTF4HX","either","1","29","","","","","","","0","0","1","","0.8947369126","0.2","0.6","0.8","0.4","0.8947369126","0.5194217752","0.624749708","0.2924141828","","","","","","","","","","","","72","H","0","img/none_selected.jpg","","48","main_expt",""
"","bandit","128","564238","0.0-89.0-0.0","25837211","wem/bandit_either_3","A1VNYP58BTF4HX","either","1","16","","","","","","","1","0","0","0.5015721984","","0.2","0.6","0.8","0.4","","","","","0.9071052574","0.5015721984","0.6269608649","0.2506794134","","","","","","","","74","J","1","","","49","main_expt",""
"","bandit","129","565827","0.0-90.0-0.0","25837211","wem/bandit_either_3","A1VNYP58BTF4HX","either","1","21","","","","","","","1","0","0","0.5394470416","","0.2","0.6","0.8","0.4","","","","","0.8569531155","0.4427204185","0.5394470416","0.2200095001","","","","","","","","75","K","2","","","50","main_expt",""
"","bandit","130","567435","0.0-91.0-0.0","25837211","wem/bandit_either_3","A1VNYP58BTF4HX","either","1","40","","","","","","","0","1","0","","0.2703780474","0.2","0.6","0.8","0.4","0.8728609703","0.5194544998","0.4991806479","0.2703780474","","","","","","","","","","","","76","L","3","","","51","main_expt",""
"","bandit","131","569083","0.0-92.0-0.0","25837211","wem/bandit_either_3","A1VNYP58BTF4HX","either","1","107","","","","","","","0","1","0","","0.902184381","0.2","0.6","0.8","0.4","0.902184381","0.4420680866","0.5431464126","0.3215640211","","","","","","","","","","","","72","H","0","img/none_selected.jpg","","52","main_expt",""
"","bandit","132","570642","0.0-93.0-0.0","25837211","wem/bandit_either_3","A1VNYP58BTF4HX","either","1","4","","","","","","","0","0","1","0.5541791803","","0.2","0.6","0.8","0.4","","","","","0.8975054296","0.5541791803","0.4799783957","0.2918797996","","","","","","","","74","J","1","","","53","main_expt",""
"","bandit","133","572217","0.0-94.0-0.0","25837211","wem/bandit_either_3","A1VNYP58BTF4HX","either","1","6","","","","","","","1","0","0","0.3946877269","","0.2","0.6","0.8","0.4","","","","","0.9436546011","0.6187664305","0.3946877269","0.2432815539","","","","","","","","75","K","2","","","54","main_expt",""
"","bandit","134","573769","0.0-95.0-0.0","25837211","wem/bandit_either_3","A1VNYP58BTF4HX","either","1","4","","","","","","","0","0","1","","0.1993500609","0.2","0.6","0.8","0.4","0.9411334538","0.538030076","0.3892466866","0.1993500609","","","","","","","","","","","","76","L","3","","","55","main_expt",""
"","bandit","135","575422","0.0-96.0-0.0","25837211","wem/bandit_either_3","A1VNYP58BTF4HX","either","1","87","","","","","","","0","1","0","","0.862285227","0.2","0.6","0.8","0.4","0.862285227","0.5137881872","0.347268188","0.1832364248","","","","","","","","","","","","72","H","0","img/none_selected.jpg","","56","main_expt",""
"","bandit","136","577018","0.0-97.0-0.0","25837211","wem/bandit_either_3","A1VNYP58BTF4HX","either","1","9","","","","","","","1","0","0","0.6274604021","","0.2","0.6","0.8","0.4","","","","","0.9034803314","0.6274604021","0.3462231845","0.1703919496","","","","","","","","74","J","1","","","57","main_expt",""
"","bandit","137","578578","0.0-98.0-0.0","25837211","wem/bandit_either_3","A1VNYP58BTF4HX","either","1","4","","","","","","","1","0","0","0.3707442777","","0.2","0.6","0.8","0.4","","","","","0.9062052911","0.5636132077","0.3707442777","0.2146973212","","","","","","","","75","K","2","","","58","main_expt",""
"","bandit","138","580151","0.0-99.0-0.0","25837211","wem/bandit_either_3","A1VNYP58BTF4HX","either","1","5","","","","","","","0","1","0","","0.2118107272","0.2","0.6","0.8","0.4","0.9169546289","0.6555757088","0.4530366532","0.2118107272","","","","","","","","","","","","76","L","3","","","59","main_expt",""
"","bandit","139","581798","0.0-100.0-0.0","25837211","wem/bandit_either_3","A1VNYP58BTF4HX","either","1","77","","","","","","","0","1","0","","0.9048679239","0.2","0.6","0.8","0.4","0.9048679239","0.6555481193","0.4335409142","0.2096036334","","","","","","","","","","","","72","H","0","img/none_selected.jpg","","60","main_expt",""
"","bandit","140","583417","0.0-101.0-0.0","25837211","wem/bandit_either_3","A1VNYP58BTF4HX","either","1","32","","","","","","","0","0","1","0.6988977931","","0.2","0.6","0.8","0.4","","","","","0.9346572725","0.6988977931","0.3601573371","0.1985607356","","","","","","","","74","J","1","","","61","main_expt",""
"","bandit","141","584986","0.0-102.0-0.0","25837211","wem/bandit_either_3","A1VNYP58BTF4HX","either","1","5","","","","","","","1","0","0","0.3187004912","","0.2","0.6","0.8","0.4","","","","","0.9332729597","0.6124712875","0.3187004912","0.2352246004","","","","","","","","75","K","2","","","62","main_expt",""
"","bandit","142","586570","0.0-103.0-0.0","25837211","wem/bandit_either_3","A1VNYP58BTF4HX","either","1","40","","","","","","","0","0","1","","0.1989126294","0.2","0.6","0.8","0.4","0.9300142507","0.4881994696","0.331276396","0.1989126294","","","","","","","","","","","","76","L","3","","","63","main_expt",""
"","bandit","143","588170","0.0-104.0-0.0","25837211","wem/bandit_either_3","A1VNYP58BTF4HX","either","1","34","","","","","","","0","1","0","","0.8992917639","0.2","0.6","0.8","0.4","0.8992917639","0.5007509184","0.3984677","0.2231035509","","","","","","","","","","","","72","H","0","img/none_selected.jpg","","64","main_expt",""
"","bandit","144","589741","0.0-105.0-0.0","25837211","wem/bandit_either_3","A1VNYP58BTF4HX","either","1","6","","","","","","","1","0","0","0.6077525222","","0.2","0.6","0.8","0.4","","","","","0.7939475476","0.6077525222","0.3012021372","0.174077904","","","","","","","","74","J","1","","","65","main_expt",""
"","bandit","145","591313","0.0-106.0-0.0","25837211","wem/bandit_either_3","A1VNYP58BTF4HX","either","1","6","","","","","","","1","0","0","0.2848395029","","0.2","0.6","0.8","0.4","","","","","0.7848839068","0.4876759876","0.2848395029","0.1505104035","","","","","","","","75","K","2","","","66","main_expt",""
"","bandit","146","592900","0.0-107.0-0.0","25837211","wem/bandit_either_3","A1VNYP58BTF4HX","either","1","14","","","","","","","0","0","1","","0.1706094741","0.2","0.6","0.8","0.4","0.7712869283","0.4705728971","0.2908363747","0.1706094741","","","","","","","","","","","","76","L","3","","","67","main_expt",""
"","bandit","147","594558","0.0-108.0-0.0","25837211","wem/bandit_either_3","A1VNYP58BTF4HX","either","1","117","","","","","","","0","1","0","","0.7426915226","0.2","0.6","0.8","0.4","0.7426915226","0.5822594153","0.3226378352","0.193375558","","","","","","","","","","","","72","H","0","img/none_selected.jpg","","68","main_expt",""
"","bandit","148","596134","0.0-109.0-0.0","25837211","wem/bandit_either_3","A1VNYP58BTF4HX","either","1","10","","","","","","","0","0","1","","0.6189715015","0.2","0.6","0.8","0.4","0.592712881","0.6189715015","0.4490581071","0.226811003","","","","","","","","","","","","74","J","1","","","69","main_expt",""
"","bandit","149","597709","0.0-110.0-0.0","25837211","wem/bandit_either_3","A1VNYP58BTF4HX","either","1","5","","","","","","","0","0","1","0.42365523","","0.2","0.6","0.8","0.4","","","","","0.6587085967","0.5307799745","0.42365523","0.191142909","","","","","","","","75","K","2","","","70","main_expt",""
"","bandit","150","599271","0.0-111.0-0.0","25837211","wem/bandit_either_3","A1VNYP58BTF4HX","either","1","3","","","","","","","0","1","0","","0.2371486809","0.2","0.6","0.8","0.4","0.7562029562","0.5205551237","0.427101634","0.2371486809","","","","","","","","","","","","76","L","3","","","71","main_expt",""
"","bandit","151","600935","0.0-112.0-0.0","25837211","wem/bandit_either_3","A1VNYP58BTF4HX","either","1","88","","","","","","","0","1","0","","0.670676276","0.2","0.6","0.8","0.4","0.670676276","0.5913901284","0.5387899421","0.2602117984","","","","","","","","","","","","72","H","0","img/none_selected.jpg","","72","main_expt",""
"","bandit","152","602523","0.0-113.0-0.0","25837211","wem/bandit_either_3","A1VNYP58BTF4HX","either","1","5","","","","","","","0","0","1","0.7127465592","","0.2","0.6","0.8","0.4","","","","","0.6870219419","0.7127465592","0.4931252492","0.1837165363","","","","","","","","74","J","1","","","73","main_expt",""
"","bandit","153","604083","0.0-114.0-0.0","25837211","wem/bandit_either_3","A1VNYP58BTF4HX","either","1","3","","","","","","","0","0","1","0.3888626504","","0.2","0.6","0.8","0.4","","","","","0.582898469","0.7804212289","0.3888626504","0.2032334464","","","","","","","","75","K","2","","","74","main_expt",""
"","bandit","154","605658","0.0-115.0-0.0","25837211","wem/bandit_either_3","A1VNYP58BTF4HX","either","1","4","","","","","","","0","0","1","","0.2782751631","0.2","0.6","0.8","0.4","0.6452442043","0.7966502287","0.3866429177","0.2782751631","","","","","","","","","","","","76","L","3","","","75","main_expt",""
"","bandit","155","607292","0.0-116.0-0.0","25837211","wem/bandit_either_3","A1VNYP58BTF4HX","either","1","70","","","","","","","0","1","0","","0.7031137023","0.2","0.6","0.8","0.4","0.7031137023","0.7775959854","0.3948468247","0.3318782676","","","","","","","","","","","","72","H","0","img/none_selected.jpg","","76","main_expt",""
"","bandit","156","608858","0.0-117.0-0.0","25837211","wem/bandit_either_3","A1VNYP58BTF4HX","either","1","4","","","","","","","0","0","1","","0.8523583745","0.2","0.6","0.8","0.4","0.6096498107","0.8523583745","0.4853082722","0.312607664","","","","","","","","","","","","74","J","1","","","77","main_expt",""
"","bandit","157","610436","0.0-118.0-0.0","25837211","wem/bandit_either_3","A1VNYP58BTF4HX","either","1","8","","","","","","","0","0","1","0.4971609959","","0.2","0.6","0.8","0.4","","","","","0.532302087","0.7707034136","0.4971609959","0.3250695504","","","","","","","","75","K","2","","","78","main_expt",""
"","bandit","158","612016","0.0-119.0-0.0","25837211","wem/bandit_either_3","A1VNYP58BTF4HX","either","1","14","","","","","","","1","0","0","0.277144637","","0.2","0.6","0.8","0.4","","","","","0.4448734945","0.7919080975","0.5349041547","0.277144637","","","","","","","","76","L","3","","","79","main_expt",""
"","bandit","159","613672","0.0-120.0-0.0","25837211","wem/bandit_either_3","A1VNYP58BTF4HX","either","1","86","","","","","","","0","0","1","","0.34513516","0.2","0.6","0.8","0.4","0.34513516","0.8107458935","0.4713204996","0.293018971","","","","","","","","","","","","72","H","0","img/none_selected.jpg","","80","main_expt",""
"","bandit","160","615251","0.0-121.0-0.0","25837211","wem/bandit_either_3","A1VNYP58BTF4HX","either","1","8","","","","","","","0","1","0","","0.7851591746","0.2","0.6","0.8","0.4","0.406584365","0.7851591746","0.4132476049","0.2730851157","","","","","","","","","","","","74","J","1","","","81","main_expt",""
"","bandit","161","616840","0.0-122.0-0.0","25837211","wem/bandit_either_3","A1VNYP58BTF4HX","either","1","10","","","","","","","1","0","0","0.4640808921","","0.2","0.6","0.8","0.4","","","","","0.5068312928","0.8067558171","0.4640808921","0.2436011542","","","","","","","","75","K","2","","","82","main_expt",""
"","bandit","162","618483","0.0-123.0-0.0","25837211","wem/bandit_either_3","A1VNYP58BTF4HX","either","1","54","","","","","","","0","0","1","","0.2009218657","0.2","0.6","0.8","0.4","0.5209063211","0.7777816444","0.442115463","0.2009218657","","","","","","","","","","","","76","L","3","","","83","main_expt",""
"","bandit","163","620073","0.0-124.0-0.0","25837211","wem/bandit_either_3","A1VNYP58BTF4HX","either","1","5","","","","","","","0","0","1","","0.6221591745","0.2","0.6","0.8","0.4","0.6221591745","0.7801041195","0.5117806844","0.1550904625","","","","","","","","","","","","72","H","0","img/none_selected.jpg","","84","main_expt",""
"","bandit","164","621656","0.0-125.0-0.0","25837211","wem/bandit_either_3","A1VNYP58BTF4HX","either","1","6","","","","","","","1","0","0","0.7593249252","","0.2","0.6","0.8","0.4","","","","","0.6939346182","0.7593249252","0.5309627618","0.1193398435","","","","","","","","74","J","1","","","85","main_expt",""
"","bandit","165","623244","0.0-126.0-0.0","25837211","wem/bandit_either_3","A1VNYP58BTF4HX","either","1","6","","","","","","","1","0","0","0.5482659382","","0.2","0.6","0.8","0.4","","","","","0.7533471596","0.7911667705","0.5482659382","0.1398572341","","","","","","","","75","K","2","","","86","main_expt",""
"","bandit","166","624821","0.0-127.0-0.0","25837211","wem/bandit_either_3","A1VNYP58BTF4HX","either","1","6","","","","","","","0","0","1","0.1941505275","","0.2","0.6","0.8","0.4","","","","","0.8040573679","0.8480662183","0.4772076429","0.1941505275","","","","","","","","76","L","3","","","87","main_expt",""
"","bandit","167","626432","0.0-128.0-0.0","25837211","wem/bandit_either_3","A1VNYP58BTF4HX","either","1","27","","","","","","","0","1","0","","0.7800800897","0.2","0.6","0.8","0.4","0.7800800897","0.8110462569","0.5202977678","0.09645570925","","","","","","","","","","","","72","H","0","img/none_selected.jpg","","88","main_expt",""
"","bandit","168","628045","0.0-129.0-0.0","25837211","wem/bandit_either_3","A1VNYP58BTF4HX","either","1","43","","","","","","","1","0","0","0.7924414871","","0.2","0.6","0.8","0.4","","","","","0.7329239748","0.7924414871","0.4970482359","0.1304326216","","","","","","","","74","J","1","","","89","main_expt",""
"","bandit","169","629623","0.0-130.0-0.0","25837211","wem/bandit_either_3","A1VNYP58BTF4HX","either","1","5","","","","","","","0","0","1","0.4671205494","","0.2","0.6","0.8","0.4","","","","","0.7202813078","0.8190855249","0.4671205494","0.1410434261","","","","","","","","75","K","2","","","90","main_expt",""
"","bandit","170","631212","0.0-131.0-0.0","25837211","wem/bandit_either_3","A1VNYP58BTF4HX","either","1","5","","","","","","","0","0","1","","0.1277095213","0.2","0.6","0.8","0.4","0.698586111","0.858270253","0.5518401665","0.1277095213","","","","","","","","","","","","76","L","3","","","91","main_expt",""
"","bandit","171","632799","0.0-132.0-0.0","25837211","wem/bandit_either_3","A1VNYP58BTF4HX","either","1","11","","","","","","","0","0","1","","0.6054304462","0.2","0.6","0.8","0.4","0.6054304462","0.8583259383","0.620788192","0.08596821216","","","","","","","","","","","","72","H","0","img/none_selected.jpg","","92","main_expt",""
"","bandit","172","634389","0.0-133.0-0.0","25837211","wem/bandit_either_3","A1VNYP58BTF4HX","either","1","8","","","","","","","0","1","0","","0.8335107661","0.2","0.6","0.8","0.4","0.6829204303","0.8335107661","0.679669404","0.05652587691","","","","","","","","","","","","74","J","1","","","93","main_expt",""
"","bandit","173","635967","0.0-134.0-0.0","25837211","wem/bandit_either_3","A1VNYP58BTF4HX","either","1","5","","","","","","","1","0","0","0.6726581754","","0.2","0.6","0.8","0.4","","","","","0.6084783934","0.8849423118","0.6726581754","0.07490457358","","","","","","","","75","K","2","","","94","main_expt",""
"","bandit","174","637558","0.0-135.0-0.0","25837211","wem/bandit_either_3","A1VNYP58BTF4HX","either","1","5","","","","","","","0","0","1","","0.05201682933","0.2","0.6","0.8","0.4","0.51962455","0.9175662658","0.5983950962","0.05201682933","","","","","","","","","","","","76","L","3","","","95","main_expt",""
"","bandit","175","639227","0.0-136.0-0.0","25837211","wem/bandit_either_3","A1VNYP58BTF4HX","either","1","30","","","","","","","0","0","1","","0.453067158","0.2","0.6","0.8","0.4","0.453067158","0.8726153548","0.6316158747","0.0353667714","","","","","","","","","","","","72","H","0","img/none_selected.jpg","","96","main_expt",""
"","bandit","176","640846","0.0-137.0-0.0","25837211","wem/bandit_either_3","A1VNYP58BTF4HX","either","1","9","","","","","","","0","0","1","","0.6660601513","0.2","0.6","0.8","0.4","0.4090095009","0.7260562137","0.6660601513","0.04301306848","","","","","","","","","","","","75","K","2","","","97","main_expt",""
"","bandit","177","642439","0.0-138.0-0.0","25837211","wem/bandit_either_3","A1VNYP58BTF4HX","either","1","7","","","","","","","0","0","1","0.03950067624","","0.2","0.6","0.8","0.4","","","","","0.360727585","0.6506148609","0.6185462561","0.03950067624","","","","","","","","76","L","3","","","98","main_expt",""
"","bandit","178","644053","0.0-139.0-0.0","25837211","wem/bandit_either_3","A1VNYP58BTF4HX","either","1","48","","","","","","","0","0","1","","0.3351327477","0.2","0.6","0.8","0.4","0.3351327477","0.5816342488","0.581128502","0.03156699585","","","","","","","","","","","","72","H","0","img/none_selected.jpg","","99","main_expt",""
"","bandit","179","645667","0.0-140.0-0.0","25837211","wem/bandit_either_3","A1VNYP58BTF4HX","either","1","27","","","","","","","0","1","0","","0.5521464449","0.2","0.6","0.8","0.4","0.3491912274","0.5521464449","0.479775063","0.0248161238","","","","","","","","","","","","74","J","1","","","100","main_expt",""
"","bandit","180","647250","0.0-141.0-0.0","25837211","wem/bandit_either_3","A1VNYP58BTF4HX","either","1","4","","","","","","","0","0","1","0.5114647241","","0.2","0.6","0.8","0.4","","","","","0.4105375765","0.6063232436","0.5114647241","0.02218075004","","","","","","","","75","K","2","","","101","main_expt",""
"","bandit","181","648914","0.0-142.0-0.0","25837211","wem/bandit_either_3","A1VNYP58BTF4HX","either","1","135","","","","","","","0","0","1","0.438632671","","0.2","0.6","0.8","0.4","","","","","0.438632671","0.5636213764","0.4718740674","0.01802152149","","","","","","","","72","H","0","img/none_selected.jpg","","102","main_expt",""
"","bandit","182","650646","0.0-143.0-0.0","25837211","wem/bandit_either_3","A1VNYP58BTF4HX","either","1","49","","","","","","","0","0","1","","0.372838406","0.2","0.6","0.8","0.4","0.372838406","0.5370473259","0.5245129891","0.01877214671","","","","","","","","","","","","72","H","0","img/none_selected.jpg","","103","main_expt",""
"","bandit","183","652296","0.0-144.0-0.0","25837211","wem/bandit_either_3","A1VNYP58BTF4HX","either","1","76","","","","","","","0","0","1","0.3057692375","","0.2","0.6","0.8","0.4","","","","","0.3057692375","0.549647281","0.5170751474","0.01556743346","","","","","","","","72","H","0","img/none_selected.jpg","","104","main_expt",""
"","bandit","184","653850","0.0-145.0-0.0","25837211","wem/bandit_either_3","A1VNYP58BTF4HX","either","1","23","","","","","","","0","0","1","","0.4225976111","0.2","0.6","0.8","0.4","0.37369274","0.4225976111","0.472330124","0.03717147126","","","","","","","","","","","","74","J","1","","","105","main_expt",""
"","bandit","185","655444","0.0-146.0-0.0","25837211","wem/bandit_either_3","A1VNYP58BTF4HX","either","1","13","","","","","","","0","0","1","","0.568133852","0.2","0.6","0.8","0.4","0.3179799449","0.5005163425","0.568133852","0.07687033395","","","","","","","","","","","","75","K","2","","","106","main_expt",""
"","bandit","186","657081","0.0-147.0-0.0","25837211","wem/bandit_either_3","A1VNYP58BTF4HX","either","1","10","","","","","","","0","0","1","","0.07659049968","0.2","0.6","0.8","0.4","0.3053765494","0.3995396385","0.536018559","0.07659049968","","","","","","","","","","","","76","L","3","","","107","main_expt",""
"","bandit","187","658677","0.0-148.0-0.0","25837211","wem/bandit_either_3","A1VNYP58BTF4HX","either","1","25","","","","","","","0","1","0","","0.2732860947","0.2","0.6","0.8","0.4","0.2732860947","0.3855926336","0.3880888981","0.07827602418","","","","","","","","","","","","72","H","0","img/none_selected.jpg","","108","main_expt",""
"","bandit","188","660258","0.0-149.0-0.0","25837211","wem/bandit_either_3","A1VNYP58BTF4HX","either","1","3","","","","","","","1","0","0","0.3059937163","","0.2","0.6","0.8","0.4","","","","","0.2624197952","0.3059937163","0.3675045314","0.1352418701","","","","","","","","74","J","1","","","109","main_expt",""
"","bandit","189","661842","0.0-150.0-0.0","25837211","wem/bandit_either_3","A1VNYP58BTF4HX","either","1","5","","","","","","","0","0","1","","0.4560700489","0.2","0.6","0.8","0.4","0.3303210632","0.2752892785","0.4560700489","0.1705666919","","","","","","","","","","","","75","K","2","","","110","main_expt",""
"","bandit","190","663426","0.0-151.0-0.0","25837211","wem/bandit_either_3","A1VNYP58BTF4HX","either","1","7","","","","","","","0","0","1","0.2202970635","","0.2","0.6","0.8","0.4","","","","","0.3541452024","0.3038626008","0.5366389876","0.2202970635","","","","","","","","76","L","3","","","111","main_expt",""
"","bandit","191","665039","0.0-152.0-0.0","25837211","wem/bandit_either_3","A1VNYP58BTF4HX","either","1","38","","","","","","","0","1","0","","0.4468573219","0.2","0.6","0.8","0.4","0.4468573219","0.2308866464","0.5742054707","0.2368742277","","","","","","","","","","","","72","H","0","img/none_selected.jpg","","112","main_expt",""
"","bandit","192","666608","0.0-153.0-0.0","25837211","wem/bandit_either_3","A1VNYP58BTF4HX","either","1","23","","","","","","","0","1","0","","0.2420052043","0.2","0.6","0.8","0.4","0.5163231944","0.2420052043","0.6014260319","0.2487241586","","","","","","","","","","","","74","J","1","","","113","main_expt",""
"","bandit","193","668195","0.0-154.0-0.0","25837211","wem/bandit_either_3","A1VNYP58BTF4HX","either","1","6","","","","","","","0","0","1","0.5398035654","","0.2","0.6","0.8","0.4","","","","","0.4064640458","0.3277817495","0.5398035654","0.238824581","","","","","","","","75","K","2","","","114","main_expt",""
"","bandit","194","669774","0.0-155.0-0.0","25837211","wem/bandit_either_3","A1VNYP58BTF4HX","either","1","5","","","","","","","0","1","0","","0.1480638281","0.2","0.6","0.8","0.4","0.4085425191","0.3280884562","0.5008208772","0.1480638281","","","","","","","","","","","","76","L","3","","","115","main_expt",""
"","bandit","195","671420","0.0-156.0-0.0","25837211","wem/bandit_either_3","A1VNYP58BTF4HX","either","1","62","","","","","","","0","1","0","","0.4412864427","0.2","0.6","0.8","0.4","0.4412864427","0.4137256642","0.4200837231","0.1246447603","","","","","","","","","","","","72","H","0","img/none_selected.jpg","","116","main_expt",""
"","bandit","196","673007","0.0-157.0-0.0","25837211","wem/bandit_either_3","A1VNYP58BTF4HX","either","1","5","","","","","","","0","1","0","","0.372751341","0.2","0.6","0.8","0.4","0.5188885271","0.372751341","0.4094987027","0.1308085784","","","","","","","","","","","","74","J","1","","","117","main_expt",""
"","bandit","197","674602","0.0-158.0-0.0","25837211","wem/bandit_either_3","A1VNYP58BTF4HX","either","1","6","","","","","","","0","0","1","","0.3862907493","0.2","0.6","0.8","0.4","0.5728151575","0.4225631273","0.3862907493","0.09076242324","","","","","","","","","","","","75","K","2","","","118","main_expt",""
"","bandit","198","676184","0.0-159.0-0.0","25837211","wem/bandit_either_3","A1VNYP58BTF4HX","either","1","5","","","","","","","0","0","1","","0.09057925276","0.2","0.6","0.8","0.4","0.5065624602","0.4188482812","0.4437318585","0.09057925276","","","","","","","","","","","","76","L","3","","","119","main_expt",""
"","bandit","199","677815","0.0-160.0-0.0","25837211","wem/bandit_either_3","A1VNYP58BTF4HX","either","1","37","","","","","","","0","1","0","","0.4064427813","0.2","0.6","0.8","0.4","0.4064427813","0.3729077829","0.293469011","0.1288926122","","","","","","","","","","","","72","H","0","img/none_selected.jpg","","120","main_expt",""
"","bandit","200","679435","0.0-161.0-0.0","25837211","wem/bandit_either_3","A1VNYP58BTF4HX","either","1","6","","","","","","","0","0","1","0.3817262037","","0.2","0.6","0.8","0.4","","","","","0.3948988447","0.3817262037","0.2141601759","0.1479701512","","","","","","","","74","J","1","","","121","main_expt",""
"","bandit","201","681023","0.0-162.0-0.0","25837211","wem/bandit_either_3","A1VNYP58BTF4HX","either","1","6","","","","","","","0","0","1","0.2594293103","","0.2","0.6","0.8","0.4","","","","","0.316823658","0.3537210734","0.2594293103","0.1663524813","","","","","","","","75","K","2","","","122","main_expt",""
"","bandit","202","682673","0.0-163.0-0.0","25837211","wem/bandit_either_3","A1VNYP58BTF4HX","either","1","66","","","","","","","0","0","1","","0.3045978244","0.2","0.6","0.8","0.4","0.3045978244","0.3633727708","0.1519240937","0.1993917655","","","","","","","","","","","","72","H","0","img/none_selected.jpg","","123","main_expt",""
"","bandit","203","684270","0.0-164.0-0.0","25837211","wem/bandit_either_3","A1VNYP58BTF4HX","either","1","9","","","","","","","0","0","1","0.4139908316","","0.2","0.6","0.8","0.4","","","","","0.2389028675","0.4139908316","0.2311656533","0.2948689786","","","","","","","","74","J","1","","","124","main_expt",""
"","bandit","204","685857","0.0-165.0-0.0","25837211","wem/bandit_either_3","A1VNYP58BTF4HX","either","1","6","","","","","","","0","1","0","","0.1956748967","0.2","0.6","0.8","0.4","0.2166803268","0.3619800754","0.1956748967","0.4054398129","","","","","","","","","","","","75","K","2","","","125","main_expt",""
"","bandit","205","687433","0.0-166.0-0.0","25837211","wem/bandit_either_3","A1VNYP58BTF4HX","either","1","5","","","","","","","0","0","1","0.5337661481","","0.2","0.6","0.8","0.4","","","","","0.1613674106","0.353362548","0.1419383156","0.5337661481","","","","","","","","76","L","3","","","126","main_expt",""
"","bandit","206","689048","0.0-167.0-0.0","25837211","wem/bandit_either_3","A1VNYP58BTF4HX","either","1","38","","","","","","","0","0","1","","0.1682412955","0.2","0.6","0.8","0.4","0.1682412955","0.2888217425","0.1768105291","0.5510518781","","","","","","","","","","","","72","H","0","img/none_selected.jpg","","127","main_expt",""
"","bandit","207","690645","0.0-168.0-0.0","25837211","wem/bandit_either_3","A1VNYP58BTF4HX","either","1","8","","","","","","","1","0","0","0.3131893798","","0.2","0.6","0.8","0.4","","","","","0.1655910943","0.3131893798","0.1187699492","0.4746642732","","","","","","","","74","J","1","","","128","main_expt",""
"","bandit","208","692241","0.0-169.0-0.0","25837211","wem/bandit_either_3","A1VNYP58BTF4HX","either","1","6","","","","","","","0","0","1","0.1860330609","","0.2","0.6","0.8","0.4","","","","","0.1845506081","0.2826861836","0.1860330609","0.5345142674","","","","","","","","75","K","2","","","129","main_expt",""
"","bandit","209","693840","0.0-170.0-0.0","25837211","wem/bandit_either_3","A1VNYP58BTF4HX","either","1","6","","","","","","","0","1","0","","0.6617219445","0.2","0.6","0.8","0.4","0.1548240476","0.3434973012","0.09722607165","0.6617219445","","","","","","","","","","","","76","L","3","","","130","main_expt",""
"","bandit","210","695428","0.0-171.0-0.0","25837211","wem/bandit_either_3","A1VNYP58BTF4HX","either","1","6","","","","","","","0","0","1","","0.1503989","0.2","0.6","0.8","0.4","0.1503989","0.3848082556","0.05626421391","0.6183560712","","","","","","","","","","","","72","H","0","img/none_selected.jpg","","131","main_expt",""
"","bandit","211","697016","0.0-172.0-0.0","25837211","wem/bandit_either_3","A1VNYP58BTF4HX","either","1","7","","","","","","","0","0","1","0.4140069858","","0.2","0.6","0.8","0.4","","","","","0.1199593994","0.4140069858","0.1149854728","0.7009512511","","","","","","","","74","J","1","","","132","main_expt",""
"","bandit","212","698650","0.0-173.0-0.0","25837211","wem/bandit_either_3","A1VNYP58BTF4HX","either","1","8","","","","","","","0","0","1","0.1698175541","","0.2","0.6","0.8","0.4","","","","","0.1518383839","0.3745017877","0.1698175541","0.5838974895","","","","","","","","75","K","2","","","133","main_expt",""
"","bandit","213","700301","0.0-174.0-0.0","25837211","wem/bandit_either_3","A1VNYP58BTF4HX","either","1","62","","","","","","","0","0","1","","0.1855528241","0.2","0.6","0.8","0.4","0.1855528241","0.3918835711","0.1925371395","0.6628563986","","","","","","","","","","","","72","H","0","img/none_selected.jpg","","134","main_expt",""
"","bandit","214","701908","0.0-175.0-0.0","25837211","wem/bandit_either_3","A1VNYP58BTF4HX","either","1","30","","","","","","","1","0","0","0.3405764209","","0.2","0.6","0.8","0.4","","","","","0.2187769305","0.3405764209","0.246136332","0.5610912218","","","","","","","","74","J","1","","","135","main_expt",""
"","bandit","215","703526","0.0-176.0-0.0","25837211","wem/bandit_either_3","A1VNYP58BTF4HX","either","1","7","","","","","","","0","0","1","0.2277518718","","0.2","0.6","0.8","0.4","","","","","0.2001534018","0.4155430462","0.2277518718","0.4834649218","","","","","","","","75","K","2","","","136","main_expt",""
"","bandit","216","705185","0.0-177.0-0.0","25837211","wem/bandit_either_3","A1VNYP58BTF4HX","either","1","65","","","","","","","0","0","1","","0.176995917","0.2","0.6","0.8","0.4","0.176995917","0.3389252929","0.252962458","0.513072369","","","","","","","","","","","","72","H","0","img/none_selected.jpg","","137","main_expt",""
"","bandit","217","706823","0.0-178.0-0.0","25837211","wem/bandit_either_3","A1VNYP58BTF4HX","either","1","36","","","","","","","0","0","1","","0.2698753193","0.2","0.6","0.8","0.4","0.1460019238","0.2698753193","0.3018696236","0.5502636267","","","","","","","","","","","","74","J","1","","","138","main_expt",""
"","bandit","218","708416","0.0-179.0-0.0","25837211","wem/bandit_either_3","A1VNYP58BTF4HX","either","1","7","","","","","","","0","0","1","0.4564922144","","0.2","0.6","0.8","0.4","","","","","0.06707115951","0.2821570394","0.347353107","0.4564922144","","","","","","","","76","L","3","","","139","main_expt",""
"","bandit","219","710048","0.0-180.0-0.0","25837211","wem/bandit_either_3","A1VNYP58BTF4HX","either","1","24","","","","","","","0","0","1","","0.1071331831","0.2","0.6","0.8","0.4","0.1071331831","0.3577533322","0.2477375586","0.4116013625","","","","","","","","","","","","72","H","0","img/none_selected.jpg","","140","main_expt",""
"","bandit","220","711696","0.0-181.0-0.0","25837211","wem/bandit_either_3","A1VNYP58BTF4HX","either","1","39","","","","","","","0","0","1","","0.4250900652","0.2","0.6","0.8","0.4","0.1224459691","0.4250900652","0.2880826197","0.4498847811","","","","","","","","","","","","74","J","1","","","141","main_expt",""
"","bandit","221","713274","0.0-182.0-0.0","25837211","wem/bandit_either_3","A1VNYP58BTF4HX","either","1","5","","","","","","","0","0","1","","0.4822150968","0.2","0.6","0.8","0.4","0.1127900777","0.3451055681","0.2287108423","0.4822150968","","","","","","","","","","","","76","L","3","","","142","main_expt",""
"","bandit","222","714922","0.0-183.0-0.0","25837211","wem/bandit_either_3","A1VNYP58BTF4HX","either","1","52","","","","","","","0","0","1","","0.1736101882","0.2","0.6","0.8","0.4","0.1736101882","0.4661026996","0.2096850542","0.513506041","","","","","","","","","","","","72","H","0","img/none_selected.jpg","","143","main_expt",""
"","bandit","223","716536","0.0-184.0-0.0","25837211","wem/bandit_either_3","A1VNYP58BTF4HX","either","1","32","","","","","","","0","0","1","0.4683168179","","0.2","0.6","0.8","0.4","","","","","0.1231714597","0.4683168179","0.2214165798","0.556822441","","","","","","","","74","J","1","","","144","main_expt",""
"","bandit","224","718137","0.0-185.0-0.0","25837211","wem/bandit_either_3","A1VNYP58BTF4HX","either","1","5","","","","","","","0","0","1","0.2412424024","","0.2","0.6","0.8","0.4","","","","","0.10514291","0.448697065","0.2412424024","0.5633269006","","","","","","","","75","K","2","","","145","main_expt",""
"","bandit","225","719819","0.0-186.0-0.0","25837211","wem/bandit_either_3","A1VNYP58BTF4HX","either","1","78","","","","","","","0","0","1","","0.0972381369","0.2","0.6","0.8","0.4","0.0972381369","0.4560677512","0.1841611904","0.6482805244","","","","","","","","","","","","72","H","0","img/none_selected.jpg","","146","main_expt",""
"","bandit","226","721441","0.0-187.0-0.0","25837211","wem/bandit_either_3","A1VNYP58BTF4HX","either","1","13","","","","","","","0","0","1","0.513472809","","0.2","0.6","0.8","0.4","","","","","0.1897119627","0.513472809","0.1577922033","0.6036290043","","","","","","","","74","J","1","","","147","main_expt",""
"","bandit","227","723057","0.0-188.0-0.0","25837211","wem/bandit_either_3","A1VNYP58BTF4HX","either","1","9","","","","","","","1","0","0","0.6110248825","","0.2","0.6","0.8","0.4","","","","","0.1759094881","0.3820674583","0.1663963597","0.6110248825","","","","","","","","76","L","3","","","148","main_expt",""
"","bandit","228","754228","0.0-189.0-0.0","25837211","wem/bandit_either_3","A1VNYP58BTF4HX","either","1","29567","","","","","","","0","1","0","","0.2204336569","0.2","0.6","0.8","0.4","0.2204336569","0.3116557105","0.319747154","0.6453676348","","","","","","","","","","","","72","H","0","img/none_selected.jpg","","149","main_expt",""
"","bandit","229","755827","0.0-190.0-0.0","25837211","wem/bandit_either_3","A1VNYP58BTF4HX","either","1","6","","","","","","","1","0","0","0.3039338698","","0.2","0.6","0.8","0.4","","","","","0.2328853871","0.3039338698","0.5410110608","0.66235511","","","","","","","","74","J","1","","","150","main_expt",""
"","bandit","230","757421","0.0-191.0-0.0","25837211","wem/bandit_either_3","A1VNYP58BTF4HX","either","1","5","","","","","","","0","0","1","0.5584745132","","0.2","0.6","0.8","0.4","","","","","0.2652525627","0.3092958796","0.5584745132","0.5547575852","","","","","","","","75","K","2","","","151","main_expt",""
"","bandit","231","759023","0.0-192.0-0.0","25837211","wem/bandit_either_3","A1VNYP58BTF4HX","either","1","6","","","","","","","0","1","0","","0.5223098228","0.2","0.6","0.8","0.4","0.2654363334","0.3097370874","0.5709378499","0.5223098228","","","","","","","","","","","","76","L","3","","","152","main_expt",""
"","bandit","232","760619","0.0-193.0-0.0","25837211","wem/bandit_either_3","A1VNYP58BTF4HX","either","1","5","","","","","","","0","0","1","","0.3505589273","0.2","0.6","0.8","0.4","0.3505589273","0.2955649657","0.6314515046","0.5137303037","","","","","","","","","","","","72","H","0","img/none_selected.jpg","","153","main_expt",""
"","bandit","233","762228","0.0-194.0-0.0","25837211","wem/bandit_either_3","A1VNYP58BTF4HX","either","1","6","","","","","","","0","1","0","","0.221553637","0.2","0.6","0.8","0.4","0.39889796","0.221553637","0.6734276465","0.5193194566","","","","","","","","","","","","74","J","1","","","154","main_expt",""
"","bandit","234","763826","0.0-195.0-0.0","25837211","wem/bandit_either_3","A1VNYP58BTF4HX","either","1","6","","","","","","","0","0","1","","0.4736812385","0.2","0.6","0.8","0.4","0.4202606707","0.2231547498","0.7019144477","0.4736812385","","","","","","","","","","","","76","L","3","","","155","main_expt",""
"","bandit","235","765543","0.0-196.0-0.0","25837211","wem/bandit_either_3","A1VNYP58BTF4HX","either","1","125","","","","","","","0","1","0","","0.4814159609","0.2","0.6","0.8","0.4","0.4814159609","0.2750957943","0.6695455193","0.4616442501","","","","","","","","","","","","72","H","0","img/none_selected.jpg","","156","main_expt",""
"","bandit","236","767135","0.0-197.0-0.0","25837211","wem/bandit_either_3","A1VNYP58BTF4HX","either","1","5","","","","","","","0","1","0","","0.6179864128","0.2","0.6","0.8","0.4","0.5316807058","0.2005793054","0.6179864128","0.5025740222","","","","","","","","","","","","75","K","2","","","157","main_expt",""
"","bandit","237","768690","0.0-198.0-0.0","25837211","wem/bandit_either_3","A1VNYP58BTF4HX","either","1","3","","","","","","","1","0","0","0.4548105643","","0.2","0.6","0.8","0.4","","","","","0.5429668589","0.2502080146","0.7380689997","0.4548105643","","","","","","","","76","L","3","","","158","main_expt",""
"","bandit","238","770351","0.0-199.0-0.0","25837211","wem/bandit_either_3","A1VNYP58BTF4HX","either","1","65","","","","","","","0","0","1","","0.5991419929","0.2","0.6","0.8","0.4","0.5991419929","0.2729805177","0.7632184112","0.4622667215","","","","","","","","","","","","72","H","0","img/none_selected.jpg","","159","main_expt",""
"","bandit","239","771951","0.0-200.0-0.0","25837211","wem/bandit_either_3","A1VNYP58BTF4HX","either","1","5","","","","","","","1","0","0","0.2801697818","","0.2","0.6","0.8","0.4","","","","","0.6480894682","0.2801697818","0.6917664031","0.4600517474","","","","","","","","74","J","1","","","160","main_expt",""
"","bandit","240","773553","0.0-201.0-0.0","25837211","wem/bandit_either_3","A1VNYP58BTF4HX","either","1","6","","","","","","","0","1","0","","0.7106531984","0.2","0.6","0.8","0.4","0.6776161973","0.2437938608","0.7106531984","0.481388234","","","","","","","","","","","","75","K","2","","","161","main_expt",""
"","bandit","241","775227","0.0-202.0-0.0","25837211","wem/bandit_either_3","A1VNYP58BTF4HX","either","1","81","","","","","","","0","0","1","0.7134031715","","0.2","0.6","0.8","0.4","","","","","0.7134031715","0.2687553501","0.809310282","0.3850106192","","","","","","","","72","H","0","img/none_selected.jpg","","162","main_expt",""
"","bandit","242","776822","0.0-203.0-0.0","25837211","wem/bandit_either_3","A1VNYP58BTF4HX","either","1","5","","","","","","","0","1","0","","0.245991677","0.2","0.6","0.8","0.4","0.6215635068","0.245991677","0.7492875705","0.3498723973","","","","","","","","","","","","74","J","1","","","163","main_expt",""
"","bandit","243","778436","0.0-204.0-0.0","25837211","wem/bandit_either_3","A1VNYP58BTF4HX","either","1","6","","","","","","","0","0","1","0.7561394707","","0.2","0.6","0.8","0.4","","","","","0.5219240024","0.270385563","0.7561394707","0.4287417444","","","","","","","","75","K","2","","","164","main_expt",""
"","bandit","244","780060","0.0-205.0-0.0","25837211","wem/bandit_either_3","A1VNYP58BTF4HX","either","1","1","","","","","","","0","1","0","","0.3150145745","0.2","0.6","0.8","0.4","0.4727302842","0.3037855967","0.8111415702","0.3150145745","","","","","","","","","","","","76","L","3","","","165","main_expt",""
"","bandit","245","781663","0.0-206.0-0.0","25837211","wem/bandit_either_3","A1VNYP58BTF4HX","either","1","6","","","","","","","0","0","1","","0.5181018645","0.2","0.6","0.8","0.4","0.5181018645","0.3395577104","0.7759938205","0.2927018344","","","","","","","","","","","","72","H","0","img/none_selected.jpg","","166","main_expt",""
"","bandit","246","783258","0.0-207.0-0.0","25837211","wem/bandit_either_3","A1VNYP58BTF4HX","either","1","5","","","","","","","1","0","0","0.8267633335","","0.2","0.6","0.8","0.4","","","","","0.5280433419","0.3443901906","0.8267633335","0.3610256338","","","","","","","","75","K","2","","","167","main_expt",""
"","bandit","247","784850","0.0-208.0-0.0","25837211","wem/bandit_either_3","A1VNYP58BTF4HX","either","1","5","","","","","","","0","0","1","","0.3137127159","0.2","0.6","0.8","0.4","0.5470010145","0.2552323567","0.8136073627","0.3137127159","","","","","","","","","","","","76","L","3","","","168","main_expt",""
"","bandit","248","786476","0.0-209.0-0.0","25837211","wem/bandit_either_3","A1VNYP58BTF4HX","either","1","27","","","","","","","0","0","1","0.5558845962","","0.2","0.6","0.8","0.4","","","","","0.5558845962","0.289352286","0.7308533614","0.2292796242","","","","","","","","72","H","0","img/none_selected.jpg","","169","main_expt",""
"","bandit","249","788107","0.0-210.0-0.0","25837211","wem/bandit_either_3","A1VNYP58BTF4HX","either","1","6","","","","","","","1","0","0","0.2262743404","","0.2","0.6","0.8","0.4","","","","","0.5799309324","0.2262743404","0.7090730391","0.221948569","","","","","","","","74","J","1","","","170","main_expt",""
"","bandit","250","789709","0.0-211.0-0.0","25837211","wem/bandit_either_3","A1VNYP58BTF4HX","either","1","9","","","","","","","0","0","1","","0.159615594","0.2","0.6","0.8","0.4","0.6643953266","0.2644351609","0.7229684446","0.159615594","","","","","","","","","","","","76","L","3","","","171","main_expt",""
"","bandit","251","791353","0.0-212.0-0.0","25837211","wem/bandit_either_3","A1VNYP58BTF4HX","either","1","45","","","","","","","0","1","0","","0.7610666705","0.2","0.6","0.8","0.4","0.7610666705","0.4136296373","0.6612043244","0.1303854457","","","","","","","","","","","","72","H","0","img/none_selected.jpg","","172","main_expt",""
"","bandit","252","792950","0.0-213.0-0.0","25837211","wem/bandit_either_3","A1VNYP58BTF4HX","either","1","5","","","","","","","1","0","0","0.491318492","","0.2","0.6","0.8","0.4","","","","","0.8006149786","0.491318492","0.7669021743","0.07729024622","","","","","","","","74","J","1","","","173","main_expt",""
"","bandit","253","794527","0.0-214.0-0.0","25837211","wem/bandit_either_3","A1VNYP58BTF4HX","either","1","4","","","","","","","1","0","0","0.8111867287","","0.2","0.6","0.8","0.4","","","","","0.791095403","0.4966763124","0.8111867287","0.1227026474","","","","","","","","75","K","2","","","174","main_expt",""
"","bandit","254","796133","0.0-215.0-0.0","25837211","wem/bandit_either_3","A1VNYP58BTF4HX","either","1","6","","","","","","","0","0","1","","0.09483306355","0.2","0.6","0.8","0.4","0.8572088762","0.5109350621","0.8192498968","0.09483306355","","","","","","","","","","","","76","L","3","","","175","main_expt",""
"","bandit","255","797743","0.0-216.0-0.0","25837211","wem/bandit_either_3","A1VNYP58BTF4HX","either","1","6","","","","","","","1","0","0","0.8576080684","","0.2","0.6","0.8","0.4","","","","","0.8576080684","0.6321295754","0.8371283275","0.143069758","","","","","","","","72","H","0","img/none_selected.jpg","","176","main_expt",""
"","bandit","256","799354","0.0-217.0-0.0","25837211","wem/bandit_either_3","A1VNYP58BTF4HX","either","1","5","","","","","","","0","0","1","0.5515755996","","0.2","0.6","0.8","0.4","","","","","0.8678158231","0.5515755996","0.8545140947","0.1741656422","","","","","","","","74","J","1","","","177","main_expt",""
"","bandit","257","800963","0.0-218.0-0.0","25837211","wem/bandit_either_3","A1VNYP58BTF4HX","either","1","5","","","","","","","0","0","1","0.1904086474","","0.2","0.6","0.8","0.4","","","","","0.8820542777","0.5086275016","0.8794893657","0.1904086474","","","","","","","","76","L","3","","","178","main_expt",""
"","bandit","258","802602","0.0-219.0-0.0","25837211","wem/bandit_either_3","A1VNYP58BTF4HX","either","1","37","","","","","","","0","1","0","","0.8907334788","0.2","0.6","0.8","0.4","0.8907334788","0.5215192908","0.8939587296","0.1778905233","","","","","","","","","","","","72","H","0","img/none_selected.jpg","","179","main_expt",""
"","bandit","259","804203","0.0-220.0-0.0","25837211","wem/bandit_either_3","A1VNYP58BTF4HX","either","1","5","","","","","","","1","0","0","0.5193414217","","0.2","0.6","0.8","0.4","","","","","0.9161653667","0.5193414217","0.868077767","0.2112817454","","","","","","","","74","J","1","","","180","main_expt",""
"","bandit","260","805814","0.0-221.0-0.0","25837211","wem/bandit_either_3","A1VNYP58BTF4HX","either","1","6","","","","","","","1","0","0","0.9295405476","","0.2","0.6","0.8","0.4","","","","","0.9327112184","0.4613460131","0.9295405476","0.2236312472","","","","","","","","75","K","2","","","181","main_expt",""
"","bandit","261","807479","0.0-222.0-0.0","25837211","wem/bandit_either_3","A1VNYP58BTF4HX","either","1","50","","","","","","","0","1","0","","0.9284398706","0.2","0.6","0.8","0.4","0.9284398706","0.4468633868","0.9213574857","0.264467441","","","","","","","","","","","","72","H","0","img/none_selected.jpg","","182","main_expt",""
"","bandit","262","809066","0.0-223.0-0.0","25837211","wem/bandit_either_3","A1VNYP58BTF4HX","either","1","4","","","","","","","0","0","1","0.4985091709","","0.2","0.6","0.8","0.4","","","","","0.89591471","0.4985091709","0.9374560388","0.2240632979","","","","","","","","74","J","1","","","183","main_expt",""
"","bandit","263","810681","0.0-224.0-0.0","25837211","wem/bandit_either_3","A1VNYP58BTF4HX","either","1","5","","","","","","","1","0","0","0.9120054929","","0.2","0.6","0.8","0.4","","","","","0.9146434193","0.6057575335","0.9120054929","0.1671404848","","","","","","","","75","K","2","","","184","main_expt",""
"","bandit","264","812282","0.0-225.0-0.0","25837211","wem/bandit_either_3","A1VNYP58BTF4HX","either","1","6","","","","","","","0","0","1","0.1932257563","","0.2","0.6","0.8","0.4","","","","","0.8575823977","0.4915456485","0.8428471033","0.1932257563","","","","","","","","76","L","3","","","185","main_expt",""
"","bandit","265","813895","0.0-226.0-0.0","25837211","wem/bandit_either_3","A1VNYP58BTF4HX","either","1","5","","","","","","","0","1","0","","0.8487952361","0.2","0.6","0.8","0.4","0.8487952361","0.5976273718","0.7734335662","0.155472597","","","","","","","","","","","","72","H","0","img/none_selected.jpg","","186","main_expt",""
"","bandit","266","815527","0.0-227.0-0.0","25837211","wem/bandit_either_3","A1VNYP58BTF4HX","either","1","6","","","","","","","1","0","0","0.7667319261","","0.2","0.6","0.8","0.4","","","","","0.8603972339","0.5743595779","0.7667319261","0.1895871356","","","","","","","","75","K","2","","","187","main_expt",""
"","bandit","267","817134","0.0-228.0-0.0","25837211","wem/bandit_either_3","A1VNYP58BTF4HX","either","1","6","","","","","","","0","1","0","","0.2119556673","0.2","0.6","0.8","0.4","0.8834510925","0.6833173747","0.5945875292","0.2119556673","","","","","","","","","","","","76","L","3","","","188","main_expt",""
"","bandit","268","818740","0.0-229.0-0.0","25837211","wem/bandit_either_3","A1VNYP58BTF4HX","either","1","5","","","","","","","1","0","0","0.8973947779","","0.2","0.6","0.8","0.4","","","","","0.8973947779","0.651089354","0.7406569186","0.2255007403","","","","","","","","72","H","0","img/none_selected.jpg","","189","main_expt",""
"","bandit","269","820346","0.0-230.0-0.0","25837211","wem/bandit_either_3","A1VNYP58BTF4HX","either","1","5","","","","","","","0","0","1","","0.6599652607","0.2","0.6","0.8","0.4","0.8824587855","0.6599652607","0.7371931777","0.1754842532","","","","","","","","","","","","74","J","1","","","190","main_expt",""
"","bandit","270","821947","0.0-231.0-0.0","25837211","wem/bandit_either_3","A1VNYP58BTF4HX","either","1","5","","","","","","","0","0","1","","0.7019705866","0.2","0.6","0.8","0.4","0.9076431997","0.6960236584","0.7019705866","0.1936311571","","","","","","","","","","","","75","K","2","","","191","main_expt",""
"","bandit","271","823601","0.0-232.0-0.0","25837211","wem/bandit_either_3","A1VNYP58BTF4HX","either","1","46","","","","","","","0","1","0","","0.8673165995","0.2","0.6","0.8","0.4","0.8673165995","0.6713911156","0.6198122665","0.215612591","","","","","","","","","","","","72","H","0","img/none_selected.jpg","","192","main_expt",""
"","bandit","272","825217","0.0-233.0-0.0","25837211","wem/bandit_either_3","A1VNYP58BTF4HX","either","1","6","","","","","","","0","1","0","","0.7244072205","0.2","0.6","0.8","0.4","0.8264401474","0.7244072205","0.6100930929","0.2818734505","","","","","","","","","","","","74","J","1","","","193","main_expt",""
"","bandit","273","826817","0.0-234.0-0.0","25837211","wem/bandit_either_3","A1VNYP58BTF4HX","either","1","5","","","","","","","0","0","1","0.6332739585","","0.2","0.6","0.8","0.4","","","","","0.8546086414","0.7397798508","0.6332739585","0.3616108755","","","","","","","","75","K","2","","","194","main_expt",""
"","bandit","274","828483","0.0-235.0-0.0","25837211","wem/bandit_either_3","A1VNYP58BTF4HX","either","1","65","","","","","","","1","0","0","0.7914914872","","0.2","0.6","0.8","0.4","","","","","0.7914914872","0.7602069811","0.609207161","0.3979961615","","","","","","","","72","H","0","img/none_selected.jpg","","195","main_expt",""
"","bandit","275","830092","0.0-236.0-0.0","25837211","wem/bandit_either_3","A1VNYP58BTF4HX","either","1","8","","","","","","","0","1","0","","0.7114092524","0.2","0.6","0.8","0.4","0.7608346536","0.7114092524","0.6560649547","0.4366641927","","","","","","","","","","","","74","J","1","","","196","main_expt",""
"","bandit","276","831687","0.0-237.0-0.0","25837211","wem/bandit_either_3","A1VNYP58BTF4HX","either","1","3","","","","","","","1","0","0","0.6656533059","","0.2","0.6","0.8","0.4","","","","","0.7003784325","0.6917424169","0.6656533059","0.560782874","","","","","","","","75","K","2","","","197","main_expt",""
"","bandit","277","833299","0.0-238.0-0.0","25837211","wem/bandit_either_3","A1VNYP58BTF4HX","either","1","7","","","","","","","1","0","0","0.5649388288","","0.2","0.6","0.8","0.4","","","","","0.6036075577","0.6561069913","0.6841747727","0.5649388288","","","","","","","","76","L","3","","","198","main_expt",""
"","bandit","278","834920","0.0-239.0-0.0","25837211","wem/bandit_either_3","A1VNYP58BTF4HX","either","1","5","","","","","","","0","0","1","0.5843314555","","0.2","0.6","0.8","0.4","","","","","0.5843314555","0.6948346643","0.7105065455","0.5375892324","","","","","","","","72","H","0","img/none_selected.jpg","","199","main_expt",""
"","bandit","279","836517","0.0-240.0-0.0","25837211","wem/bandit_either_3","A1VNYP58BTF4HX","either","1","1","","","","","","","0","1","0","","0.539414212","0.2","0.6","0.8","0.4","0.539414212","0.7369743936","0.7380433654","0.5625167851","","","","","","","","","","","","72","H","0","img/none_selected.jpg","","200","main_expt",""
"","bandit","280","838136","0.0-241.0-0.0","25837211","wem/bandit_either_3","A1VNYP58BTF4HX","either","1","6","","","","","","","0","0","1","0.6266810217","","0.2","0.6","0.8","0.4","","","","","0.3774065742","0.8347268415","0.6432951689","0.6266810217","","","","","","","","76","L","3","","","201","main_expt",""
"","bandit","281","839745","0.0-242.0-0.0","25837211","wem/bandit_either_3","A1VNYP58BTF4HX","either","1","7","","","","","","","0","1","0","","0.2824615609","0.2","0.6","0.8","0.4","0.2824615609","0.7612264534","0.4995879772","0.6661075828","","","","","","","","","","","","72","H","0","img/none_selected.jpg","","202","main_expt",""
"","bandit","282","841382","0.0-243.0-0.0","25837211","wem/bandit_either_3","A1VNYP58BTF4HX","either","1","36","","","","","","","0","1","0","","0.6904596671","0.2","0.6","0.8","0.4","0.210170224","0.6904596671","0.4767352753","0.7534099026","","","","","","","","","","","","74","J","1","","","203","main_expt",""
"","bandit","283","842994","0.0-244.0-0.0","25837211","wem/bandit_either_3","A1VNYP58BTF4HX","either","1","6","","","","","","","0","1","0","","0.7033522103","0.2","0.6","0.8","0.4","0.2708138581","0.6855485072","0.3680612217","0.7033522103","","","","","","","","","","","","76","L","3","","","204","main_expt",""
"","bandit","284","844620","0.0-245.0-0.0","25837211","wem/bandit_either_3","A1VNYP58BTF4HX","either","1","25","","","","","","","0","0","1","","0.3319820794","0.2","0.6","0.8","0.4","0.3319820794","0.7006332368","0.3404512965","0.6105989365","","","","","","","","","","","","72","H","0","img/none_selected.jpg","","205","main_expt",""
"","bandit","285","846234","0.0-246.0-0.0","25837211","wem/bandit_either_3","A1VNYP58BTF4HX","either","1","6","","","","","","","0","1","0","","0.7533130943","0.2","0.6","0.8","0.4","0.3517339603","0.7533130943","0.2774568564","0.725137222","","","","","","","","","","","","74","J","1","","","206","main_expt",""
"","bandit","286","847841","0.0-247.0-0.0","25837211","wem/bandit_either_3","A1VNYP58BTF4HX","either","1","6","","","","","","","0","0","1","0.2228883469","","0.2","0.6","0.8","0.4","","","","","0.2871079035","0.7191760557","0.2228883469","0.5888984072","","","","","","","","75","K","2","","","207","main_expt",""
"","bandit","287","849528","0.0-248.0-0.0","25837211","wem/bandit_either_3","A1VNYP58BTF4HX","either","1","62","","","","","","","0","0","1","","0.2642306377","0.2","0.6","0.8","0.4","0.2642306377","0.6264293856","0.2829247412","0.4650323514","","","","","","","","","","","","72","H","0","img/none_selected.jpg","","208","main_expt",""
"","bandit","288","851130","0.0-249.0-0.0","25837211","wem/bandit_either_3","A1VNYP58BTF4HX","either","1","9","","","","","","","0","0","1","0.6500478562","","0.2","0.6","0.8","0.4","","","","","0.3587725811","0.6500478562","0.3169104167","0.4100719568","","","","","","","","74","J","1","","","209","main_expt",""
"","bandit","289","852728","0.0-250.0-0.0","25837211","wem/bandit_either_3","A1VNYP58BTF4HX","either","1","7","","","","","","","0","1","0","","0.5177296744","0.2","0.6","0.8","0.4","0.3103342645","0.6498865343","0.2090062306","0.5177296744","","","","","","","","","","","","76","L","3","","","210","main_expt",""
"","bandit","290","854375","0.0-251.0-0.0","25837211","wem/bandit_either_3","A1VNYP58BTF4HX","either","1","37","","","","","","","0","0","1","","0.3760595068","0.2","0.6","0.8","0.4","0.3760595068","0.6056301442","0.1481662818","0.5950812693","","","","","","","","","","","","72","H","0","img/none_selected.jpg","","211","main_expt",""
"","bandit","291","855999","0.0-252.0-0.0","25837211","wem/bandit_either_3","A1VNYP58BTF4HX","either","1","5","","","","","","","1","0","0","0.5524844402","","0.2","0.6","0.8","0.4","","","","","0.447023013","0.5524844402","0.2114888193","0.7169745983","","","","","","","","74","J","1","","","212","main_expt",""
"","bandit","292","857581","0.0-253.0-0.0","25837211","wem/bandit_either_3","A1VNYP58BTF4HX","either","1","6","","","","","","","1","0","0","0.6766124197","","0.2","0.6","0.8","0.4","","","","","0.4529182837","0.6984249358","0.2234642754","0.6766124197","","","","","","","","76","L","3","","","213","main_expt",""
"","bandit","293","859228","0.0-254.0-0.0","25837211","wem/bandit_either_3","A1VNYP58BTF4HX","either","1","50","","","","","","","1","0","0","0.4306534983","","0.2","0.6","0.8","0.4","","","","","0.4306534983","0.5996975418","0.2315139555","0.8005648136","","","","","","","","72","H","0","img/none_selected.jpg","","214","main_expt",""
"","bandit","294","860862","0.0-255.0-0.0","25837211","wem/bandit_either_3","A1VNYP58BTF4HX","either","1","8","","","","","","","0","0","1","0.6067129047","","0.2","0.6","0.8","0.4","","","","","0.4314469479","0.6067129047","0.1949488974","0.8487964291","","","","","","","","74","J","1","","","215","main_expt",""
"","bandit","295","862468","0.0-256.0-0.0","25837211","wem/bandit_either_3","A1VNYP58BTF4HX","either","1","6","","","","","","","1","0","0","0.2333303883","","0.2","0.6","0.8","0.4","","","","","0.45439575","0.6297976658","0.2333303883","0.8674123454","","","","","","","","75","K","2","","","216","main_expt",""
"","bandit","296","864114","0.0-257.0-0.0","25837211","wem/bandit_either_3","A1VNYP58BTF4HX","either","1","55","","","","","","","0","0","1","0.5228861726","","0.2","0.6","0.8","0.4","","","","","0.5228861726","0.6095272491","0.2027763819","0.8774404243","","","","","","","","72","H","0","img/none_selected.jpg","","217","main_expt",""
"","bandit","297","865712","0.0-258.0-0.0","25837211","wem/bandit_either_3","A1VNYP58BTF4HX","either","1","7","","","","","","","0","0","1","","0.7058099393","0.2","0.6","0.8","0.4","0.463703458","0.7058099393","0.1895874514","0.8836448068","","","","","","","","","","","","74","J","1","","","218","main_expt",""
"","bandit","298","867291","0.0-259.0-0.0","25837211","wem/bandit_either_3","A1VNYP58BTF4HX","either","1","4","","","","","","","0","0","1","","0.1537120117","0.2","0.6","0.8","0.4","0.4522864467","0.7396246451","0.1537120117","0.880498508","","","","","","","","","","","","75","K","2","","","219","main_expt",""
"","bandit","299","868885","0.0-260.0-0.0","25837211","wem/bandit_either_3","A1VNYP58BTF4HX","either","1","5","","","","","","","0","1","0","","0.8740874997","0.2","0.6","0.8","0.4","0.4561576612","0.7091968036","0.2022747423","0.8740874997","","","","","","","","","","","","76","L","3","","","220","main_expt",""
"","bandit","300","870496","0.0-261.0-0.0","25837211","wem/bandit_either_3","A1VNYP58BTF4HX","either","1","18","","","","","","","0","1","0","","0.4264657168","0.2","0.6","0.8","0.4","0.4264657168","0.7116308873","0.3174413427","0.8527830905","","","","","","","","","","","","72","H","0","img/none_selected.jpg","","221","main_expt",""
"","bandit","301","872091","0.0-262.0-0.0","25837211","wem/bandit_either_3","A1VNYP58BTF4HX","either","1","6","","","","","","","1","0","0","0.769465391","","0.2","0.6","0.8","0.4","","","","","0.3055141729","0.769465391","0.2315667073","0.7717907476","","","","","","","","74","J","1","","","222","main_expt",""
"","bandit","302","873695","0.0-263.0-0.0","25837211","wem/bandit_either_3","A1VNYP58BTF4HX","either","1","1","","","","","","","0","0","1","","0.2261006122","0.2","0.6","0.8","0.4","0.2868954791","0.7509006974","0.2261006122","0.8359700354","","","","","","","","","","","","75","K","2","","","223","main_expt",""
"","bandit","303","875295","0.0-264.0-0.0","25837211","wem/bandit_either_3","A1VNYP58BTF4HX","either","1","2","","","","","","","1","0","0","0.819670806","","0.2","0.6","0.8","0.4","","","","","0.2698185242","0.7007688409","0.2662378096","0.819670806","","","","","","","","76","L","3","","","224","main_expt",""
"","bandit","304","876927","0.0-265.0-0.0","25837211","wem/bandit_either_3","A1VNYP58BTF4HX","either","1","19","","","","","","","1","0","0","0.213842325","","0.2","0.6","0.8","0.4","","","","","0.213842325","0.7409020096","0.2163280173","0.8512382749","","","","","","","","72","H","0","img/none_selected.jpg","","225","main_expt",""
"","bandit","305","878526","0.0-266.0-0.0","25837211","wem/bandit_either_3","A1VNYP58BTF4HX","either","1","6","","","","","","","0","0","1","","0.2809353625","0.2","0.6","0.8","0.4","0.1616408491","0.7052945704","0.2809353625","0.8342861847","","","","","","","","","","","","75","K","2","","","226","main_expt",""
"","bandit","306","880130","0.0-267.0-0.0","25837211","wem/bandit_either_3","A1VNYP58BTF4HX","either","1","5","","","","","","","0","1","0","","0.7736041865","0.2","0.6","0.8","0.4","0.1777599287","0.606091252","0.2396571279","0.7736041865","","","","","","","","","","","","76","L","3","","","227","main_expt",""
"","bandit","307","881744","0.0-268.0-0.0","25837211","wem/bandit_either_3","A1VNYP58BTF4HX","either","1","15","","","","","","","0","0","1","","0.2866543064","0.2","0.6","0.8","0.4","0.2866543064","0.5834203199","0.3430446928","0.8094350608","","","","","","","","","","","","72","H","0","img/none_selected.jpg","","228","main_expt",""
"","bandit","308","883291","0.0-269.0-0.0","25837211","wem/bandit_either_3","A1VNYP58BTF4HX","either","1","16","","","","","","","0","0","1","","0.5466214007","0.2","0.6","0.8","0.4","0.3948293382","0.5466214007","0.2886233194","0.8078722129","","","","","","","","","","","","74","J","1","","","229","main_expt",""
"","bandit","309","884898","0.0-270.0-0.0","25837211","wem/bandit_either_3","A1VNYP58BTF4HX","either","1","5","","","","","","","0","0","1","0.3213731463","","0.2","0.6","0.8","0.4","","","","","0.3291786684","0.5519014059","0.3213731463","0.7719043616","","","","","","","","75","K","2","","","230","main_expt",""
"","bandit","310","886508","0.0-271.0-0.0","25837211","wem/bandit_either_3","A1VNYP58BTF4HX","either","1","5","","","","","","","0","1","0","","0.8049264475","0.2","0.6","0.8","0.4","0.2378236032","0.4527164215","0.2771614906","0.8049264475","","","","","","","","","","","","76","L","3","","","231","main_expt",""
"","bandit","311","888115","0.0-272.0-0.0","25837211","wem/bandit_either_3","A1VNYP58BTF4HX","either","1","6","","","","","","","0","1","0","","0.246393804","0.2","0.6","0.8","0.4","0.246393804","0.5135082398","0.2249105956","0.8850589997","","","","","","","","","","","","72","H","0","img/none_selected.jpg","","232","main_expt",""
"","bandit","312","889694","0.0-273.0-0.0","25837211","wem/bandit_either_3","A1VNYP58BTF4HX","either","1","4","","","","","","","0","0","1","0.5502454751","","0.2","0.6","0.8","0.4","","","","","0.2141634692","0.5502454751","0.2447973041","0.9183615156","","","","","","","","74","J","1","","","233","main_expt",""
"","bandit","313","891292","0.0-274.0-0.0","25837211","wem/bandit_either_3","A1VNYP58BTF4HX","either","1","6","","","","","","","1","0","0","0.24601643","","0.2","0.6","0.8","0.4","","","","","0.2876436191","0.3783923662","0.24601643","0.9639410842","","","","","","","","75","K","2","","","234","main_expt",""
"","bandit","314","892897","0.0-275.0-0.0","25837211","wem/bandit_either_3","A1VNYP58BTF4HX","either","1","5","","","","","","","1","0","0","0.9697187448","","0.2","0.6","0.8","0.4","","","","","0.2769077257","0.2814299379","0.1629844561","0.9697187448","","","","","","","","76","L","3","","","235","main_expt",""
"","bandit","315","894492","0.0-276.0-0.0","25837211","wem/bandit_either_3","A1VNYP58BTF4HX","either","1","19","","","","","","","0","0","1","","0.136865198","0.2","0.6","0.8","0.4","0.136865198","0.3106100538","0.1929455839","0.9571573523","","","","","","","","","","","","72","H","0","img/none_selected.jpg","","236","main_expt",""
"","bandit","316","896116","0.0-277.0-0.0","25837211","wem/bandit_either_3","A1VNYP58BTF4HX","either","1","5","","","","","","","1","0","0","0.3152445528","","0.2","0.6","0.8","0.4","","","","","0.1123790732","0.3152445528","0.1497712966","0.9170696074","","","","","","","","74","J","1","","","237","main_expt",""
"","bandit","317","897704","0.0-278.0-0.0","25837211","wem/bandit_either_3","A1VNYP58BTF4HX","either","1","34","","","","","","","1","0","0","0.9207491077","","0.2","0.6","0.8","0.4","","","","","0.09027024906","0.2637175197","0.1526491196","0.9207491077","","","","","","","","76","L","3","","","238","main_expt",""
"","bandit","318","899373","0.0-279.0-0.0","25837211","wem/bandit_either_3","A1VNYP58BTF4HX","either","1","62","","","","","","","0","1","0","","0.08323179304","0.2","0.6","0.8","0.4","0.08323179304","0.1889878372","0.1745924244","0.9211301165","","","","","","","","","","","","72","H","0","img/none_selected.jpg","","239","main_expt",""
"","bandit","319","900978","0.0-280.0-0.0","25837211","wem/bandit_either_3","A1VNYP58BTF4HX","either","1","7","","","","","","","0","0","1","0.1710885746","","0.2","0.6","0.8","0.4","","","","","0.08130265934","0.1710885746","0.1159399908","0.8992774771","","","","","","","","74","J","1","","","240","main_expt",""
"","bandit","320","902552","0.0-281.0-0.0","25837211","wem/bandit_either_3","A1VNYP58BTF4HX","either","1","4","","","","","","","0","0","1","0.1682101231","","0.2","0.6","0.8","0.4","","","","","0.1424736114","0.1232632504","0.1682101231","0.8977441673","","","","","","","","75","K","2","","","241","main_expt",""
"","bandit","321","904161","0.0-282.0-0.0","25837211","wem/bandit_either_3","A1VNYP58BTF4HX","either","1","5","","","","","","","1","0","0","0.853076495","","0.2","0.6","0.8","0.4","","","","","0.2433221762","0.210295675","0.1643169396","0.853076495","","","","","","","","76","L","3","","","242","main_expt",""
"","bandit","322","905763","0.0-283.0-0.0","25837211","wem/bandit_either_3","A1VNYP58BTF4HX","either","1","6","","","","","","","0","0","1","","0.3185073654","0.2","0.6","0.8","0.4","0.3185073654","0.289349801","0.1355776028","0.8942427246","","","","","","","","","","","","72","H","0","img/none_selected.jpg","","243","main_expt",""
"","bandit","323","907382","0.0-284.0-0.0","25837211","wem/bandit_either_3","A1VNYP58BTF4HX","either","1","2","","","","","","","1","0","0","0.3533170098","","0.2","0.6","0.8","0.4","","","","","0.3533170098","0.4071614743","0.1311829495","0.8701402288","","","","","","","","72","H","0","img/none_selected.jpg","","244","main_expt",""
"","bandit","324","909020","0.0-285.0-0.0","25837211","wem/bandit_either_3","A1VNYP58BTF4HX","either","1","6","","","","","","","0","0","1","","0.8552475109","0.2","0.6","0.8","0.4","0.3482220419","0.453462755","0.1273238","0.8552475109","","","","","","","","","","","","76","L","3","","","245","main_expt",""
