"consent","trial_type","trial_index","time_elapsed","internal_node_id","subjID","study","MID","cond","drift","rt","responses","key_press","expt_phase","like","value","connected","gems","bombs","no_reward","GemPrChosen","BombPrChosen","GainOverPainPr_0","GainOverPainPr_1","GainOverPainPr_2","GainOverPainPr_3","LosePr_0","LosePr_1","LosePr_2","LosePr_3","WinPr_0","WinPr_1","WinPr_2","WinPr_3","Q0","Q1","Q2","gender","age","ethnicity","target","respCharCode","respKey","respChoiceNum","respChoice","practice","trial_counter","trial_label","button_pressed"
"INL_behavioral_consent_30min_online.html","consent","0","40734","0.0-0.0","26051038","wem/bandit_either_3","A1WYDO7PQJ8UG","either","1","","","","","","","","","","","","","","","","","","","","","","","","","","","","","","","","","","","","","","",""
"","survey-text","1","50165","0.0-1.0","26051038","wem/bandit_either_3","A1WYDO7PQJ8UG","either","1","8402","{""Q0"":""A1WYDO7PQJ8UG""}","","","","","","","","","","","","","","","","","","","","","","","","","","","","","","","","","","","","",""
"","text","2","59514","0.0-2.0","26051038","wem/bandit_either_3","A1WYDO7PQJ8UG","either","1","8333","","32","","","","","","","","","","","","","","","","","","","","","","","","","","","","","","","","","","","",""
"","text","3","67057","0.0-3.0","26051038","wem/bandit_either_3","A1WYDO7PQJ8UG","either","1","7530","","32","","","","","","","","","","","","","","","","","","","","","","","","","","","","","","","","","","","",""
"","text","4","87876","0.0-4.0","26051038","wem/bandit_either_3","A1WYDO7PQJ8UG","either","1","20807","","32","","","","","","","","","","","","","","","","","","","","","","","","","","","","","","","","","","","",""
"","text","5","102333","0.0-5.0","26051038","wem/bandit_either_3","A1WYDO7PQJ8UG","either","1","14443","","32","","","","","","","","","","","","","","","","","","","","","","","","","","","","","","","","","","","",""
"","text","6","125766","0.0-6.0","26051038","wem/bandit_either_3","A1WYDO7PQJ8UG","either","1","23422","","32","","","","","","","","","","","","","","","","","","","","","","","","","","","","","","","","","","","",""
"","text","7","132940","0.0-7.0","26051038","wem/bandit_either_3","A1WYDO7PQJ8UG","either","1","7158","","32","","","","","","","","","","","","","","","","","","","","","","","","","","","","","","","","","","","",""
"","text","8","136139","0.0-8.0","26051038","wem/bandit_either_3","A1WYDO7PQJ8UG","either","1","3191","","32","","","","","","","","","","","","","","","","","","","","","","","","","","","","","","","","","","","",""
"","identification","9","150390","0.0-9.0-0.0","26051038","wem/bandit_either_3","A1WYDO7PQJ8UG","either","1","14203","","","","1","2","1","","","","","","","","","","","","","","","","","","","","","","","","the village of Zur","","","","","","","",""
"","identification","10","160826","0.0-9.0-1.0","26051038","wem/bandit_either_3","A1WYDO7PQJ8UG","either","1","9381","","","","1","0","0","","","","","","","","","","","","","","","","","","","","","","","","the village of Nyx","","","","","","","",""
"","text","11","164390","0.0-10.0","26051038","wem/bandit_either_3","A1WYDO7PQJ8UG","either","1","2555","","32","","","","","","","","","","","","","","","","","","","","","","","","","","","","","","","","","","","",""
"","text","12","168614","0.0-11.0","26051038","wem/bandit_either_3","A1WYDO7PQJ8UG","either","1","4222","","32","","","","","","","","","","","","","","","","","","","","","","","","","","","","","","","","","","","",""
"","text","13","170104","0.0-12.0","26051038","wem/bandit_either_3","A1WYDO7PQJ8UG","either","1","1487","","32","","","","","","","","","","","","","","","","","","","","","","","","","","","","","","","","","","","",""
"","text","14","174245","0.0-13.0","26051038","wem/bandit_either_3","A1WYDO7PQJ8UG","either","1","4138","","32","","","","","","","","","","","","","","","","","","","","","","","","","","","","","","","","","","","",""
"","bandit","15","177060","0.0-14.0-0.0","26051038","wem/bandit_either_3","A1WYDO7PQJ8UG","either","1","1258","","","","","","","0","0","1","0","0","","","","","0","","","","0","","","","","","","","","","","74","J","0","img/none_selected_demo.jpg","true","0","",""
"","bandit","16","180467","0.0-15.0-0.0","26051038","wem/bandit_either_3","A1WYDO7PQJ8UG","either","1","1705","","","","","","","0","0","1","0","0","","","","","0","","","","0","","","","","","","","","","","75","K","0","img/none_selected_demo.jpg","true","0","",""
"","text","17","185925","0.0-16.0","26051038","wem/bandit_either_3","A1WYDO7PQJ8UG","either","1","5448","","32","","","","","","","","","","","","","","","","","","","","","","","","","","","","","","","","","","","",""
"","text","18","192304","0.0-17.0","26051038","wem/bandit_either_3","A1WYDO7PQJ8UG","either","1","6364","","32","","","","","","","","","","","","","","","","","","","","","","","","","","","","","","","","","","","",""
"","text","19","197550","0.0-18.0","26051038","wem/bandit_either_3","A1WYDO7PQJ8UG","either","1","5236","","32","","","","","","","","","","","","","","","","","","","","","","","","","","","","","","","","","","","",""
"","text","20","199925","0.0-19.0","26051038","wem/bandit_either_3","A1WYDO7PQJ8UG","either","1","2364","","32","","","","","","","","","","","","","","","","","","","","","","","","","","","","","","","","","","","",""
"","bandit","21","202586","0.0-20.0-0.0","26051038","wem/bandit_either_3","A1WYDO7PQJ8UG","either","1","950","","","","","","","1","0","0","0.8","","0.5","0.5","","","","","","","0.8","0.2","","","","","","","","","","74","J","0","img/none_selected_demo.jpg","true","0","80_20_practice",""
"","bandit","22","204433","0.0-20.0-1.0","26051038","wem/bandit_either_3","A1WYDO7PQJ8UG","either","1","293","","","","","","","1","0","0","0.8","","0.5","0.5","","","","","","","0.8","0.2","","","","","","","","","","74","J","0","img/none_selected_demo.jpg","true","0","80_20_practice",""
"","bandit","23","206226","0.0-20.0-2.0","26051038","wem/bandit_either_3","A1WYDO7PQJ8UG","either","1","256","","","","","","","0","1","0","","0.8","0.5","0.5","","","0.8","0.2","","","","","","","","","","","","","","74","J","0","img/none_selected_demo.jpg","true","0","80_20_practice",""
"","bandit","24","208008","0.0-20.0-3.0","26051038","wem/bandit_either_3","A1WYDO7PQJ8UG","either","1","237","","","","","","","1","0","0","0.8","","0.5","0.5","","","","","","","0.8","0.2","","","","","","","","","","74","J","0","img/none_selected_demo.jpg","true","0","80_20_practice",""
"","bandit","25","209875","0.0-20.0-4.0","26051038","wem/bandit_either_3","A1WYDO7PQJ8UG","either","1","305","","","","","","","1","0","0","0.8","","0.5","0.5","","","","","","","0.8","0.2","","","","","","","","","","74","J","0","img/none_selected_demo.jpg","true","0","80_20_practice",""
"","bandit","26","211880","0.0-20.0-5.0","26051038","wem/bandit_either_3","A1WYDO7PQJ8UG","either","1","470","","","","","","","0","1","0","","0.8","0.5","0.5","","","0.8","0.2","","","","","","","","","","","","","","74","J","0","img/none_selected_demo.jpg","true","0","80_20_practice",""
"","bandit","27","213866","0.0-20.0-6.0","26051038","wem/bandit_either_3","A1WYDO7PQJ8UG","either","1","316","","","","","","","1","0","0","0.8","","0.5","0.5","","","","","","","0.8","0.2","","","","","","","","","","74","J","0","img/none_selected_demo.jpg","true","0","80_20_practice",""
"","bandit","28","215543","0.0-20.0-7.0","26051038","wem/bandit_either_3","A1WYDO7PQJ8UG","either","1","134","","","","","","","0","0","1","0.2","","0.5","0.5","","","","","","","0.8","0.2","","","","","","","","","","75","K","1","","true","0","80_20_practice",""
"","bandit","29","217528","0.0-20.0-8.0","26051038","wem/bandit_either_3","A1WYDO7PQJ8UG","either","1","278","","","","","","","0","0","1","0.2","","0.5","0.5","","","","","","","0.8","0.2","","","","","","","","","","75","K","1","","true","0","80_20_practice",""
"","bandit","30","219366","0.0-20.0-9.0","26051038","wem/bandit_either_3","A1WYDO7PQJ8UG","either","1","306","","","","","","","0","0","1","0.2","","0.5","0.5","","","","","","","0.8","0.2","","","","","","","","","","75","K","1","","true","0","80_20_practice",""
"","bandit","31","221178","0.0-20.0-10.0","26051038","wem/bandit_either_3","A1WYDO7PQJ8UG","either","1","275","","","","","","","0","0","1","0.2","","0.5","0.5","","","","","","","0.8","0.2","","","","","","","","","","75","K","1","","true","0","80_20_practice",""
"","bandit","32","223142","0.0-20.0-11.0","26051038","wem/bandit_either_3","A1WYDO7PQJ8UG","either","1","244","","","","","","","0","0","1","","0.2","0.5","0.5","","","0.8","0.2","","","","","","","","","","","","","","75","K","1","","true","0","80_20_practice",""
"","bandit","33","224858","0.0-20.0-12.0","26051038","wem/bandit_either_3","A1WYDO7PQJ8UG","either","1","163","","","","","","","1","0","0","0.2","","0.5","0.5","","","","","","","0.8","0.2","","","","","","","","","","75","K","1","","true","0","80_20_practice",""
"","bandit","34","226768","0.0-20.0-13.0","26051038","wem/bandit_either_3","A1WYDO7PQJ8UG","either","1","362","","","","","","","0","0","1","","0.2","0.5","0.5","","","0.8","0.2","","","","","","","","","","","","","","75","K","1","","true","0","80_20_practice",""
"","bandit","35","228551","0.0-20.0-14.0","26051038","wem/bandit_either_3","A1WYDO7PQJ8UG","either","1","251","","","","","","","0","0","1","","0.2","0.5","0.5","","","0.8","0.2","","","","","","","","","","","","","","75","K","1","","true","0","80_20_practice",""
"","bandit","36","230393","0.0-20.0-15.0","26051038","wem/bandit_either_3","A1WYDO7PQJ8UG","either","1","303","","","","","","","0","0","1","","0.2","0.5","0.5","","","0.8","0.2","","","","","","","","","","","","","","75","K","1","","true","0","80_20_practice",""
"","bandit","37","232129","0.0-20.0-16.0","26051038","wem/bandit_either_3","A1WYDO7PQJ8UG","either","1","182","","","","","","","0","0","1","0.2","","0.5","0.5","","","","","","","0.8","0.2","","","","","","","","","","75","K","1","","true","0","80_20_practice",""
"","bandit","38","234067","0.0-20.0-17.0","26051038","wem/bandit_either_3","A1WYDO7PQJ8UG","either","1","308","","","","","","","1","0","0","0.8","","0.5","0.5","","","","","","","0.8","0.2","","","","","","","","","","74","J","0","img/none_selected_demo.jpg","true","0","80_20_practice",""
"","bandit","39","236103","0.0-20.0-18.0","26051038","wem/bandit_either_3","A1WYDO7PQJ8UG","either","1","317","","","","","","","1","0","0","0.8","","0.5","0.5","","","","","","","0.8","0.2","","","","","","","","","","74","J","0","img/none_selected_demo.jpg","true","0","80_20_practice",""
"","bandit","40","238002","0.0-20.0-19.0","26051038","wem/bandit_either_3","A1WYDO7PQJ8UG","either","1","334","","","","","","","0","1","0","","0.8","0.5","0.5","","","0.8","0.2","","","","","","","","","","","","","","74","J","0","img/none_selected_demo.jpg","true","0","80_20_practice",""
"","text","41","240661","0.0-21.0","26051038","wem/bandit_either_3","A1WYDO7PQJ8UG","either","1","2655","","32","","","","","","","","","","","","","","","","","","","","","","","","","","","","","","","","","","","",""
"","bandit","42","243440","0.0-22.0-0.0","26051038","wem/bandit_either_3","A1WYDO7PQJ8UG","either","1","1187","","","","","","","1","0","0","1","0","","","","","0","1","","","1","0","","","","","","","","","","74","J","0","img/none_selected_demo.jpg","true","0","",""
"","text","43","248733","0.0-23.0","26051038","wem/bandit_either_3","A1WYDO7PQJ8UG","either","1","5285","","32","","","","","","","","","","","","","","","","","","","","","","","","","","","","","","","","","","","",""
"","text","44","252677","0.0-24.0","26051038","wem/bandit_either_3","A1WYDO7PQJ8UG","either","1","3931","","32","","","","","","","","","","","","","","","","","","","","","","","","","","","","","","","","","","","",""
"","text","45","256309","0.0-25.0","26051038","wem/bandit_either_3","A1WYDO7PQJ8UG","either","1","3624","","32","","","","","","","","","","","","","","","","","","","","","","","","","","","","","","","","","","","",""
"","text","46","260358","0.0-26.0","26051038","wem/bandit_either_3","A1WYDO7PQJ8UG","either","1","4039","","32","","","","","","","","","","","","","","","","","","","","","","","","","","","","","","","","","","","",""
"","text","47","266549","0.0-27.0","26051038","wem/bandit_either_3","A1WYDO7PQJ8UG","either","1","6174","","32","","","","","","","","","","","","","","","","","","","","","","","","","","","","","","","","","","","",""
"","text","48","269415","0.0-28.0","26051038","wem/bandit_either_3","A1WYDO7PQJ8UG","either","1","2857","","32","","","","","","","","","","","","","","","","","","","","","","","","","","","","","","","","","","","",""
"","text","49","274400","0.0-29.0","26051038","wem/bandit_either_3","A1WYDO7PQJ8UG","either","1","4975","","32","","","","","","","","","","","","","","","","","","","","","","","","","","","","","","","","","","","",""
"","text","50","276919","0.0-30.0","26051038","wem/bandit_either_3","A1WYDO7PQJ8UG","either","1","2502","","32","","","","","","","","","","","","","","","","","","","","","","","","","","","","","","","","","","","",""
"","text","51","280842","0.0-31.0","26051038","wem/bandit_either_3","A1WYDO7PQJ8UG","either","1","3899","","32","","","","","","","","","","","","","","","","","","","","","","","","","","","","","","","","","","","",""
"","text","52","282644","0.0-32.0","26051038","wem/bandit_either_3","A1WYDO7PQJ8UG","either","1","1783","","32","","","","","","","","","","","","","","","","","","","","","","","","","","","","","","","","","","","",""
"","text","53","285679","0.0-33.0","26051038","wem/bandit_either_3","A1WYDO7PQJ8UG","either","1","3016","","32","","","","","","","","","","","","","","","","","","","","","","","","","","","","","","","","","","","",""
"","bandit","54","288612","0.0-34.0-0.0","26051038","wem/bandit_either_3","A1WYDO7PQJ8UG","either","1","1367","","","","","","","1","0","0","0.6","","0.5","0.5","0.5","0.5","","","","","0.8","0.2","0.6","0.2","","","","","","","","75","K","2","","true","0","full_practice",""
"","bandit","55","290683","0.0-34.0-1.0","26051038","wem/bandit_either_3","A1WYDO7PQJ8UG","either","1","298","","","","","","","1","0","0","0.6","","0.5","0.5","0.5","0.5","","","","","0.8","0.2","0.6","0.2","","","","","","","","75","K","2","","true","0","full_practice",""
"","bandit","56","292516","0.0-34.0-2.0","26051038","wem/bandit_either_3","A1WYDO7PQJ8UG","either","1","259","","","","","","","0","1","0","","0.6","0.5","0.5","0.5","0.5","0.8","0.2","0.6","0.2","","","","","","","","","","","","75","K","2","","true","0","full_practice",""
"","bandit","57","294367","0.0-34.0-3.0","26051038","wem/bandit_either_3","A1WYDO7PQJ8UG","either","1","278","","","","","","","1","0","0","0.6","","0.5","0.5","0.5","0.5","","","","","0.8","0.2","0.6","0.2","","","","","","","","75","K","2","","true","0","full_practice",""
"","bandit","58","296194","0.0-34.0-4.0","26051038","wem/bandit_either_3","A1WYDO7PQJ8UG","either","1","292","","","","","","","0","0","1","","0.6","0.5","0.5","0.5","0.5","0.8","0.2","0.6","0.2","","","","","","","","","","","","75","K","2","","true","0","full_practice",""
"","bandit","59","298074","0.0-34.0-5.0","26051038","wem/bandit_either_3","A1WYDO7PQJ8UG","either","1","318","","","","","","","0","1","0","","0.8","0.5","0.5","0.5","0.5","0.8","0.2","0.6","0.2","","","","","","","","","","","","72","H","0","img/none_selected.jpg","true","0","full_practice",""
"","bandit","60","299960","0.0-34.0-6.0","26051038","wem/bandit_either_3","A1WYDO7PQJ8UG","either","1","319","","","","","","","0","0","1","0.2","","0.5","0.5","0.5","0.5","","","","","0.8","0.2","0.6","0.2","","","","","","","","76","L","3","","true","0","full_practice",""
"","bandit","61","301595","0.0-34.0-7.0","26051038","wem/bandit_either_3","A1WYDO7PQJ8UG","either","1","81","","","","","","","0","0","1","0.8","","0.5","0.5","0.5","0.5","","","","","0.8","0.2","0.6","0.2","","","","","","","","72","H","0","img/none_selected.jpg","true","0","full_practice",""
"","bandit","62","303459","0.0-34.0-8.0","26051038","wem/bandit_either_3","A1WYDO7PQJ8UG","either","1","152","","","","","","","0","0","1","0.2","","0.5","0.5","0.5","0.5","","","","","0.8","0.2","0.6","0.2","","","","","","","","76","L","3","","true","0","full_practice",""
"","bandit","63","305630","0.0-34.0-9.0","26051038","wem/bandit_either_3","A1WYDO7PQJ8UG","either","1","607","","","","","","","1","0","0","0.8","","0.5","0.5","0.5","0.5","","","","","0.8","0.2","0.6","0.2","","","","","","","","72","H","0","img/none_selected.jpg","true","0","full_practice",""
"","bandit","64","307667","0.0-34.0-10.0","26051038","wem/bandit_either_3","A1WYDO7PQJ8UG","either","1","475","","","","","","","0","0","1","","0.2","0.5","0.5","0.5","0.5","0.8","0.2","0.6","0.2","","","","","","","","","","","","76","L","3","","true","0","full_practice",""
"","bandit","65","309692","0.0-34.0-11.0","26051038","wem/bandit_either_3","A1WYDO7PQJ8UG","either","1","292","","","","","","","0","0","1","","0.8","0.5","0.5","0.5","0.5","0.8","0.2","0.6","0.2","","","","","","","","","","","","72","H","0","img/none_selected.jpg","true","0","full_practice",""
"","bandit","66","311625","0.0-34.0-12.0","26051038","wem/bandit_either_3","A1WYDO7PQJ8UG","either","1","336","","","","","","","0","0","1","0.2","","0.5","0.5","0.5","0.5","","","","","0.8","0.2","0.6","0.2","","","","","","","","76","L","3","","true","0","full_practice",""
"","bandit","67","313369","0.0-34.0-13.0","26051038","wem/bandit_either_3","A1WYDO7PQJ8UG","either","1","186","","","","","","","0","0","1","0.2","","0.5","0.5","0.5","0.5","","","","","0.8","0.2","0.6","0.2","","","","","","","","74","J","1","","true","0","full_practice",""
"","bandit","68","315214","0.0-34.0-14.0","26051038","wem/bandit_either_3","A1WYDO7PQJ8UG","either","1","294","","","","","","","1","0","0","0.8","","0.5","0.5","0.5","0.5","","","","","0.8","0.2","0.6","0.2","","","","","","","","72","H","0","img/none_selected.jpg","true","0","full_practice",""
"","bandit","69","317064","0.0-34.0-15.0","26051038","wem/bandit_either_3","A1WYDO7PQJ8UG","either","1","259","","","","","","","0","0","1","","0.2","0.5","0.5","0.5","0.5","0.8","0.2","0.6","0.2","","","","","","","","","","","","74","J","1","","true","0","full_practice",""
"","bandit","70","318944","0.0-34.0-16.0","26051038","wem/bandit_either_3","A1WYDO7PQJ8UG","either","1","300","","","","","","","0","0","1","0.2","","0.5","0.5","0.5","0.5","","","","","0.8","0.2","0.6","0.2","","","","","","","","76","L","3","","true","0","full_practice",""
"","bandit","71","320756","0.0-34.0-17.0","26051038","wem/bandit_either_3","A1WYDO7PQJ8UG","either","1","240","","","","","","","1","0","0","0.8","","0.5","0.5","0.5","0.5","","","","","0.8","0.2","0.6","0.2","","","","","","","","72","H","0","img/none_selected.jpg","true","0","full_practice",""
"","bandit","72","322588","0.0-34.0-18.0","26051038","wem/bandit_either_3","A1WYDO7PQJ8UG","either","1","276","","","","","","","0","0","1","","0.2","0.5","0.5","0.5","0.5","0.8","0.2","0.6","0.2","","","","","","","","","","","","74","J","1","","true","0","full_practice",""
"","bandit","73","324479","0.0-34.0-19.0","26051038","wem/bandit_either_3","A1WYDO7PQJ8UG","either","1","331","","","","","","","0","1","0","","0.2","0.5","0.5","0.5","0.5","0.8","0.2","0.6","0.2","","","","","","","","","","","","74","J","1","","true","0","full_practice",""
"","text","74","326695","0.0-35.0","26051038","wem/bandit_either_3","A1WYDO7PQJ8UG","either","1","2189","","32","","","","","","","","","","","","","","","","","","","","","","","","","","","","","","","","","","","",""
"","text","75","340142","0.0-36.0","26051038","wem/bandit_either_3","A1WYDO7PQJ8UG","either","1","12433","","32","","","","","","","","","","","","","","","","","","","","","","","","","","","","","","","","","","","",""
"","text","76","347169","0.0-37.0","26051038","wem/bandit_either_3","A1WYDO7PQJ8UG","either","1","7005","","32","","","","","","","","","","","","","","","","","","","","","","","","","","","","","","","","","","","",""
"","text","77","350978","0.0-38.0","26051038","wem/bandit_either_3","A1WYDO7PQJ8UG","either","1","3798","","32","","","","","","","","","","","","","","","","","","","","","","","","","","","","","","","","","","","",""
"","text","78","355468","0.0-39.0","26051038","wem/bandit_either_3","A1WYDO7PQJ8UG","either","1","4477","","32","","","","","","","","","","","","","","","","","","","","","","","","","","","","","","","","","","","",""
"","text","79","359634","0.0-40.0","26051038","wem/bandit_either_3","A1WYDO7PQJ8UG","either","1","4156","","32","","","","","","","","","","","","","","","","","","","","","","","","","","","","","","","","","","","",""
"","bandit","80","362320","0.0-41.0-0.0","26051038","wem/bandit_either_3","A1WYDO7PQJ8UG","either","1","1128","","","","","","","0","1","0","","0.8101107889","0.6","0.4","0.8","0.2","0.4995060561","0.8101107889","0.7674833066","0.5202783506","","","","","","","","","","","","74","J","1","","","1","main_expt",""
"","bandit","81","364267","0.0-42.0-0.0","26051038","wem/bandit_either_3","A1WYDO7PQJ8UG","either","1","368","","","","","","","0","1","0","","0.8827976921","0.6","0.4","0.8","0.2","0.4452888422","0.8827976921","0.7786696111","0.4559554218","","","","","","","","","","","","74","J","1","","","2","main_expt",""
"","bandit","82","366104","0.0-43.0-0.0","26051038","wem/bandit_either_3","A1WYDO7PQJ8UG","either","1","287","","","","","","","0","0","1","0.3791335739","","0.6","0.4","0.8","0.2","","","","","0.4956599627","0.918633781","0.7883912796","0.3791335739","","","","","","","","76","L","3","","","3","main_expt",""
"","bandit","83","367989","0.0-44.0-0.0","26051038","wem/bandit_either_3","A1WYDO7PQJ8UG","either","1","321","","","","","","","0","1","0","","0.8311681014","0.6","0.4","0.8","0.2","0.3939226057","0.8961075186","0.8311681014","0.362446662","","","","","","","","","","","","75","K","2","","","4","main_expt",""
"","bandit","84","369934","0.0-45.0-0.0","26051038","wem/bandit_either_3","A1WYDO7PQJ8UG","either","1","373","","","","","","","0","0","1","","0.4737796053","0.6","0.4","0.8","0.2","0.4737796053","0.9065038385","0.706748425","0.4337427147","","","","","","","","","","","","72","H","0","img/none_selected.jpg","","5","main_expt",""
"","bandit","85","371732","0.0-46.0-0.0","26051038","wem/bandit_either_3","A1WYDO7PQJ8UG","either","1","262","","","","","","","0","0","1","0.5798080576","","0.6","0.4","0.8","0.2","","","","","0.5798080576","0.9628954729","0.7246132019","0.4260566605","","","","","","","","72","H","0","img/none_selected.jpg","","6","main_expt",""
"","bandit","86","373508","0.0-47.0-0.0","26051038","wem/bandit_either_3","A1WYDO7PQJ8UG","either","1","205","","","","","","","1","0","0","0.822103072","","0.6","0.4","0.8","0.2","","","","","0.6184433593","0.9244273404","0.822103072","0.5595739282","","","","","","","","75","K","2","","","7","main_expt",""
"","bandit","87","375336","0.0-48.0-0.0","26051038","wem/bandit_either_3","A1WYDO7PQJ8UG","either","1","258","","","","","","","1","0","0","0.8176183596","","0.6","0.4","0.8","0.2","","","","","0.5380809204","0.9214665689","0.8176183596","0.5757792393","","","","","","","","75","K","2","","","8","main_expt",""
"","bandit","88","377272","0.0-49.0-0.0","26051038","wem/bandit_either_3","A1WYDO7PQJ8UG","either","1","299","","","","","","","1","0","0","0.7421782695","","0.6","0.4","0.8","0.2","","","","","0.4884558296","0.9604963414","0.7421782695","0.5508288143","","","","","","","","75","K","2","","","9","main_expt",""
"","bandit","89","379210","0.0-50.0-0.0","26051038","wem/bandit_either_3","A1WYDO7PQJ8UG","either","1","257","","","","","","","1","0","0","0.7112185725","","0.6","0.4","0.8","0.2","","","","","0.6062827564","0.973544224","0.7112185725","0.4615344473","","","","","","","","75","K","2","","","10","main_expt",""
"","bandit","90","381083","0.0-51.0-0.0","26051038","wem/bandit_either_3","A1WYDO7PQJ8UG","either","1","315","","","","","","","0","0","1","0.6656122322","","0.6","0.4","0.8","0.2","","","","","0.6618996933","0.9756729976","0.6656122322","0.4731032433","","","","","","","","75","K","2","","","11","main_expt",""
"","bandit","91","382975","0.0-52.0-0.0","26051038","wem/bandit_either_3","A1WYDO7PQJ8UG","either","1","324","","","","","","","1","0","0","0.632951522","","0.6","0.4","0.8","0.2","","","","","0.6589688621","0.9824084628","0.632951522","0.5028989732","","","","","","","","75","K","2","","","12","main_expt",""
"","bandit","92","384968","0.0-53.0-0.0","26051038","wem/bandit_either_3","A1WYDO7PQJ8UG","either","1","435","","","","","","","1","0","0","0.6428643634","","0.6","0.4","0.8","0.2","","","","","0.7483501345","0.9852841122","0.6428643634","0.5252386458","","","","","","","","75","K","2","","","13","main_expt",""
"","bandit","93","387189","0.0-54.0-0.0","26051038","wem/bandit_either_3","A1WYDO7PQJ8UG","either","1","634","","","","","","","1","0","0","0.5693663763","","0.6","0.4","0.8","0.2","","","","","0.7642220585","0.9844185579","0.5693663763","0.4883642101","","","","","","","","75","K","2","","","14","main_expt",""
"","bandit","94","389447","0.0-55.0-0.0","26051038","wem/bandit_either_3","A1WYDO7PQJ8UG","either","1","692","","","","","","","1","0","0","0.6354763258","","0.6","0.4","0.8","0.2","","","","","0.8255663415","0.9716790186","0.6354763258","0.5125695872","","","","","","","","75","K","2","","","15","main_expt",""
"","bandit","95","391393","0.0-56.0-0.0","26051038","wem/bandit_either_3","A1WYDO7PQJ8UG","either","1","368","","","","","","","1","0","0","0.6074668868","","0.6","0.4","0.8","0.2","","","","","0.8262734196","0.9724226268","0.6074668868","0.483313844","","","","","","","","75","K","2","","","16","main_expt",""
"","bandit","96","393191","0.0-57.0-0.0","26051038","wem/bandit_either_3","A1WYDO7PQJ8UG","either","1","246","","","","","","","1","0","0","0.634379517","","0.6","0.4","0.8","0.2","","","","","0.8957105494","0.969397438","0.634379517","0.4764119597","","","","","","","","75","K","2","","","17","main_expt",""
"","bandit","97","395030","0.0-58.0-0.0","26051038","wem/bandit_either_3","A1WYDO7PQJ8UG","either","1","254","","","","","","","0","0","1","0.7399013172","","0.6","0.4","0.8","0.2","","","","","0.8243017832","0.9487821198","0.7399013172","0.4742144938","","","","","","","","75","K","2","","","18","main_expt",""
"","bandit","98","397481","0.0-59.0-0.0","26051038","wem/bandit_either_3","A1WYDO7PQJ8UG","either","1","843","","","","","","","0","0","1","0.6892422428","","0.6","0.4","0.8","0.2","","","","","0.8174393347","0.8822386923","0.6892422428","0.5445729057","","","","","","","","75","K","2","","","19","main_expt",""
"","bandit","99","399790","0.0-60.0-0.0","26051038","wem/bandit_either_3","A1WYDO7PQJ8UG","either","1","734","","","","","","","0","0","1","0.5544472153","","0.6","0.4","0.8","0.2","","","","","0.8457625901","0.8658452863","0.5544472153","0.5114357523","","","","","","","","75","K","2","","","20","main_expt",""
"","bandit","100","401797","0.0-61.0-0.0","26051038","wem/bandit_either_3","A1WYDO7PQJ8UG","either","1","356","","","","","","","0","0","1","0.4948626968","","0.6","0.4","0.8","0.2","","","","","0.8565453533","0.8597265301","0.4705077418","0.4948626968","","","","","","","","76","L","3","","","21","main_expt",""
"","bandit","101","403984","0.0-62.0-0.0","26051038","wem/bandit_either_3","A1WYDO7PQJ8UG","either","1","636","","","","","","","0","1","0","","0.8821281293","0.6","0.4","0.8","0.2","0.8821281293","0.929530396","0.5364913494","0.3750889156","","","","","","","","","","","","72","H","0","img/none_selected.jpg","","22","main_expt",""
"","bandit","102","405974","0.0-63.0-0.0","26051038","wem/bandit_either_3","A1WYDO7PQJ8UG","either","1","428","","","","","","","1","0","0","0.9149061772","","0.6","0.4","0.8","0.2","","","","","0.8253896901","0.9149061772","0.5450887529","0.3874093852","","","","","","","","74","J","1","","","23","main_expt",""
"","bandit","103","408067","0.0-64.0-0.0","26051038","wem/bandit_either_3","A1WYDO7PQJ8UG","either","1","443","","","","","","","0","1","0","","0.9389899916","0.6","0.4","0.8","0.2","0.8682133559","0.9389899916","0.6013055931","0.4126546177","","","","","","","","","","","","74","J","1","","","24","main_expt",""
"","bandit","104","409981","0.0-65.0-0.0","26051038","wem/bandit_either_3","A1WYDO7PQJ8UG","either","1","364","","","","","","","0","0","1","","0.9583062328","0.6","0.4","0.8","0.2","0.8186134727","0.9583062328","0.7116226269","0.3871809826","","","","","","","","","","","","74","J","1","","","25","main_expt",""
"","bandit","105","412005","0.0-66.0-0.0","26051038","wem/bandit_either_3","A1WYDO7PQJ8UG","either","1","450","","","","","","","0","0","1","0.9349434311","","0.6","0.4","0.8","0.2","","","","","0.841170918","0.9349434311","0.7284905038","0.4162773602","","","","","","","","74","J","1","","","26","main_expt",""
"","bandit","106","413806","0.0-67.0-0.0","26051038","wem/bandit_either_3","A1WYDO7PQJ8UG","either","1","242","","","","","","","0","1","0","","0.8332298301","0.6","0.4","0.8","0.2","0.8332298301","0.9147743466","0.7007901837","0.4153433109","","","","","","","","","","","","72","H","0","img/none_selected.jpg","","27","main_expt",""
"","bandit","107","415824","0.0-68.0-0.0","26051038","wem/bandit_either_3","A1WYDO7PQJ8UG","either","1","359","","","","","","","0","0","1","0.7197690037","","0.6","0.4","0.8","0.2","","","","","0.8340804883","0.8913744663","0.7197690037","0.3083156359","","","","","","","","75","K","2","","","28","main_expt",""
"","bandit","108","418200","0.0-69.0-0.0","26051038","wem/bandit_either_3","A1WYDO7PQJ8UG","either","1","798","","","","","","","0","1","0","","0.4048150761","0.6","0.4","0.8","0.2","0.8800986549","0.9004815278","0.7569205749","0.4048150761","","","","","","","","","","","","76","L","3","","","29","main_expt",""
"","bandit","109","420437","0.0-70.0-0.0","26051038","wem/bandit_either_3","A1WYDO7PQJ8UG","either","1","670","","","","","","","1","0","0","0.800988266","","0.6","0.4","0.8","0.2","","","","","0.800988266","0.8335499875","0.7007062976","0.5604470694","","","","","","","","72","H","0","img/none_selected.jpg","","30","main_expt",""
"","bandit","110","422373","0.0-71.0-0.0","26051038","wem/bandit_either_3","A1WYDO7PQJ8UG","either","1","373","","","","","","","1","0","0","0.8092707987","","0.6","0.4","0.8","0.2","","","","","0.8092707987","0.7904098286","0.6218809145","0.5114456598","","","","","","","","72","H","0","img/none_selected.jpg","","31","main_expt",""
"","bandit","111","424442","0.0-72.0-0.0","26051038","wem/bandit_either_3","A1WYDO7PQJ8UG","either","1","502","","","","","","","1","0","0","0.7600689364","","0.6","0.4","0.8","0.2","","","","","0.7600689364","0.8156470634","0.5448888872","0.5195843055","","","","","","","","72","H","0","img/none_selected.jpg","","32","main_expt",""
"","bandit","112","426468","0.0-73.0-0.0","26051038","wem/bandit_either_3","A1WYDO7PQJ8UG","either","1","480","","","","","","","1","0","0","0.7268405739","","0.6","0.4","0.8","0.2","","","","","0.7268405739","0.7458483223","0.4396040002","0.4278216128","","","","","","","","72","H","0","img/none_selected.jpg","","33","main_expt",""
"","bandit","113","429062","0.0-74.0-0.0","26051038","wem/bandit_either_3","A1WYDO7PQJ8UG","either","1","888","","","","","","","1","0","0","0.7867385379","","0.6","0.4","0.8","0.2","","","","","0.7867385379","0.8745519215","0.3418027302","0.4581725564","","","","","","","","72","H","0","img/none_selected.jpg","","34","main_expt",""
"","bandit","114","431064","0.0-75.0-0.0","26051038","wem/bandit_either_3","A1WYDO7PQJ8UG","either","1","416","","","","","","","0","0","1","","0.7776722478","0.6","0.4","0.8","0.2","0.7776722478","0.8761773117","0.3770378826","0.5170179058","","","","","","","","","","","","72","H","0","img/none_selected.jpg","","35","main_expt",""
"","bandit","115","433387","0.0-76.0-0.0","26051038","wem/bandit_either_3","A1WYDO7PQJ8UG","either","1","767","","","","","","","1","0","0","0.8110731924","","0.6","0.4","0.8","0.2","","","","","0.8110731924","0.8898579413","0.3264650107","0.5761285305","","","","","","","","72","H","0","img/none_selected.jpg","","36","main_expt",""
"","bandit","116","435306","0.0-77.0-0.0","26051038","wem/bandit_either_3","A1WYDO7PQJ8UG","either","1","294","","","","","","","1","0","0","0.8371501114","","0.6","0.4","0.8","0.2","","","","","0.8371501114","0.9189960073","0.1696248696","0.5824592389","","","","","","","","72","H","0","img/none_selected.jpg","","37","main_expt",""
"","bandit","117","437267","0.0-78.0-0.0","26051038","wem/bandit_either_3","A1WYDO7PQJ8UG","either","1","412","","","","","","","0","1","0","","0.801984358","0.6","0.4","0.8","0.2","0.801984358","0.9429067042","0.3008725236","0.5039158184","","","","","","","","","","","","72","H","0","img/none_selected.jpg","","38","main_expt",""
"","bandit","118","439419","0.0-79.0-0.0","26051038","wem/bandit_either_3","A1WYDO7PQJ8UG","either","1","560","","","","","","","0","0","1","0.836760671","","0.6","0.4","0.8","0.2","","","","","0.836760671","0.8860185862","0.3612597963","0.4906961915","","","","","","","","72","H","0","img/none_selected.jpg","","39","main_expt",""
"","bandit","119","441320","0.0-80.0-0.0","26051038","wem/bandit_either_3","A1WYDO7PQJ8UG","either","1","351","","","","","","","0","0","1","","0.7930168878","0.6","0.4","0.8","0.2","0.7930168878","0.8958725565","0.3316001813","0.5118773476","","","","","","","","","","","","72","H","0","img/none_selected.jpg","","40","main_expt",""
"","bandit","120","443133","0.0-81.0-0.0","26051038","wem/bandit_either_3","A1WYDO7PQJ8UG","either","1","248","","","","","","","0","1","0","","0.8369757826","0.6","0.4","0.8","0.2","0.6758505439","0.8369757826","0.251761063","0.5207000815","","","","","","","","","","","","74","J","1","","","41","main_expt",""
"","bandit","121","445115","0.0-82.0-0.0","26051038","wem/bandit_either_3","A1WYDO7PQJ8UG","either","1","423","","","","","","","1","0","0","0.8724413244","","0.6","0.4","0.8","0.2","","","","","0.669091732","0.8724413244","0.3764367217","0.6208632684","","","","","","","","74","J","1","","","42","main_expt",""
"","bandit","122","447767","0.0-83.0-0.0","26051038","wem/bandit_either_3","A1WYDO7PQJ8UG","either","1","933","","","","","","","0","1","0","","0.8721156492","0.6","0.4","0.8","0.2","0.5774386383","0.8721156492","0.4280411123","0.6736877605","","","","","","","","","","","","74","J","1","","","43","main_expt",""
"","bandit","123","453210","0.0-84.0-0.0","26051038","wem/bandit_either_3","A1WYDO7PQJ8UG","either","1","293","","","","","","","0","1","0","","0.874486911","0.6","0.4","0.8","0.2","0.5402750746","0.874486911","0.4250007774","0.6770598463","","","","","","","","","","","","74","J","1","","","44","main_expt",""
"","bandit","124","457354","0.0-85.0-0.0","26051038","wem/bandit_either_3","A1WYDO7PQJ8UG","either","1","2395","","","","","","","1","0","0","0.3964774122","","0.6","0.4","0.8","0.2","","","","","0.4769525635","0.7653026016","0.3964774122","0.6811336834","","","","","","","","75","K","2","","","45","main_expt",""
"","bandit","125","459409","0.0-86.0-0.0","26051038","wem/bandit_either_3","A1WYDO7PQJ8UG","either","1","462","","","","","","","0","1","0","","0.3755541509","0.6","0.4","0.8","0.2","0.460739512","0.6884850605","0.3755541509","0.7409040253","","","","","","","","","","","","75","K","2","","","46","main_expt",""
"","bandit","126","461571","0.0-87.0-0.0","26051038","wem/bandit_either_3","A1WYDO7PQJ8UG","either","1","615","","","","","","","1","0","0","0.3698766084","","0.6","0.4","0.8","0.2","","","","","0.3953603582","0.6869729855","0.3698766084","0.8602274841","","","","","","","","75","K","2","","","47","main_expt",""
"","bandit","127","463771","0.0-88.0-0.0","26051038","wem/bandit_either_3","A1WYDO7PQJ8UG","either","1","641","","","","","","","1","0","0","0.2924141828","","0.6","0.4","0.8","0.2","","","","","0.5194217752","0.624749708","0.2924141828","0.8947369126","","","","","","","","75","K","2","","","48","main_expt",""
"","bandit","128","466361","0.0-89.0-0.0","26051038","wem/bandit_either_3","A1WYDO7PQJ8UG","either","1","989","","","","","","","0","0","1","0.2506794134","","0.6","0.4","0.8","0.2","","","","","0.5015721984","0.6269608649","0.2506794134","0.9071052574","","","","","","","","75","K","2","","","49","main_expt",""
"","bandit","129","468489","0.0-90.0-0.0","26051038","wem/bandit_either_3","A1WYDO7PQJ8UG","either","1","565","","","","","","","0","1","0","","0.8569531155","0.6","0.4","0.8","0.2","0.4427204185","0.5394470416","0.2200095001","0.8569531155","","","","","","","","","","","","76","L","3","","","50","main_expt",""
"","bandit","130","471140","0.0-91.0-0.0","26051038","wem/bandit_either_3","A1WYDO7PQJ8UG","either","1","1089","","","","","","","0","1","0","","0.8728609703","0.6","0.4","0.8","0.2","0.5194544998","0.4991806479","0.2703780474","0.8728609703","","","","","","","","","","","","76","L","3","","","51","main_expt",""
"","bandit","131","473289","0.0-92.0-0.0","26051038","wem/bandit_either_3","A1WYDO7PQJ8UG","either","1","585","","","","","","","0","1","0","","0.902184381","0.6","0.4","0.8","0.2","0.4420680866","0.5431464126","0.3215640211","0.902184381","","","","","","","","","","","","76","L","3","","","52","main_expt",""
"","bandit","132","475563","0.0-93.0-0.0","26051038","wem/bandit_either_3","A1WYDO7PQJ8UG","either","1","701","","","","","","","0","0","1","0.2918797996","","0.6","0.4","0.8","0.2","","","","","0.5541791803","0.4799783957","0.2918797996","0.8975054296","","","","","","","","75","K","2","","","53","main_expt",""
"","bandit","133","477813","0.0-94.0-0.0","26051038","wem/bandit_either_3","A1WYDO7PQJ8UG","either","1","680","","","","","","","0","1","0","","0.3946877269","0.6","0.4","0.8","0.2","0.6187664305","0.3946877269","0.2432815539","0.9436546011","","","","","","","","","","","","74","J","1","","","54","main_expt",""
"","bandit","134","479656","0.0-95.0-0.0","26051038","wem/bandit_either_3","A1WYDO7PQJ8UG","either","1","278","","","","","","","0","0","1","0.538030076","","0.6","0.4","0.8","0.2","","","","","0.538030076","0.3892466866","0.1993500609","0.9411334538","","","","","","","","72","H","0","img/none_selected.jpg","","55","main_expt",""
"","bandit","135","481589","0.0-96.0-0.0","26051038","wem/bandit_either_3","A1WYDO7PQJ8UG","either","1","365","","","","","","","0","1","0","","0.5137881872","0.6","0.4","0.8","0.2","0.5137881872","0.347268188","0.1832364248","0.862285227","","","","","","","","","","","","72","H","0","img/none_selected.jpg","","56","main_expt",""
"","bandit","136","483579","0.0-97.0-0.0","26051038","wem/bandit_either_3","A1WYDO7PQJ8UG","either","1","403","","","","","","","0","1","0","","0.6274604021","0.6","0.4","0.8","0.2","0.6274604021","0.3462231845","0.1703919496","0.9034803314","","","","","","","","","","","","72","H","0","img/none_selected.jpg","","57","main_expt",""
"","bandit","137","485469","0.0-98.0-0.0","26051038","wem/bandit_either_3","A1WYDO7PQJ8UG","either","1","345","","","","","","","0","0","1","0.5636132077","","0.6","0.4","0.8","0.2","","","","","0.5636132077","0.3707442777","0.2146973212","0.9062052911","","","","","","","","72","H","0","img/none_selected.jpg","","58","main_expt",""
"","bandit","138","487478","0.0-99.0-0.0","26051038","wem/bandit_either_3","A1WYDO7PQJ8UG","either","1","419","","","","","","","0","0","1","","0.4530366532","0.6","0.4","0.8","0.2","0.6555757088","0.4530366532","0.2118107272","0.9169546289","","","","","","","","","","","","74","J","1","","","59","main_expt",""
"","bandit","139","489389","0.0-100.0-0.0","26051038","wem/bandit_either_3","A1WYDO7PQJ8UG","either","1","366","","","","","","","0","0","1","0.4335409142","","0.6","0.4","0.8","0.2","","","","","0.6555481193","0.4335409142","0.2096036334","0.9048679239","","","","","","","","74","J","1","","","60","main_expt",""
"","bandit","140","491371","0.0-101.0-0.0","26051038","wem/bandit_either_3","A1WYDO7PQJ8UG","either","1","370","","","","","","","0","0","1","","0.3601573371","0.6","0.4","0.8","0.2","0.6988977931","0.3601573371","0.1985607356","0.9346572725","","","","","","","","","","","","74","J","1","","","61","main_expt",""
"","bandit","141","493644","0.0-102.0-0.0","26051038","wem/bandit_either_3","A1WYDO7PQJ8UG","either","1","683","","","","","","","0","0","1","0.2352246004","","0.6","0.4","0.8","0.2","","","","","0.6124712875","0.3187004912","0.2352246004","0.9332729597","","","","","","","","75","K","2","","","62","main_expt",""
"","bandit","142","495603","0.0-103.0-0.0","26051038","wem/bandit_either_3","A1WYDO7PQJ8UG","either","1","318","","","","","","","1","0","0","0.1989126294","","0.6","0.4","0.8","0.2","","","","","0.4881994696","0.331276396","0.1989126294","0.9300142507","","","","","","","","75","K","2","","","63","main_expt",""
"","bandit","143","497492","0.0-104.0-0.0","26051038","wem/bandit_either_3","A1WYDO7PQJ8UG","either","1","318","","","","","","","0","0","1","0.2231035509","","0.6","0.4","0.8","0.2","","","","","0.5007509184","0.3984677","0.2231035509","0.8992917639","","","","","","","","75","K","2","","","64","main_expt",""
"","bandit","144","499338","0.0-105.0-0.0","26051038","wem/bandit_either_3","A1WYDO7PQJ8UG","either","1","304","","","","","","","0","0","1","0.174077904","","0.6","0.4","0.8","0.2","","","","","0.6077525222","0.3012021372","0.174077904","0.7939475476","","","","","","","","75","K","2","","","65","main_expt",""
"","bandit","145","501305","0.0-106.0-0.0","26051038","wem/bandit_either_3","A1WYDO7PQJ8UG","either","1","383","","","","","","","0","1","0","","0.7848839068","0.6","0.4","0.8","0.2","0.4876759876","0.2848395029","0.1505104035","0.7848839068","","","","","","","","","","","","76","L","3","","","66","main_expt",""
"","bandit","146","503446","0.0-107.0-0.0","26051038","wem/bandit_either_3","A1WYDO7PQJ8UG","either","1","604","","","","","","","0","0","1","","0.7712869283","0.6","0.4","0.8","0.2","0.4705728971","0.2908363747","0.1706094741","0.7712869283","","","","","","","","","","","","76","L","3","","","67","main_expt",""
"","bandit","147","505484","0.0-108.0-0.0","26051038","wem/bandit_either_3","A1WYDO7PQJ8UG","either","1","488","","","","","","","0","0","1","","0.3226378352","0.6","0.4","0.8","0.2","0.5822594153","0.3226378352","0.193375558","0.7426915226","","","","","","","","","","","","74","J","1","","","68","main_expt",""
"","bandit","148","507405","0.0-109.0-0.0","26051038","wem/bandit_either_3","A1WYDO7PQJ8UG","either","1","373","","","","","","","0","0","1","0.4490581071","","0.6","0.4","0.8","0.2","","","","","0.6189715015","0.4490581071","0.226811003","0.592712881","","","","","","","","74","J","1","","","69","main_expt",""
"","bandit","149","509539","0.0-110.0-0.0","26051038","wem/bandit_either_3","A1WYDO7PQJ8UG","either","1","373","","","","","","","0","1","0","","0.5307799745","0.6","0.4","0.8","0.2","0.5307799745","0.42365523","0.191142909","0.6587085967","","","","","","","","","","","","72","H","0","img/none_selected.jpg","","70","main_expt",""
"","bandit","150","511432","0.0-111.0-0.0","26051038","wem/bandit_either_3","A1WYDO7PQJ8UG","either","1","334","","","","","","","0","0","1","0.2371486809","","0.6","0.4","0.8","0.2","","","","","0.5205551237","0.427101634","0.2371486809","0.7562029562","","","","","","","","75","K","2","","","71","main_expt",""
"","bandit","151","513557","0.0-112.0-0.0","26051038","wem/bandit_either_3","A1WYDO7PQJ8UG","either","1","437","","","","","","","0","0","1","0.670676276","","0.6","0.4","0.8","0.2","","","","","0.5913901284","0.5387899421","0.2602117984","0.670676276","","","","","","","","76","L","3","","","72","main_expt",""
"","bandit","152","515462","0.0-113.0-0.0","26051038","wem/bandit_either_3","A1WYDO7PQJ8UG","either","1","365","","","","","","","0","0","1","","0.7127465592","0.6","0.4","0.8","0.2","0.7127465592","0.4931252492","0.1837165363","0.6870219419","","","","","","","","","","","","72","H","0","img/none_selected.jpg","","73","main_expt",""
"","bandit","153","517748","0.0-114.0-0.0","26051038","wem/bandit_either_3","A1WYDO7PQJ8UG","either","1","725","","","","","","","0","0","1","","0.3888626504","0.6","0.4","0.8","0.2","0.7804212289","0.3888626504","0.2032334464","0.582898469","","","","","","","","","","","","74","J","1","","","74","main_expt",""
"","bandit","154","519654","0.0-115.0-0.0","26051038","wem/bandit_either_3","A1WYDO7PQJ8UG","either","1","345","","","","","","","0","0","1","0.2782751631","","0.6","0.4","0.8","0.2","","","","","0.7966502287","0.3866429177","0.2782751631","0.6452442043","","","","","","","","75","K","2","","","75","main_expt",""
"","bandit","155","521572","0.0-116.0-0.0","26051038","wem/bandit_either_3","A1WYDO7PQJ8UG","either","1","364","","","","","","","0","1","0","","0.7031137023","0.6","0.4","0.8","0.2","0.7775959854","0.3948468247","0.3318782676","0.7031137023","","","","","","","","","","","","76","L","3","","","76","main_expt",""
"","bandit","156","523482","0.0-117.0-0.0","26051038","wem/bandit_either_3","A1WYDO7PQJ8UG","either","1","345","","","","","","","0","1","0","","0.6096498107","0.6","0.4","0.8","0.2","0.8523583745","0.4853082722","0.312607664","0.6096498107","","","","","","","","","","","","76","L","3","","","77","main_expt",""
"","bandit","157","525606","0.0-118.0-0.0","26051038","wem/bandit_either_3","A1WYDO7PQJ8UG","either","1","527","","","","","","","0","0","1","0.7707034136","","0.6","0.4","0.8","0.2","","","","","0.7707034136","0.4971609959","0.3250695504","0.532302087","","","","","","","","72","H","0","img/none_selected.jpg","","78","main_expt",""
"","bandit","158","527694","0.0-119.0-0.0","26051038","wem/bandit_either_3","A1WYDO7PQJ8UG","either","1","360","","","","","","","0","0","1","","0.5349041547","0.6","0.4","0.8","0.2","0.7919080975","0.5349041547","0.277144637","0.4448734945","","","","","","","","","","","","74","J","1","","","79","main_expt",""
"","bandit","159","529637","0.0-120.0-0.0","26051038","wem/bandit_either_3","A1WYDO7PQJ8UG","either","1","369","","","","","","","0","0","1","","0.293018971","0.6","0.4","0.8","0.2","0.8107458935","0.4713204996","0.293018971","0.34513516","","","","","","","","","","","","75","K","2","","","80","main_expt",""
"","bandit","160","531800","0.0-121.0-0.0","26051038","wem/bandit_either_3","A1WYDO7PQJ8UG","either","1","392","","","","","","","0","1","0","","0.406584365","0.6","0.4","0.8","0.2","0.7851591746","0.4132476049","0.2730851157","0.406584365","","","","","","","","","","","","76","L","3","","","81","main_expt",""
"","bandit","161","533787","0.0-122.0-0.0","26051038","wem/bandit_either_3","A1WYDO7PQJ8UG","either","1","410","","","","","","","0","1","0","","0.5068312928","0.6","0.4","0.8","0.2","0.8067558171","0.4640808921","0.2436011542","0.5068312928","","","","","","","","","","","","76","L","3","","","82","main_expt",""
"","bandit","162","535674","0.0-123.0-0.0","26051038","wem/bandit_either_3","A1WYDO7PQJ8UG","either","1","330","","","","","","","0","1","0","","0.5209063211","0.6","0.4","0.8","0.2","0.7777816444","0.442115463","0.2009218657","0.5209063211","","","","","","","","","","","","76","L","3","","","83","main_expt",""
"","bandit","163","537665","0.0-124.0-0.0","26051038","wem/bandit_either_3","A1WYDO7PQJ8UG","either","1","434","","","","","","","0","1","0","","0.7801041195","0.6","0.4","0.8","0.2","0.7801041195","0.5117806844","0.1550904625","0.6221591745","","","","","","","","","","","","72","H","0","img/none_selected.jpg","","84","main_expt",""
"","bandit","164","539723","0.0-125.0-0.0","26051038","wem/bandit_either_3","A1WYDO7PQJ8UG","either","1","490","","","","","","","0","0","1","0.5309627618","","0.6","0.4","0.8","0.2","","","","","0.7593249252","0.5309627618","0.1193398435","0.6939346182","","","","","","","","74","J","1","","","85","main_expt",""
"","bandit","165","541916","0.0-126.0-0.0","26051038","wem/bandit_either_3","A1WYDO7PQJ8UG","either","1","605","","","","","","","0","0","1","0.1398572341","","0.6","0.4","0.8","0.2","","","","","0.7911667705","0.5482659382","0.1398572341","0.7533471596","","","","","","","","75","K","2","","","86","main_expt",""
"","bandit","166","544015","0.0-127.0-0.0","26051038","wem/bandit_either_3","A1WYDO7PQJ8UG","either","1","546","","","","","","","0","0","1","","0.4772076429","0.6","0.4","0.8","0.2","0.8480662183","0.4772076429","0.1941505275","0.8040573679","","","","","","","","","","","","74","J","1","","","87","main_expt",""
"","bandit","167","546272","0.0-128.0-0.0","26051038","wem/bandit_either_3","A1WYDO7PQJ8UG","either","1","684","","","","","","","0","0","1","","0.8110462569","0.6","0.4","0.8","0.2","0.8110462569","0.5202977678","0.09645570925","0.7800800897","","","","","","","","","","","","72","H","0","img/none_selected.jpg","","88","main_expt",""
"","bandit","168","548692","0.0-129.0-0.0","26051038","wem/bandit_either_3","A1WYDO7PQJ8UG","either","1","833","","","","","","","0","1","0","","0.7329239748","0.6","0.4","0.8","0.2","0.7924414871","0.4970482359","0.1304326216","0.7329239748","","","","","","","","","","","","76","L","3","","","89","main_expt",""
"","bandit","169","550943","0.0-130.0-0.0","26051038","wem/bandit_either_3","A1WYDO7PQJ8UG","either","1","703","","","","","","","1","0","0","0.7202813078","","0.6","0.4","0.8","0.2","","","","","0.8190855249","0.4671205494","0.1410434261","0.7202813078","","","","","","","","76","L","3","","","90","main_expt",""
"","bandit","170","553119","0.0-131.0-0.0","26051038","wem/bandit_either_3","A1WYDO7PQJ8UG","either","1","601","","","","","","","0","1","0","","0.698586111","0.6","0.4","0.8","0.2","0.858270253","0.5518401665","0.1277095213","0.698586111","","","","","","","","","","","","76","L","3","","","91","main_expt",""
"","bandit","171","555189","0.0-132.0-0.0","26051038","wem/bandit_either_3","A1WYDO7PQJ8UG","either","1","481","","","","","","","0","1","0","","0.6054304462","0.6","0.4","0.8","0.2","0.8583259383","0.620788192","0.08596821216","0.6054304462","","","","","","","","","","","","76","L","3","","","92","main_expt",""
"","bandit","172","557324","0.0-133.0-0.0","26051038","wem/bandit_either_3","A1WYDO7PQJ8UG","either","1","555","","","","","","","0","1","0","","0.6829204303","0.6","0.4","0.8","0.2","0.8335107661","0.679669404","0.05652587691","0.6829204303","","","","","","","","","","","","76","L","3","","","93","main_expt",""
"","bandit","173","559749","0.0-134.0-0.0","26051038","wem/bandit_either_3","A1WYDO7PQJ8UG","either","1","860","","","","","","","0","0","1","","0.6084783934","0.6","0.4","0.8","0.2","0.8849423118","0.6726581754","0.07490457358","0.6084783934","","","","","","","","","","","","76","L","3","","","94","main_expt",""
"","bandit","174","562044","0.0-135.0-0.0","26051038","wem/bandit_either_3","A1WYDO7PQJ8UG","either","1","689","","","","","","","0","0","1","0.05201682933","","0.6","0.4","0.8","0.2","","","","","0.9175662658","0.5983950962","0.05201682933","0.51962455","","","","","","","","75","K","2","","","95","main_expt",""
"","bandit","175","563995","0.0-136.0-0.0","26051038","wem/bandit_either_3","A1WYDO7PQJ8UG","either","1","403","","","","","","","1","0","0","0.6316158747","","0.6","0.4","0.8","0.2","","","","","0.8726153548","0.6316158747","0.0353667714","0.453067158","","","","","","","","74","J","1","","","96","main_expt",""
"","bandit","176","566226","0.0-137.0-0.0","26051038","wem/bandit_either_3","A1WYDO7PQJ8UG","either","1","678","","","","","","","0","0","1","","0.6660601513","0.6","0.4","0.8","0.2","0.7260562137","0.6660601513","0.04301306848","0.4090095009","","","","","","","","","","","","74","J","1","","","97","main_expt",""
"","bandit","177","568441","0.0-138.0-0.0","26051038","wem/bandit_either_3","A1WYDO7PQJ8UG","either","1","490","","","","","","","0","1","0","","0.6185462561","0.6","0.4","0.8","0.2","0.6506148609","0.6185462561","0.03950067624","0.360727585","","","","","","","","","","","","74","J","1","","","98","main_expt",""
"","bandit","178","570631","0.0-139.0-0.0","26051038","wem/bandit_either_3","A1WYDO7PQJ8UG","either","1","621","","","","","","","0","1","0","","0.581128502","0.6","0.4","0.8","0.2","0.5816342488","0.581128502","0.03156699585","0.3351327477","","","","","","","","","","","","74","J","1","","","99","main_expt",""
"","bandit","179","572587","0.0-140.0-0.0","26051038","wem/bandit_either_3","A1WYDO7PQJ8UG","either","1","392","","","","","","","0","0","1","0.5521464449","","0.6","0.4","0.8","0.2","","","","","0.5521464449","0.479775063","0.0248161238","0.3491912274","","","","","","","","72","H","0","img/none_selected.jpg","","100","main_expt",""
"","bandit","180","574739","0.0-141.0-0.0","26051038","wem/bandit_either_3","A1WYDO7PQJ8UG","either","1","508","","","","","","","0","0","1","0.6063232436","","0.6","0.4","0.8","0.2","","","","","0.6063232436","0.5114647241","0.02218075004","0.4105375765","","","","","","","","72","H","0","img/none_selected.jpg","","101","main_expt",""
"","bandit","181","576695","0.0-142.0-0.0","26051038","wem/bandit_either_3","A1WYDO7PQJ8UG","either","1","391","","","","","","","1","0","0","0.5636213764","","0.6","0.4","0.8","0.2","","","","","0.5636213764","0.4718740674","0.01802152149","0.438632671","","","","","","","","72","H","0","img/none_selected.jpg","","102","main_expt",""
"","bandit","182","578700","0.0-143.0-0.0","26051038","wem/bandit_either_3","A1WYDO7PQJ8UG","either","1","427","","","","","","","0","0","1","0.5370473259","","0.6","0.4","0.8","0.2","","","","","0.5370473259","0.5245129891","0.01877214671","0.372838406","","","","","","","","72","H","0","img/none_selected.jpg","","103","main_expt",""
"","bandit","183","580897","0.0-144.0-0.0","26051038","wem/bandit_either_3","A1WYDO7PQJ8UG","either","1","645","","","","","","","0","0","1","0.01556743346","","0.6","0.4","0.8","0.2","","","","","0.549647281","0.5170751474","0.01556743346","0.3057692375","","","","","","","","75","K","2","","","104","main_expt",""
"","bandit","184","583272","0.0-145.0-0.0","26051038","wem/bandit_either_3","A1WYDO7PQJ8UG","either","1","805","","","","","","","0","0","1","0.03717147126","","0.6","0.4","0.8","0.2","","","","","0.4225976111","0.472330124","0.03717147126","0.37369274","","","","","","","","75","K","2","","","105","main_expt",""
"","bandit","185","585266","0.0-146.0-0.0","26051038","wem/bandit_either_3","A1WYDO7PQJ8UG","either","1","381","","","","","","","0","0","1","0.07687033395","","0.6","0.4","0.8","0.2","","","","","0.5005163425","0.568133852","0.07687033395","0.3179799449","","","","","","","","75","K","2","","","106","main_expt",""
"","bandit","186","587322","0.0-147.0-0.0","26051038","wem/bandit_either_3","A1WYDO7PQJ8UG","either","1","508","","","","","","","0","0","1","0.07659049968","","0.6","0.4","0.8","0.2","","","","","0.3995396385","0.536018559","0.07659049968","0.3053765494","","","","","","","","75","K","2","","","107","main_expt",""
"","bandit","187","589476","0.0-148.0-0.0","26051038","wem/bandit_either_3","A1WYDO7PQJ8UG","either","1","595","","","","","","","0","0","1","","0.2732860947","0.6","0.4","0.8","0.2","0.3855926336","0.3880888981","0.07827602418","0.2732860947","","","","","","","","","","","","76","L","3","","","108","main_expt",""
"","bandit","188","591632","0.0-149.0-0.0","26051038","wem/bandit_either_3","A1WYDO7PQJ8UG","either","1","538","","","","","","","0","0","1","0.2624197952","","0.6","0.4","0.8","0.2","","","","","0.3059937163","0.3675045314","0.1352418701","0.2624197952","","","","","","","","76","L","3","","","109","main_expt",""
"","bandit","189","593885","0.0-150.0-0.0","26051038","wem/bandit_either_3","A1WYDO7PQJ8UG","either","1","654","","","","","","","0","0","1","0.4560700489","","0.6","0.4","0.8","0.2","","","","","0.2752892785","0.4560700489","0.1705666919","0.3303210632","","","","","","","","74","J","1","","","110","main_expt",""
"","bandit","190","595805","0.0-151.0-0.0","26051038","wem/bandit_either_3","A1WYDO7PQJ8UG","either","1","370","","","","","","","0","0","1","0.2202970635","","0.6","0.4","0.8","0.2","","","","","0.3038626008","0.5366389876","0.2202970635","0.3541452024","","","","","","","","75","K","2","","","111","main_expt",""
"","bandit","191","597784","0.0-152.0-0.0","26051038","wem/bandit_either_3","A1WYDO7PQJ8UG","either","1","395","","","","","","","0","0","1","0.4468573219","","0.6","0.4","0.8","0.2","","","","","0.2308866464","0.5742054707","0.2368742277","0.4468573219","","","","","","","","76","L","3","","","112","main_expt",""
"","bandit","192","599738","0.0-153.0-0.0","26051038","wem/bandit_either_3","A1WYDO7PQJ8UG","either","1","386","","","","","","","0","0","1","0.2420052043","","0.6","0.4","0.8","0.2","","","","","0.2420052043","0.6014260319","0.2487241586","0.5163231944","","","","","","","","72","H","0","img/none_selected.jpg","","113","main_expt",""
"","bandit","193","601825","0.0-154.0-0.0","26051038","wem/bandit_either_3","A1WYDO7PQJ8UG","either","1","535","","","","","","","1","0","0","0.3277817495","","0.6","0.4","0.8","0.2","","","","","0.3277817495","0.5398035654","0.238824581","0.4064640458","","","","","","","","72","H","0","img/none_selected.jpg","","114","main_expt",""
"","bandit","194","603992","0.0-155.0-0.0","26051038","wem/bandit_either_3","A1WYDO7PQJ8UG","either","1","586","","","","","","","0","0","1","0.3280884562","","0.6","0.4","0.8","0.2","","","","","0.3280884562","0.5008208772","0.1480638281","0.4085425191","","","","","","","","72","H","0","img/none_selected.jpg","","115","main_expt",""
"","bandit","195","606003","0.0-156.0-0.0","26051038","wem/bandit_either_3","A1WYDO7PQJ8UG","either","1","424","","","","","","","0","0","1","","0.4200837231","0.6","0.4","0.8","0.2","0.4137256642","0.4200837231","0.1246447603","0.4412864427","","","","","","","","","","","","74","J","1","","","116","main_expt",""
"","bandit","196","608006","0.0-157.0-0.0","26051038","wem/bandit_either_3","A1WYDO7PQJ8UG","either","1","434","","","","","","","0","0","1","0.1308085784","","0.6","0.4","0.8","0.2","","","","","0.372751341","0.4094987027","0.1308085784","0.5188885271","","","","","","","","75","K","2","","","117","main_expt",""
"","bandit","197","610016","0.0-158.0-0.0","26051038","wem/bandit_either_3","A1WYDO7PQJ8UG","either","1","446","","","","","","","0","1","0","","0.5728151575","0.6","0.4","0.8","0.2","0.4225631273","0.3862907493","0.09076242324","0.5728151575","","","","","","","","","","","","76","L","3","","","118","main_expt",""
"","bandit","198","612177","0.0-159.0-0.0","26051038","wem/bandit_either_3","A1WYDO7PQJ8UG","either","1","604","","","","","","","1","0","0","0.5065624602","","0.6","0.4","0.8","0.2","","","","","0.4188482812","0.4437318585","0.09057925276","0.5065624602","","","","","","","","76","L","3","","","119","main_expt",""
"","bandit","199","614406","0.0-160.0-0.0","26051038","wem/bandit_either_3","A1WYDO7PQJ8UG","either","1","639","","","","","","","0","0","1","","0.4064427813","0.6","0.4","0.8","0.2","0.3729077829","0.293469011","0.1288926122","0.4064427813","","","","","","","","","","","","76","L","3","","","120","main_expt",""
"","bandit","200","616632","0.0-161.0-0.0","26051038","wem/bandit_either_3","A1WYDO7PQJ8UG","either","1","617","","","","","","","1","0","0","0.3948988447","","0.6","0.4","0.8","0.2","","","","","0.3817262037","0.2141601759","0.1479701512","0.3948988447","","","","","","","","76","L","3","","","121","main_expt",""
"","bandit","201","621574","0.0-162.0-0.0","26051038","wem/bandit_either_3","A1WYDO7PQJ8UG","either","1","3369","","","","","","","0","0","1","","0.316823658","0.6","0.4","0.8","0.2","0.3537210734","0.2594293103","0.1663524813","0.316823658","","","","","","","","","","","","76","L","3","","","122","main_expt",""
"","bandit","202","623675","0.0-163.0-0.0","26051038","wem/bandit_either_3","A1WYDO7PQJ8UG","either","1","481","","","","","","","0","0","1","","0.1993917655","0.6","0.4","0.8","0.2","0.3633727708","0.1519240937","0.1993917655","0.3045978244","","","","","","","","","","","","75","K","2","","","123","main_expt",""
"","bandit","203","626558","0.0-164.0-0.0","26051038","wem/bandit_either_3","A1WYDO7PQJ8UG","either","1","1195","","","","","","","0","0","1","","0.2311656533","0.6","0.4","0.8","0.2","0.4139908316","0.2311656533","0.2948689786","0.2389028675","","","","","","","","","","","","74","J","1","","","124","main_expt",""
"","bandit","204","629143","0.0-165.0-0.0","26051038","wem/bandit_either_3","A1WYDO7PQJ8UG","either","1","825","","","","","","","0","0","1","","0.1956748967","0.6","0.4","0.8","0.2","0.3619800754","0.1956748967","0.4054398129","0.2166803268","","","","","","","","","","","","74","J","1","","","125","main_expt",""
"","bandit","205","631047","0.0-166.0-0.0","26051038","wem/bandit_either_3","A1WYDO7PQJ8UG","either","1","327","","","","","","","0","1","0","","0.353362548","0.6","0.4","0.8","0.2","0.353362548","0.1419383156","0.5337661481","0.1613674106","","","","","","","","","","","","72","H","0","img/none_selected.jpg","","126","main_expt",""
"","bandit","206","633655","0.0-167.0-0.0","26051038","wem/bandit_either_3","A1WYDO7PQJ8UG","either","1","1001","","","","","","","0","0","1","","0.2888217425","0.6","0.4","0.8","0.2","0.2888217425","0.1768105291","0.5510518781","0.1682412955","","","","","","","","","","","","72","H","0","img/none_selected.jpg","","127","main_expt",""
"","bandit","207","635707","0.0-168.0-0.0","26051038","wem/bandit_either_3","A1WYDO7PQJ8UG","either","1","439","","","","","","","0","0","1","","0.1187699492","0.6","0.4","0.8","0.2","0.3131893798","0.1187699492","0.4746642732","0.1655910943","","","","","","","","","","","","74","J","1","","","128","main_expt",""
"","bandit","208","637798","0.0-169.0-0.0","26051038","wem/bandit_either_3","A1WYDO7PQJ8UG","either","1","537","","","","","","","0","0","1","0.5345142674","","0.6","0.4","0.8","0.2","","","","","0.2826861836","0.1860330609","0.5345142674","0.1845506081","","","","","","","","75","K","2","","","129","main_expt",""
"","bandit","209","639713","0.0-170.0-0.0","26051038","wem/bandit_either_3","A1WYDO7PQJ8UG","either","1","351","","","","","","","0","0","1","","0.1548240476","0.6","0.4","0.8","0.2","0.3434973012","0.09722607165","0.6617219445","0.1548240476","","","","","","","","","","","","76","L","3","","","130","main_expt",""
"","bandit","210","641680","0.0-171.0-0.0","26051038","wem/bandit_either_3","A1WYDO7PQJ8UG","either","1","399","","","","","","","0","0","1","0.3848082556","","0.6","0.4","0.8","0.2","","","","","0.3848082556","0.05626421391","0.6183560712","0.1503989","","","","","","","","72","H","0","img/none_selected.jpg","","131","main_expt",""
"","bandit","211","643855","0.0-172.0-0.0","26051038","wem/bandit_either_3","A1WYDO7PQJ8UG","either","1","543","","","","","","","0","0","1","0.1149854728","","0.6","0.4","0.8","0.2","","","","","0.4140069858","0.1149854728","0.7009512511","0.1199593994","","","","","","","","74","J","1","","","132","main_expt",""
"","bandit","212","645843","0.0-173.0-0.0","26051038","wem/bandit_either_3","A1WYDO7PQJ8UG","either","1","440","","","","","","","1","0","0","0.5838974895","","0.6","0.4","0.8","0.2","","","","","0.3745017877","0.1698175541","0.5838974895","0.1518383839","","","","","","","","75","K","2","","","133","main_expt",""
"","bandit","213","647729","0.0-174.0-0.0","26051038","wem/bandit_either_3","A1WYDO7PQJ8UG","either","1","322","","","","","","","0","0","1","","0.6628563986","0.6","0.4","0.8","0.2","0.3918835711","0.1925371395","0.6628563986","0.1855528241","","","","","","","","","","","","75","K","2","","","134","main_expt",""
"","bandit","214","649962","0.0-175.0-0.0","26051038","wem/bandit_either_3","A1WYDO7PQJ8UG","either","1","569","","","","","","","0","0","1","0.5610912218","","0.6","0.4","0.8","0.2","","","","","0.3405764209","0.246136332","0.5610912218","0.2187769305","","","","","","","","75","K","2","","","135","main_expt",""
"","bandit","215","651948","0.0-176.0-0.0","26051038","wem/bandit_either_3","A1WYDO7PQJ8UG","either","1","408","","","","","","","1","0","0","0.4834649218","","0.6","0.4","0.8","0.2","","","","","0.4155430462","0.2277518718","0.4834649218","0.2001534018","","","","","","","","75","K","2","","","136","main_expt",""
"","bandit","216","654318","0.0-177.0-0.0","26051038","wem/bandit_either_3","A1WYDO7PQJ8UG","either","1","723","","","","","","","0","0","1","0.513072369","","0.6","0.4","0.8","0.2","","","","","0.3389252929","0.252962458","0.513072369","0.176995917","","","","","","","","75","K","2","","","137","main_expt",""
"","bandit","217","656440","0.0-178.0-0.0","26051038","wem/bandit_either_3","A1WYDO7PQJ8UG","either","1","570","","","","","","","1","0","0","0.5502636267","","0.6","0.4","0.8","0.2","","","","","0.2698753193","0.3018696236","0.5502636267","0.1460019238","","","","","","","","75","K","2","","","138","main_expt",""
"","bandit","218","658702","0.0-179.0-0.0","26051038","wem/bandit_either_3","A1WYDO7PQJ8UG","either","1","651","","","","","","","1","0","0","0.4564922144","","0.6","0.4","0.8","0.2","","","","","0.2821570394","0.347353107","0.4564922144","0.06707115951","","","","","","","","75","K","2","","","139","main_expt",""
"","bandit","219","660662","0.0-180.0-0.0","26051038","wem/bandit_either_3","A1WYDO7PQJ8UG","either","1","342","","","","","","","1","0","0","0.4116013625","","0.6","0.4","0.8","0.2","","","","","0.3577533322","0.2477375586","0.4116013625","0.1071331831","","","","","","","","75","K","2","","","140","main_expt",""
"","bandit","220","662590","0.0-181.0-0.0","26051038","wem/bandit_either_3","A1WYDO7PQJ8UG","either","1","328","","","","","","","1","0","0","0.4498847811","","0.6","0.4","0.8","0.2","","","","","0.4250900652","0.2880826197","0.4498847811","0.1224459691","","","","","","","","75","K","2","","","141","main_expt",""
"","bandit","221","664548","0.0-182.0-0.0","26051038","wem/bandit_either_3","A1WYDO7PQJ8UG","either","1","384","","","","","","","1","0","0","0.4822150968","","0.6","0.4","0.8","0.2","","","","","0.3451055681","0.2287108423","0.4822150968","0.1127900777","","","","","","","","75","K","2","","","142","main_expt",""
"","bandit","222","666547","0.0-183.0-0.0","26051038","wem/bandit_either_3","A1WYDO7PQJ8UG","either","1","395","","","","","","","1","0","0","0.513506041","","0.6","0.4","0.8","0.2","","","","","0.4661026996","0.2096850542","0.513506041","0.1736101882","","","","","","","","75","K","2","","","143","main_expt",""
"","bandit","223","668639","0.0-184.0-0.0","26051038","wem/bandit_either_3","A1WYDO7PQJ8UG","either","1","523","","","","","","","1","0","0","0.556822441","","0.6","0.4","0.8","0.2","","","","","0.4683168179","0.2214165798","0.556822441","0.1231714597","","","","","","","","75","K","2","","","144","main_expt",""
"","bandit","224","670689","0.0-185.0-0.0","26051038","wem/bandit_either_3","A1WYDO7PQJ8UG","either","1","465","","","","","","","0","0","1","0.5633269006","","0.6","0.4","0.8","0.2","","","","","0.448697065","0.2412424024","0.5633269006","0.10514291","","","","","","","","75","K","2","","","145","main_expt",""
"","bandit","225","672598","0.0-186.0-0.0","26051038","wem/bandit_either_3","A1WYDO7PQJ8UG","either","1","341","","","","","","","0","0","1","0.6482805244","","0.6","0.4","0.8","0.2","","","","","0.4560677512","0.1841611904","0.6482805244","0.0972381369","","","","","","","","75","K","2","","","146","main_expt",""
"","bandit","226","675049","0.0-187.0-0.0","26051038","wem/bandit_either_3","A1WYDO7PQJ8UG","either","1","739","","","","","","","0","0","1","0.6036290043","","0.6","0.4","0.8","0.2","","","","","0.513472809","0.1577922033","0.6036290043","0.1897119627","","","","","","","","75","K","2","","","147","main_expt",""
"","bandit","227","677250","0.0-188.0-0.0","26051038","wem/bandit_either_3","A1WYDO7PQJ8UG","either","1","615","","","","","","","1","0","0","0.6110248825","","0.6","0.4","0.8","0.2","","","","","0.3820674583","0.1663963597","0.6110248825","0.1759094881","","","","","","","","75","K","2","","","148","main_expt",""
"","bandit","228","679890","0.0-189.0-0.0","26051038","wem/bandit_either_3","A1WYDO7PQJ8UG","either","1","1070","","","","","","","1","0","0","0.6453676348","","0.6","0.4","0.8","0.2","","","","","0.3116557105","0.319747154","0.6453676348","0.2204336569","","","","","","","","75","K","2","","","149","main_expt",""
"","bandit","229","682723","0.0-190.0-0.0","26051038","wem/bandit_either_3","A1WYDO7PQJ8UG","either","1","1071","","","","","","","0","1","0","","0.66235511","0.6","0.4","0.8","0.2","0.3039338698","0.5410110608","0.66235511","0.2328853871","","","","","","","","","","","","75","K","2","","","150","main_expt",""
"","bandit","230","685026","0.0-191.0-0.0","26051038","wem/bandit_either_3","A1WYDO7PQJ8UG","either","1","749","","","","","","","0","1","0","","0.5547575852","0.6","0.4","0.8","0.2","0.3092958796","0.5584745132","0.5547575852","0.2652525627","","","","","","","","","","","","75","K","2","","","151","main_expt",""
"","bandit","231","687241","0.0-192.0-0.0","26051038","wem/bandit_either_3","A1WYDO7PQJ8UG","either","1","656","","","","","","","1","0","0","0.5223098228","","0.6","0.4","0.8","0.2","","","","","0.3097370874","0.5709378499","0.5223098228","0.2654363334","","","","","","","","75","K","2","","","152","main_expt",""
"","bandit","232","689649","0.0-193.0-0.0","26051038","wem/bandit_either_3","A1WYDO7PQJ8UG","either","1","815","","","","","","","0","0","1","0.5137303037","","0.6","0.4","0.8","0.2","","","","","0.2955649657","0.6314515046","0.5137303037","0.3505589273","","","","","","","","75","K","2","","","153","main_expt",""
"","bandit","233","691952","0.0-194.0-0.0","26051038","wem/bandit_either_3","A1WYDO7PQJ8UG","either","1","740","","","","","","","0","0","1","0.5193194566","","0.6","0.4","0.8","0.2","","","","","0.221553637","0.6734276465","0.5193194566","0.39889796","","","","","","","","75","K","2","","","154","main_expt",""
"","bandit","234","694245","0.0-195.0-0.0","26051038","wem/bandit_either_3","A1WYDO7PQJ8UG","either","1","695","","","","","","","1","0","0","0.4736812385","","0.6","0.4","0.8","0.2","","","","","0.2231547498","0.7019144477","0.4736812385","0.4202606707","","","","","","","","75","K","2","","","155","main_expt",""
"","bandit","235","696635","0.0-196.0-0.0","26051038","wem/bandit_either_3","A1WYDO7PQJ8UG","either","1","632","","","","","","","0","0","1","0.4616442501","","0.6","0.4","0.8","0.2","","","","","0.2750957943","0.6695455193","0.4616442501","0.4814159609","","","","","","","","75","K","2","","","156","main_expt",""
"","bandit","236","699354","0.0-197.0-0.0","26051038","wem/bandit_either_3","A1WYDO7PQJ8UG","either","1","1158","","","","","","","1","0","0","0.5025740222","","0.6","0.4","0.8","0.2","","","","","0.2005793054","0.6179864128","0.5025740222","0.5316807058","","","","","","","","75","K","2","","","157","main_expt",""
"","bandit","237","701796","0.0-198.0-0.0","26051038","wem/bandit_either_3","A1WYDO7PQJ8UG","either","1","860","","","","","","","0","0","1","0.4548105643","","0.6","0.4","0.8","0.2","","","","","0.2502080146","0.7380689997","0.4548105643","0.5429668589","","","","","","","","75","K","2","","","158","main_expt",""
"","bandit","238","705130","0.0-199.0-0.0","26051038","wem/bandit_either_3","A1WYDO7PQJ8UG","either","1","1725","","","","","","","0","0","1","0.4622667215","","0.6","0.4","0.8","0.2","","","","","0.2729805177","0.7632184112","0.4622667215","0.5991419929","","","","","","","","75","K","2","","","159","main_expt",""
"","bandit","239","707475","0.0-200.0-0.0","26051038","wem/bandit_either_3","A1WYDO7PQJ8UG","either","1","776","","","","","","","1","0","0","0.4600517474","","0.6","0.4","0.8","0.2","","","","","0.2801697818","0.6917664031","0.4600517474","0.6480894682","","","","","","","","75","K","2","","","160","main_expt",""
"","bandit","240","709802","0.0-201.0-0.0","26051038","wem/bandit_either_3","A1WYDO7PQJ8UG","either","1","740","","","","","","","0","1","0","","0.6776161973","0.6","0.4","0.8","0.2","0.2437938608","0.7106531984","0.481388234","0.6776161973","","","","","","","","","","","","76","L","3","","","161","main_expt",""
"","bandit","241","712164","0.0-202.0-0.0","26051038","wem/bandit_either_3","A1WYDO7PQJ8UG","either","1","653","","","","","","","0","1","0","","0.3850106192","0.6","0.4","0.8","0.2","0.2687553501","0.809310282","0.3850106192","0.7134031715","","","","","","","","","","","","75","K","2","","","162","main_expt",""
"","bandit","242","714365","0.0-203.0-0.0","26051038","wem/bandit_either_3","A1WYDO7PQJ8UG","either","1","580","","","","","","","0","0","1","0.3498723973","","0.6","0.4","0.8","0.2","","","","","0.245991677","0.7492875705","0.3498723973","0.6215635068","","","","","","","","75","K","2","","","163","main_expt",""
"","bandit","243","716694","0.0-204.0-0.0","26051038","wem/bandit_either_3","A1WYDO7PQJ8UG","either","1","766","","","","","","","0","0","1","","0.4287417444","0.6","0.4","0.8","0.2","0.270385563","0.7561394707","0.4287417444","0.5219240024","","","","","","","","","","","","75","K","2","","","164","main_expt",""
"","bandit","244","718903","0.0-205.0-0.0","26051038","wem/bandit_either_3","A1WYDO7PQJ8UG","either","1","532","","","","","","","0","0","1","0.3150145745","","0.6","0.4","0.8","0.2","","","","","0.3037855967","0.8111415702","0.3150145745","0.4727302842","","","","","","","","75","K","2","","","165","main_expt",""
"","bandit","245","720909","0.0-206.0-0.0","26051038","wem/bandit_either_3","A1WYDO7PQJ8UG","either","1","440","","","","","","","0","0","1","0.2927018344","","0.6","0.4","0.8","0.2","","","","","0.3395577104","0.7759938205","0.2927018344","0.5181018645","","","","","","","","75","K","2","","","166","main_expt",""
"","bandit","246","723078","0.0-207.0-0.0","26051038","wem/bandit_either_3","A1WYDO7PQJ8UG","either","1","541","","","","","","","0","1","0","","0.3610256338","0.6","0.4","0.8","0.2","0.3443901906","0.8267633335","0.3610256338","0.5280433419","","","","","","","","","","","","75","K","2","","","167","main_expt",""
"","bandit","247","725324","0.0-208.0-0.0","26051038","wem/bandit_either_3","A1WYDO7PQJ8UG","either","1","667","","","","","","","0","0","1","0.3137127159","","0.6","0.4","0.8","0.2","","","","","0.2552323567","0.8136073627","0.3137127159","0.5470010145","","","","","","","","75","K","2","","","168","main_expt",""
"","bandit","248","727746","0.0-209.0-0.0","26051038","wem/bandit_either_3","A1WYDO7PQJ8UG","either","1","688","","","","","","","0","0","1","","0.5558845962","0.6","0.4","0.8","0.2","0.289352286","0.7308533614","0.2292796242","0.5558845962","","","","","","","","","","","","76","L","3","","","169","main_expt",""
"","bandit","249","729860","0.0-210.0-0.0","26051038","wem/bandit_either_3","A1WYDO7PQJ8UG","either","1","544","","","","","","","1","0","0","0.2262743404","","0.6","0.4","0.8","0.2","","","","","0.2262743404","0.7090730391","0.221948569","0.5799309324","","","","","","","","72","H","0","img/none_selected.jpg","","170","main_expt",""
"","bandit","250","732183","0.0-211.0-0.0","26051038","wem/bandit_either_3","A1WYDO7PQJ8UG","either","1","774","","","","","","","0","0","1","0.2644351609","","0.6","0.4","0.8","0.2","","","","","0.2644351609","0.7229684446","0.159615594","0.6643953266","","","","","","","","72","H","0","img/none_selected.jpg","","171","main_expt",""
"","bandit","251","734742","0.0-212.0-0.0","26051038","wem/bandit_either_3","A1WYDO7PQJ8UG","either","1","1018","","","","","","","0","0","1","","0.4136296373","0.6","0.4","0.8","0.2","0.4136296373","0.6612043244","0.1303854457","0.7610666705","","","","","","","","","","","","72","H","0","img/none_selected.jpg","","172","main_expt",""
"","bandit","252","737418","0.0-213.0-0.0","26051038","wem/bandit_either_3","A1WYDO7PQJ8UG","either","1","1117","","","","","","","0","0","1","","0.491318492","0.6","0.4","0.8","0.2","0.491318492","0.7669021743","0.07729024622","0.8006149786","","","","","","","","","","","","72","H","0","img/none_selected.jpg","","173","main_expt",""
"","bandit","253","739918","0.0-214.0-0.0","26051038","wem/bandit_either_3","A1WYDO7PQJ8UG","either","1","730","","","","","","","0","1","0","","0.8111867287","0.6","0.4","0.8","0.2","0.4966763124","0.8111867287","0.1227026474","0.791095403","","","","","","","","","","","","74","J","1","","","174","main_expt",""
"","bandit","254","742543","0.0-215.0-0.0","26051038","wem/bandit_either_3","A1WYDO7PQJ8UG","either","1","912","","","","","","","0","0","1","","0.8192498968","0.6","0.4","0.8","0.2","0.5109350621","0.8192498968","0.09483306355","0.8572088762","","","","","","","","","","","","74","J","1","","","175","main_expt",""
"","bandit","255","744393","0.0-216.0-0.0","26051038","wem/bandit_either_3","A1WYDO7PQJ8UG","either","1","299","","","","","","","0","1","0","","0.8371283275","0.6","0.4","0.8","0.2","0.6321295754","0.8371283275","0.143069758","0.8576080684","","","","","","","","","","","","74","J","1","","","176","main_expt",""
"","bandit","256","748719","0.0-217.0-0.0","26051038","wem/bandit_either_3","A1WYDO7PQJ8UG","either","1","2710","","","","","","","0","1","0","","0.8545140947","0.6","0.4","0.8","0.2","0.5515755996","0.8545140947","0.1741656422","0.8678158231","","","","","","","","","","","","74","J","1","","","177","main_expt",""
"","bandit","257","750794","0.0-218.0-0.0","26051038","wem/bandit_either_3","A1WYDO7PQJ8UG","either","1","508","","","","","","","1","0","0","0.8794893657","","0.6","0.4","0.8","0.2","","","","","0.5086275016","0.8794893657","0.1904086474","0.8820542777","","","","","","","","74","J","1","","","178","main_expt",""
"","bandit","258","753357","0.0-219.0-0.0","26051038","wem/bandit_either_3","A1WYDO7PQJ8UG","either","1","885","","","","","","","0","1","0","","0.8939587296","0.6","0.4","0.8","0.2","0.5215192908","0.8939587296","0.1778905233","0.8907334788","","","","","","","","","","","","74","J","1","","","179","main_expt",""
"","bandit","259","755849","0.0-220.0-0.0","26051038","wem/bandit_either_3","A1WYDO7PQJ8UG","either","1","880","","","","","","","1","0","0","0.868077767","","0.6","0.4","0.8","0.2","","","","","0.5193414217","0.868077767","0.2112817454","0.9161653667","","","","","","","","74","J","1","","","180","main_expt",""
"","bandit","260","758686","0.0-221.0-0.0","26051038","wem/bandit_either_3","A1WYDO7PQJ8UG","either","1","1266","","","","","","","0","1","0","","0.9295405476","0.6","0.4","0.8","0.2","0.4613460131","0.9295405476","0.2236312472","0.9327112184","","","","","","","","","","","","74","J","1","","","181","main_expt",""
"","bandit","261","761874","0.0-222.0-0.0","26051038","wem/bandit_either_3","A1WYDO7PQJ8UG","either","1","1609","","","","","","","1","0","0","0.9213574857","","0.6","0.4","0.8","0.2","","","","","0.4468633868","0.9213574857","0.264467441","0.9284398706","","","","","","","","74","J","1","","","182","main_expt",""
"","bandit","262","764872","0.0-223.0-0.0","26051038","wem/bandit_either_3","A1WYDO7PQJ8UG","either","1","1399","","","","","","","0","1","0","","0.9374560388","0.6","0.4","0.8","0.2","0.4985091709","0.9374560388","0.2240632979","0.89591471","","","","","","","","","","","","74","J","1","","","183","main_expt",""
"","bandit","263","767343","0.0-224.0-0.0","26051038","wem/bandit_either_3","A1WYDO7PQJ8UG","either","1","866","","","","","","","0","1","0","","0.9120054929","0.6","0.4","0.8","0.2","0.6057575335","0.9120054929","0.1671404848","0.9146434193","","","","","","","","","","","","74","J","1","","","184","main_expt",""
"","bandit","264","769932","0.0-225.0-0.0","26051038","wem/bandit_either_3","A1WYDO7PQJ8UG","either","1","869","","","","","","","0","1","0","","0.8428471033","0.6","0.4","0.8","0.2","0.4915456485","0.8428471033","0.1932257563","0.8575823977","","","","","","","","","","","","74","J","1","","","185","main_expt",""
"","bandit","265","772562","0.0-226.0-0.0","26051038","wem/bandit_either_3","A1WYDO7PQJ8UG","either","1","1061","","","","","","","0","0","1","0.155472597","","0.6","0.4","0.8","0.2","","","","","0.5976273718","0.7734335662","0.155472597","0.8487952361","","","","","","","","75","K","2","","","186","main_expt",""
"","bandit","266","775057","0.0-227.0-0.0","26051038","wem/bandit_either_3","A1WYDO7PQJ8UG","either","1","894","","","","","","","0","1","0","","0.8603972339","0.6","0.4","0.8","0.2","0.5743595779","0.7667319261","0.1895871356","0.8603972339","","","","","","","","","","","","76","L","3","","","187","main_expt",""
"","bandit","267","777484","0.0-228.0-0.0","26051038","wem/bandit_either_3","A1WYDO7PQJ8UG","either","1","693","","","","","","","1","0","0","0.8834510925","","0.6","0.4","0.8","0.2","","","","","0.6833173747","0.5945875292","0.2119556673","0.8834510925","","","","","","","","76","L","3","","","188","main_expt",""
"","bandit","268","780213","0.0-229.0-0.0","26051038","wem/bandit_either_3","A1WYDO7PQJ8UG","either","1","1156","","","","","","","0","1","0","","0.8973947779","0.6","0.4","0.8","0.2","0.651089354","0.7406569186","0.2255007403","0.8973947779","","","","","","","","","","","","76","L","3","","","189","main_expt",""
"","bandit","269","782340","0.0-230.0-0.0","26051038","wem/bandit_either_3","A1WYDO7PQJ8UG","either","1","543","","","","","","","1","0","0","0.7371931777","","0.6","0.4","0.8","0.2","","","","","0.6599652607","0.7371931777","0.1754842532","0.8824587855","","","","","","","","74","J","1","","","190","main_expt",""
"","bandit","270","784805","0.0-231.0-0.0","26051038","wem/bandit_either_3","A1WYDO7PQJ8UG","either","1","899","","","","","","","0","0","1","0.7019705866","","0.6","0.4","0.8","0.2","","","","","0.6960236584","0.7019705866","0.1936311571","0.9076431997","","","","","","","","74","J","1","","","191","main_expt",""
"","bandit","271","788780","0.0-232.0-0.0","26051038","wem/bandit_either_3","A1WYDO7PQJ8UG","either","1","1188","","","","","","","1","0","0","0.6198122665","","0.6","0.4","0.8","0.2","","","","","0.6713911156","0.6198122665","0.215612591","0.8673165995","","","","","","","","74","J","1","","","192","main_expt",""
"","bandit","272","792799","0.0-233.0-0.0","26051038","wem/bandit_either_3","A1WYDO7PQJ8UG","either","1","2179","","","","","","","0","1","0","","0.6100930929","0.6","0.4","0.8","0.2","0.7244072205","0.6100930929","0.2818734505","0.8264401474","","","","","","","","","","","","74","J","1","","","193","main_expt",""
"","bandit","273","795401","0.0-234.0-0.0","26051038","wem/bandit_either_3","A1WYDO7PQJ8UG","either","1","904","","","","","","","1","0","0","0.6332739585","","0.6","0.4","0.8","0.2","","","","","0.7397798508","0.6332739585","0.3616108755","0.8546086414","","","","","","","","74","J","1","","","194","main_expt",""
"","bandit","274","798089","0.0-235.0-0.0","26051038","wem/bandit_either_3","A1WYDO7PQJ8UG","either","1","1115","","","","","","","0","1","0","","0.609207161","0.6","0.4","0.8","0.2","0.7602069811","0.609207161","0.3979961615","0.7914914872","","","","","","","","","","","","74","J","1","","","195","main_expt",""
"","bandit","275","800609","0.0-236.0-0.0","26051038","wem/bandit_either_3","A1WYDO7PQJ8UG","either","1","885","","","","","","","1","0","0","0.7608346536","","0.6","0.4","0.8","0.2","","","","","0.7114092524","0.6560649547","0.4366641927","0.7608346536","","","","","","","","76","L","3","","","196","main_expt",""
"","bandit","276","803885","0.0-237.0-0.0","26051038","wem/bandit_either_3","A1WYDO7PQJ8UG","either","1","1703","","","","","","","1","0","0","0.7003784325","","0.6","0.4","0.8","0.2","","","","","0.6917424169","0.6656533059","0.560782874","0.7003784325","","","","","","","","76","L","3","","","197","main_expt",""
"","bandit","277","806333","0.0-238.0-0.0","26051038","wem/bandit_either_3","A1WYDO7PQJ8UG","either","1","834","","","","","","","0","1","0","","0.6036075577","0.6","0.4","0.8","0.2","0.6561069913","0.6841747727","0.5649388288","0.6036075577","","","","","","","","","","","","76","L","3","","","198","main_expt",""
"","bandit","278","809213","0.0-239.0-0.0","26051038","wem/bandit_either_3","A1WYDO7PQJ8UG","either","1","1308","","","","","","","0","0","1","","0.5843314555","0.6","0.4","0.8","0.2","0.6948346643","0.7105065455","0.5375892324","0.5843314555","","","","","","","","","","","","76","L","3","","","199","main_expt",""
"","bandit","279","811471","0.0-240.0-0.0","26051038","wem/bandit_either_3","A1WYDO7PQJ8UG","either","1","603","","","","","","","0","1","0","","0.7380433654","0.6","0.4","0.8","0.2","0.7369743936","0.7380433654","0.5625167851","0.539414212","","","","","","","","","","","","74","J","1","","","200","main_expt",""
"","bandit","280","813825","0.0-241.0-0.0","26051038","wem/bandit_either_3","A1WYDO7PQJ8UG","either","1","769","","","","","","","0","0","1","","0.6432951689","0.6","0.4","0.8","0.2","0.8347268415","0.6432951689","0.6266810217","0.3774065742","","","","","","","","","","","","74","J","1","","","201","main_expt",""
"","bandit","281","816124","0.0-242.0-0.0","26051038","wem/bandit_either_3","A1WYDO7PQJ8UG","either","1","670","","","","","","","0","0","1","0.4995879772","","0.6","0.4","0.8","0.2","","","","","0.7612264534","0.4995879772","0.6661075828","0.2824615609","","","","","","","","74","J","1","","","202","main_expt",""
"","bandit","282","817972","0.0-243.0-0.0","26051038","wem/bandit_either_3","A1WYDO7PQJ8UG","either","1","276","","","","","","","0","1","0","","0.4767352753","0.6","0.4","0.8","0.2","0.6904596671","0.4767352753","0.7534099026","0.210170224","","","","","","","","","","","","74","J","1","","","203","main_expt",""
"","bandit","283","820543","0.0-244.0-0.0","26051038","wem/bandit_either_3","A1WYDO7PQJ8UG","either","1","951","","","","","","","0","0","1","","0.3680612217","0.6","0.4","0.8","0.2","0.6855485072","0.3680612217","0.7033522103","0.2708138581","","","","","","","","","","","","74","J","1","","","204","main_expt",""
"","bandit","284","822763","0.0-245.0-0.0","26051038","wem/bandit_either_3","A1WYDO7PQJ8UG","either","1","585","","","","","","","0","0","1","","0.3319820794","0.6","0.4","0.8","0.2","0.7006332368","0.3404512965","0.6105989365","0.3319820794","","","","","","","","","","","","76","L","3","","","205","main_expt",""
"","bandit","285","825570","0.0-246.0-0.0","26051038","wem/bandit_either_3","A1WYDO7PQJ8UG","either","1","1235","","","","","","","0","1","0","","0.3517339603","0.6","0.4","0.8","0.2","0.7533130943","0.2774568564","0.725137222","0.3517339603","","","","","","","","","","","","76","L","3","","","206","main_expt",""
"","bandit","286","828472","0.0-247.0-0.0","26051038","wem/bandit_either_3","A1WYDO7PQJ8UG","either","1","1302","","","","","","","0","0","1","","0.2871079035","0.6","0.4","0.8","0.2","0.7191760557","0.2228883469","0.5888984072","0.2871079035","","","","","","","","","","","","76","L","3","","","207","main_expt",""
"","bandit","287","830732","0.0-248.0-0.0","26051038","wem/bandit_either_3","A1WYDO7PQJ8UG","either","1","689","","","","","","","0","1","0","","0.4650323514","0.6","0.4","0.8","0.2","0.6264293856","0.2829247412","0.4650323514","0.2642306377","","","","","","","","","","","","75","K","2","","","208","main_expt",""
"","bandit","288","832901","0.0-249.0-0.0","26051038","wem/bandit_either_3","A1WYDO7PQJ8UG","either","1","580","","","","","","","1","0","0","0.6500478562","","0.6","0.4","0.8","0.2","","","","","0.6500478562","0.3169104167","0.4100719568","0.3587725811","","","","","","","","72","H","0","img/none_selected.jpg","","209","main_expt",""
"","bandit","289","835292","0.0-250.0-0.0","26051038","wem/bandit_either_3","A1WYDO7PQJ8UG","either","1","792","","","","","","","0","0","1","","0.6498865343","0.6","0.4","0.8","0.2","0.6498865343","0.2090062306","0.5177296744","0.3103342645","","","","","","","","","","","","72","H","0","img/none_selected.jpg","","210","main_expt",""
"","bandit","290","838301","0.0-251.0-0.0","26051038","wem/bandit_either_3","A1WYDO7PQJ8UG","either","1","1294","","","","","","","1","0","0","0.6056301442","","0.6","0.4","0.8","0.2","","","","","0.6056301442","0.1481662818","0.5950812693","0.3760595068","","","","","","","","72","H","0","img/none_selected.jpg","","211","main_expt",""
"","bandit","291","840343","0.0-252.0-0.0","26051038","wem/bandit_either_3","A1WYDO7PQJ8UG","either","1","483","","","","","","","1","0","0","0.5524844402","","0.6","0.4","0.8","0.2","","","","","0.5524844402","0.2114888193","0.7169745983","0.447023013","","","","","","","","72","H","0","img/none_selected.jpg","","212","main_expt",""
"","bandit","292","842565","0.0-253.0-0.0","26051038","wem/bandit_either_3","A1WYDO7PQJ8UG","either","1","586","","","","","","","1","0","0","0.6984249358","","0.6","0.4","0.8","0.2","","","","","0.6984249358","0.2234642754","0.6766124197","0.4529182837","","","","","","","","72","H","0","img/none_selected.jpg","","213","main_expt",""
"","bandit","293","845004","0.0-254.0-0.0","26051038","wem/bandit_either_3","A1WYDO7PQJ8UG","either","1","881","","","","","","","0","0","1","0.5996975418","","0.6","0.4","0.8","0.2","","","","","0.5996975418","0.2315139555","0.8005648136","0.4306534983","","","","","","","","72","H","0","img/none_selected.jpg","","214","main_expt",""
"","bandit","294","847401","0.0-255.0-0.0","26051038","wem/bandit_either_3","A1WYDO7PQJ8UG","either","1","821","","","","","","","0","0","1","","0.6067129047","0.6","0.4","0.8","0.2","0.6067129047","0.1949488974","0.8487964291","0.4314469479","","","","","","","","","","","","72","H","0","img/none_selected.jpg","","215","main_expt",""
"","bandit","295","849816","0.0-256.0-0.0","26051038","wem/bandit_either_3","A1WYDO7PQJ8UG","either","1","835","","","","","","","0","1","0","","0.6297976658","0.6","0.4","0.8","0.2","0.6297976658","0.2333303883","0.8674123454","0.45439575","","","","","","","","","","","","72","H","0","img/none_selected.jpg","","216","main_expt",""
"","bandit","296","852004","0.0-257.0-0.0","26051038","wem/bandit_either_3","A1WYDO7PQJ8UG","either","1","611","","","","","","","0","0","1","0.6095272491","","0.6","0.4","0.8","0.2","","","","","0.6095272491","0.2027763819","0.8774404243","0.5228861726","","","","","","","","72","H","0","img/none_selected.jpg","","217","main_expt",""
"","bandit","297","854235","0.0-258.0-0.0","26051038","wem/bandit_either_3","A1WYDO7PQJ8UG","either","1","675","","","","","","","0","1","0","","0.7058099393","0.6","0.4","0.8","0.2","0.7058099393","0.1895874514","0.8836448068","0.463703458","","","","","","","","","","","","72","H","0","img/none_selected.jpg","","218","main_expt",""
"","bandit","298","856631","0.0-259.0-0.0","26051038","wem/bandit_either_3","A1WYDO7PQJ8UG","either","1","816","","","","","","","0","0","1","0.7396246451","","0.6","0.4","0.8","0.2","","","","","0.7396246451","0.1537120117","0.880498508","0.4522864467","","","","","","","","72","H","0","img/none_selected.jpg","","219","main_expt",""
"","bandit","299","859292","0.0-260.0-0.0","26051038","wem/bandit_either_3","A1WYDO7PQJ8UG","either","1","1057","","","","","","","1","0","0","0.7091968036","","0.6","0.4","0.8","0.2","","","","","0.7091968036","0.2022747423","0.8740874997","0.4561576612","","","","","","","","72","H","0","img/none_selected.jpg","","220","main_expt",""
"","bandit","300","861307","0.0-261.0-0.0","26051038","wem/bandit_either_3","A1WYDO7PQJ8UG","either","1","430","","","","","","","0","0","1","0.7116308873","","0.6","0.4","0.8","0.2","","","","","0.7116308873","0.3174413427","0.8527830905","0.4264657168","","","","","","","","72","H","0","img/none_selected.jpg","","221","main_expt",""
"","bandit","301","863439","0.0-262.0-0.0","26051038","wem/bandit_either_3","A1WYDO7PQJ8UG","either","1","561","","","","","","","0","1","0","","0.769465391","0.6","0.4","0.8","0.2","0.769465391","0.2315667073","0.7717907476","0.3055141729","","","","","","","","","","","","72","H","0","img/none_selected.jpg","","222","main_expt",""
"","bandit","302","865412","0.0-263.0-0.0","26051038","wem/bandit_either_3","A1WYDO7PQJ8UG","either","1","404","","","","","","","1","0","0","0.7509006974","","0.6","0.4","0.8","0.2","","","","","0.7509006974","0.2261006122","0.8359700354","0.2868954791","","","","","","","","72","H","0","img/none_selected.jpg","","223","main_expt",""
"","bandit","303","867872","0.0-264.0-0.0","26051038","wem/bandit_either_3","A1WYDO7PQJ8UG","either","1","737","","","","","","","0","1","0","","0.7007688409","0.6","0.4","0.8","0.2","0.7007688409","0.2662378096","0.819670806","0.2698185242","","","","","","","","","","","","72","H","0","img/none_selected.jpg","","224","main_expt",""
"","bandit","304","870467","0.0-265.0-0.0","26051038","wem/bandit_either_3","A1WYDO7PQJ8UG","either","1","961","","","","","","","0","0","1","","0.7409020096","0.6","0.4","0.8","0.2","0.7409020096","0.2163280173","0.8512382749","0.213842325","","","","","","","","","","","","72","H","0","img/none_selected.jpg","","225","main_expt",""
"","bandit","305","872599","0.0-266.0-0.0","26051038","wem/bandit_either_3","A1WYDO7PQJ8UG","either","1","548","","","","","","","1","0","0","0.7052945704","","0.6","0.4","0.8","0.2","","","","","0.7052945704","0.2809353625","0.8342861847","0.1616408491","","","","","","","","72","H","0","img/none_selected.jpg","","226","main_expt",""
"","bandit","306","874710","0.0-267.0-0.0","26051038","wem/bandit_either_3","A1WYDO7PQJ8UG","either","1","514","","","","","","","1","0","0","0.606091252","","0.6","0.4","0.8","0.2","","","","","0.606091252","0.2396571279","0.7736041865","0.1777599287","","","","","","","","72","H","0","img/none_selected.jpg","","227","main_expt",""
"","bandit","307","877210","0.0-268.0-0.0","26051038","wem/bandit_either_3","A1WYDO7PQJ8UG","either","1","806","","","","","","","0","0","1","0.5834203199","","0.6","0.4","0.8","0.2","","","","","0.5834203199","0.3430446928","0.8094350608","0.2866543064","","","","","","","","72","H","0","img/none_selected.jpg","","228","main_expt",""
"","bandit","308","879423","0.0-269.0-0.0","26051038","wem/bandit_either_3","A1WYDO7PQJ8UG","either","1","656","","","","","","","0","0","1","0.5466214007","","0.6","0.4","0.8","0.2","","","","","0.5466214007","0.2886233194","0.8078722129","0.3948293382","","","","","","","","72","H","0","img/none_selected.jpg","","229","main_expt",""
"","bandit","309","881530","0.0-270.0-0.0","26051038","wem/bandit_either_3","A1WYDO7PQJ8UG","either","1","464","","","","","","","0","0","1","","0.5519014059","0.6","0.4","0.8","0.2","0.5519014059","0.3213731463","0.7719043616","0.3291786684","","","","","","","","","","","","72","H","0","img/none_selected.jpg","","230","main_expt",""
"","bandit","310","883920","0.0-271.0-0.0","26051038","wem/bandit_either_3","A1WYDO7PQJ8UG","either","1","841","","","","","","","1","0","0","0.4527164215","","0.6","0.4","0.8","0.2","","","","","0.4527164215","0.2771614906","0.8049264475","0.2378236032","","","","","","","","72","H","0","img/none_selected.jpg","","231","main_expt",""
"","bandit","311","886148","0.0-272.0-0.0","26051038","wem/bandit_either_3","A1WYDO7PQJ8UG","either","1","542","","","","","","","0","1","0","","0.5135082398","0.6","0.4","0.8","0.2","0.5135082398","0.2249105956","0.8850589997","0.246393804","","","","","","","","","","","","72","H","0","img/none_selected.jpg","","232","main_expt",""
"","bandit","312","888265","0.0-273.0-0.0","26051038","wem/bandit_either_3","A1WYDO7PQJ8UG","either","1","439","","","","","","","1","0","0","0.5502454751","","0.6","0.4","0.8","0.2","","","","","0.5502454751","0.2447973041","0.9183615156","0.2141634692","","","","","","","","72","H","0","img/none_selected.jpg","","233","main_expt",""
"","bandit","313","890341","0.0-274.0-0.0","26051038","wem/bandit_either_3","A1WYDO7PQJ8UG","either","1","512","","","","","","","0","0","1","","0.3783923662","0.6","0.4","0.8","0.2","0.3783923662","0.24601643","0.9639410842","0.2876436191","","","","","","","","","","","","72","H","0","img/none_selected.jpg","","234","main_expt",""
"","bandit","314","892464","0.0-275.0-0.0","26051038","wem/bandit_either_3","A1WYDO7PQJ8UG","either","1","568","","","","","","","0","0","1","0.2814299379","","0.6","0.4","0.8","0.2","","","","","0.2814299379","0.1629844561","0.9697187448","0.2769077257","","","","","","","","72","H","0","img/none_selected.jpg","","235","main_expt",""
"","bandit","315","894421","0.0-276.0-0.0","26051038","wem/bandit_either_3","A1WYDO7PQJ8UG","either","1","406","","","","","","","0","0","1","0.3106100538","","0.6","0.4","0.8","0.2","","","","","0.3106100538","0.1929455839","0.9571573523","0.136865198","","","","","","","","72","H","0","img/none_selected.jpg","","236","main_expt",""
"","bandit","316","896419","0.0-277.0-0.0","26051038","wem/bandit_either_3","A1WYDO7PQJ8UG","either","1","445","","","","","","","0","0","1","","0.3152445528","0.6","0.4","0.8","0.2","0.3152445528","0.1497712966","0.9170696074","0.1123790732","","","","","","","","","","","","72","H","0","img/none_selected.jpg","","237","main_expt",""
"","bandit","317","898413","0.0-278.0-0.0","26051038","wem/bandit_either_3","A1WYDO7PQJ8UG","either","1","349","","","","","","","0","0","1","","0.2637175197","0.6","0.4","0.8","0.2","0.2637175197","0.1526491196","0.9207491077","0.09027024906","","","","","","","","","","","","72","H","0","img/none_selected.jpg","","238","main_expt",""
"","bandit","318","900435","0.0-279.0-0.0","26051038","wem/bandit_either_3","A1WYDO7PQJ8UG","either","1","355","","","","","","","1","0","0","0.1745924244","","0.6","0.4","0.8","0.2","","","","","0.1889878372","0.1745924244","0.9211301165","0.08323179304","","","","","","","","74","J","1","","","239","main_expt",""
"","bandit","319","902380","0.0-280.0-0.0","26051038","wem/bandit_either_3","A1WYDO7PQJ8UG","either","1","386","","","","","","","0","0","1","","0.1159399908","0.6","0.4","0.8","0.2","0.1710885746","0.1159399908","0.8992774771","0.08130265934","","","","","","","","","","","","74","J","1","","","240","main_expt",""
"","bandit","320","904699","0.0-281.0-0.0","26051038","wem/bandit_either_3","A1WYDO7PQJ8UG","either","1","705","","","","","","","0","0","1","0.1682101231","","0.6","0.4","0.8","0.2","","","","","0.1232632504","0.1682101231","0.8977441673","0.1424736114","","","","","","","","74","J","1","","","241","main_expt",""
"","bandit","321","906871","0.0-282.0-0.0","26051038","wem/bandit_either_3","A1WYDO7PQJ8UG","either","1","612","","","","","","","0","0","1","","0.1643169396","0.6","0.4","0.8","0.2","0.210295675","0.1643169396","0.853076495","0.2433221762","","","","","","","","","","","","74","J","1","","","242","main_expt",""
"","bandit","322","909198","0.0-283.0-0.0","26051038","wem/bandit_either_3","A1WYDO7PQJ8UG","either","1","740","","","","","","","0","0","1","","0.1355776028","0.6","0.4","0.8","0.2","0.289349801","0.1355776028","0.8942427246","0.3185073654","","","","","","","","","","","","74","J","1","","","243","main_expt",""
"","bandit","323","911156","0.0-284.0-0.0","26051038","wem/bandit_either_3","A1WYDO7PQJ8UG","either","1","377","","","","","","","0","0","1","0.1311829495","","0.6","0.4","0.8","0.2","","","","","0.4071614743","0.1311829495","0.8701402288","0.3533170098","","","","","","","","74","J","1","","","244","main_expt",""
"","bandit","324","913128","0.0-285.0-0.0","26051038","wem/bandit_either_3","A1WYDO7PQJ8UG","either","1","354","","","","","","","0","1","0","","0.8552475109","0.6","0.4","0.8","0.2","0.453462755","0.1273238","0.8552475109","0.3482220419","","","","","","","","","","","","75","K","2","","","245","main_expt",""
"","bandit","325","915343","0.0-286.0-0.0","26051038","wem/bandit_either_3","A1WYDO7PQJ8UG","either","1","659","","","","","","","1","0","0","0.9191842349","","0.6","0.4","0.8","0.2","","","","","0.4717344544","0.1321090015","0.9191842349","0.3016988832","","","","","","","","75","K","2","","","246","main_expt",""
