"consent","trial_type","trial_index","time_elapsed","internal_node_id","subjID","study","MID","cond","drift","rt","responses","key_press","expt_phase","like","value","connected","gems","bombs","no_reward","GemPrChosen","BombPrChosen","GainOverPainPr_0","GainOverPainPr_1","GainOverPainPr_2","GainOverPainPr_3","LosePr_0","LosePr_1","LosePr_2","LosePr_3","WinPr_0","WinPr_1","WinPr_2","WinPr_3","Q0","Q1","Q2","gender","age","ethnicity","target","respCharCode","respKey","respChoiceNum","respChoice","practice","trial_counter","trial_label","button_pressed"
"INL_behavioral_consent_30min_online.html","consent","0","12709","0.0-0.0","26196737","wem/bandit_either_3","A8HSPSD88CUTS","either","2","","","","","","","","","","","","","","","","","","","","","","","","","","","","","","","","","","","","","","",""
"","survey-text","1","46244","0.0-1.0","26196737","wem/bandit_either_3","A8HSPSD88CUTS","either","2","32528","{""Q0"":""A8HSPSD88CUTS""}","","","","","","","","","","","","","","","","","","","","","","","","","","","","","","","","","","","","",""
"","text","2","102853","0.0-2.0","26196737","wem/bandit_either_3","A8HSPSD88CUTS","either","2","55605","","32","","","","","","","","","","","","","","","","","","","","","","","","","","","","","","","","","","","",""
"","text","3","108271","0.0-3.0","26196737","wem/bandit_either_3","A8HSPSD88CUTS","either","2","5415","","32","","","","","","","","","","","","","","","","","","","","","","","","","","","","","","","","","","","",""
"","text","4","129742","0.0-4.0","26196737","wem/bandit_either_3","A8HSPSD88CUTS","either","2","21469","","32","","","","","","","","","","","","","","","","","","","","","","","","","","","","","","","","","","","",""
"","text","5","148786","0.0-5.0","26196737","wem/bandit_either_3","A8HSPSD88CUTS","either","2","19042","","32","","","","","","","","","","","","","","","","","","","","","","","","","","","","","","","","","","","",""
"","text","6","168449","0.0-6.0","26196737","wem/bandit_either_3","A8HSPSD88CUTS","either","2","19662","","32","","","","","","","","","","","","","","","","","","","","","","","","","","","","","","","","","","","",""
"","text","7","175356","0.0-7.0","26196737","wem/bandit_either_3","A8HSPSD88CUTS","either","2","6906","","32","","","","","","","","","","","","","","","","","","","","","","","","","","","","","","","","","","","",""
"","text","8","206273","0.0-8.0","26196737","wem/bandit_either_3","A8HSPSD88CUTS","either","2","30914","","32","","","","","","","","","","","","","","","","","","","","","","","","","","","","","","","","","","","",""
"","identification","9","226161","0.0-9.0-0.0","26196737","wem/bandit_either_3","A8HSPSD88CUTS","either","2","19859","","","","3","6","6","","","","","","","","","","","","","","","","","","","","","","","","the village of Zur","","","","","","","",""
"","identification","10","248976","0.0-9.0-1.0","26196737","wem/bandit_either_3","A8HSPSD88CUTS","either","2","21796","","","","4","1","3","","","","","","","","","","","","","","","","","","","","","","","","the village of Nyx","","","","","","","",""
"","text","11","280013","0.0-10.0","26196737","wem/bandit_either_3","A8HSPSD88CUTS","either","2","30035","","32","","","","","","","","","","","","","","","","","","","","","","","","","","","","","","","","","","","",""
"","text","12","283036","0.0-11.0","26196737","wem/bandit_either_3","A8HSPSD88CUTS","either","2","3021","","32","","","","","","","","","","","","","","","","","","","","","","","","","","","","","","","","","","","",""
"","text","13","284605","0.0-12.0","26196737","wem/bandit_either_3","A8HSPSD88CUTS","either","2","1566","","32","","","","","","","","","","","","","","","","","","","","","","","","","","","","","","","","","","","",""
"","text","14","293164","0.0-13.0","26196737","wem/bandit_either_3","A8HSPSD88CUTS","either","2","8557","","32","","","","","","","","","","","","","","","","","","","","","","","","","","","","","","","","","","","",""
"","bandit","15","296004","0.0-14.0-0.0","26196737","wem/bandit_either_3","A8HSPSD88CUTS","either","2","1326","","","","","","","0","0","1","0","0","","","","","0","","","","0","","","","","","","","","","","74","J","0","img/none_selected_demo.jpg","true","0","",""
"","bandit","16","298736","0.0-15.0-0.0","26196737","wem/bandit_either_3","A8HSPSD88CUTS","either","2","1219","","","","","","","0","0","1","0","0","","","","","0","","","","0","","","","","","","","","","","75","K","0","img/none_selected_demo.jpg","true","0","",""
"","text","17","308111","0.0-16.0","26196737","wem/bandit_either_3","A8HSPSD88CUTS","either","2","9372","","32","","","","","","","","","","","","","","","","","","","","","","","","","","","","","","","","","","","",""
"","text","18","320254","0.0-17.0","26196737","wem/bandit_either_3","A8HSPSD88CUTS","either","2","12141","","32","","","","","","","","","","","","","","","","","","","","","","","","","","","","","","","","","","","",""
"","text","19","327562","0.0-18.0","26196737","wem/bandit_either_3","A8HSPSD88CUTS","either","2","7306","","32","","","","","","","","","","","","","","","","","","","","","","","","","","","","","","","","","","","",""
"","text","20","331691","0.0-19.0","26196737","wem/bandit_either_3","A8HSPSD88CUTS","either","2","4126","","32","","","","","","","","","","","","","","","","","","","","","","","","","","","","","","","","","","","",""
"","bandit","21","334648","0.0-20.0-0.0","26196737","wem/bandit_either_3","A8HSPSD88CUTS","either","2","1450","","","","","","","0","1","0","","0.8","0.5","0.5","","","0.8","0.2","","","","","","","","","","","","","","74","J","0","img/none_selected_demo.jpg","true","0","80_20_practice",""
"","bandit","22","338410","0.0-20.0-1.0","26196737","wem/bandit_either_3","A8HSPSD88CUTS","either","2","2255","","","","","","","1","0","0","0.8","","0.5","0.5","","","","","","","0.8","0.2","","","","","","","","","","74","J","0","img/none_selected_demo.jpg","true","0","80_20_practice",""
"","bandit","23","341287","0.0-20.0-2.0","26196737","wem/bandit_either_3","A8HSPSD88CUTS","either","2","1371","","","","","","","1","0","0","0.8","","0.5","0.5","","","","","","","0.8","0.2","","","","","","","","","","74","J","0","img/none_selected_demo.jpg","true","0","80_20_practice",""
"","bandit","24","343403","0.0-20.0-3.0","26196737","wem/bandit_either_3","A8HSPSD88CUTS","either","2","611","","","","","","","0","0","1","","0.8","0.5","0.5","","","0.8","0.2","","","","","","","","","","","","","","74","J","0","img/none_selected_demo.jpg","true","0","80_20_practice",""
"","bandit","25","345240","0.0-20.0-4.0","26196737","wem/bandit_either_3","A8HSPSD88CUTS","either","2","327","","","","","","","0","1","0","","0.8","0.5","0.5","","","0.8","0.2","","","","","","","","","","","","","","74","J","0","img/none_selected_demo.jpg","true","0","80_20_practice",""
"","bandit","26","348604","0.0-20.0-5.0","26196737","wem/bandit_either_3","A8HSPSD88CUTS","either","2","1855","","","","","","","0","1","0","","0.8","0.5","0.5","","","0.8","0.2","","","","","","","","","","","","","","74","J","0","img/none_selected_demo.jpg","true","0","80_20_practice",""
"","bandit","27","350506","0.0-20.0-6.0","26196737","wem/bandit_either_3","A8HSPSD88CUTS","either","2","393","","","","","","","0","0","1","0.2","","0.5","0.5","","","","","","","0.8","0.2","","","","","","","","","","75","K","1","","true","0","80_20_practice",""
"","bandit","28","352361","0.0-20.0-7.0","26196737","wem/bandit_either_3","A8HSPSD88CUTS","either","2","347","","","","","","","0","1","0","","0.2","0.5","0.5","","","0.8","0.2","","","","","","","","","","","","","","75","K","1","","true","0","80_20_practice",""
"","bandit","29","354270","0.0-20.0-8.0","26196737","wem/bandit_either_3","A8HSPSD88CUTS","either","2","401","","","","","","","0","0","1","0.2","","0.5","0.5","","","","","","","0.8","0.2","","","","","","","","","","75","K","1","","true","0","80_20_practice",""
"","bandit","30","356106","0.0-20.0-9.0","26196737","wem/bandit_either_3","A8HSPSD88CUTS","either","2","327","","","","","","","0","0","1","0.2","","0.5","0.5","","","","","","","0.8","0.2","","","","","","","","","","75","K","1","","true","0","80_20_practice",""
"","bandit","31","358023","0.0-20.0-10.0","26196737","wem/bandit_either_3","A8HSPSD88CUTS","either","2","413","","","","","","","0","0","1","","0.2","0.5","0.5","","","0.8","0.2","","","","","","","","","","","","","","75","K","1","","true","0","80_20_practice",""
"","bandit","32","360008","0.0-20.0-11.0","26196737","wem/bandit_either_3","A8HSPSD88CUTS","either","2","479","","","","","","","0","1","0","","0.2","0.5","0.5","","","0.8","0.2","","","","","","","","","","","","","","75","K","1","","true","0","80_20_practice",""
"","bandit","33","361993","0.0-20.0-12.0","26196737","wem/bandit_either_3","A8HSPSD88CUTS","either","2","479","","","","","","","1","0","0","0.8","","0.5","0.5","","","","","","","0.8","0.2","","","","","","","","","","74","J","0","img/none_selected_demo.jpg","true","0","80_20_practice",""
"","bandit","34","363800","0.0-20.0-13.0","26196737","wem/bandit_either_3","A8HSPSD88CUTS","either","2","299","","","","","","","0","0","1","","0.8","0.5","0.5","","","0.8","0.2","","","","","","","","","","","","","","74","J","0","img/none_selected_demo.jpg","true","0","80_20_practice",""
"","bandit","35","365449","0.0-20.0-14.0","26196737","wem/bandit_either_3","A8HSPSD88CUTS","either","2","141","","","","","","","1","0","0","0.8","","0.5","0.5","","","","","","","0.8","0.2","","","","","","","","","","74","J","0","img/none_selected_demo.jpg","true","0","80_20_practice",""
"","bandit","36","449498","0.0-20.0-15.0","26196737","wem/bandit_either_3","A8HSPSD88CUTS","either","2","82540","","","","","","","1","0","0","0.8","","0.5","0.5","","","","","","","0.8","0.2","","","","","","","","","","74","J","0","img/none_selected_demo.jpg","true","0","80_20_practice",""
"","bandit","37","452120","0.0-20.0-16.0","26196737","wem/bandit_either_3","A8HSPSD88CUTS","either","2","1110","","","","","","","1","0","0","0.8","","0.5","0.5","","","","","","","0.8","0.2","","","","","","","","","","74","J","0","img/none_selected_demo.jpg","true","0","80_20_practice",""
"","bandit","38","453929","0.0-20.0-17.0","26196737","wem/bandit_either_3","A8HSPSD88CUTS","either","2","299","","","","","","","0","1","0","","0.8","0.5","0.5","","","0.8","0.2","","","","","","","","","","","","","","74","J","0","img/none_selected_demo.jpg","true","0","80_20_practice",""
"","bandit","39","455671","0.0-20.0-18.0","26196737","wem/bandit_either_3","A8HSPSD88CUTS","either","2","234","","","","","","","1","0","0","0.8","","0.5","0.5","","","","","","","0.8","0.2","","","","","","","","","","74","J","0","img/none_selected_demo.jpg","true","0","80_20_practice",""
"","bandit","40","457367","0.0-20.0-19.0","26196737","wem/bandit_either_3","A8HSPSD88CUTS","either","2","190","","","","","","","0","1","0","","0.8","0.5","0.5","","","0.8","0.2","","","","","","","","","","","","","","74","J","0","img/none_selected_demo.jpg","true","0","80_20_practice",""
"","text","41","465561","0.0-21.0","26196737","wem/bandit_either_3","A8HSPSD88CUTS","either","2","8190","","32","","","","","","","","","","","","","","","","","","","","","","","","","","","","","","","","","","","",""
"","bandit","42","468247","0.0-22.0-0.0","26196737","wem/bandit_either_3","A8HSPSD88CUTS","either","2","1175","","","","","","","1","0","0","1","0","","","","","0","1","","","1","0","","","","","","","","","","74","J","0","img/none_selected_demo.jpg","true","0","",""
"","text","43","474104","0.0-23.0","26196737","wem/bandit_either_3","A8HSPSD88CUTS","either","2","5854","","74","","","","","","","","","","","","","","","","","","","","","","","","","","","","","","","","","","","",""
"","text","44","477799","0.0-24.0","26196737","wem/bandit_either_3","A8HSPSD88CUTS","either","2","3693","","32","","","","","","","","","","","","","","","","","","","","","","","","","","","","","","","","","","","",""
"","text","45","481624","0.0-25.0","26196737","wem/bandit_either_3","A8HSPSD88CUTS","either","2","3823","","32","","","","","","","","","","","","","","","","","","","","","","","","","","","","","","","","","","","",""
"","text","46","485815","0.0-26.0","26196737","wem/bandit_either_3","A8HSPSD88CUTS","either","2","4188","","32","","","","","","","","","","","","","","","","","","","","","","","","","","","","","","","","","","","",""
"","text","47","496968","0.0-27.0","26196737","wem/bandit_either_3","A8HSPSD88CUTS","either","2","11151","","32","","","","","","","","","","","","","","","","","","","","","","","","","","","","","","","","","","","",""
"","text","48","500822","0.0-28.0","26196737","wem/bandit_either_3","A8HSPSD88CUTS","either","2","3853","","32","","","","","","","","","","","","","","","","","","","","","","","","","","","","","","","","","","","",""
"","text","49","505703","0.0-29.0","26196737","wem/bandit_either_3","A8HSPSD88CUTS","either","2","4878","","32","","","","","","","","","","","","","","","","","","","","","","","","","","","","","","","","","","","",""
"","text","50","510602","0.0-30.0","26196737","wem/bandit_either_3","A8HSPSD88CUTS","either","2","4896","","32","","","","","","","","","","","","","","","","","","","","","","","","","","","","","","","","","","","",""
"","text","51","517863","0.0-31.0","26196737","wem/bandit_either_3","A8HSPSD88CUTS","either","2","7257","","32","","","","","","","","","","","","","","","","","","","","","","","","","","","","","","","","","","","",""
"","text","52","519943","0.0-32.0","26196737","wem/bandit_either_3","A8HSPSD88CUTS","either","2","2077","","32","","","","","","","","","","","","","","","","","","","","","","","","","","","","","","","","","","","",""
"","text","53","523863","0.0-33.0","26196737","wem/bandit_either_3","A8HSPSD88CUTS","either","2","3917","","32","","","","","","","","","","","","","","","","","","","","","","","","","","","","","","","","","","","",""
"","bandit","54","525887","0.0-34.0-0.0","26196737","wem/bandit_either_3","A8HSPSD88CUTS","either","2","490","","","","","","","0","0","1","0.2","","0.5","0.5","0.5","0.5","","","","","0.8","0.2","0.6","0.2","","","","","","","","74","J","1","","true","0","full_practice",""
"","bandit","55","527429","0.0-34.0-1.0","26196737","wem/bandit_either_3","A8HSPSD88CUTS","either","2","35","","","","","","","0","0","1","","0.2","0.5","0.5","0.5","0.5","0.8","0.2","0.6","0.2","","","","","","","","","","","","74","J","1","","true","0","full_practice",""
"","bandit","56","529046","0.0-34.0-2.0","26196737","wem/bandit_either_3","A8HSPSD88CUTS","either","2","110","","","","","","","0","0","1","","0.2","0.5","0.5","0.5","0.5","0.8","0.2","0.6","0.2","","","","","","","","","","","","74","J","1","","true","0","full_practice",""
"","bandit","57","530709","0.0-34.0-3.0","26196737","wem/bandit_either_3","A8HSPSD88CUTS","either","2","154","","","","","","","0","0","1","0.2","","0.5","0.5","0.5","0.5","","","","","0.8","0.2","0.6","0.2","","","","","","","","74","J","1","","true","0","full_practice",""
"","bandit","58","532436","0.0-34.0-4.0","26196737","wem/bandit_either_3","A8HSPSD88CUTS","either","2","220","","","","","","","0","0","1","","0.2","0.5","0.5","0.5","0.5","0.8","0.2","0.6","0.2","","","","","","","","","","","","74","J","1","","true","0","full_practice",""
"","bandit","59","534213","0.0-34.0-5.0","26196737","wem/bandit_either_3","A8HSPSD88CUTS","either","2","269","","","","","","","0","0","1","0.8","","0.5","0.5","0.5","0.5","","","","","0.8","0.2","0.6","0.2","","","","","","","","72","H","0","img/none_selected.jpg","true","0","full_practice",""
"","bandit","60","536117","0.0-34.0-6.0","26196737","wem/bandit_either_3","A8HSPSD88CUTS","either","2","394","","","","","","","0","1","0","","0.8","0.5","0.5","0.5","0.5","0.8","0.2","0.6","0.2","","","","","","","","","","","","72","H","0","img/none_selected.jpg","true","0","full_practice",""
"","bandit","61","537940","0.0-34.0-7.0","26196737","wem/bandit_either_3","A8HSPSD88CUTS","either","2","315","","","","","","","1","0","0","0.8","","0.5","0.5","0.5","0.5","","","","","0.8","0.2","0.6","0.2","","","","","","","","72","H","0","img/none_selected.jpg","true","0","full_practice",""
"","bandit","62","540084","0.0-34.0-8.0","26196737","wem/bandit_either_3","A8HSPSD88CUTS","either","2","636","","","","","","","1","0","0","0.8","","0.5","0.5","0.5","0.5","","","","","0.8","0.2","0.6","0.2","","","","","","","","72","H","0","img/none_selected.jpg","true","0","full_practice",""
"","bandit","63","541764","0.0-34.0-9.0","26196737","wem/bandit_either_3","A8HSPSD88CUTS","either","2","173","","","","","","","1","0","0","0.8","","0.5","0.5","0.5","0.5","","","","","0.8","0.2","0.6","0.2","","","","","","","","72","H","0","img/none_selected.jpg","true","0","full_practice",""
"","bandit","64","543523","0.0-34.0-10.0","26196737","wem/bandit_either_3","A8HSPSD88CUTS","either","2","254","","","","","","","1","0","0","0.8","","0.5","0.5","0.5","0.5","","","","","0.8","0.2","0.6","0.2","","","","","","","","72","H","0","img/none_selected.jpg","true","0","full_practice",""
"","bandit","65","545334","0.0-34.0-11.0","26196737","wem/bandit_either_3","A8HSPSD88CUTS","either","2","308","","","","","","","1","0","0","0.8","","0.5","0.5","0.5","0.5","","","","","0.8","0.2","0.6","0.2","","","","","","","","72","H","0","img/none_selected.jpg","true","0","full_practice",""
"","bandit","66","547270","0.0-34.0-12.0","26196737","wem/bandit_either_3","A8HSPSD88CUTS","either","2","426","","","","","","","0","0","1","0.8","","0.5","0.5","0.5","0.5","","","","","0.8","0.2","0.6","0.2","","","","","","","","72","H","0","img/none_selected.jpg","true","0","full_practice",""
"","bandit","67","549029","0.0-34.0-13.0","26196737","wem/bandit_either_3","A8HSPSD88CUTS","either","2","249","","","","","","","1","0","0","0.8","","0.5","0.5","0.5","0.5","","","","","0.8","0.2","0.6","0.2","","","","","","","","72","H","0","img/none_selected.jpg","true","0","full_practice",""
"","bandit","68","551062","0.0-34.0-14.0","26196737","wem/bandit_either_3","A8HSPSD88CUTS","either","2","524","","","","","","","0","0","1","","0.6","0.5","0.5","0.5","0.5","0.8","0.2","0.6","0.2","","","","","","","","","","","","75","K","2","","true","0","full_practice",""
"","bandit","69","552580","0.0-34.0-15.0","26196737","wem/bandit_either_3","A8HSPSD88CUTS","either","2","1","","","","","","","1","0","0","0.6","","0.5","0.5","0.5","0.5","","","","","0.8","0.2","0.6","0.2","","","","","","","","75","K","2","","true","0","full_practice",""
"","bandit","70","554328","0.0-34.0-16.0","26196737","wem/bandit_either_3","A8HSPSD88CUTS","either","2","232","","","","","","","0","0","1","0.6","","0.5","0.5","0.5","0.5","","","","","0.8","0.2","0.6","0.2","","","","","","","","75","K","2","","true","0","full_practice",""
"","bandit","71","555992","0.0-34.0-17.0","26196737","wem/bandit_either_3","A8HSPSD88CUTS","either","2","154","","","","","","","0","1","0","","0.6","0.5","0.5","0.5","0.5","0.8","0.2","0.6","0.2","","","","","","","","","","","","75","K","2","","true","0","full_practice",""
"","bandit","72","557877","0.0-34.0-18.0","26196737","wem/bandit_either_3","A8HSPSD88CUTS","either","2","378","","","","","","","0","0","1","","0.6","0.5","0.5","0.5","0.5","0.8","0.2","0.6","0.2","","","","","","","","","","","","75","K","2","","true","0","full_practice",""
"","bandit","73","559716","0.0-34.0-19.0","26196737","wem/bandit_either_3","A8HSPSD88CUTS","either","2","330","","","","","","","1","0","0","0.6","","0.5","0.5","0.5","0.5","","","","","0.8","0.2","0.6","0.2","","","","","","","","75","K","2","","true","0","full_practice",""
"","text","74","565850","0.0-35.0","26196737","wem/bandit_either_3","A8HSPSD88CUTS","either","2","6121","","32","","","","","","","","","","","","","","","","","","","","","","","","","","","","","","","","","","","",""
"","text","75","580282","0.0-36.0","26196737","wem/bandit_either_3","A8HSPSD88CUTS","either","2","13428","","32","","","","","","","","","","","","","","","","","","","","","","","","","","","","","","","","","","","",""
"","text","76","588597","0.0-37.0","26196737","wem/bandit_either_3","A8HSPSD88CUTS","either","2","8311","","32","","","","","","","","","","","","","","","","","","","","","","","","","","","","","","","","","","","",""
"","text","77","592025","0.0-38.0","26196737","wem/bandit_either_3","A8HSPSD88CUTS","either","2","3426","","32","","","","","","","","","","","","","","","","","","","","","","","","","","","","","","","","","","","",""
"","text","78","597077","0.0-39.0","26196737","wem/bandit_either_3","A8HSPSD88CUTS","either","2","5045","","32","","","","","","","","","","","","","","","","","","","","","","","","","","","","","","","","","","","",""
"","text","79","603624","0.0-40.0","26196737","wem/bandit_either_3","A8HSPSD88CUTS","either","2","6542","","32","","","","","","","","","","","","","","","","","","","","","","","","","","","","","","","","","","","",""
"","bandit","80","606723","0.0-41.0-0.0","26196737","wem/bandit_either_3","A8HSPSD88CUTS","either","2","1588","","","","","","","0","0","1","0.4841938304","","0.4","0.2","0.6","0.8","","","","","0.9925337928","0.7092854079","0.7961415707","0.4841938304","","","","","","","","76","L","3","","","1","main_expt",""
"","bandit","81","608467","0.0-42.0-0.0","26196737","wem/bandit_either_3","A8HSPSD88CUTS","either","2","234","","","","","","","1","0","0","0.5300888233","","0.4","0.2","0.6","0.8","","","","","0.9909612399","0.7343230146","0.7739630809","0.5300888233","","","","","","","","76","L","3","","","2","main_expt",""
"","bandit","82","610212","0.0-43.0-0.0","26196737","wem/bandit_either_3","A8HSPSD88CUTS","either","2","233","","","","","","","1","0","0","0.4747636274","","0.4","0.2","0.6","0.8","","","","","0.9875934203","0.7616266478","0.807852523","0.4747636274","","","","","","","","76","L","3","","","3","main_expt",""
"","bandit","83","612116","0.0-44.0-0.0","26196737","wem/bandit_either_3","A8HSPSD88CUTS","either","2","395","","","","","","","0","0","1","0.4841015375","","0.4","0.2","0.6","0.8","","","","","0.9782241123","0.7555889459","0.7922386472","0.4841015375","","","","","","","","76","L","3","","","4","main_expt",""
"","bandit","84","613700","0.0-45.0-0.0","26196737","wem/bandit_either_3","A8HSPSD88CUTS","either","2","76","","","","","","","0","0","1","","0.5545204825","0.4","0.2","0.6","0.8","0.9756627961","0.733520678","0.865094385","0.5545204825","","","","","","","","","","","","76","L","3","","","5","main_expt",""
"","bandit","85","615572","0.0-46.0-0.0","26196737","wem/bandit_either_3","A8HSPSD88CUTS","either","2","360","","","","","","","0","1","0","","0.967089612","0.4","0.2","0.6","0.8","0.967089612","0.6705264102","0.800956518","0.6032406034","","","","","","","","","","","","72","H","0","img/none_selected.jpg","","6","main_expt",""
"","bandit","86","617379","0.0-47.0-0.0","26196737","wem/bandit_either_3","A8HSPSD88CUTS","either","2","298","","","","","","","0","1","0","","0.9581374084","0.4","0.2","0.6","0.8","0.9581374084","0.6395389268","0.826484282","0.6629125932","","","","","","","","","","","","72","H","0","img/none_selected.jpg","","7","main_expt",""
"","bandit","87","619387","0.0-48.0-0.0","26196737","wem/bandit_either_3","A8HSPSD88CUTS","either","2","494","","","","","","","0","1","0","","0.9470057872","0.4","0.2","0.6","0.8","0.9470057872","0.6463283336","0.8721258401","0.6179372523","","","","","","","","","","","","72","H","0","img/none_selected.jpg","","8","main_expt",""
"","bandit","88","621251","0.0-49.0-0.0","26196737","wem/bandit_either_3","A8HSPSD88CUTS","either","2","351","","","","","","","1","0","0","0.9776699295","","0.4","0.2","0.6","0.8","","","","","0.9776699295","0.5257156782","0.9123847657","0.7126464358","","","","","","","","72","H","0","img/none_selected.jpg","","9","main_expt",""
"","bandit","89","623060","0.0-50.0-0.0","26196737","wem/bandit_either_3","A8HSPSD88CUTS","either","2","303","","","","","","","0","1","0","","0.9728878591","0.4","0.2","0.6","0.8","0.9728878591","0.4763364632","0.8996742502","0.7356985298","","","","","","","","","","","","72","H","0","img/none_selected.jpg","","10","main_expt",""
"","bandit","90","624882","0.0-51.0-0.0","26196737","wem/bandit_either_3","A8HSPSD88CUTS","either","2","314","","","","","","","0","0","1","","0.9593139104","0.4","0.2","0.6","0.8","0.9593139104","0.4284616273","0.9131723876","0.768711937","","","","","","","","","","","","72","H","0","img/none_selected.jpg","","11","main_expt",""
"","bandit","91","626520","0.0-52.0-0.0","26196737","wem/bandit_either_3","A8HSPSD88CUTS","either","2","125","","","","","","","1","0","0","0.9498917819","","0.4","0.2","0.6","0.8","","","","","0.9498917819","0.3846657661","0.8766857583","0.775032537","","","","","","","","72","H","0","img/none_selected.jpg","","12","main_expt",""
"","bandit","92","628307","0.0-53.0-0.0","26196737","wem/bandit_either_3","A8HSPSD88CUTS","either","2","281","","","","","","","1","0","0","0.9541602679","","0.4","0.2","0.6","0.8","","","","","0.9541602679","0.4534267517","0.8395211377","0.8005481332","","","","","","","","72","H","0","img/none_selected.jpg","","13","main_expt",""
"","bandit","93","630180","0.0-54.0-0.0","26196737","wem/bandit_either_3","A8HSPSD88CUTS","either","2","362","","","","","","","0","1","0","","0.9457654821","0.4","0.2","0.6","0.8","0.9457654821","0.5781166702","0.8716273459","0.8437703121","","","","","","","","","","","","72","H","0","img/none_selected.jpg","","14","main_expt",""
"","bandit","94","632084","0.0-55.0-0.0","26196737","wem/bandit_either_3","A8HSPSD88CUTS","either","2","394","","","","","","","0","1","0","","0.961431504","0.4","0.2","0.6","0.8","0.961431504","0.6683268695","0.8884181174","0.7878475566","","","","","","","","","","","","72","H","0","img/none_selected.jpg","","15","main_expt",""
"","bandit","95","633955","0.0-56.0-0.0","26196737","wem/bandit_either_3","A8HSPSD88CUTS","either","2","360","","","","","","","1","0","0","0.9614480804","","0.4","0.2","0.6","0.8","","","","","0.9614480804","0.6948649322","0.9144873871","0.7873795395","","","","","","","","72","H","0","img/none_selected.jpg","","16","main_expt",""
"","bandit","96","635819","0.0-57.0-0.0","26196737","wem/bandit_either_3","A8HSPSD88CUTS","either","2","353","","","","","","","1","0","0","0.981184269","","0.4","0.2","0.6","0.8","","","","","0.981184269","0.7674725463","0.915766025","0.8084550093","","","","","","","","72","H","0","img/none_selected.jpg","","17","main_expt",""
"","bandit","97","637816","0.0-58.0-0.0","26196737","wem/bandit_either_3","A8HSPSD88CUTS","either","2","484","","","","","","","1","0","0","0.9861919244","","0.4","0.2","0.6","0.8","","","","","0.9861919244","0.7706733977","0.9357816117","0.8436933745","","","","","","","","72","H","0","img/none_selected.jpg","","18","main_expt",""
"","bandit","98","639698","0.0-59.0-0.0","26196737","wem/bandit_either_3","A8HSPSD88CUTS","either","2","373","","","","","","","0","1","0","","0.986789567","0.4","0.2","0.6","0.8","0.986789567","0.7396491891","0.9482019282","0.8059530903","","","","","","","","","","","","72","H","0","img/none_selected.jpg","","19","main_expt",""
"","bandit","99","641512","0.0-60.0-0.0","26196737","wem/bandit_either_3","A8HSPSD88CUTS","either","2","295","","","","","","","0","1","0","","0.986183881","0.4","0.2","0.6","0.8","0.986183881","0.6712916173","0.9433726768","0.7839513496","","","","","","","","","","","","72","H","0","img/none_selected.jpg","","20","main_expt",""
"","bandit","100","643284","0.0-61.0-0.0","26196737","wem/bandit_either_3","A8HSPSD88CUTS","either","2","242","","","","","","","1","0","0","0.9887099493","","0.4","0.2","0.6","0.8","","","","","0.9887099493","0.6728887443","0.9488284628","0.7841815244","","","","","","","","72","H","0","img/none_selected.jpg","","21","main_expt",""
"","bandit","101","645043","0.0-62.0-0.0","26196737","wem/bandit_either_3","A8HSPSD88CUTS","either","2","255","","","","","","","0","1","0","","0.992558567","0.4","0.2","0.6","0.8","0.992558567","0.7838502077","0.9500515088","0.8256278583","","","","","","","","","","","","72","H","0","img/none_selected.jpg","","22","main_expt",""
"","bandit","102","646885","0.0-63.0-0.0","26196737","wem/bandit_either_3","A8HSPSD88CUTS","either","2","328","","","","","","","0","1","0","","0.9906074595","0.4","0.2","0.6","0.8","0.9906074595","0.8711917965","0.9645760881","0.7043778873","","","","","","","","","","","","72","H","0","img/none_selected.jpg","","23","main_expt",""
"","bandit","103","649013","0.0-64.0-0.0","26196737","wem/bandit_either_3","A8HSPSD88CUTS","either","2","618","","","","","","","1","0","0","0.9828703082","","0.4","0.2","0.6","0.8","","","","","0.9828703082","0.861124964","0.946785539","0.7662705475","","","","","","","","72","H","0","img/none_selected.jpg","","24","main_expt",""
"","bandit","104","651363","0.0-65.0-0.0","26196737","wem/bandit_either_3","A8HSPSD88CUTS","either","2","840","","","","","","","0","1","0","","0.984618899","0.4","0.2","0.6","0.8","0.984618899","0.8551403996","0.9229473608","0.6915147264","","","","","","","","","","","","72","H","0","img/none_selected.jpg","","25","main_expt",""
"","bandit","105","654035","0.0-66.0-0.0","26196737","wem/bandit_either_3","A8HSPSD88CUTS","either","2","1166","","","","","","","0","1","0","","0.9780938917","0.4","0.2","0.6","0.8","0.9780938917","0.8959771014","0.8729820127","0.6844606422","","","","","","","","","","","","72","H","0","img/none_selected.jpg","","26","main_expt",""
"","bandit","106","656220","0.0-67.0-0.0","26196737","wem/bandit_either_3","A8HSPSD88CUTS","either","2","666","","","","","","","0","0","1","","0.9634866904","0.4","0.2","0.6","0.8","0.9634866904","0.8786292531","0.859067388","0.7953701942","","","","","","","","","","","","72","H","0","img/none_selected.jpg","","27","main_expt",""
"","bandit","107","657924","0.0-68.0-0.0","26196737","wem/bandit_either_3","A8HSPSD88CUTS","either","2","191","","","","","","","0","1","0","","0.946494378","0.4","0.2","0.6","0.8","0.946494378","0.8920593834","0.836267867","0.622657036","","","","","","","","","","","","72","H","0","img/none_selected.jpg","","28","main_expt",""
"","bandit","108","659752","0.0-69.0-0.0","26196737","wem/bandit_either_3","A8HSPSD88CUTS","either","2","316","","","","","","","0","1","0","","0.9338647731","0.4","0.2","0.6","0.8","0.9338647731","0.8234517222","0.7158546556","0.5757463716","","","","","","","","","","","","72","H","0","img/none_selected.jpg","","29","main_expt",""
"","bandit","109","661843","0.0-70.0-0.0","26196737","wem/bandit_either_3","A8HSPSD88CUTS","either","2","579","","","","","","","0","1","0","","0.9354801528","0.4","0.2","0.6","0.8","0.9354801528","0.7963444676","0.7262950886","0.6048158844","","","","","","","","","","","","72","H","0","img/none_selected.jpg","","30","main_expt",""
"","bandit","110","663702","0.0-71.0-0.0","26196737","wem/bandit_either_3","A8HSPSD88CUTS","either","2","344","","","","","","","0","1","0","","0.9323861487","0.4","0.2","0.6","0.8","0.9323861487","0.6847131082","0.7049485024","0.4831208743","","","","","","","","","","","","72","H","0","img/none_selected.jpg","","31","main_expt",""
"","bandit","111","665540","0.0-72.0-0.0","26196737","wem/bandit_either_3","A8HSPSD88CUTS","either","2","325","","","","","","","1","0","0","0.9159531952","","0.4","0.2","0.6","0.8","","","","","0.9159531952","0.7745616343","0.6294605358","0.4413454117","","","","","","","","72","H","0","img/none_selected.jpg","","32","main_expt",""
"","bandit","112","667302","0.0-73.0-0.0","26196737","wem/bandit_either_3","A8HSPSD88CUTS","either","2","252","","","","","","","0","1","0","","0.9501333659","0.4","0.2","0.6","0.8","0.9501333659","0.8111568365","0.7097184707","0.589686364","","","","","","","","","","","","72","H","0","img/none_selected.jpg","","33","main_expt",""
"","bandit","113","669076","0.0-74.0-0.0","26196737","wem/bandit_either_3","A8HSPSD88CUTS","either","2","268","","","","","","","0","0","1","0.9485118263","","0.4","0.2","0.6","0.8","","","","","0.9485118263","0.7291364049","0.6324728327","0.5789977489","","","","","","","","72","H","0","img/none_selected.jpg","","34","main_expt",""
"","bandit","114","671091","0.0-75.0-0.0","26196737","wem/bandit_either_3","A8HSPSD88CUTS","either","2","502","","","","","","","0","1","0","","0.7920219322","0.4","0.2","0.6","0.8","0.959491173","0.7920219322","0.6809104991","0.5605822786","","","","","","","","","","","","74","J","1","","","35","main_expt",""
"","bandit","115","672868","0.0-76.0-0.0","26196737","wem/bandit_either_3","A8HSPSD88CUTS","either","2","266","","","","","","","0","1","0","","0.7889809596","0.4","0.2","0.6","0.8","0.9523687656","0.7889809596","0.5745256001","0.3330948712","","","","","","","","","","","","74","J","1","","","36","main_expt",""
"","bandit","116","674707","0.0-77.0-0.0","26196737","wem/bandit_either_3","A8HSPSD88CUTS","either","2","331","","","","","","","0","1","0","","0.8060385269","0.4","0.2","0.6","0.8","0.9504344127","0.8060385269","0.6249275122","0.2430176499","","","","","","","","","","","","74","J","1","","","37","main_expt",""
"","bandit","117","676726","0.0-78.0-0.0","26196737","wem/bandit_either_3","A8HSPSD88CUTS","either","2","510","","","","","","","0","0","1","","0.7188782676","0.4","0.2","0.6","0.8","0.9321408283","0.7188782676","0.5582777804","0.3106083343","","","","","","","","","","","","74","J","1","","","38","main_expt",""
"","bandit","118","678308","0.0-79.0-0.0","26196737","wem/bandit_either_3","A8HSPSD88CUTS","either","2","57","","","","","","","0","0","1","","0.7387945131","0.4","0.2","0.6","0.8","0.9135525369","0.7387945131","0.6619895395","0.3239447463","","","","","","","","","","","","74","J","1","","","39","main_expt",""
"","bandit","119","680020","0.0-80.0-0.0","26196737","wem/bandit_either_3","A8HSPSD88CUTS","either","2","200","","","","","","","1","0","0","0.6522152691","","0.4","0.2","0.6","0.8","","","","","0.8840916364","0.7478035428","0.6522152691","0.2946631509","","","","","","","","75","K","2","","","40","main_expt",""
"","bandit","120","681814","0.0-81.0-0.0","26196737","wem/bandit_either_3","A8HSPSD88CUTS","either","2","286","","","","","","","0","1","0","","0.6714070371","0.4","0.2","0.6","0.8","0.8747037504","0.7802386085","0.6714070371","0.193597671","","","","","","","","","","","","75","K","2","","","41","main_expt",""
"","bandit","121","683603","0.0-82.0-0.0","26196737","wem/bandit_either_3","A8HSPSD88CUTS","either","2","283","","","","","","","0","0","1","","0.6390104416","0.4","0.2","0.6","0.8","0.826315498","0.7994277013","0.6390104416","0.1834529884","","","","","","","","","","","","75","K","2","","","42","main_expt",""
"","bandit","122","685251","0.0-83.0-0.0","26196737","wem/bandit_either_3","A8HSPSD88CUTS","either","2","134","","","","","","","0","1","0","","0.6318841448","0.4","0.2","0.6","0.8","0.7681371561","0.8718069658","0.6318841448","0.1558663495","","","","","","","","","","","","75","K","2","","","43","main_expt",""
"","bandit","123","687060","0.0-84.0-0.0","26196737","wem/bandit_either_3","A8HSPSD88CUTS","either","2","297","","","","","","","0","1","0","","0.5708139437","0.4","0.2","0.6","0.8","0.7584360225","0.7725207311","0.5708139437","0.1573065196","","","","","","","","","","","","75","K","2","","","44","main_expt",""
"","bandit","124","688931","0.0-85.0-0.0","26196737","wem/bandit_either_3","A8HSPSD88CUTS","either","2","358","","","","","","","0","0","1","","0.5703812278","0.4","0.2","0.6","0.8","0.816959585","0.8399140445","0.5703812278","0.1743203636","","","","","","","","","","","","75","K","2","","","45","main_expt",""
"","bandit","125","690629","0.0-86.0-0.0","26196737","wem/bandit_either_3","A8HSPSD88CUTS","either","2","190","","","","","","","0","0","1","","0.1234040722","0.4","0.2","0.6","0.8","0.7571269921","0.7830678696","0.4520700595","0.1234040722","","","","","","","","","","","","76","L","3","","","46","main_expt",""
"","bandit","126","692564","0.0-87.0-0.0","26196737","wem/bandit_either_3","A8HSPSD88CUTS","either","2","420","","","","","","","1","0","0","0.7086567283","","0.4","0.2","0.6","0.8","","","","","0.7086567283","0.8255209912","0.4953600952","0.1592846429","","","","","","","","72","H","0","img/none_selected.jpg","","47","main_expt",""
"","bandit","127","694370","0.0-88.0-0.0","26196737","wem/bandit_either_3","A8HSPSD88CUTS","either","2","296","","","","","","","1","0","0","0.6428227569","","0.4","0.2","0.6","0.8","","","","","0.6428227569","0.7728754614","0.4912921637","0.1880090658","","","","","","","","72","H","0","img/none_selected.jpg","","48","main_expt",""
"","bandit","128","696195","0.0-89.0-0.0","26196737","wem/bandit_either_3","A8HSPSD88CUTS","either","2","314","","","","","","","1","0","0","0.7004196772","","0.4","0.2","0.6","0.8","","","","","0.7004196772","0.8607162984","0.4694413912","0.3190576765","","","","","","","","72","H","0","img/none_selected.jpg","","49","main_expt",""
"","bandit","129","698005","0.0-90.0-0.0","26196737","wem/bandit_either_3","A8HSPSD88CUTS","either","2","296","","","","","","","0","0","1","","0.6418514465","0.4","0.2","0.6","0.8","0.6418514465","0.8526113732","0.5835687148","0.277770718","","","","","","","","","","","","72","H","0","img/none_selected.jpg","","50","main_expt",""
"","bandit","130","699588","0.0-91.0-0.0","26196737","wem/bandit_either_3","A8HSPSD88CUTS","either","2","68","","","","","","","1","0","0","0.6322169777","","0.4","0.2","0.6","0.8","","","","","0.6322169777","0.8630835666","0.581499138","0.3304163056","","","","","","","","72","H","0","img/none_selected.jpg","","51","main_expt",""
"","bandit","131","701394","0.0-92.0-0.0","26196737","wem/bandit_either_3","A8HSPSD88CUTS","either","2","292","","","","","","","0","0","1","","0.6160259873","0.4","0.2","0.6","0.8","0.6160259873","0.8689990829","0.6521379128","0.3074301744","","","","","","","","","","","","72","H","0","img/none_selected.jpg","","52","main_expt",""
"","bandit","132","703238","0.0-93.0-0.0","26196737","wem/bandit_either_3","A8HSPSD88CUTS","either","2","315","","","","","","","1","0","0","0.6635838846","","0.4","0.2","0.6","0.8","","","","","0.6635838846","0.8829627288","0.5743957808","0.3292402402","","","","","","","","72","H","0","img/none_selected.jpg","","53","main_expt",""
"","bandit","133","705061","0.0-94.0-0.0","26196737","wem/bandit_either_3","A8HSPSD88CUTS","either","2","313","","","","","","","1","0","0","0.7334380463","","0.4","0.2","0.6","0.8","","","","","0.7334380463","0.8577096669","0.4765250731","0.3701383524","","","","","","","","72","H","0","img/none_selected.jpg","","54","main_expt",""
"","bandit","134","706917","0.0-95.0-0.0","26196737","wem/bandit_either_3","A8HSPSD88CUTS","either","2","339","","","","","","","0","0","1","0.6625049704","","0.4","0.2","0.6","0.8","","","","","0.6625049704","0.7951355038","0.472038817","0.4023440482","","","","","","","","72","H","0","img/none_selected.jpg","","55","main_expt",""
"","bandit","135","708722","0.0-96.0-0.0","26196737","wem/bandit_either_3","A8HSPSD88CUTS","either","2","293","","","","","","","1","0","0","0.6244126183","","0.4","0.2","0.6","0.8","","","","","0.6244126183","0.7832403428","0.6060805283","0.3320470731","","","","","","","","72","H","0","img/none_selected.jpg","","56","main_expt",""
"","bandit","136","710691","0.0-97.0-0.0","26196737","wem/bandit_either_3","A8HSPSD88CUTS","either","2","454","","","","","","","1","0","0","0.693445159","","0.4","0.2","0.6","0.8","","","","","0.693445159","0.7165346004","0.5733746242","0.3398704556","","","","","","","","72","H","0","img/none_selected.jpg","","57","main_expt",""
"","bandit","137","712468","0.0-98.0-0.0","26196737","wem/bandit_either_3","A8HSPSD88CUTS","either","2","269","","","","","","","0","1","0","","0.6603141298","0.4","0.2","0.6","0.8","0.6603141298","0.7840704931","0.5268086549","0.3171476707","","","","","","","","","","","","72","H","0","img/none_selected.jpg","","58","main_expt",""
"","bandit","138","714260","0.0-99.0-0.0","26196737","wem/bandit_either_3","A8HSPSD88CUTS","either","2","283","","","","","","","0","0","1","","0.6435133917","0.4","0.2","0.6","0.8","0.6435133917","0.7166558068","0.5298916697","0.1868584885","","","","","","","","","","","","72","H","0","img/none_selected.jpg","","59","main_expt",""
"","bandit","139","715956","0.0-100.0-0.0","26196737","wem/bandit_either_3","A8HSPSD88CUTS","either","2","181","","","","","","","1","0","0","0.6720075741","","0.4","0.2","0.6","0.8","","","","","0.6720075741","0.6505055492","0.5547432704","0.2163153633","","","","","","","","72","H","0","img/none_selected.jpg","","60","main_expt",""
"","bandit","140","718084","0.0-101.0-0.0","26196737","wem/bandit_either_3","A8HSPSD88CUTS","either","2","612","","","","","","","0","0","1","0.6703611074","","0.4","0.2","0.6","0.8","","","","","0.6703611074","0.6465946667","0.5407031957","0.2086512551","","","","","","","","72","H","0","img/none_selected.jpg","","61","main_expt",""
"","bandit","141","719667","0.0-102.0-0.0","26196737","wem/bandit_either_3","A8HSPSD88CUTS","either","2","68","","","","","","","0","1","0","","0.64477312","0.4","0.2","0.6","0.8","0.64477312","0.709990362","0.6993449034","0.2250062338","","","","","","","","","","","","72","H","0","img/none_selected.jpg","","62","main_expt",""
"","bandit","142","721461","0.0-103.0-0.0","26196737","wem/bandit_either_3","A8HSPSD88CUTS","either","2","280","","","","","","","0","0","1","","0.509049177","0.4","0.2","0.6","0.8","0.509049177","0.7542168012","0.6342967703","0.2739380208","","","","","","","","","","","","72","H","0","img/none_selected.jpg","","63","main_expt",""
"","bandit","143","723044","0.0-104.0-0.0","26196737","wem/bandit_either_3","A8HSPSD88CUTS","either","2","51","","","","","","","0","1","0","","0.7660604158","0.4","0.2","0.6","0.8","0.5535424332","0.7660604158","0.5961490325","0.3449536465","","","","","","","","","","","","74","J","1","","","64","main_expt",""
"","bandit","144","725144","0.0-105.0-0.0","26196737","wem/bandit_either_3","A8HSPSD88CUTS","either","2","592","","","","","","","0","1","0","","0.7572602099","0.4","0.2","0.6","0.8","0.6608621899","0.7572602099","0.5771190674","0.34640195","","","","","","","","","","","","74","J","1","","","65","main_expt",""
"","bandit","145","727203","0.0-106.0-0.0","26196737","wem/bandit_either_3","A8HSPSD88CUTS","either","2","545","","","","","","","0","0","1","0.686926195","","0.4","0.2","0.6","0.8","","","","","0.6535341977","0.686926195","0.4765921407","0.5266288285","","","","","","","","74","J","1","","","66","main_expt",""
"","bandit","146","728786","0.0-107.0-0.0","26196737","wem/bandit_either_3","A8HSPSD88CUTS","either","2","74","","","","","","","0","0","1","","0.7334195653","0.4","0.2","0.6","0.8","0.6592628399","0.7334195653","0.5714361875","0.5588671697","","","","","","","","","","","","74","J","1","","","67","main_expt",""
"","bandit","147","730611","0.0-108.0-0.0","26196737","wem/bandit_either_3","A8HSPSD88CUTS","either","2","311","","","","","","","0","1","0","","0.6231829193","0.4","0.2","0.6","0.8","0.6735013879","0.6114245881","0.6231829193","0.6097536784","","","","","","","","","","","","75","K","2","","","68","main_expt",""
"","bandit","148","733284","0.0-109.0-0.0","26196737","wem/bandit_either_3","A8HSPSD88CUTS","either","2","1157","","","","","","","1","0","0","0.5130256365","","0.4","0.2","0.6","0.8","","","","","0.7209687993","0.6460921668","0.5130256365","0.533457584","","","","","","","","75","K","2","","","69","main_expt",""
"","bandit","149","735669","0.0-110.0-0.0","26196737","wem/bandit_either_3","A8HSPSD88CUTS","either","2","878","","","","","","","0","0","1","0.5167166","","0.4","0.2","0.6","0.8","","","","","0.690528825","0.6700702736","0.5167166","0.4124750721","","","","","","","","75","K","2","","","70","main_expt",""
"","bandit","150","737793","0.0-111.0-0.0","26196737","wem/bandit_either_3","A8HSPSD88CUTS","either","2","612","","","","","","","1","0","0","0.6448170737","","0.4","0.2","0.6","0.8","","","","","0.6453310316","0.6388012411","0.6448170737","0.4486526525","","","","","","","","75","K","2","","","71","main_expt",""
"","bandit","151","740993","0.0-112.0-0.0","26196737","wem/bandit_either_3","A8HSPSD88CUTS","either","2","1685","","","","","","","0","0","1","","0.5640434706","0.4","0.2","0.6","0.8","0.8140348339","0.6046900378","0.5640434706","0.4313602212","","","","","","","","","","","","75","K","2","","","72","main_expt",""
"","bandit","152","768451","0.0-113.0-0.0","26196737","wem/bandit_either_3","A8HSPSD88CUTS","either","2","25948","","","","","","","0","0","1","0.3639072561","","0.4","0.2","0.6","0.8","","","","","0.820931829","0.6062428704","0.6296110197","0.3639072561","","","","","","","","76","L","3","","","73","main_expt",""
"","bandit","153","770209","0.0-114.0-0.0","26196737","wem/bandit_either_3","A8HSPSD88CUTS","either","2","249","","","","","","","1","0","0","0.6730210969","","0.4","0.2","0.6","0.8","","","","","0.8096233945","0.6237194739","0.6730210969","0.2882181569","","","","","","","","75","K","2","","","74","main_expt",""
"","bandit","154","772257","0.0-115.0-0.0","26196737","wem/bandit_either_3","A8HSPSD88CUTS","either","2","533","","","","","","","1","0","0","0.5720403827","","0.4","0.2","0.6","0.8","","","","","0.7615001707","0.5971007372","0.5720403827","0.3561187133","","","","","","","","75","K","2","","","75","main_expt",""
"","bandit","155","774529","0.0-116.0-0.0","26196737","wem/bandit_either_3","A8HSPSD88CUTS","either","2","759","","","","","","","0","1","0","","0.6303512149","0.4","0.2","0.6","0.8","0.8147365981","0.5810032438","0.6303512149","0.4480894403","","","","","","","","","","","","75","K","2","","","76","main_expt",""
"","bandit","156","776641","0.0-117.0-0.0","26196737","wem/bandit_either_3","A8HSPSD88CUTS","either","2","604","","","","","","","1","0","0","0.5531797874","","0.4","0.2","0.6","0.8","","","","","0.8926338818","0.5792233978","0.5531797874","0.3220850356","","","","","","","","75","K","2","","","77","main_expt",""
"","bandit","157","778474","0.0-118.0-0.0","26196737","wem/bandit_either_3","A8HSPSD88CUTS","either","2","312","","","","","","","0","1","0","","0.5449672882","0.4","0.2","0.6","0.8","0.8669072201","0.692511921","0.5449672882","0.3281133775","","","","","","","","","","","","75","K","2","","","78","main_expt",""
"","bandit","158","780305","0.0-119.0-0.0","26196737","wem/bandit_either_3","A8HSPSD88CUTS","either","2","323","","","","","","","0","0","1","","0.4484013318","0.4","0.2","0.6","0.8","0.9114006046","0.7019625083","0.4484013318","0.3814329202","","","","","","","","","","","","75","K","2","","","79","main_expt",""
"","bandit","159","782096","0.0-120.0-0.0","26196737","wem/bandit_either_3","A8HSPSD88CUTS","either","2","285","","","","","","","0","1","0","","0.6785675641","0.4","0.2","0.6","0.8","0.9268398106","0.6785675641","0.5041425745","0.3512572076","","","","","","","","","","","","74","J","1","","","80","main_expt",""
"","bandit","160","784367","0.0-121.0-0.0","26196737","wem/bandit_either_3","A8HSPSD88CUTS","either","2","758","","","","","","","0","0","1","0.7101061672","","0.4","0.2","0.6","0.8","","","","","0.9582858862","0.7101061672","0.3462078978","0.3624285329","","","","","","","","74","J","1","","","81","main_expt",""
"","bandit","161","786110","0.0-122.0-0.0","26196737","wem/bandit_either_3","A8HSPSD88CUTS","either","2","229","","","","","","","1","0","0","0.9590071975","","0.4","0.2","0.6","0.8","","","","","0.9590071975","0.7217376576","0.3226795418","0.3111883408","","","","","","","","72","H","0","img/none_selected.jpg","","82","main_expt",""
"","bandit","162","787856","0.0-123.0-0.0","26196737","wem/bandit_either_3","A8HSPSD88CUTS","either","2","232","","","","","","","0","1","0","","0.9379973093","0.4","0.2","0.6","0.8","0.9379973093","0.6437777395","0.3023868023","0.243162563","","","","","","","","","","","","72","H","0","img/none_selected.jpg","","83","main_expt",""
"","bandit","163","790004","0.0-124.0-0.0","26196737","wem/bandit_either_3","A8HSPSD88CUTS","either","2","640","","","","","","","0","1","0","","0.9411979228","0.4","0.2","0.6","0.8","0.9411979228","0.6533183273","0.4040419094","0.347146949","","","","","","","","","","","","72","H","0","img/none_selected.jpg","","84","main_expt",""
"","bandit","164","792095","0.0-125.0-0.0","26196737","wem/bandit_either_3","A8HSPSD88CUTS","either","2","577","","","","","","","0","1","0","","0.9441700551","0.4","0.2","0.6","0.8","0.9441700551","0.7469548387","0.4716136817","0.4416309426","","","","","","","","","","","","72","H","0","img/none_selected.jpg","","85","main_expt",""
"","bandit","165","794017","0.0-126.0-0.0","26196737","wem/bandit_either_3","A8HSPSD88CUTS","either","2","407","","","","","","","0","1","0","","0.9323605113","0.4","0.2","0.6","0.8","0.9323605113","0.7366570046","0.4455883603","0.4523797492","","","","","","","","","","","","72","H","0","img/none_selected.jpg","","86","main_expt",""
"","bandit","166","830083","0.0-127.0-0.0","26196737","wem/bandit_either_3","A8HSPSD88CUTS","either","2","34552","","","","","","","1","0","0","0.8871332711","","0.4","0.2","0.6","0.8","","","","","0.8871332711","0.7142428019","0.5952575165","0.4621103264","","","","","","","","72","H","0","img/none_selected.jpg","","87","main_expt",""
"","bandit","167","832158","0.0-128.0-0.0","26196737","wem/bandit_either_3","A8HSPSD88CUTS","either","2","561","","","","","","","0","1","0","","0.8520973281","0.4","0.2","0.6","0.8","0.8520973281","0.7057172343","0.5333825583","0.3800084876","","","","","","","","","","","","72","H","0","img/none_selected.jpg","","88","main_expt",""
"","bandit","168","834017","0.0-129.0-0.0","26196737","wem/bandit_either_3","A8HSPSD88CUTS","either","2","347","","","","","","","1","0","0","0.7882210871","","0.4","0.2","0.6","0.8","","","","","0.7882210871","0.7289934888","0.4583166828","0.2354372355","","","","","","","","72","H","0","img/none_selected.jpg","","89","main_expt",""
"","bandit","169","836800","0.0-130.0-0.0","26196737","wem/bandit_either_3","A8HSPSD88CUTS","either","2","1267","","","","","","","0","1","0","","0.720110267","0.4","0.2","0.6","0.8","0.720110267","0.7475354559","0.4782349553","0.2978482647","","","","","","","","","","","","72","H","0","img/none_selected.jpg","","90","main_expt",""
"","bandit","170","839199","0.0-131.0-0.0","26196737","wem/bandit_either_3","A8HSPSD88CUTS","either","2","891","","","","","","","1","0","0","0.7390342074","","0.4","0.2","0.6","0.8","","","","","0.7390342074","0.6316706059","0.464138054","0.3723871884","","","","","","","","72","H","0","img/none_selected.jpg","","91","main_expt",""
"","bandit","171","841567","0.0-132.0-0.0","26196737","wem/bandit_either_3","A8HSPSD88CUTS","either","2","854","","","","","","","0","1","0","","0.6957908828","0.4","0.2","0.6","0.8","0.8135224625","0.6957908828","0.5084128334","0.5400298203","","","","","","","","","","","","74","J","1","","","92","main_expt",""
"","bandit","172","859108","0.0-133.0-0.0","26196737","wem/bandit_either_3","A8HSPSD88CUTS","either","2","16031","","","","","","","0","1","0","","0.7814404678","0.4","0.2","0.6","0.8","0.7814404678","0.6812665662","0.5211356389","0.5134744583","","","","","","","","","","","","72","H","0","img/none_selected.jpg","","93","main_expt",""
"","bandit","173","861009","0.0-134.0-0.0","26196737","wem/bandit_either_3","A8HSPSD88CUTS","either","2","384","","","","","","","1","0","0","0.7672416568","","0.4","0.2","0.6","0.8","","","","","0.7672416568","0.6412933588","0.4554037602","0.4101580275","","","","","","","","72","H","0","img/none_selected.jpg","","94","main_expt",""
"","bandit","174","862833","0.0-135.0-0.0","26196737","wem/bandit_either_3","A8HSPSD88CUTS","either","2","314","","","","","","","0","1","0","","0.7573973965","0.4","0.2","0.6","0.8","0.7573973965","0.5696630174","0.4195046205","0.2995167601","","","","","","","","","","","","72","H","0","img/none_selected.jpg","","95","main_expt",""
"","bandit","175","865822","0.0-136.0-0.0","26196737","wem/bandit_either_3","A8HSPSD88CUTS","either","2","1480","","","","","","","0","1","0","","0.8177369732","0.4","0.2","0.6","0.8","0.8177369732","0.6076398096","0.3638478563","0.2934894425","","","","","","","","","","","","72","H","0","img/none_selected.jpg","","96","main_expt",""
"","bandit","176","867584","0.0-137.0-0.0","26196737","wem/bandit_either_3","A8HSPSD88CUTS","either","2","246","","","","","","","1","0","0","0.8124666872","","0.4","0.2","0.6","0.8","","","","","0.8124666872","0.5551612935","0.2839735208","0.2802715202","","","","","","","","72","H","0","img/none_selected.jpg","","97","main_expt",""
"","bandit","177","869397","0.0-138.0-0.0","26196737","wem/bandit_either_3","A8HSPSD88CUTS","either","2","295","","","","","","","1","0","0","0.881496875","","0.4","0.2","0.6","0.8","","","","","0.881496875","0.6354974245","0.2109275999","0.2703087955","","","","","","","","72","H","0","img/none_selected.jpg","","98","main_expt",""
"","bandit","178","871711","0.0-139.0-0.0","26196737","wem/bandit_either_3","A8HSPSD88CUTS","either","2","799","","","","","","","1","0","0","0.8785981907","","0.4","0.2","0.6","0.8","","","","","0.8785981907","0.5945745664","0.1531506719","0.3027543159","","","","","","","","72","H","0","img/none_selected.jpg","","99","main_expt",""
"","bandit","179","888881","0.0-140.0-0.0","26196737","wem/bandit_either_3","A8HSPSD88CUTS","either","2","15661","","","","","","","0","1","0","","0.8494581726","0.4","0.2","0.6","0.8","0.8494581726","0.5679097985","0.1262108991","0.3645318829","","","","","","","","","","","","72","H","0","img/none_selected.jpg","","100","main_expt",""
"","bandit","180","890812","0.0-141.0-0.0","26196737","wem/bandit_either_3","A8HSPSD88CUTS","either","2","418","","","","","","","0","1","0","","0.7754784616","0.4","0.2","0.6","0.8","0.7754784616","0.6430580454","0.1340220502","0.4315832637","","","","","","","","","","","","72","H","0","img/none_selected.jpg","","101","main_expt",""
"","bandit","181","892721","0.0-142.0-0.0","26196737","wem/bandit_either_3","A8HSPSD88CUTS","either","2","395","","","","","","","1","0","0","0.7626736499","","0.4","0.2","0.6","0.8","","","","","0.7626736499","0.6340200926","0.2167126086","0.3608531129","","","","","","","","72","H","0","img/none_selected.jpg","","102","main_expt",""
"","bandit","182","894656","0.0-143.0-0.0","26196737","wem/bandit_either_3","A8HSPSD88CUTS","either","2","418","","","","","","","0","0","1","","0.7329996306","0.4","0.2","0.6","0.8","0.7329996306","0.6377668076","0.2796352144","0.3688981903","","","","","","","","","","","","72","H","0","img/none_selected.jpg","","103","main_expt",""
"","bandit","183","896637","0.0-144.0-0.0","26196737","wem/bandit_either_3","A8HSPSD88CUTS","either","2","467","","","","","","","0","1","0","","0.7467689404","0.4","0.2","0.6","0.8","0.7467689404","0.6578341575","0.3556406549","0.3758155051","","","","","","","","","","","","72","H","0","img/none_selected.jpg","","104","main_expt",""
"","bandit","184","898879","0.0-145.0-0.0","26196737","wem/bandit_either_3","A8HSPSD88CUTS","either","2","727","","","","","","","1","0","0","0.737018723","","0.4","0.2","0.6","0.8","","","","","0.737018723","0.6727034752","0.3233911601","0.4508947075","","","","","","","","72","H","0","img/none_selected.jpg","","105","main_expt",""
"","bandit","185","901826","0.0-146.0-0.0","26196737","wem/bandit_either_3","A8HSPSD88CUTS","either","2","1431","","","","","","","0","0","1","","0.655194185","0.4","0.2","0.6","0.8","0.655194185","0.6386482702","0.2024631506","0.4132181144","","","","","","","","","","","","72","H","0","img/none_selected.jpg","","106","main_expt",""
"","bandit","186","903582","0.0-147.0-0.0","26196737","wem/bandit_either_3","A8HSPSD88CUTS","either","2","241","","","","","","","0","1","0","","0.6788938686","0.4","0.2","0.6","0.8","0.7122819559","0.6788938686","0.2290393164","0.4393512677","","","","","","","","","","","","74","J","1","","","107","main_expt",""
"","bandit","187","905984","0.0-148.0-0.0","26196737","wem/bandit_either_3","A8HSPSD88CUTS","either","2","886","","","","","","","1","0","0","0.7076498576","","0.4","0.2","0.6","0.8","","","","","0.7326995505","0.7076498576","0.2217712157","0.4964319729","","","","","","","","74","J","1","","","108","main_expt",""
"","bandit","188","908255","0.0-149.0-0.0","26196737","wem/bandit_either_3","A8HSPSD88CUTS","either","2","755","","","","","","","0","1","0","","0.6932550908","0.4","0.2","0.6","0.8","0.7165499475","0.6932550908","0.1566860935","0.4790921069","","","","","","","","","","","","74","J","1","","","109","main_expt",""
"","bandit","189","911788","0.0-150.0-0.0","26196737","wem/bandit_either_3","A8HSPSD88CUTS","either","2","2019","","","","","","","0","0","1","","0.7436061547","0.4","0.2","0.6","0.8","0.6058017554","0.7436061547","0.1083987113","0.5856434505","","","","","","","","","","","","74","J","1","","","110","main_expt",""
"","bandit","190","913603","0.0-151.0-0.0","26196737","wem/bandit_either_3","A8HSPSD88CUTS","either","2","304","","","","","","","0","1","0","","0.657194241","0.4","0.2","0.6","0.8","0.5476823758","0.657194241","0.217828795","0.6444230696","","","","","","","","","","","","74","J","1","","","111","main_expt",""
"","bandit","191","915501","0.0-152.0-0.0","26196737","wem/bandit_either_3","A8HSPSD88CUTS","either","2","382","","","","","","","0","1","0","","0.6317228327","0.4","0.2","0.6","0.8","0.5688313193","0.6317228327","0.2212119155","0.603417252","","","","","","","","","","","","74","J","1","","","112","main_expt",""
"","bandit","192","917519","0.0-153.0-0.0","26196737","wem/bandit_either_3","A8HSPSD88CUTS","either","2","507","","","","","","","0","1","0","","0.4985892417","0.4","0.2","0.6","0.8","0.50852785","0.4985892417","0.2374112476","0.420613871","","","","","","","","","","","","74","J","1","","","113","main_expt",""
"","bandit","193","919340","0.0-154.0-0.0","26196737","wem/bandit_either_3","A8HSPSD88CUTS","either","2","306","","","","","","","0","0","1","","0.579071345","0.4","0.2","0.6","0.8","0.5711084253","0.579071345","0.2703699348","0.2851569533","","","","","","","","","","","","74","J","1","","","114","main_expt",""
"","bandit","194","921151","0.0-155.0-0.0","26196737","wem/bandit_either_3","A8HSPSD88CUTS","either","2","295","","","","","","","1","0","0","0.1928485376","","0.4","0.2","0.6","0.8","","","","","0.4177754351","0.4595939904","0.1928485376","0.3166589884","","","","","","","","75","K","2","","","115","main_expt",""
"","bandit","195","923179","0.0-156.0-0.0","26196737","wem/bandit_either_3","A8HSPSD88CUTS","either","2","513","","","","","","","0","0","1","","0.136356343","0.4","0.2","0.6","0.8","0.387840809","0.3744567546","0.136356343","0.3928451607","","","","","","","","","","","","75","K","2","","","116","main_expt",""
"","bandit","196","925267","0.0-157.0-0.0","26196737","wem/bandit_either_3","A8HSPSD88CUTS","either","2","571","","","","","","","0","1","0","","0.2193113504","0.4","0.2","0.6","0.8","0.4456731606","0.302145019","0.2193113504","0.560845346","","","","","","","","","","","","75","K","2","","","117","main_expt",""
"","bandit","197","927084","0.0-158.0-0.0","26196737","wem/bandit_either_3","A8HSPSD88CUTS","either","2","302","","","","","","","0","0","1","0.2686792008","","0.4","0.2","0.6","0.8","","","","","0.3045880574","0.3522466686","0.2686792008","0.5536818424","","","","","","","","75","K","2","","","118","main_expt",""
"","bandit","198","928926","0.0-159.0-0.0","26196737","wem/bandit_either_3","A8HSPSD88CUTS","either","2","326","","","","","","","0","0","1","0.2668270476","","0.4","0.2","0.6","0.8","","","","","0.3994134075","0.4425542362","0.2668270476","0.3617659687","","","","","","","","75","K","2","","","119","main_expt",""
"","bandit","199","930894","0.0-160.0-0.0","26196737","wem/bandit_either_3","A8HSPSD88CUTS","either","2","453","","","","","","","0","0","1","0.3454740543","","0.4","0.2","0.6","0.8","","","","","0.351449483","0.3377532805","0.3723992114","0.3454740543","","","","","","","","76","L","3","","","120","main_expt",""
"","bandit","200","932910","0.0-161.0-0.0","26196737","wem/bandit_either_3","A8HSPSD88CUTS","either","2","501","","","","","","","0","0","1","0.2798257893","","0.4","0.2","0.6","0.8","","","","","0.3641911367","0.2929504356","0.4001238515","0.2798257893","","","","","","","","76","L","3","","","121","main_expt",""
"","bandit","201","934750","0.0-162.0-0.0","26196737","wem/bandit_either_3","A8HSPSD88CUTS","either","2","323","","","","","","","0","0","1","0.2261540995","","0.4","0.2","0.6","0.8","","","","","0.2673706252","0.2504028886","0.4090120715","0.2261540995","","","","","","","","76","L","3","","","122","main_expt",""
"","bandit","202","936608","0.0-163.0-0.0","26196737","wem/bandit_either_3","A8HSPSD88CUTS","either","2","345","","","","","","","0","1","0","","0.2414849785","0.4","0.2","0.6","0.8","0.3455372181","0.2414849785","0.4746108064","0.2766663047","","","","","","","","","","","","74","J","1","","","123","main_expt",""
"","bandit","203","938491","0.0-164.0-0.0","26196737","wem/bandit_either_3","A8HSPSD88CUTS","either","2","376","","","","","","","0","0","1","","0.3524137631","0.4","0.2","0.6","0.8","0.3524137631","0.1791255979","0.453231646","0.3126864395","","","","","","","","","","","","72","H","0","img/none_selected.jpg","","124","main_expt",""
"","bandit","204","940316","0.0-165.0-0.0","26196737","wem/bandit_either_3","A8HSPSD88CUTS","either","2","310","","","","","","","0","0","1","","0.1952456852","0.4","0.2","0.6","0.8","0.3680881866","0.1952456852","0.4888945922","0.2772507379","","","","","","","","","","","","74","J","1","","","125","main_expt",""
"","bandit","205","942030","0.0-166.0-0.0","26196737","wem/bandit_either_3","A8HSPSD88CUTS","either","2","196","","","","","","","0","0","1","0.2614303707","","0.4","0.2","0.6","0.8","","","","","0.2884444508","0.2614303707","0.396932523","0.2441417391","","","","","","","","74","J","1","","","126","main_expt",""
"","bandit","206","943884","0.0-167.0-0.0","26196737","wem/bandit_either_3","A8HSPSD88CUTS","either","2","340","","","","","","","0","0","1","","0.4026562496","0.4","0.2","0.6","0.8","0.2931854252","0.267511235","0.4026562496","0.2304038214","","","","","","","","","","","","75","K","2","","","127","main_expt",""
"","bandit","207","945678","0.0-168.0-0.0","26196737","wem/bandit_either_3","A8HSPSD88CUTS","either","2","284","","","","","","","0","1","0","","0.3072143153","0.4","0.2","0.6","0.8","0.3115494401","0.2582460394","0.3072143153","0.2463692943","","","","","","","","","","","","75","K","2","","","128","main_expt",""
"","bandit","208","947458","0.0-169.0-0.0","26196737","wem/bandit_either_3","A8HSPSD88CUTS","either","2","270","","","","","","","0","0","1","","0.3024431642","0.4","0.2","0.6","0.8","0.287093163","0.249100023","0.3024431642","0.262841392","","","","","","","","","","","","75","K","2","","","129","main_expt",""
"","bandit","209","949355","0.0-170.0-0.0","26196737","wem/bandit_either_3","A8HSPSD88CUTS","either","2","380","","","","","","","0","0","1","0.3044503748","","0.4","0.2","0.6","0.8","","","","","0.242368994","0.2014680341","0.383823705","0.3044503748","","","","","","","","76","L","3","","","130","main_expt",""
"","bandit","210","951598","0.0-171.0-0.0","26196737","wem/bandit_either_3","A8HSPSD88CUTS","either","2","728","","","","","","","0","0","1","","0.2231782293","0.4","0.2","0.6","0.8","0.3141093292","0.2514612397","0.5448185218","0.2231782293","","","","","","","","","","","","76","L","3","","","131","main_expt",""
"","bandit","211","953531","0.0-172.0-0.0","26196737","wem/bandit_either_3","A8HSPSD88CUTS","either","2","419","","","","","","","0","0","1","","0.3186943837","0.4","0.2","0.6","0.8","0.3186943837","0.1719215191","0.5741986762","0.265126842","","","","","","","","","","","","72","H","0","img/none_selected.jpg","","132","main_expt",""
"","bandit","212","955340","0.0-173.0-0.0","26196737","wem/bandit_either_3","A8HSPSD88CUTS","either","2","302","","","","","","","0","0","1","","0.3218599317","0.4","0.2","0.6","0.8","0.3218599317","0.151851594","0.54298015","0.1996467811","","","","","","","","","","","","72","H","0","img/none_selected.jpg","","133","main_expt",""
"","bandit","213","957425","0.0-174.0-0.0","26196737","wem/bandit_either_3","A8HSPSD88CUTS","either","2","566","","","","","","","0","0","1","","0.1693242304","0.4","0.2","0.6","0.8","0.3372263261","0.1693242304","0.5504084981","0.1900899503","","","","","","","","","","","","74","J","1","","","134","main_expt",""
"","bandit","214","959395","0.0-175.0-0.0","26196737","wem/bandit_either_3","A8HSPSD88CUTS","either","2","459","","","","","","","0","0","1","","0.1541174352","0.4","0.2","0.6","0.8","0.3515125386","0.1541174352","0.4874659601","0.172295534","","","","","","","","","","","","74","J","1","","","135","main_expt",""
"","bandit","215","961309","0.0-176.0-0.0","26196737","wem/bandit_either_3","A8HSPSD88CUTS","either","2","397","","","","","","","0","0","1","","0.1374012581","0.4","0.2","0.6","0.8","0.2312583875","0.1374012581","0.3677382912","0.1171098277","","","","","","","","","","","","74","J","1","","","136","main_expt",""
"","bandit","216","964924","0.0-177.0-0.0","26196737","wem/bandit_either_3","A8HSPSD88CUTS","either","2","2107","","","","","","","0","0","1","0.2944012193","","0.4","0.2","0.6","0.8","","","","","0.3496768842","0.2889288236","0.2944012193","0.1390909791","","","","","","","","75","K","2","","","137","main_expt",""
"","bandit","217","966894","0.0-178.0-0.0","26196737","wem/bandit_either_3","A8HSPSD88CUTS","either","2","452","","","","","","","0","0","1","","0.2177367931","0.4","0.2","0.6","0.8","0.4217982028","0.2177367931","0.3020033879","0.1209370274","","","","","","","","","","","","74","J","1","","","138","main_expt",""
"","bandit","218","969810","0.0-179.0-0.0","26196737","wem/bandit_either_3","A8HSPSD88CUTS","either","2","1398","","","","","","","0","0","1","","0.1704259453","0.4","0.2","0.6","0.8","0.5123523738","0.1704259453","0.2908104057","0.1441291996","","","","","","","","","","","","74","J","1","","","139","main_expt",""
"","bandit","219","971581","0.0-180.0-0.0","26196737","wem/bandit_either_3","A8HSPSD88CUTS","either","2","253","","","","","","","0","1","0","","0.3892042576","0.4","0.2","0.6","0.8","0.3892042576","0.1827322183","0.2738290205","0.1380406349","","","","","","","","","","","","72","H","0","img/none_selected.jpg","","140","main_expt",""
"","bandit","220","973404","0.0-181.0-0.0","26196737","wem/bandit_either_3","A8HSPSD88CUTS","either","2","301","","","","","","","0","0","1","","0.4680147771","0.4","0.2","0.6","0.8","0.4680147771","0.2030288612","0.3865798498","0.1312769784","","","","","","","","","","","","72","H","0","img/none_selected.jpg","","141","main_expt",""
"","bandit","221","975165","0.0-182.0-0.0","26196737","wem/bandit_either_3","A8HSPSD88CUTS","either","2","244","","","","","","","0","0","1","","0.3970866904","0.4","0.2","0.6","0.8","0.3970866904","0.1760536641","0.3507917403","0.1880730553","","","","","","","","","","","","72","H","0","img/none_selected.jpg","","142","main_expt",""
"","bandit","222","976955","0.0-183.0-0.0","26196737","wem/bandit_either_3","A8HSPSD88CUTS","either","2","281","","","","","","","1","0","0","0.3609481858","","0.4","0.2","0.6","0.8","","","","","0.3609481858","0.1428921374","0.2787839286","0.1798266991","","","","","","","","72","H","0","img/none_selected.jpg","","143","main_expt",""
"","bandit","223","978716","0.0-184.0-0.0","26196737","wem/bandit_either_3","A8HSPSD88CUTS","either","2","253","","","","","","","1","0","0","0.3701270871","","0.4","0.2","0.6","0.8","","","","","0.3701270871","0.1260474704","0.2106619402","0.1881666754","","","","","","","","72","H","0","img/none_selected.jpg","","144","main_expt",""
"","bandit","224","980561","0.0-185.0-0.0","26196737","wem/bandit_either_3","A8HSPSD88CUTS","either","2","328","","","","","","","0","0","1","","0.3110645609","0.4","0.2","0.6","0.8","0.3110645609","0.151337539","0.3211677341","0.1683386122","","","","","","","","","","","","72","H","0","img/none_selected.jpg","","145","main_expt",""
"","bandit","225","983499","0.0-186.0-0.0","26196737","wem/bandit_either_3","A8HSPSD88CUTS","either","2","1423","","","","","","","0","0","1","","0.356964637","0.4","0.2","0.6","0.8","0.356964637","0.1600114734","0.4417580917","0.2609121533","","","","","","","","","","","","72","H","0","img/none_selected.jpg","","146","main_expt",""
"","bandit","226","985276","0.0-187.0-0.0","26196737","wem/bandit_either_3","A8HSPSD88CUTS","either","2","269","","","","","","","0","0","1","","0.5143633813","0.4","0.2","0.6","0.8","0.5143633813","0.1262446547","0.278611551","0.280259565","","","","","","","","","","","","72","H","0","img/none_selected.jpg","","147","main_expt",""
"","bandit","227","986845","0.0-188.0-0.0","26196737","wem/bandit_either_3","A8HSPSD88CUTS","either","2","52","","","","","","","0","0","1","","0.1030311585","0.4","0.2","0.6","0.8","0.5086187798","0.1030311585","0.2811332351","0.2972918914","","","","","","","","","","","","74","J","1","","","148","main_expt",""
"","bandit","228","988667","0.0-189.0-0.0","26196737","wem/bandit_either_3","A8HSPSD88CUTS","either","2","305","","","","","","","0","0","1","","0.123834606","0.4","0.2","0.6","0.8","0.4676315778","0.123834606","0.2606345315","0.3284309668","","","","","","","","","","","","74","J","1","","","149","main_expt",""
"","bandit","229","990430","0.0-190.0-0.0","26196737","wem/bandit_either_3","A8HSPSD88CUTS","either","2","252","","","","","","","0","0","1","0.06566206942","","0.4","0.2","0.6","0.8","","","","","0.4737351686","0.06566206942","0.260677327","0.3186890608","","","","","","","","74","J","1","","","150","main_expt",""
"","bandit","230","992432","0.0-191.0-0.0","26196737","wem/bandit_either_3","A8HSPSD88CUTS","either","2","484","","","","","","","1","0","0","0.2579624968","","0.4","0.2","0.6","0.8","","","","","0.5387476985","0.06342121736","0.2579624968","0.3331747037","","","","","","","","75","K","2","","","151","main_expt",""
"","bandit","231","994333","0.0-192.0-0.0","26196737","wem/bandit_either_3","A8HSPSD88CUTS","either","2","382","","","","","","","0","0","1","0.2536911072","","0.4","0.2","0.6","0.8","","","","","0.5065138565","0.1162046696","0.2536911072","0.364096089","","","","","","","","75","K","2","","","152","main_expt",""
"","bandit","232","996077","0.0-193.0-0.0","26196737","wem/bandit_either_3","A8HSPSD88CUTS","either","2","222","","","","","","","0","0","1","","0.1427943183","0.4","0.2","0.6","0.8","0.5190676077","0.1388943584","0.1427943183","0.3189440566","","","","","","","","","","","","75","K","2","","","153","main_expt",""
"","bandit","233","997804","0.0-194.0-0.0","26196737","wem/bandit_either_3","A8HSPSD88CUTS","either","2","210","","","","","","","0","0","1","0.08934943386","","0.4","0.2","0.6","0.8","","","","","0.4944482457","0.1188489222","0.08934943386","0.486858514","","","","","","","","75","K","2","","","154","main_expt",""
"","bandit","234","999709","0.0-195.0-0.0","26196737","wem/bandit_either_3","A8HSPSD88CUTS","either","2","394","","","","","","","0","0","1","0.1048919666","","0.4","0.2","0.6","0.8","","","","","0.4987902374","0.1255079792","0.1048919666","0.398958755","","","","","","","","75","K","2","","","155","main_expt",""
"","bandit","235","1001466","0.0-196.0-0.0","26196737","wem/bandit_either_3","A8HSPSD88CUTS","either","2","242","","","","","","","0","0","1","0.3508932217","","0.4","0.2","0.6","0.8","","","","","0.4151199053","0.1705129017","0.1348874752","0.3508932217","","","","","","","","76","L","3","","","156","main_expt",""
"","bandit","236","1003229","0.0-197.0-0.0","26196737","wem/bandit_either_3","A8HSPSD88CUTS","either","2","244","","","","","","","0","0","1","0.3736640956","","0.4","0.2","0.6","0.8","","","","","0.4215128153","0.1892203872","0.1197456909","0.3736640956","","","","","","","","76","L","3","","","157","main_expt",""
"","bandit","237","1005020","0.0-198.0-0.0","26196737","wem/bandit_either_3","A8HSPSD88CUTS","either","2","283","","","","","","","0","0","1","0.3215678611","","0.4","0.2","0.6","0.8","","","","","0.3666899102","0.1589595026","0.1343935597","0.3215678611","","","","","","","","76","L","3","","","158","main_expt",""
"","bandit","238","1006763","0.0-199.0-0.0","26196737","wem/bandit_either_3","A8HSPSD88CUTS","either","2","227","","","","","","","1","0","0","0.2732838962","","0.4","0.2","0.6","0.8","","","","","0.3906786657","0.1426383857","0.04604274909","0.2732838962","","","","","","","","76","L","3","","","159","main_expt",""
"","bandit","239","1008498","0.0-200.0-0.0","26196737","wem/bandit_either_3","A8HSPSD88CUTS","either","2","211","","","","","","","0","0","1","0.2323229575","","0.4","0.2","0.6","0.8","","","","","0.4769972016","0.2747613825","0.08927965808","0.2323229575","","","","","","","","76","L","3","","","160","main_expt",""
"","bandit","240","1010129","0.0-201.0-0.0","26196737","wem/bandit_either_3","A8HSPSD88CUTS","either","2","112","","","","","","","0","0","1","0.2046882866","","0.4","0.2","0.6","0.8","","","","","0.4405879513","0.2046882866","0.1038156196","0.399022808","","","","","","","","74","J","1","","","161","main_expt",""
"","bandit","241","1011850","0.0-202.0-0.0","26196737","wem/bandit_either_3","A8HSPSD88CUTS","either","2","205","","","","","","","0","0","1","0.1715152701","","0.4","0.2","0.6","0.8","","","","","0.44055992","0.1715152701","0.1470739062","0.4967313539","","","","","","","","74","J","1","","","162","main_expt",""
"","bandit","242","1013420","0.0-203.0-0.0","26196737","wem/bandit_either_3","A8HSPSD88CUTS","either","2","56","","","","","","","0","0","1","0.3434222481","","0.4","0.2","0.6","0.8","","","","","0.3434222481","0.2396687428","0.1214264794","0.5245029489","","","","","","","","72","H","0","img/none_selected.jpg","","163","main_expt",""
"","bandit","243","1015389","0.0-204.0-0.0","26196737","wem/bandit_either_3","A8HSPSD88CUTS","either","2","459","","","","","","","0","0","1","","0.3862652833","0.4","0.2","0.6","0.8","0.3862652833","0.3359744524","0.1563758897","0.5808119749","","","","","","","","","","","","72","H","0","img/none_selected.jpg","","164","main_expt",""
"","bandit","244","1050318","0.0-205.0-0.0","26196737","wem/bandit_either_3","A8HSPSD88CUTS","either","2","33411","","","","","","","0","0","1","","0.4270444342","0.4","0.2","0.6","0.8","0.4270444342","0.4940159592","0.1311500467","0.6473032069","","","","","","","","","","","","72","H","0","img/none_selected.jpg","","165","main_expt",""
"","bandit","245","1052172","0.0-206.0-0.0","26196737","wem/bandit_either_3","A8HSPSD88CUTS","either","2","336","","","","","","","0","1","0","","0.5922229292","0.4","0.2","0.6","0.8","0.5073102058","0.5922229292","0.1419689761","0.6790689848","","","","","","","","","","","","74","J","1","","","166","main_expt",""
"","bandit","246","1054330","0.0-207.0-0.0","26196737","wem/bandit_either_3","A8HSPSD88CUTS","either","2","626","","","","","","","0","1","0","","0.5562626425","0.4","0.2","0.6","0.8","0.5417092253","0.5562626425","0.150246256","0.5959653185","","","","","","","","","","","","74","J","1","","","167","main_expt",""
"","bandit","247","1056074","0.0-208.0-0.0","26196737","wem/bandit_either_3","A8HSPSD88CUTS","either","2","227","","","","","","","0","1","0","","0.6489587791","0.4","0.2","0.6","0.8","0.6505471885","0.6489587791","0.2070971521","0.361841396","","","","","","","","","","","","74","J","1","","","168","main_expt",""
"","bandit","248","1057851","0.0-209.0-0.0","26196737","wem/bandit_either_3","A8HSPSD88CUTS","either","2","259","","","","","","","0","1","0","","0.5652428614","0.4","0.2","0.6","0.8","0.6226729341","0.5652428614","0.2564452127","0.2594844845","","","","","","","","","","","","74","J","1","","","169","main_expt",""
"","bandit","249","1059598","0.0-210.0-0.0","26196737","wem/bandit_either_3","A8HSPSD88CUTS","either","2","227","","","","","","","1","0","0","0.5344749526","","0.4","0.2","0.6","0.8","","","","","0.7574543886","0.5344749526","0.2845729388","0.1987556041","","","","","","","","74","J","1","","","170","main_expt",""
"","bandit","250","1061787","0.0-211.0-0.0","26196737","wem/bandit_either_3","A8HSPSD88CUTS","either","2","673","","","","","","","0","1","0","","0.6364900983","0.4","0.2","0.6","0.8","0.774201251","0.6364900983","0.2360657399","0.1583585206","","","","","","","","","","","","74","J","1","","","171","main_expt",""
"","bandit","251","1063978","0.0-212.0-0.0","26196737","wem/bandit_either_3","A8HSPSD88CUTS","either","2","682","","","","","","","0","1","0","","0.5516193693","0.4","0.2","0.6","0.8","0.7739789177","0.5516193693","0.3453554921","0.1494938987","","","","","","","","","","","","74","J","1","","","172","main_expt",""
"","bandit","252","1065690","0.0-213.0-0.0","26196737","wem/bandit_either_3","A8HSPSD88CUTS","either","2","202","","","","","","","0","0","1","","0.5081608063","0.4","0.2","0.6","0.8","0.7146420849","0.5081608063","0.2909261263","0.1996494969","","","","","","","","","","","","74","J","1","","","173","main_expt",""
"","bandit","253","1067596","0.0-214.0-0.0","26196737","wem/bandit_either_3","A8HSPSD88CUTS","either","2","386","","","","","","","0","0","1","","0.5247340446","0.4","0.2","0.6","0.8","0.683245412","0.5247340446","0.3807546558","0.2200767262","","","","","","","","","","","","74","J","1","","","174","main_expt",""
"","bandit","254","1081387","0.0-215.0-0.0","26196737","wem/bandit_either_3","A8HSPSD88CUTS","either","2","12272","","","","","","","0","0","1","","0.5823110366","0.4","0.2","0.6","0.8","0.7163731774","0.5823110366","0.3889518003","0.1929710708","","","","","","","","","","","","74","J","1","","","175","main_expt",""
"","bandit","255","1083033","0.0-216.0-0.0","26196737","wem/bandit_either_3","A8HSPSD88CUTS","either","2","129","","","","","","","0","1","0","","0.7693722391","0.4","0.2","0.6","0.8","0.6676116703","0.7693722391","0.3662842853","0.1756556012","","","","","","","","","","","","74","J","1","","","176","main_expt",""
"","bandit","256","1093131","0.0-217.0-0.0","26196737","wem/bandit_either_3","A8HSPSD88CUTS","either","2","8578","","","","","","","0","1","0","","0.8048595062","0.4","0.2","0.6","0.8","0.711116056","0.8048595062","0.3102656016","0.2404611203","","","","","","","","","","","","74","J","1","","","177","main_expt",""
"","bandit","257","1100315","0.0-218.0-0.0","26196737","wem/bandit_either_3","A8HSPSD88CUTS","either","2","5663","","","","","","","0","0","1","0.8147320782","","0.4","0.2","0.6","0.8","","","","","0.6541247318","0.8147320782","0.3272385177","0.1651874793","","","","","","","","74","J","1","","","178","main_expt",""
"","bandit","258","1102089","0.0-219.0-0.0","26196737","wem/bandit_either_3","A8HSPSD88CUTS","either","2","265","","","","","","","0","1","0","","0.7755432213","0.4","0.2","0.6","0.8","0.600925469","0.7755432213","0.3185807274","0.1297692321","","","","","","","","","","","","74","J","1","","","179","main_expt",""
"","bandit","259","1170877","0.0-220.0-0.0","26196737","wem/bandit_either_3","A8HSPSD88CUTS","either","2","67278","","","","","","","1","0","0","0.7309951384","","0.4","0.2","0.6","0.8","","","","","0.6321701674","0.7309951384","0.3896265469","0.1311169289","","","","","","","","74","J","1","","","180","main_expt",""
"","bandit","260","1188489","0.0-221.0-0.0","26196737","wem/bandit_either_3","A8HSPSD88CUTS","either","2","16091","","","","","","","0","1","0","","0.8068071681","0.4","0.2","0.6","0.8","0.7040606398","0.8068071681","0.4381139349","0.2184653543","","","","","","","","","","","","74","J","1","","","181","main_expt",""
"","bandit","261","1196809","0.0-222.0-0.0","26196737","wem/bandit_either_3","A8HSPSD88CUTS","either","2","6799","","","","","","","0","1","0","","0.8096694819","0.4","0.2","0.6","0.8","0.6551517927","0.8096694819","0.4339703771","0.156745214","","","","","","","","","","","","74","J","1","","","182","main_expt",""
"","bandit","262","1233594","0.0-223.0-0.0","26196737","wem/bandit_either_3","A8HSPSD88CUTS","either","2","35276","","","","","","","0","1","0","","0.8522040983","0.4","0.2","0.6","0.8","0.7709035389","0.8522040983","0.5270594011","0.07710569088","","","","","","","","","","","","74","J","1","","","183","main_expt",""
"","bandit","263","1236760","0.0-224.0-0.0","26196737","wem/bandit_either_3","A8HSPSD88CUTS","either","2","1645","","","","","","","0","1","0","","0.8636776132","0.4","0.2","0.6","0.8","0.7869666122","0.8636776132","0.4791569234","0.07901501252","","","","","","","","","","","","74","J","1","","","184","main_expt",""
"","bandit","264","1238630","0.0-225.0-0.0","26196737","wem/bandit_either_3","A8HSPSD88CUTS","either","2","361","","","","","","","1","0","0","0.8605951951","","0.4","0.2","0.6","0.8","","","","","0.804571828","0.8605951951","0.464074867","0.05695362571","","","","","","","","74","J","1","","","185","main_expt",""
"","bandit","265","1240649","0.0-226.0-0.0","26196737","wem/bandit_either_3","A8HSPSD88CUTS","either","2","498","","","","","","","1","0","0","0.8578427848","","0.4","0.2","0.6","0.8","","","","","0.7866627628","0.8578427848","0.4654947356","0.03796608352","","","","","","","","74","J","1","","","186","main_expt",""
"","bandit","266","1242983","0.0-227.0-0.0","26196737","wem/bandit_either_3","A8HSPSD88CUTS","either","2","814","","","","","","","0","1","0","","0.8253306036","0.4","0.2","0.6","0.8","0.8006736442","0.8253306036","0.4338668179","0.05986429342","","","","","","","","","","","","74","J","1","","","187","main_expt",""
"","bandit","267","1244812","0.0-228.0-0.0","26196737","wem/bandit_either_3","A8HSPSD88CUTS","either","2","316","","","","","","","1","0","0","0.8118593573","","0.4","0.2","0.6","0.8","","","","","0.7687627789","0.8118593573","0.4679469354","0.05827831728","","","","","","","","74","J","1","","","188","main_expt",""
"","bandit","268","1249238","0.0-229.0-0.0","26196737","wem/bandit_either_3","A8HSPSD88CUTS","either","2","2905","","","","","","","0","1","0","","0.8319104568","0.4","0.2","0.6","0.8","0.7009429779","0.8319104568","0.4645116859","0.06499387038","","","","","","","","","","","","74","J","1","","","189","main_expt",""
"","bandit","269","1283723","0.0-230.0-0.0","26196737","wem/bandit_either_3","A8HSPSD88CUTS","either","2","32968","","","","","","","0","1","0","","0.8949986836","0.4","0.2","0.6","0.8","0.7531121838","0.8949986836","0.4260553166","0.0878029059","","","","","","","","","","","","74","J","1","","","190","main_expt",""
"","bandit","270","1286712","0.0-231.0-0.0","26196737","wem/bandit_either_3","A8HSPSD88CUTS","either","2","1467","","","","","","","0","1","0","","0.9258368343","0.4","0.2","0.6","0.8","0.6174616994","0.9258368343","0.5323747461","0.1101088583","","","","","","","","","","","","74","J","1","","","191","main_expt",""
"","bandit","271","1290584","0.0-232.0-0.0","26196737","wem/bandit_either_3","A8HSPSD88CUTS","either","2","2359","","","","","","","0","1","0","","0.9221438833","0.4","0.2","0.6","0.8","0.6331996982","0.9221438833","0.6013900654","0.1559643099","","","","","","","","","","","","74","J","1","","","192","main_expt",""
"","bandit","272","1298202","0.0-233.0-0.0","26196737","wem/bandit_either_3","A8HSPSD88CUTS","either","2","6106","","","","","","","0","1","0","","0.878376231","0.4","0.2","0.6","0.8","0.5596167322","0.878376231","0.5332063066","0.1348882638","","","","","","","","","","","","74","J","1","","","193","main_expt",""
"","bandit","273","1300279","0.0-234.0-0.0","26196737","wem/bandit_either_3","A8HSPSD88CUTS","either","2","556","","","","","","","1","0","0","0.7914694382","","0.4","0.2","0.6","0.8","","","","","0.5887018809","0.7914694382","0.5499496643","0.243093686","","","","","","","","74","J","1","","","194","main_expt",""
"","bandit","274","1333014","0.0-235.0-0.0","26196737","wem/bandit_either_3","A8HSPSD88CUTS","either","2","31216","","","","","","","1","0","0","0.7843027812","","0.4","0.2","0.6","0.8","","","","","0.561552955","0.7843027812","0.4170732774","0.2792315856","","","","","","","","74","J","1","","","195","main_expt",""
"","bandit","275","1335077","0.0-236.0-0.0","26196737","wem/bandit_either_3","A8HSPSD88CUTS","either","2","552","","","","","","","1","0","0","0.7888241066","","0.4","0.2","0.6","0.8","","","","","0.6199522587","0.7888241066","0.4050854298","0.2075419965","","","","","","","","74","J","1","","","196","main_expt",""
"","bandit","276","1337046","0.0-237.0-0.0","26196737","wem/bandit_either_3","A8HSPSD88CUTS","either","2","448","","","","","","","0","1","0","","0.8145025162","0.4","0.2","0.6","0.8","0.6886125155","0.8145025162","0.4522405917","0.1899284635","","","","","","","","","","","","74","J","1","","","197","main_expt",""
"","bandit","277","1341111","0.0-238.0-0.0","26196737","wem/bandit_either_3","A8HSPSD88CUTS","either","2","2542","","","","","","","0","1","0","","0.8795467387","0.4","0.2","0.6","0.8","0.6468609917","0.8795467387","0.4547961131","0.1632143895","","","","","","","","","","","","74","J","1","","","198","main_expt",""
"","bandit","278","1353177","0.0-239.0-0.0","26196737","wem/bandit_either_3","A8HSPSD88CUTS","either","2","10544","","","","","","","0","1","0","","0.8716255916","0.4","0.2","0.6","0.8","0.7134983028","0.8716255916","0.456709553","0.1580048483","","","","","","","","","","","","74","J","1","","","199","main_expt",""
"","bandit","279","1359892","0.0-240.0-0.0","26196737","wem/bandit_either_3","A8HSPSD88CUTS","either","2","5196","","","","","","","0","1","0","","0.8596876402","0.4","0.2","0.6","0.8","0.6545285445","0.8596876402","0.4197111003","0.1815025648","","","","","","","","","","","","74","J","1","","","200","main_expt",""
"","bandit","280","1394248","0.0-241.0-0.0","26196737","wem/bandit_either_3","A8HSPSD88CUTS","either","2","32834","","","","","","","0","1","0","","0.8714244785","0.4","0.2","0.6","0.8","0.6827561938","0.8714244785","0.4468864226","0.1453003075","","","","","","","","","","","","74","J","1","","","201","main_expt",""
"","bandit","281","1437065","0.0-242.0-0.0","26196737","wem/bandit_either_3","A8HSPSD88CUTS","either","2","41295","","","","","","","1","0","0","0.8679491409","","0.4","0.2","0.6","0.8","","","","","0.6590680519","0.8679491409","0.3852152277","0.1061510446","","","","","","","","74","J","1","","","202","main_expt",""
"","bandit","282","1447432","0.0-243.0-0.0","26196737","wem/bandit_either_3","A8HSPSD88CUTS","either","2","8856","","","","","","","0","1","0","","0.8421855008","0.4","0.2","0.6","0.8","0.67998256","0.8421855008","0.3481501846","0.09667757311","","","","","","","","","","","","74","J","1","","","203","main_expt",""
"","bandit","283","1458631","0.0-244.0-0.0","26196737","wem/bandit_either_3","A8HSPSD88CUTS","either","2","9685","","","","","","","1","0","0","0.8741547355","","0.4","0.2","0.6","0.8","","","","","0.7157802034","0.8741547355","0.3688904748","0.109576977","","","","","","","","74","J","1","","","204","main_expt",""
"","bandit","284","1476438","0.0-245.0-0.0","26196737","wem/bandit_either_3","A8HSPSD88CUTS","either","2","16283","","","","","","","0","1","0","","0.8589537271","0.4","0.2","0.6","0.8","0.6750594522","0.8589537271","0.4196025605","0.1370524017","","","","","","","","","","","","74","J","1","","","205","main_expt",""
"","bandit","285","1485010","0.0-246.0-0.0","26196737","wem/bandit_either_3","A8HSPSD88CUTS","either","2","7050","","","","","","","0","0","1","","0.8009191088","0.4","0.2","0.6","0.8","0.7170784861","0.8009191088","0.3558717694","0.1005848846","","","","","","","","","","","","74","J","1","","","206","main_expt",""
"","bandit","286","1491476","0.0-247.0-0.0","26196737","wem/bandit_either_3","A8HSPSD88CUTS","either","2","4945","","","","","","","0","1","0","","0.6886550294","0.4","0.2","0.6","0.8","0.6886550294","0.8146279372","0.3978287694","0.1100528349","","","","","","","","","","","","72","H","0","img/none_selected.jpg","","207","main_expt",""
"","bandit","287","1493282","0.0-248.0-0.0","26196737","wem/bandit_either_3","A8HSPSD88CUTS","either","2","286","","","","","","","0","1","0","","0.7340041914","0.4","0.2","0.6","0.8","0.7340041914","0.7498886323","0.3647175361","0.1165568201","","","","","","","","","","","","72","H","0","img/none_selected.jpg","","208","main_expt",""
"","bandit","288","1526181","0.0-249.0-0.0","26196737","wem/bandit_either_3","A8HSPSD88CUTS","either","2","31376","","","","","","","1","0","0","0.781298432","","0.4","0.2","0.6","0.8","","","","","0.7108339061","0.781298432","0.2942091963","0.1607141963","","","","","","","","74","J","1","","","209","main_expt",""
"","bandit","289","1530546","0.0-250.0-0.0","26196737","wem/bandit_either_3","A8HSPSD88CUTS","either","2","2842","","","","","","","0","1","0","","0.8374694261","0.4","0.2","0.6","0.8","0.7322658343","0.8374694261","0.3228874634","0.2005879304","","","","","","","","","","","","74","J","1","","","210","main_expt",""
"","bandit","290","1533153","0.0-251.0-0.0","26196737","wem/bandit_either_3","A8HSPSD88CUTS","either","2","1097","","","","","","","0","1","0","","0.6220956771","0.4","0.2","0.6","0.8","0.6220956771","0.7461264045","0.3300931135","0.1999716741","","","","","","","","","","","","72","H","0","img/none_selected.jpg","","211","main_expt",""
"","bandit","291","1534913","0.0-252.0-0.0","26196737","wem/bandit_either_3","A8HSPSD88CUTS","either","2","242","","","","","","","0","0","1","","0.7267359419","0.4","0.2","0.6","0.8","0.5400145011","0.7267359419","0.4044608811","0.2135957141","","","","","","","","","","","","74","J","1","","","212","main_expt",""
"","bandit","292","1536641","0.0-253.0-0.0","26196737","wem/bandit_either_3","A8HSPSD88CUTS","either","2","219","","","","","","","0","0","1","0.5419994818","","0.4","0.2","0.6","0.8","","","","","0.5419994818","0.6529835343","0.4916994921","0.2041793084","","","","","","","","72","H","0","img/none_selected.jpg","","213","main_expt",""
"","bandit","293","1538226","0.0-254.0-0.0","26196737","wem/bandit_either_3","A8HSPSD88CUTS","either","2","61","","","","","","","0","1","0","","0.5387088508","0.4","0.2","0.6","0.8","0.6195319152","0.5734554779","0.5387088508","0.2563089198","","","","","","","","","","","","75","K","2","","","214","main_expt",""
"","bandit","294","1540305","0.0-255.0-0.0","26196737","wem/bandit_either_3","A8HSPSD88CUTS","either","2","559","","","","","","","0","0","1","0.567041903","","0.4","0.2","0.6","0.8","","","","","0.7405966814","0.7056003711","0.567041903","0.2870699064","","","","","","","","75","K","2","","","215","main_expt",""
"","bandit","295","1541938","0.0-256.0-0.0","26196737","wem/bandit_either_3","A8HSPSD88CUTS","either","2","112","","","","","","","0","1","0","","0.7717913507","0.4","0.2","0.6","0.8","0.8005734678","0.7717913507","0.539749723","0.2715554895","","","","","","","","","","","","74","J","1","","","216","main_expt",""
"","bandit","296","1559140","0.0-257.0-0.0","26196737","wem/bandit_either_3","A8HSPSD88CUTS","either","2","15681","","","","","","","0","1","0","","0.834894728","0.4","0.2","0.6","0.8","0.8392159132","0.834894728","0.3803352486","0.2027777883","","","","","","","","","","","","74","J","1","","","217","main_expt",""
"","bandit","297","1591539","0.0-258.0-0.0","26196737","wem/bandit_either_3","A8HSPSD88CUTS","either","2","30879","","","","","","","1","0","0","0.868580258","","0.4","0.2","0.6","0.8","","","","","0.7445585264","0.868580258","0.3236333655","0.2169787163","","","","","","","","74","J","1","","","218","main_expt",""
"","bandit","298","1593663","0.0-259.0-0.0","26196737","wem/bandit_either_3","A8HSPSD88CUTS","either","2","605","","","","","","","1","0","0","0.8236231074","","0.4","0.2","0.6","0.8","","","","","0.7174829008","0.8236231074","0.2612589469","0.2292932202","","","","","","","","74","J","1","","","219","main_expt",""
"","bandit","299","1595425","0.0-260.0-0.0","26196737","wem/bandit_either_3","A8HSPSD88CUTS","either","2","251","","","","","","","0","1","0","","0.7719294443","0.4","0.2","0.6","0.8","0.6601767392","0.7719294443","0.2228319794","0.2829053382","","","","","","","","","","","","74","J","1","","","220","main_expt",""
"","bandit","300","1599541","0.0-261.0-0.0","26196737","wem/bandit_either_3","A8HSPSD88CUTS","either","2","2589","","","","","","","0","1","0","","0.7609360252","0.4","0.2","0.6","0.8","0.703996204","0.7609360252","0.2204856404","0.2691731019","","","","","","","","","","","","74","J","1","","","221","main_expt",""
"","bandit","301","1601360","0.0-262.0-0.0","26196737","wem/bandit_either_3","A8HSPSD88CUTS","either","2","299","","","","","","","0","1","0","","0.7319851961","0.4","0.2","0.6","0.8","0.6188024556","0.7319851961","0.2269951902","0.1974112065","","","","","","","","","","","","74","J","1","","","222","main_expt",""
"","bandit","302","1603188","0.0-263.0-0.0","26196737","wem/bandit_either_3","A8HSPSD88CUTS","either","2","316","","","","","","","0","1","0","","0.6994646324","0.4","0.2","0.6","0.8","0.5695888615","0.6994646324","0.3417830843","0.08486155027","","","","","","","","","","","","74","J","1","","","223","main_expt",""
"","bandit","303","1605136","0.0-264.0-0.0","26196737","wem/bandit_either_3","A8HSPSD88CUTS","either","2","427","","","","","","","1","0","0","0.6817307813","","0.4","0.2","0.6","0.8","","","","","0.6590173842","0.6817307813","0.4057490183","0.1930609847","","","","","","","","74","J","1","","","224","main_expt",""
"","bandit","304","1607088","0.0-265.0-0.0","26196737","wem/bandit_either_3","A8HSPSD88CUTS","either","2","439","","","","","","","0","1","0","","0.67394888","0.4","0.2","0.6","0.8","0.6779124893","0.67394888","0.4266979185","0.2026087193","","","","","","","","","","","","74","J","1","","","225","main_expt",""
"","bandit","305","1608927","0.0-266.0-0.0","26196737","wem/bandit_either_3","A8HSPSD88CUTS","either","2","319","","","","","","","0","0","1","","0.6520670614","0.4","0.2","0.6","0.8","0.6433757785","0.6520670614","0.4723095555","0.1295559036","","","","","","","","","","","","74","J","1","","","226","main_expt",""
"","bandit","306","1610912","0.0-267.0-0.0","26196737","wem/bandit_either_3","A8HSPSD88CUTS","either","2","473","","","","","","","0","1","0","","0.6598054912","0.4","0.2","0.6","0.8","0.6050090536","0.6598054912","0.4396274322","0.1014701128","","","","","","","","","","","","74","J","1","","","227","main_expt",""
"","bandit","307","1612784","0.0-268.0-0.0","26196737","wem/bandit_either_3","A8HSPSD88CUTS","either","2","349","","","","","","","0","1","0","","0.7313296172","0.4","0.2","0.6","0.8","0.5614220587","0.7313296172","0.4581465293","0.1374428951","","","","","","","","","","","","74","J","1","","","228","main_expt",""
"","bandit","308","1614627","0.0-269.0-0.0","26196737","wem/bandit_either_3","A8HSPSD88CUTS","either","2","331","","","","","","","0","1","0","","0.5771612872","0.4","0.2","0.6","0.8","0.536938762","0.5771612872","0.3635076811","0.2147377822","","","","","","","","","","","","74","J","1","","","229","main_expt",""
"","bandit","309","1636384","0.0-270.0-0.0","26196737","wem/bandit_either_3","A8HSPSD88CUTS","either","2","20234","","","","","","","0","1","0","","0.6474737632","0.4","0.2","0.6","0.8","0.4691369301","0.6474737632","0.4109812081","0.2128984172","","","","","","","","","","","","74","J","1","","","230","main_expt",""
"","bandit","310","1650115","0.0-271.0-0.0","26196737","wem/bandit_either_3","A8HSPSD88CUTS","either","2","12211","","","","","","","0","1","0","","0.77083729","0.4","0.2","0.6","0.8","0.3801843724","0.77083729","0.3769467169","0.2566260117","","","","","","","","","","","","74","J","1","","","231","main_expt",""
"","bandit","311","1658496","0.0-272.0-0.0","26196737","wem/bandit_either_3","A8HSPSD88CUTS","either","2","6859","","","","","","","0","1","0","","0.7372448464","0.4","0.2","0.6","0.8","0.4401380948","0.7372448464","0.4489681289","0.307190163","","","","","","","","","","","","74","J","1","","","232","main_expt",""
"","bandit","312","1666803","0.0-273.0-0.0","26196737","wem/bandit_either_3","A8HSPSD88CUTS","either","2","6785","","","","","","","1","0","0","0.8061851957","","0.4","0.2","0.6","0.8","","","","","0.4589823784","0.8061851957","0.5191563331","0.3235632008","","","","","","","","74","J","1","","","233","main_expt",""
"","bandit","313","1673073","0.0-274.0-0.0","26196737","wem/bandit_either_3","A8HSPSD88CUTS","either","2","4739","","","","","","","1","0","0","0.7628128465","","0.4","0.2","0.6","0.8","","","","","0.412850409","0.7628128465","0.5635532962","0.2229472669","","","","","","","","74","J","1","","","234","main_expt",""
"","bandit","314","1675107","0.0-275.0-0.0","26196737","wem/bandit_either_3","A8HSPSD88CUTS","either","2","510","","","","","","","0","0","1","","0.7139354314","0.4","0.2","0.6","0.8","0.3071086281","0.7139354314","0.6059211115","0.3245092944","","","","","","","","","","","","74","J","1","","","235","main_expt",""
"","bandit","315","1680321","0.0-276.0-0.0","26196737","wem/bandit_either_3","A8HSPSD88CUTS","either","2","3693","","","","","","","0","1","0","","0.8459685894","0.4","0.2","0.6","0.8","0.3088172556","0.8459685894","0.5767319418","0.3817813951","","","","","","","","","","","","74","J","1","","","236","main_expt",""
"","bandit","316","1683294","0.0-277.0-0.0","26196737","wem/bandit_either_3","A8HSPSD88CUTS","either","2","1452","","","","","","","0","1","0","","0.8258062243","0.4","0.2","0.6","0.8","0.2725525041","0.8258062243","0.6195352853","0.5108794425","","","","","","","","","","","","74","J","1","","","237","main_expt",""
"","bandit","317","1685918","0.0-278.0-0.0","26196737","wem/bandit_either_3","A8HSPSD88CUTS","either","2","1114","","","","","","","0","1","0","","0.7390020401","0.4","0.2","0.6","0.8","0.2929581335","0.7390020401","0.7504070514","0.545868674","","","","","","","","","","","","74","J","1","","","238","main_expt",""
"","bandit","318","1688128","0.0-279.0-0.0","26196737","wem/bandit_either_3","A8HSPSD88CUTS","either","2","696","","","","","","","0","1","0","","0.7159327665","0.4","0.2","0.6","0.8","0.3009301418","0.7159327665","0.7863609923","0.5696008367","","","","","","","","","","","","74","J","1","","","239","main_expt",""
"","bandit","319","1691905","0.0-280.0-0.0","26196737","wem/bandit_either_3","A8HSPSD88CUTS","either","2","2256","","","","","","","0","0","1","0.7704913736","","0.4","0.2","0.6","0.8","","","","","0.1757133805","0.7704913736","0.7472107855","0.7175907516","","","","","","","","74","J","1","","","240","main_expt",""
"","bandit","320","1698940","0.0-281.0-0.0","26196737","wem/bandit_either_3","A8HSPSD88CUTS","either","2","5514","","","","","","","0","1","0","","0.7832900934","0.4","0.2","0.6","0.8","0.1490953818","0.7832900934","0.7633099306","0.8333566257","","","","","","","","","","","","74","J","1","","","241","main_expt",""
"","bandit","321","1788242","0.0-282.0-0.0","26196737","wem/bandit_either_3","A8HSPSD88CUTS","either","2","87789","","","","","","","0","0","1","0.746364214","","0.4","0.2","0.6","0.8","","","","","0.1187436938","0.746364214","0.8192624891","0.8661582331","","","","","","","","74","J","1","","","242","main_expt",""
"","bandit","322","1790381","0.0-283.0-0.0","26196737","wem/bandit_either_3","A8HSPSD88CUTS","either","2","616","","","","","","","0","0","1","","0.7014576998","0.4","0.2","0.6","0.8","0.07814629235","0.7014576998","0.7500708258","0.8970489214","","","","","","","","","","","","74","J","1","","","243","main_expt",""
