"consent","trial_type","trial_index","time_elapsed","internal_node_id","subjID","study","MID","cond","drift","rt","responses","key_press","expt_phase","like","value","connected","gems","bombs","no_reward","GemPrChosen","BombPrChosen","GainOverPainPr_0","GainOverPainPr_1","GainOverPainPr_2","GainOverPainPr_3","LosePr_0","LosePr_1","LosePr_2","LosePr_3","WinPr_0","WinPr_1","WinPr_2","WinPr_3","Q0","Q1","Q2","gender","age","ethnicity","target","respCharCode","respKey","respChoiceNum","respChoice","practice","trial_counter","trial_label","button_pressed"
"INL_behavioral_consent_30min_online.html","consent","0","4337","0.0-0.0","26408861","wem/bandit_either_3","A1ZT30BGR3266K","either","4","","","","","","","","","","","","","","","","","","","","","","","","","","","","","","","","","","","","","","",""
"","survey-text","1","6648","0.0-1.0","26408861","wem/bandit_either_3","A1ZT30BGR3266K","either","4","1302","{""Q0"":""A1ZT30BGR3266K""}","","","","","","","","","","","","","","","","","","","","","","","","","","","","","","","","","","","","",""
"","text","2","10056","0.0-2.0","26408861","wem/bandit_either_3","A1ZT30BGR3266K","either","4","2403","","32","","","","","","","","","","","","","","","","","","","","","","","","","","","","","","","","","","","",""
"","text","3","15395","0.0-3.0","26408861","wem/bandit_either_3","A1ZT30BGR3266K","either","4","5339","","32","","","","","","","","","","","","","","","","","","","","","","","","","","","","","","","","","","","",""
"","text","4","20305","0.0-4.0","26408861","wem/bandit_either_3","A1ZT30BGR3266K","either","4","4909","","32","","","","","","","","","","","","","","","","","","","","","","","","","","","","","","","","","","","",""
"","text","5","21678","0.0-5.0","26408861","wem/bandit_either_3","A1ZT30BGR3266K","either","4","1372","","32","","","","","","","","","","","","","","","","","","","","","","","","","","","","","","","","","","","",""
"","text","6","22524","0.0-6.0","26408861","wem/bandit_either_3","A1ZT30BGR3266K","either","4","846","","32","","","","","","","","","","","","","","","","","","","","","","","","","","","","","","","","","","","",""
"","text","7","23362","0.0-7.0","26408861","wem/bandit_either_3","A1ZT30BGR3266K","either","4","836","","32","","","","","","","","","","","","","","","","","","","","","","","","","","","","","","","","","","","",""
"","text","8","24248","0.0-8.0","26408861","wem/bandit_either_3","A1ZT30BGR3266K","either","4","885","","32","","","","","","","","","","","","","","","","","","","","","","","","","","","","","","","","","","","",""
"","identification","9","31133","0.0-9.0-0.0","26408861","wem/bandit_either_3","A1ZT30BGR3266K","either","4","6875","","","","5","5","5","","","","","","","","","","","","","","","","","","","","","","","","the village of Zur","","","","","","","",""
"","identification","10","36962","0.0-9.0-1.0","26408861","wem/bandit_either_3","A1ZT30BGR3266K","either","4","4821","","","","1","1","1","","","","","","","","","","","","","","","","","","","","","","","","the village of Nyx","","","","","","","",""
"","text","11","39785","0.0-10.0","26408861","wem/bandit_either_3","A1ZT30BGR3266K","either","4","1821","","32","","","","","","","","","","","","","","","","","","","","","","","","","","","","","","","","","","","",""
"","text","12","40700","0.0-11.0","26408861","wem/bandit_either_3","A1ZT30BGR3266K","either","4","915","","32","","","","","","","","","","","","","","","","","","","","","","","","","","","","","","","","","","","",""
"","text","13","41930","0.0-12.0","26408861","wem/bandit_either_3","A1ZT30BGR3266K","either","4","1229","","32","","","","","","","","","","","","","","","","","","","","","","","","","","","","","","","","","","","",""
"","text","14","43237","0.0-13.0","26408861","wem/bandit_either_3","A1ZT30BGR3266K","either","4","1306","","32","","","","","","","","","","","","","","","","","","","","","","","","","","","","","","","","","","","",""
"","bandit","15","46525","0.0-14.0-0.0","26408861","wem/bandit_either_3","A1ZT30BGR3266K","either","4","1762","","","","","","","0","0","1","0","0","","","","","0","","","","0","","","","","","","","","","","74","J","0","img/none_selected_demo.jpg","true","0","",""
"","bandit","16","48763","0.0-15.0-0.0","26408861","wem/bandit_either_3","A1ZT30BGR3266K","either","4","721","","","","","","","0","0","1","0","0","","","","","0","","","","0","","","","","","","","","","","75","K","0","img/none_selected_demo.jpg","true","0","",""
"","text","17","54204","0.0-16.0","26408861","wem/bandit_either_3","A1ZT30BGR3266K","either","4","5441","","32","","","","","","","","","","","","","","","","","","","","","","","","","","","","","","","","","","","",""
"","text","18","64404","0.0-17.0","26408861","wem/bandit_either_3","A1ZT30BGR3266K","either","4","10198","","32","","","","","","","","","","","","","","","","","","","","","","","","","","","","","","","","","","","",""
"","text","19","73611","0.0-18.0","26408861","wem/bandit_either_3","A1ZT30BGR3266K","either","4","9206","","32","","","","","","","","","","","","","","","","","","","","","","","","","","","","","","","","","","","",""
"","text","20","80546","0.0-19.0","26408861","wem/bandit_either_3","A1ZT30BGR3266K","either","4","6933","","32","","","","","","","","","","","","","","","","","","","","","","","","","","","","","","","","","","","",""
"","bandit","21","84256","0.0-20.0-0.0","26408861","wem/bandit_either_3","A1ZT30BGR3266K","either","4","2191","","","","","","","1","0","0","0.8","","0.5","0.5","","","","","","","0.8","0.2","","","","","","","","","","74","J","0","img/none_selected_demo.jpg","true","0","80_20_practice",""
"","bandit","22","86580","0.0-20.0-1.0","26408861","wem/bandit_either_3","A1ZT30BGR3266K","either","4","803","","","","","","","1","0","0","0.8","","0.5","0.5","","","","","","","0.8","0.2","","","","","","","","","","74","J","0","img/none_selected_demo.jpg","true","0","80_20_practice",""
"","bandit","23","88634","0.0-20.0-2.0","26408861","wem/bandit_either_3","A1ZT30BGR3266K","either","4","536","","","","","","","1","0","0","0.8","","0.5","0.5","","","","","","","0.8","0.2","","","","","","","","","","74","J","0","img/none_selected_demo.jpg","true","0","80_20_practice",""
"","bandit","24","92293","0.0-20.0-3.0","26408861","wem/bandit_either_3","A1ZT30BGR3266K","either","4","2148","","","","","","","0","0","1","","0.8","0.5","0.5","","","0.8","0.2","","","","","","","","","","","","","","74","J","0","img/none_selected_demo.jpg","true","0","80_20_practice",""
"","bandit","25","94394","0.0-20.0-4.0","26408861","wem/bandit_either_3","A1ZT30BGR3266K","either","4","582","","","","","","","1","0","0","0.8","","0.5","0.5","","","","","","","0.8","0.2","","","","","","","","","","74","J","0","img/none_selected_demo.jpg","true","0","80_20_practice",""
"","bandit","26","96938","0.0-20.0-5.0","26408861","wem/bandit_either_3","A1ZT30BGR3266K","either","4","1027","","","","","","","1","0","0","0.8","","0.5","0.5","","","","","","","0.8","0.2","","","","","","","","","","74","J","0","img/none_selected_demo.jpg","true","0","80_20_practice",""
"","bandit","27","98872","0.0-20.0-6.0","26408861","wem/bandit_either_3","A1ZT30BGR3266K","either","4","416","","","","","","","1","0","0","0.8","","0.5","0.5","","","","","","","0.8","0.2","","","","","","","","","","74","J","0","img/none_selected_demo.jpg","true","0","80_20_practice",""
"","bandit","28","101253","0.0-20.0-7.0","26408861","wem/bandit_either_3","A1ZT30BGR3266K","either","4","857","","","","","","","0","0","1","","0.8","0.5","0.5","","","0.8","0.2","","","","","","","","","","","","","","74","J","0","img/none_selected_demo.jpg","true","0","80_20_practice",""
"","bandit","29","102878","0.0-20.0-8.0","26408861","wem/bandit_either_3","A1ZT30BGR3266K","either","4","121","","","","","","","1","0","0","0.8","","0.5","0.5","","","","","","","0.8","0.2","","","","","","","","","","74","J","0","img/none_selected_demo.jpg","true","0","80_20_practice",""
"","bandit","30","104828","0.0-20.0-9.0","26408861","wem/bandit_either_3","A1ZT30BGR3266K","either","4","428","","","","","","","0","1","0","","0.8","0.5","0.5","","","0.8","0.2","","","","","","","","","","","","","","74","J","0","img/none_selected_demo.jpg","true","0","80_20_practice",""
"","bandit","31","106913","0.0-20.0-10.0","26408861","wem/bandit_either_3","A1ZT30BGR3266K","either","4","567","","","","","","","0","0","1","0.8","","0.5","0.5","","","","","","","0.8","0.2","","","","","","","","","","74","J","0","img/none_selected_demo.jpg","true","0","80_20_practice",""
"","bandit","32","108731","0.0-20.0-11.0","26408861","wem/bandit_either_3","A1ZT30BGR3266K","either","4","304","","","","","","","0","0","1","0.8","","0.5","0.5","","","","","","","0.8","0.2","","","","","","","","","","74","J","0","img/none_selected_demo.jpg","true","0","80_20_practice",""
"","bandit","33","110780","0.0-20.0-12.0","26408861","wem/bandit_either_3","A1ZT30BGR3266K","either","4","531","","","","","","","0","1","0","","0.8","0.5","0.5","","","0.8","0.2","","","","","","","","","","","","","","74","J","0","img/none_selected_demo.jpg","true","0","80_20_practice",""
"","bandit","34","112897","0.0-20.0-13.0","26408861","wem/bandit_either_3","A1ZT30BGR3266K","either","4","593","","","","","","","0","0","1","","0.8","0.5","0.5","","","0.8","0.2","","","","","","","","","","","","","","74","J","0","img/none_selected_demo.jpg","true","0","80_20_practice",""
"","bandit","35","114872","0.0-20.0-14.0","26408861","wem/bandit_either_3","A1ZT30BGR3266K","either","4","465","","","","","","","0","1","0","","0.8","0.5","0.5","","","0.8","0.2","","","","","","","","","","","","","","74","J","0","img/none_selected_demo.jpg","true","0","80_20_practice",""
"","bandit","36","116955","0.0-20.0-15.0","26408861","wem/bandit_either_3","A1ZT30BGR3266K","either","4","574","","","","","","","0","1","0","","0.8","0.5","0.5","","","0.8","0.2","","","","","","","","","","","","","","74","J","0","img/none_selected_demo.jpg","true","0","80_20_practice",""
"","bandit","37","118833","0.0-20.0-16.0","26408861","wem/bandit_either_3","A1ZT30BGR3266K","either","4","359","","","","","","","0","0","1","0.8","","0.5","0.5","","","","","","","0.8","0.2","","","","","","","","","","74","J","0","img/none_selected_demo.jpg","true","0","80_20_practice",""
"","bandit","38","121497","0.0-20.0-17.0","26408861","wem/bandit_either_3","A1ZT30BGR3266K","either","4","1148","","","","","","","1","0","0","0.8","","0.5","0.5","","","","","","","0.8","0.2","","","","","","","","","","74","J","0","img/none_selected_demo.jpg","true","0","80_20_practice",""
"","bandit","39","123423","0.0-20.0-18.0","26408861","wem/bandit_either_3","A1ZT30BGR3266K","either","4","418","","","","","","","0","1","0","","0.8","0.5","0.5","","","0.8","0.2","","","","","","","","","","","","","","74","J","0","img/none_selected_demo.jpg","true","0","80_20_practice",""
"","bandit","40","125398","0.0-20.0-19.0","26408861","wem/bandit_either_3","A1ZT30BGR3266K","either","4","457","","","","","","","0","1","0","","0.8","0.5","0.5","","","0.8","0.2","","","","","","","","","","","","","","74","J","0","img/none_selected_demo.jpg","true","0","80_20_practice",""
"","text","41","130023","0.0-21.0","26408861","wem/bandit_either_3","A1ZT30BGR3266K","either","4","4625","","32","","","","","","","","","","","","","","","","","","","","","","","","","","","","","","","","","","","",""
"","bandit","42","133952","0.0-22.0-0.0","26408861","wem/bandit_either_3","A1ZT30BGR3266K","either","4","2414","","","","","","","1","0","0","1","0","","","","","0","1","","","1","0","","","","","","","","","","74","J","0","img/none_selected_demo.jpg","true","0","",""
"","text","43","139842","0.0-23.0","26408861","wem/bandit_either_3","A1ZT30BGR3266K","either","4","5888","","32","","","","","","","","","","","","","","","","","","","","","","","","","","","","","","","","","","","",""
"","text","44","142653","0.0-24.0","26408861","wem/bandit_either_3","A1ZT30BGR3266K","either","4","2811","","32","","","","","","","","","","","","","","","","","","","","","","","","","","","","","","","","","","","",""
"","text","45","145633","0.0-25.0","26408861","wem/bandit_either_3","A1ZT30BGR3266K","either","4","2978","","32","","","","","","","","","","","","","","","","","","","","","","","","","","","","","","","","","","","",""
"","text","46","148232","0.0-26.0","26408861","wem/bandit_either_3","A1ZT30BGR3266K","either","4","2598","","32","","","","","","","","","","","","","","","","","","","","","","","","","","","","","","","","","","","",""
"","text","47","157064","0.0-27.0","26408861","wem/bandit_either_3","A1ZT30BGR3266K","either","4","8831","","32","","","","","","","","","","","","","","","","","","","","","","","","","","","","","","","","","","","",""
"","text","48","160200","0.0-28.0","26408861","wem/bandit_either_3","A1ZT30BGR3266K","either","4","3134","","32","","","","","","","","","","","","","","","","","","","","","","","","","","","","","","","","","","","",""
"","text","49","164110","0.0-29.0","26408861","wem/bandit_either_3","A1ZT30BGR3266K","either","4","3908","","32","","","","","","","","","","","","","","","","","","","","","","","","","","","","","","","","","","","",""
"","text","50","170599","0.0-30.0","26408861","wem/bandit_either_3","A1ZT30BGR3266K","either","4","6487","","32","","","","","","","","","","","","","","","","","","","","","","","","","","","","","","","","","","","",""
"","text","51","173937","0.0-31.0","26408861","wem/bandit_either_3","A1ZT30BGR3266K","either","4","3337","","32","","","","","","","","","","","","","","","","","","","","","","","","","","","","","","","","","","","",""
"","text","52","175445","0.0-32.0","26408861","wem/bandit_either_3","A1ZT30BGR3266K","either","4","1506","","32","","","","","","","","","","","","","","","","","","","","","","","","","","","","","","","","","","","",""
"","text","53","179361","0.0-33.0","26408861","wem/bandit_either_3","A1ZT30BGR3266K","either","4","3915","","32","","","","","","","","","","","","","","","","","","","","","","","","","","","","","","","","","","","",""
"","bandit","54","181672","0.0-34.0-0.0","26408861","wem/bandit_either_3","A1ZT30BGR3266K","either","4","796","","","","","","","0","0","1","","0.8","0.5","0.5","0.5","0.5","0.8","0.2","0.6","0.2","","","","","","","","","","","","72","H","0","img/none_selected.jpg","true","0","full_practice",""
"","bandit","55","183747","0.0-34.0-1.0","26408861","wem/bandit_either_3","A1ZT30BGR3266K","either","4","558","","","","","","","0","0","1","0.2","","0.5","0.5","0.5","0.5","","","","","0.8","0.2","0.6","0.2","","","","","","","","74","J","1","","true","0","full_practice",""
"","bandit","56","185780","0.0-34.0-2.0","26408861","wem/bandit_either_3","A1ZT30BGR3266K","either","4","512","","","","","","","0","0","1","0.6","","0.5","0.5","0.5","0.5","","","","","0.8","0.2","0.6","0.2","","","","","","","","75","K","2","","true","0","full_practice",""
"","bandit","57","187704","0.0-34.0-3.0","26408861","wem/bandit_either_3","A1ZT30BGR3266K","either","4","414","","","","","","","0","0","1","0.2","","0.5","0.5","0.5","0.5","","","","","0.8","0.2","0.6","0.2","","","","","","","","76","L","3","","true","0","full_practice",""
"","bandit","58","190064","0.0-34.0-4.0","26408861","wem/bandit_either_3","A1ZT30BGR3266K","either","4","844","","","","","","","0","0","1","","0.8","0.5","0.5","0.5","0.5","0.8","0.2","0.6","0.2","","","","","","","","","","","","72","H","0","img/none_selected.jpg","true","0","full_practice",""
"","bandit","59","192013","0.0-34.0-5.0","26408861","wem/bandit_either_3","A1ZT30BGR3266K","either","4","440","","","","","","","0","1","0","","0.8","0.5","0.5","0.5","0.5","0.8","0.2","0.6","0.2","","","","","","","","","","","","72","H","0","img/none_selected.jpg","true","0","full_practice",""
"","bandit","60","194187","0.0-34.0-6.0","26408861","wem/bandit_either_3","A1ZT30BGR3266K","either","4","658","","","","","","","0","1","0","","0.8","0.5","0.5","0.5","0.5","0.8","0.2","0.6","0.2","","","","","","","","","","","","72","H","0","img/none_selected.jpg","true","0","full_practice",""
"","bandit","61","196226","0.0-34.0-7.0","26408861","wem/bandit_either_3","A1ZT30BGR3266K","either","4","534","","","","","","","0","1","0","","0.8","0.5","0.5","0.5","0.5","0.8","0.2","0.6","0.2","","","","","","","","","","","","72","H","0","img/none_selected.jpg","true","0","full_practice",""
"","bandit","62","198137","0.0-34.0-8.0","26408861","wem/bandit_either_3","A1ZT30BGR3266K","either","4","395","","","","","","","1","0","0","0.8","","0.5","0.5","0.5","0.5","","","","","0.8","0.2","0.6","0.2","","","","","","","","72","H","0","img/none_selected.jpg","true","0","full_practice",""
"","bandit","63","200054","0.0-34.0-9.0","26408861","wem/bandit_either_3","A1ZT30BGR3266K","either","4","399","","","","","","","1","0","0","0.8","","0.5","0.5","0.5","0.5","","","","","0.8","0.2","0.6","0.2","","","","","","","","72","H","0","img/none_selected.jpg","true","0","full_practice",""
"","bandit","64","202016","0.0-34.0-10.0","26408861","wem/bandit_either_3","A1ZT30BGR3266K","either","4","450","","","","","","","0","1","0","","0.8","0.5","0.5","0.5","0.5","0.8","0.2","0.6","0.2","","","","","","","","","","","","72","H","0","img/none_selected.jpg","true","0","full_practice",""
"","bandit","65","203984","0.0-34.0-11.0","26408861","wem/bandit_either_3","A1ZT30BGR3266K","either","4","443","","","","","","","1","0","0","0.8","","0.5","0.5","0.5","0.5","","","","","0.8","0.2","0.6","0.2","","","","","","","","72","H","0","img/none_selected.jpg","true","0","full_practice",""
"","bandit","66","205797","0.0-34.0-12.0","26408861","wem/bandit_either_3","A1ZT30BGR3266K","either","4","306","","","","","","","0","1","0","","0.8","0.5","0.5","0.5","0.5","0.8","0.2","0.6","0.2","","","","","","","","","","","","72","H","0","img/none_selected.jpg","true","0","full_practice",""
"","bandit","67","207559","0.0-34.0-13.0","26408861","wem/bandit_either_3","A1ZT30BGR3266K","either","4","234","","","","","","","1","0","0","0.8","","0.5","0.5","0.5","0.5","","","","","0.8","0.2","0.6","0.2","","","","","","","","72","H","0","img/none_selected.jpg","true","0","full_practice",""
"","bandit","68","209427","0.0-34.0-14.0","26408861","wem/bandit_either_3","A1ZT30BGR3266K","either","4","340","","","","","","","0","0","1","0.8","","0.5","0.5","0.5","0.5","","","","","0.8","0.2","0.6","0.2","","","","","","","","72","H","0","img/none_selected.jpg","true","0","full_practice",""
"","bandit","69","211359","0.0-34.0-15.0","26408861","wem/bandit_either_3","A1ZT30BGR3266K","either","4","421","","","","","","","0","0","1","0.2","","0.5","0.5","0.5","0.5","","","","","0.8","0.2","0.6","0.2","","","","","","","","74","J","1","","true","0","full_practice",""
"","bandit","70","213249","0.0-34.0-16.0","26408861","wem/bandit_either_3","A1ZT30BGR3266K","either","4","374","","","","","","","1","0","0","0.2","","0.5","0.5","0.5","0.5","","","","","0.8","0.2","0.6","0.2","","","","","","","","74","J","1","","true","0","full_practice",""
"","bandit","71","215108","0.0-34.0-17.0","26408861","wem/bandit_either_3","A1ZT30BGR3266K","either","4","344","","","","","","","1","0","0","0.2","","0.5","0.5","0.5","0.5","","","","","0.8","0.2","0.6","0.2","","","","","","","","74","J","1","","true","0","full_practice",""
"","bandit","72","217008","0.0-34.0-18.0","26408861","wem/bandit_either_3","A1ZT30BGR3266K","either","4","385","","","","","","","0","0","1","0.2","","0.5","0.5","0.5","0.5","","","","","0.8","0.2","0.6","0.2","","","","","","","","74","J","1","","true","0","full_practice",""
"","bandit","73","218943","0.0-34.0-19.0","26408861","wem/bandit_either_3","A1ZT30BGR3266K","either","4","425","","","","","","","0","0","1","","0.2","0.5","0.5","0.5","0.5","0.8","0.2","0.6","0.2","","","","","","","","","","","","74","J","1","","true","0","full_practice",""
"","text","74","222071","0.0-35.0","26408861","wem/bandit_either_3","A1ZT30BGR3266K","either","4","3124","","32","","","","","","","","","","","","","","","","","","","","","","","","","","","","","","","","","","","",""
"","text","75","235622","0.0-36.0","26408861","wem/bandit_either_3","A1ZT30BGR3266K","either","4","12545","","32","","","","","","","","","","","","","","","","","","","","","","","","","","","","","","","","","","","",""
"","text","76","250488","0.0-37.0","26408861","wem/bandit_either_3","A1ZT30BGR3266K","either","4","14863","","32","","","","","","","","","","","","","","","","","","","","","","","","","","","","","","","","","","","",""
"","text","77","256200","0.0-38.0","26408861","wem/bandit_either_3","A1ZT30BGR3266K","either","4","5710","","32","","","","","","","","","","","","","","","","","","","","","","","","","","","","","","","","","","","",""
"","text","78","261978","0.0-39.0","26408861","wem/bandit_either_3","A1ZT30BGR3266K","either","4","5777","","32","","","","","","","","","","","","","","","","","","","","","","","","","","","","","","","","","","","",""
"","text","79","267839","0.0-40.0","26408861","wem/bandit_either_3","A1ZT30BGR3266K","either","4","5859","","32","","","","","","","","","","","","","","","","","","","","","","","","","","","","","","","","","","","",""
"","bandit","80","271169","0.0-41.0-0.0","26408861","wem/bandit_either_3","A1ZT30BGR3266K","either","4","1820","","","","","","","0","1","0","","0.9858900825","0.8","0.2","0.4","0.6","0.9858900825","0.8209843215","0.2887693562","0.7267404998","","","","","","","","","","","","72","H","0","img/none_selected.jpg","","1","main_expt",""
"","bandit","81","273168","0.0-42.0-0.0","26408861","wem/bandit_either_3","A1ZT30BGR3266K","either","4","482","","","","","","","1","0","0","0.9854924354","","0.8","0.2","0.4","0.6","","","","","0.9854924354","0.8179122382","0.2986217167","0.7034907646","","","","","","","","72","H","0","img/none_selected.jpg","","2","main_expt",""
"","bandit","82","275007","0.0-43.0-0.0","26408861","wem/bandit_either_3","A1ZT30BGR3266K","either","4","331","","","","","","","1","0","0","0.9789624529","","0.8","0.2","0.4","0.6","","","","","0.9789624529","0.8301291561","0.261346942","0.6574847675","","","","","","","","72","H","0","img/none_selected.jpg","","3","main_expt",""
"","bandit","83","276888","0.0-44.0-0.0","26408861","wem/bandit_either_3","A1ZT30BGR3266K","either","4","367","","","","","","","0","1","0","","0.9565345184","0.8","0.2","0.4","0.6","0.9565345184","0.8219157537","0.2757740293","0.5092805277","","","","","","","","","","","","72","H","0","img/none_selected.jpg","","4","main_expt",""
"","bandit","84","278908","0.0-45.0-0.0","26408861","wem/bandit_either_3","A1ZT30BGR3266K","either","4","498","","","","","","","1","0","0","0.941194936","","0.8","0.2","0.4","0.6","","","","","0.941194936","0.7759220463","0.3329857669","0.5952926025","","","","","","","","72","H","0","img/none_selected.jpg","","5","main_expt",""
"","bandit","85","280759","0.0-46.0-0.0","26408861","wem/bandit_either_3","A1ZT30BGR3266K","either","4","342","","","","","","","1","0","0","0.9305219143","","0.8","0.2","0.4","0.6","","","","","0.9305219143","0.7495930044","0.331878758","0.6160758637","","","","","","","","72","H","0","img/none_selected.jpg","","6","main_expt",""
"","bandit","86","282595","0.0-47.0-0.0","26408861","wem/bandit_either_3","A1ZT30BGR3266K","either","4","315","","","","","","","0","0","1","0.937738562","","0.8","0.2","0.4","0.6","","","","","0.937738562","0.7078030286","0.3863389794","0.6381806331","","","","","","","","72","H","0","img/none_selected.jpg","","7","main_expt",""
"","bandit","87","284544","0.0-48.0-0.0","26408861","wem/bandit_either_3","A1ZT30BGR3266K","either","4","423","","","","","","","0","1","0","","0.8269671957","0.8","0.2","0.4","0.6","0.8269671957","0.689407674","0.4242016385","0.7047831713","","","","","","","","","","","","72","H","0","img/none_selected.jpg","","8","main_expt",""
"","bandit","88","286457","0.0-49.0-0.0","26408861","wem/bandit_either_3","A1ZT30BGR3266K","either","4","404","","","","","","","0","0","1","0.7696709776","","0.8","0.2","0.4","0.6","","","","","0.7696709776","0.7848236408","0.379169242","0.6222923336","","","","","","","","72","H","0","img/none_selected.jpg","","9","main_expt",""
"","bandit","89","288357","0.0-50.0-0.0","26408861","wem/bandit_either_3","A1ZT30BGR3266K","either","4","381","","","","","","","0","1","0","","0.791363481","0.8","0.2","0.4","0.6","0.7313552403","0.791363481","0.40569916","0.5629201009","","","","","","","","","","","","74","J","1","","","10","main_expt",""
"","bandit","90","290199","0.0-51.0-0.0","26408861","wem/bandit_either_3","A1ZT30BGR3266K","either","4","322","","","","","","","0","0","1","","0.7800632456","0.8","0.2","0.4","0.6","0.8129169819","0.7800632456","0.4188021694","0.644159789","","","","","","","","","","","","74","J","1","","","11","main_expt",""
"","bandit","91","292078","0.0-52.0-0.0","26408861","wem/bandit_either_3","A1ZT30BGR3266K","either","4","359","","","","","","","0","0","1","","0.7559884596","0.8","0.2","0.4","0.6","0.7611571711","0.7559884596","0.3689559917","0.6840372722","","","","","","","","","","","","74","J","1","","","12","main_expt",""
"","bandit","92","293874","0.0-53.0-0.0","26408861","wem/bandit_either_3","A1ZT30BGR3266K","either","4","274","","","","","","","0","0","1","0.4584943612","","0.8","0.2","0.4","0.6","","","","","0.7628417147","0.7695577991","0.4584943612","0.6236151953","","","","","","","","75","K","2","","","13","main_expt",""
"","bandit","93","295688","0.0-54.0-0.0","26408861","wem/bandit_either_3","A1ZT30BGR3266K","either","4","297","","","","","","","0","0","1","0.455083938","","0.8","0.2","0.4","0.6","","","","","0.7436451733","0.8509931145","0.455083938","0.5388331182","","","","","","","","75","K","2","","","14","main_expt",""
"","bandit","94","297470","0.0-55.0-0.0","26408861","wem/bandit_either_3","A1ZT30BGR3266K","either","4","268","","","","","","","0","1","0","","0.5360112786","0.8","0.2","0.4","0.6","0.8256008488","0.7745856811","0.5360112786","0.4802769188","","","","","","","","","","","","75","K","2","","","15","main_expt",""
"","bandit","95","299288","0.0-56.0-0.0","26408861","wem/bandit_either_3","A1ZT30BGR3266K","either","4","301","","","","","","","0","1","0","","0.4791571541","0.8","0.2","0.4","0.6","0.7683027423","0.7576521113","0.4791571541","0.4688000192","","","","","","","","","","","","75","K","2","","","16","main_expt",""
"","bandit","96","301105","0.0-57.0-0.0","26408861","wem/bandit_either_3","A1ZT30BGR3266K","either","4","310","","","","","","","0","0","1","0.5263630166","","0.8","0.2","0.4","0.6","","","","","0.7857675768","0.8099558365","0.5263630166","0.6000602573","","","","","","","","75","K","2","","","17","main_expt",""
"","bandit","97","303045","0.0-58.0-0.0","26408861","wem/bandit_either_3","A1ZT30BGR3266K","either","4","416","","","","","","","1","0","0","0.6046592687","","0.8","0.2","0.4","0.6","","","","","0.7303419725","0.7535280451","0.543945959","0.6046592687","","","","","","","","76","L","3","","","18","main_expt",""
"","bandit","98","304859","0.0-59.0-0.0","26408861","wem/bandit_either_3","A1ZT30BGR3266K","either","4","303","","","","","","","1","0","0","0.6177236116","","0.8","0.2","0.4","0.6","","","","","0.7243255268","0.7206444799","0.4579801682","0.6177236116","","","","","","","","76","L","3","","","19","main_expt",""
"","bandit","99","306692","0.0-60.0-0.0","26408861","wem/bandit_either_3","A1ZT30BGR3266K","either","4","310","","","","","","","0","0","1","0.5484637992","","0.8","0.2","0.4","0.6","","","","","0.7691283854","0.6388551968","0.5439896582","0.5484637992","","","","","","","","76","L","3","","","20","main_expt",""
"","bandit","100","308500","0.0-61.0-0.0","26408861","wem/bandit_either_3","A1ZT30BGR3266K","either","4","297","","","","","","","1","0","0","0.6646151354","","0.8","0.2","0.4","0.6","","","","","0.7068464658","0.4956822649","0.5796019833","0.6646151354","","","","","","","","76","L","3","","","21","main_expt",""
"","bandit","101","310335","0.0-62.0-0.0","26408861","wem/bandit_either_3","A1ZT30BGR3266K","either","4","314","","","","","","","0","0","1","0.7223938077","","0.8","0.2","0.4","0.6","","","","","0.7407239748","0.4316307404","0.5885929095","0.7223938077","","","","","","","","76","L","3","","","22","main_expt",""
"","bandit","102","312048","0.0-63.0-0.0","26408861","wem/bandit_either_3","A1ZT30BGR3266K","either","4","188","","","","","","","0","0","1","","0.7548690184","0.8","0.2","0.4","0.6","0.7300920021","0.4158022912","0.4899642796","0.7548690184","","","","","","","","","","","","76","L","3","","","23","main_expt",""
"","bandit","103","313885","0.0-64.0-0.0","26408861","wem/bandit_either_3","A1ZT30BGR3266K","either","4","317","","","","","","","0","0","1","0.7794954679","","0.8","0.2","0.4","0.6","","","","","0.7074307303","0.4099928258","0.4984159311","0.7794954679","","","","","","","","76","L","3","","","24","main_expt",""
"","bandit","104","315638","0.0-65.0-0.0","26408861","wem/bandit_either_3","A1ZT30BGR3266K","either","4","235","","","","","","","1","0","0","0.6228099684","","0.8","0.2","0.4","0.6","","","","","0.6228099684","0.4303724308","0.5885503773","0.8029664172","","","","","","","","72","H","0","img/none_selected.jpg","","25","main_expt",""
"","bandit","105","317629","0.0-66.0-0.0","26408861","wem/bandit_either_3","A1ZT30BGR3266K","either","4","481","","","","","","","0","0","1","0.5588879168","","0.8","0.2","0.4","0.6","","","","","0.5588879168","0.3291624114","0.6978100054","0.6980766755","","","","","","","","72","H","0","img/none_selected.jpg","","26","main_expt",""
"","bandit","106","319411","0.0-67.0-0.0","26408861","wem/bandit_either_3","A1ZT30BGR3266K","either","4","276","","","","","","","0","0","1","","0.5033257713","0.8","0.2","0.4","0.6","0.5033257713","0.3795789415","0.6442468271","0.7021498626","","","","","","","","","","","","72","H","0","img/none_selected.jpg","","27","main_expt",""
"","bandit","107","321264","0.0-68.0-0.0","26408861","wem/bandit_either_3","A1ZT30BGR3266K","either","4","331","","","","","","","1","0","0","0.4915102133","","0.8","0.2","0.4","0.6","","","","","0.4915102133","0.3208573938","0.7399213538","0.7802436781","","","","","","","","72","H","0","img/none_selected.jpg","","28","main_expt",""
"","bandit","108","323128","0.0-69.0-0.0","26408861","wem/bandit_either_3","A1ZT30BGR3266K","either","4","343","","","","","","","0","1","0","","0.4291187576","0.8","0.2","0.4","0.6","0.4291187576","0.3352919619","0.7520253205","0.6907923131","","","","","","","","","","","","72","H","0","img/none_selected.jpg","","29","main_expt",""
"","bandit","109","324948","0.0-70.0-0.0","26408861","wem/bandit_either_3","A1ZT30BGR3266K","either","4","305","","","","","","","1","0","0","0.5379907803","","0.8","0.2","0.4","0.6","","","","","0.5379907803","0.3452717309","0.7528469829","0.6771306444","","","","","","","","72","H","0","img/none_selected.jpg","","30","main_expt",""
"","bandit","110","326746","0.0-71.0-0.0","26408861","wem/bandit_either_3","A1ZT30BGR3266K","either","4","268","","","","","","","1","0","0","0.646046857","","0.8","0.2","0.4","0.6","","","","","0.646046857","0.2967094522","0.7571908429","0.7130915948","","","","","","","","72","H","0","img/none_selected.jpg","","31","main_expt",""
"","bandit","111","328554","0.0-72.0-0.0","26408861","wem/bandit_either_3","A1ZT30BGR3266K","either","4","293","","","","","","","1","0","0","0.5608885347","","0.8","0.2","0.4","0.6","","","","","0.5608885347","0.255781972","0.7530934884","0.6849190202","","","","","","","","72","H","0","img/none_selected.jpg","","32","main_expt",""
"","bandit","112","330397","0.0-73.0-0.0","26408861","wem/bandit_either_3","A1ZT30BGR3266K","either","4","314","","","","","","","0","1","0","","0.5952322697","0.8","0.2","0.4","0.6","0.5952322697","0.2703771925","0.7163673585","0.7392612035","","","","","","","","","","","","72","H","0","img/none_selected.jpg","","33","main_expt",""
"","bandit","113","332250","0.0-74.0-0.0","26408861","wem/bandit_either_3","A1ZT30BGR3266K","either","4","343","","","","","","","1","0","0","0.6206609301","","0.8","0.2","0.4","0.6","","","","","0.6206609301","0.3572673824","0.6817248107","0.7026009082","","","","","","","","72","H","0","img/none_selected.jpg","","34","main_expt",""
"","bandit","114","334063","0.0-75.0-0.0","26408861","wem/bandit_either_3","A1ZT30BGR3266K","either","4","294","","","","","","","1","0","0","0.6223058769","","0.8","0.2","0.4","0.6","","","","","0.6223058769","0.3237575066","0.6903641832","0.632003728","","","","","","","","72","H","0","img/none_selected.jpg","","35","main_expt",""
"","bandit","115","335915","0.0-76.0-0.0","26408861","wem/bandit_either_3","A1ZT30BGR3266K","either","4","322","","","","","","","1","0","0","0.7304722347","","0.8","0.2","0.4","0.6","","","","","0.7304722347","0.3724209237","0.6953747248","0.7266912659","","","","","","","","72","H","0","img/none_selected.jpg","","36","main_expt",""
"","bandit","116","337739","0.0-77.0-0.0","26408861","wem/bandit_either_3","A1ZT30BGR3266K","either","4","306","","","","","","","1","0","0","0.6789706255","","0.8","0.2","0.4","0.6","","","","","0.6789706255","0.3848591071","0.7552078918","0.5512211225","","","","","","","","72","H","0","img/none_selected.jpg","","37","main_expt",""
"","bandit","117","339540","0.0-78.0-0.0","26408861","wem/bandit_either_3","A1ZT30BGR3266K","either","4","278","","","","","","","0","1","0","","0.6758320082","0.8","0.2","0.4","0.6","0.6758320082","0.4026628424","0.7095976639","0.5888446875","","","","","","","","","","","","72","H","0","img/none_selected.jpg","","38","main_expt",""
"","bandit","118","341488","0.0-79.0-0.0","26408861","wem/bandit_either_3","A1ZT30BGR3266K","either","4","418","","","","","","","0","0","1","0.753286291","","0.8","0.2","0.4","0.6","","","","","0.753286291","0.460229008","0.7813817897","0.7349010221","","","","","","","","72","H","0","img/none_selected.jpg","","39","main_expt",""
"","bandit","119","343418","0.0-80.0-0.0","26408861","wem/bandit_either_3","A1ZT30BGR3266K","either","4","406","","","","","","","0","0","1","0.7527041006","","0.8","0.2","0.4","0.6","","","","","0.7527041006","0.3392787789","0.7604460558","0.6715391024","","","","","","","","72","H","0","img/none_selected.jpg","","40","main_expt",""
"","bandit","120","345132","0.0-81.0-0.0","26408861","wem/bandit_either_3","A1ZT30BGR3266K","either","4","203","","","","","","","1","0","0","0.7900808451","","0.8","0.2","0.4","0.6","","","","","0.7900808451","0.2983701942","0.7588214983","0.688235262","","","","","","","","72","H","0","img/none_selected.jpg","","41","main_expt",""
"","bandit","121","346948","0.0-82.0-0.0","26408861","wem/bandit_either_3","A1ZT30BGR3266K","either","4","287","","","","","","","1","0","0","0.7261157662","","0.8","0.2","0.4","0.6","","","","","0.7261157662","0.2390858253","0.8204813903","0.750516412","","","","","","","","72","H","0","img/none_selected.jpg","","42","main_expt",""
"","bandit","122","348757","0.0-83.0-0.0","26408861","wem/bandit_either_3","A1ZT30BGR3266K","either","4","286","","","","","","","0","1","0","","0.772887471","0.8","0.2","0.4","0.6","0.772887471","0.1877526289","0.8310219988","0.775378891","","","","","","","","","","","","72","H","0","img/none_selected.jpg","","43","main_expt",""
"","bandit","123","350602","0.0-84.0-0.0","26408861","wem/bandit_either_3","A1ZT30BGR3266K","either","4","325","","","","","","","1","0","0","0.7359848823","","0.8","0.2","0.4","0.6","","","","","0.7359848823","0.2713877418","0.8165903167","0.5983035632","","","","","","","","72","H","0","img/none_selected.jpg","","44","main_expt",""
"","bandit","124","352404","0.0-85.0-0.0","26408861","wem/bandit_either_3","A1ZT30BGR3266K","either","4","279","","","","","","","1","0","0","0.6223954065","","0.8","0.2","0.4","0.6","","","","","0.6223954065","0.2600408605","0.6765015189","0.6453890447","","","","","","","","72","H","0","img/none_selected.jpg","","45","main_expt",""
"","bandit","125","354267","0.0-86.0-0.0","26408861","wem/bandit_either_3","A1ZT30BGR3266K","either","4","347","","","","","","","0","0","1","0.5963379238","","0.8","0.2","0.4","0.6","","","","","0.5963379238","0.2435580982","0.6613510417","0.4979639723","","","","","","","","72","H","0","img/none_selected.jpg","","46","main_expt",""
"","bandit","126","356212","0.0-87.0-0.0","26408861","wem/bandit_either_3","A1ZT30BGR3266K","either","4","438","","","","","","","0","0","1","0.3258971046","","0.8","0.2","0.4","0.6","","","","","0.6161308884","0.3258971046","0.7373034573","0.4475739324","","","","","","","","74","J","1","","","47","main_expt",""
"","bandit","127","358049","0.0-88.0-0.0","26408861","wem/bandit_either_3","A1ZT30BGR3266K","either","4","316","","","","","","","0","1","0","","0.2934977076","0.8","0.2","0.4","0.6","0.6354722558","0.2934977076","0.6580913366","0.570942939","","","","","","","","","","","","74","J","1","","","48","main_expt",""
"","bandit","128","359893","0.0-89.0-0.0","26408861","wem/bandit_either_3","A1ZT30BGR3266K","either","4","325","","","","","","","0","0","1","","0.3381222087","0.8","0.2","0.4","0.6","0.5941747261","0.3381222087","0.6518545324","0.5943858444","","","","","","","","","","","","74","J","1","","","49","main_expt",""
"","bandit","129","361778","0.0-90.0-0.0","26408861","wem/bandit_either_3","A1ZT30BGR3266K","either","4","355","","","","","","","0","0","1","","0.4149653651","0.8","0.2","0.4","0.6","0.5510631732","0.4149653651","0.6362385309","0.72156704","","","","","","","","","","","","74","J","1","","","50","main_expt",""
"","bandit","130","363578","0.0-91.0-0.0","26408861","wem/bandit_either_3","A1ZT30BGR3266K","either","4","272","","","","","","","0","1","0","","0.6673370403","0.8","0.2","0.4","0.6","0.5580995271","0.315936401","0.6673370403","0.6453884322","","","","","","","","","","","","75","K","2","","","51","main_expt",""
"","bandit","131","365363","0.0-92.0-0.0","26408861","wem/bandit_either_3","A1ZT30BGR3266K","either","4","276","","","","","","","0","0","1","0.6614759556","","0.8","0.2","0.4","0.6","","","","","0.4492126091","0.34776451","0.6614759556","0.635653338","","","","","","","","75","K","2","","","52","main_expt",""
"","bandit","132","367147","0.0-93.0-0.0","26408861","wem/bandit_either_3","A1ZT30BGR3266K","either","4","275","","","","","","","0","1","0","","0.5099009019","0.8","0.2","0.4","0.6","0.4600129001","0.2946288454","0.5099009019","0.5700640027","","","","","","","","","","","","75","K","2","","","53","main_expt",""
"","bandit","133","368913","0.0-94.0-0.0","26408861","wem/bandit_either_3","A1ZT30BGR3266K","either","4","251","","","","","","","0","0","1","","0.5323874036","0.8","0.2","0.4","0.6","0.4005354829","0.3757560715","0.5323874036","0.4535518587","","","","","","","","","","","","75","K","2","","","54","main_expt",""
"","bandit","134","370696","0.0-95.0-0.0","26408861","wem/bandit_either_3","A1ZT30BGR3266K","either","4","269","","","","","","","1","0","0","0.5410243768","","0.8","0.2","0.4","0.6","","","","","0.3305694417","0.3258455482","0.5410243768","0.4271895083","","","","","","","","75","K","2","","","55","main_expt",""
"","bandit","135","372494","0.0-96.0-0.0","26408861","wem/bandit_either_3","A1ZT30BGR3266K","either","4","291","","","","","","","0","0","1","","0.5594159285","0.8","0.2","0.4","0.6","0.3443449075","0.4350401219","0.5594159285","0.3506641683","","","","","","","","","","","","75","K","2","","","56","main_expt",""
"","bandit","136","374307","0.0-97.0-0.0","26408861","wem/bandit_either_3","A1ZT30BGR3266K","either","4","298","","","","","","","1","0","0","0.5057935102","","0.8","0.2","0.4","0.6","","","","","0.3719720486","0.3707313189","0.5057935102","0.3266461122","","","","","","","","75","K","2","","","57","main_expt",""
"","bandit","137","376138","0.0-98.0-0.0","26408861","wem/bandit_either_3","A1ZT30BGR3266K","either","4","304","","","","","","","0","0","1","0.4921421838","","0.8","0.2","0.4","0.6","","","","","0.2230753252","0.5588799977","0.4921421838","0.3024401834","","","","","","","","75","K","2","","","58","main_expt",""
"","bandit","138","377978","0.0-99.0-0.0","26408861","wem/bandit_either_3","A1ZT30BGR3266K","either","4","322","","","","","","","1","0","0","0.4740341295","","0.8","0.2","0.4","0.6","","","","","0.2255195526","0.6863198467","0.4740341295","0.4306619987","","","","","","","","75","K","2","","","59","main_expt",""
"","bandit","139","379919","0.0-100.0-0.0","26408861","wem/bandit_either_3","A1ZT30BGR3266K","either","4","420","","","","","","","1","0","0","0.4853159436","","0.8","0.2","0.4","0.6","","","","","0.2150487889","0.6998437478","0.4853159436","0.4710521126","","","","","","","","75","K","2","","","60","main_expt",""
"","bandit","140","381767","0.0-101.0-0.0","26408861","wem/bandit_either_3","A1ZT30BGR3266K","either","4","333","","","","","","","1","0","0","0.4843563089","","0.8","0.2","0.4","0.6","","","","","0.2670703017","0.7027468204","0.4843563089","0.4797168847","","","","","","","","75","K","2","","","61","main_expt",""
"","bandit","141","383576","0.0-102.0-0.0","26408861","wem/bandit_either_3","A1ZT30BGR3266K","either","4","300","","","","","","","0","0","1","","0.4970562682","0.8","0.2","0.4","0.6","0.1622034337","0.7461433662","0.4970562682","0.441351191","","","","","","","","","","","","75","K","2","","","62","main_expt",""
"","bandit","142","385462","0.0-103.0-0.0","26408861","wem/bandit_either_3","A1ZT30BGR3266K","either","4","363","","","","","","","0","0","1","","0.4870743105","0.8","0.2","0.4","0.6","0.1872430185","0.7956877632","0.4870743105","0.6405696824","","","","","","","","","","","","75","K","2","","","63","main_expt",""
"","bandit","143","387308","0.0-104.0-0.0","26408861","wem/bandit_either_3","A1ZT30BGR3266K","either","4","328","","","","","","","0","0","1","0.5093225209","","0.8","0.2","0.4","0.6","","","","","0.1921602407","0.7533911137","0.5297884171","0.5093225209","","","","","","","","76","L","3","","","64","main_expt",""
"","bandit","144","389128","0.0-105.0-0.0","26408861","wem/bandit_either_3","A1ZT30BGR3266K","either","4","284","","","","","","","1","0","0","0.5190422554","","0.8","0.2","0.4","0.6","","","","","0.1747679693","0.8407665504","0.5510281753","0.5190422554","","","","","","","","76","L","3","","","65","main_expt",""
"","bandit","145","390910","0.0-106.0-0.0","26408861","wem/bandit_either_3","A1ZT30BGR3266K","either","4","274","","","","","","","1","0","0","0.4367989657","","0.8","0.2","0.4","0.6","","","","","0.149475979","0.8392190168","0.6548378986","0.4367989657","","","","","","","","76","L","3","","","66","main_expt",""
"","bandit","146","392749","0.0-107.0-0.0","26408861","wem/bandit_either_3","A1ZT30BGR3266K","either","4","329","","","","","","","1","0","0","0.4515976155","","0.8","0.2","0.4","0.6","","","","","0.1340316754","0.7998105719","0.7873643744","0.4515976155","","","","","","","","76","L","3","","","67","main_expt",""
"","bandit","147","394598","0.0-108.0-0.0","26408861","wem/bandit_either_3","A1ZT30BGR3266K","either","4","319","","","","","","","0","0","1","0.4605235732","","0.8","0.2","0.4","0.6","","","","","0.1635100664","0.8055175736","0.8374830125","0.4605235732","","","","","","","","76","L","3","","","68","main_expt",""
"","bandit","148","396354","0.0-109.0-0.0","26408861","wem/bandit_either_3","A1ZT30BGR3266K","either","4","245","","","","","","","0","0","1","","0.3799115548","0.8","0.2","0.4","0.6","0.1227365859","0.9157616325","0.7948054761","0.3799115548","","","","","","","","","","","","76","L","3","","","69","main_expt",""
"","bandit","149","398171","0.0-110.0-0.0","26408861","wem/bandit_either_3","A1ZT30BGR3266K","either","4","297","","","","","","","0","0","1","","0.4215965018","0.8","0.2","0.4","0.6","0.1248437045","0.9575411193","0.8257183208","0.4215965018","","","","","","","","","","","","76","L","3","","","70","main_expt",""
"","bandit","150","399924","0.0-111.0-0.0","26408861","wem/bandit_either_3","A1ZT30BGR3266K","either","4","222","","","","","","","0","0","1","0.1153860856","","0.8","0.2","0.4","0.6","","","","","0.1153860856","0.9604429572","0.7378076352","0.4069040491","","","","","","","","72","H","0","img/none_selected.jpg","","71","main_expt",""
"","bandit","151","401655","0.0-112.0-0.0","26408861","wem/bandit_either_3","A1ZT30BGR3266K","either","4","220","","","","","","","0","0","1","0.1355011504","","0.8","0.2","0.4","0.6","","","","","0.1355011504","0.9598545795","0.7402058239","0.4396577013","","","","","","","","72","H","0","img/none_selected.jpg","","72","main_expt",""
"","bandit","152","403600","0.0-113.0-0.0","26408861","wem/bandit_either_3","A1ZT30BGR3266K","either","4","429","","","","","","","0","0","1","0.05996807606","","0.8","0.2","0.4","0.6","","","","","0.05996807606","0.944667289","0.6976791507","0.6562772762","","","","","","","","72","H","0","img/none_selected.jpg","","73","main_expt",""
"","bandit","153","405512","0.0-114.0-0.0","26408861","wem/bandit_either_3","A1ZT30BGR3266K","either","4","395","","","","","","","0","1","0","","0.9226304804","0.8","0.2","0.4","0.6","0.05405538329","0.9226304804","0.7918365236","0.6973429816","","","","","","","","","","","","74","J","1","","","74","main_expt",""
"","bandit","154","407403","0.0-115.0-0.0","26408861","wem/bandit_either_3","A1ZT30BGR3266K","either","4","367","","","","","","","1","0","0","0.9398646798","","0.8","0.2","0.4","0.6","","","","","0.02989929625","0.9398646798","0.7822783488","0.7736122178","","","","","","","","74","J","1","","","75","main_expt",""
"","bandit","155","409199","0.0-116.0-0.0","26408861","wem/bandit_either_3","A1ZT30BGR3266K","either","4","288","","","","","","","1","0","0","0.9344412274","","0.8","0.2","0.4","0.6","","","","","0.0563551135","0.9344412274","0.7290889389","0.8130420724","","","","","","","","74","J","1","","","76","main_expt",""
"","bandit","156","410992","0.0-117.0-0.0","26408861","wem/bandit_either_3","A1ZT30BGR3266K","either","4","277","","","","","","","0","1","0","","0.9512527415","0.8","0.2","0.4","0.6","0.0510075381","0.9512527415","0.7903383215","0.8182773084","","","","","","","","","","","","74","J","1","","","77","main_expt",""
"","bandit","157","412788","0.0-118.0-0.0","26408861","wem/bandit_either_3","A1ZT30BGR3266K","either","4","271","","","","","","","0","1","0","","0.945324638","0.8","0.2","0.4","0.6","0.07280641377","0.945324638","0.8093770606","0.910984946","","","","","","","","","","","","74","J","1","","","78","main_expt",""
"","bandit","158","414581","0.0-119.0-0.0","26408861","wem/bandit_either_3","A1ZT30BGR3266K","either","4","273","","","","","","","0","1","0","","0.9313693401","0.8","0.2","0.4","0.6","0.06591604593","0.9313693401","0.7310189459","0.9303795674","","","","","","","","","","","","74","J","1","","","79","main_expt",""
"","bandit","159","416369","0.0-120.0-0.0","26408861","wem/bandit_either_3","A1ZT30BGR3266K","either","4","276","","","","","","","0","1","0","","0.9272018461","0.8","0.2","0.4","0.6","0.02790121052","0.9272018461","0.7915113188","0.9581515868","","","","","","","","","","","","74","J","1","","","80","main_expt",""
"","bandit","160","418158","0.0-121.0-0.0","26408861","wem/bandit_either_3","A1ZT30BGR3266K","either","4","279","","","","","","","0","1","0","","0.9340165544","0.8","0.2","0.4","0.6","0.03997429631","0.9340165544","0.8463201033","0.9107397581","","","","","","","","","","","","74","J","1","","","81","main_expt",""
"","bandit","161","419955","0.0-122.0-0.0","26408861","wem/bandit_either_3","A1ZT30BGR3266K","either","4","278","","","","","","","0","1","0","","0.9778602254","0.8","0.2","0.4","0.6","0.03692483048","0.9778602254","0.9043915002","0.9531247327","","","","","","","","","","","","74","J","1","","","82","main_expt",""
"","bandit","162","421741","0.0-123.0-0.0","26408861","wem/bandit_either_3","A1ZT30BGR3266K","either","4","259","","","","","","","1","0","0","0.9593015187","","0.8","0.2","0.4","0.6","","","","","0.04167024954","0.9593015187","0.922294541","0.91574064","","","","","","","","74","J","1","","","83","main_expt",""
"","bandit","163","423519","0.0-124.0-0.0","26408861","wem/bandit_either_3","A1ZT30BGR3266K","either","4","253","","","","","","","0","1","0","","0.9398758864","0.8","0.2","0.4","0.6","0.03449326924","0.9398758864","0.9079954767","0.9287460716","","","","","","","","","","","","74","J","1","","","84","main_expt",""
"","bandit","164","425328","0.0-125.0-0.0","26408861","wem/bandit_either_3","A1ZT30BGR3266K","either","4","280","","","","","","","0","1","0","","0.9256746213","0.8","0.2","0.4","0.6","0.07382848834","0.9256746213","0.92293493","0.9817994773","","","","","","","","","","","","74","J","1","","","85","main_expt",""
"","bandit","165","427128","0.0-126.0-0.0","26408861","wem/bandit_either_3","A1ZT30BGR3266K","either","4","283","","","","","","","1","0","0","0.8910640916","","0.8","0.2","0.4","0.6","","","","","0.08839198485","0.8910640916","0.8831043051","0.9651028603","","","","","","","","74","J","1","","","86","main_expt",""
"","bandit","166","428942","0.0-127.0-0.0","26408861","wem/bandit_either_3","A1ZT30BGR3266K","either","4","288","","","","","","","1","0","0","0.8729480744","","0.8","0.2","0.4","0.6","","","","","0.08767612821","0.8729480744","0.876749115","0.9364705545","","","","","","","","74","J","1","","","87","main_expt",""
"","bandit","167","430712","0.0-128.0-0.0","26408861","wem/bandit_either_3","A1ZT30BGR3266K","either","4","253","","","","","","","1","0","0","0.8780151739","","0.8","0.2","0.4","0.6","","","","","0.1606359608","0.8780151739","0.9189432589","0.9235767634","","","","","","","","74","J","1","","","88","main_expt",""
"","bandit","168","432506","0.0-129.0-0.0","26408861","wem/bandit_either_3","A1ZT30BGR3266K","either","4","276","","","","","","","0","1","0","","0.8856980863","0.8","0.2","0.4","0.6","0.2051996915","0.8856980863","0.8770582065","0.9375107972","","","","","","","","","","","","74","J","1","","","89","main_expt",""
"","bandit","169","434403","0.0-130.0-0.0","26408861","wem/bandit_either_3","A1ZT30BGR3266K","either","4","391","","","","","","","0","1","0","","0.8828292745","0.8","0.2","0.4","0.6","0.1757431166","0.8828292745","0.9303780437","0.9201099193","","","","","","","","","","","","74","J","1","","","90","main_expt",""
"","bandit","170","436544","0.0-131.0-0.0","26408861","wem/bandit_either_3","A1ZT30BGR3266K","either","4","614","","","","","","","1","0","0","0.9016480115","","0.8","0.2","0.4","0.6","","","","","0.3470073597","0.9016480115","0.8870296602","0.9416722714","","","","","","","","74","J","1","","","91","main_expt",""
"","bandit","171","438334","0.0-132.0-0.0","26408861","wem/bandit_either_3","A1ZT30BGR3266K","either","4","281","","","","","","","1","0","0","0.9077272713","","0.8","0.2","0.4","0.6","","","","","0.4969118024","0.9077272713","0.8466670433","0.943817784","","","","","","","","74","J","1","","","92","main_expt",""
"","bandit","172","440130","0.0-133.0-0.0","26408861","wem/bandit_either_3","A1ZT30BGR3266K","either","4","266","","","","","","","0","1","0","","0.875936713","0.8","0.2","0.4","0.6","0.5773598144","0.875936713","0.850017275","0.9078517942","","","","","","","","","","","","74","J","1","","","93","main_expt",""
"","bandit","173","441941","0.0-134.0-0.0","26408861","wem/bandit_either_3","A1ZT30BGR3266K","either","4","291","","","","","","","0","0","1","","0.8089346838","0.8","0.2","0.4","0.6","0.5513550223","0.8089346838","0.6893652978","0.8983200186","","","","","","","","","","","","74","J","1","","","94","main_expt",""
"","bandit","174","443773","0.0-135.0-0.0","26408861","wem/bandit_either_3","A1ZT30BGR3266K","either","4","306","","","","","","","0","0","1","","0.7472177953","0.8","0.2","0.4","0.6","0.5461825447","0.7472177953","0.6025630118","0.8744309931","","","","","","","","","","","","74","J","1","","","95","main_expt",""
"","bandit","175","445612","0.0-136.0-0.0","26408861","wem/bandit_either_3","A1ZT30BGR3266K","either","4","308","","","","","","","1","0","0","0.631257407","","0.8","0.2","0.4","0.6","","","","","0.5564841108","0.631257407","0.5565182624","0.8894212924","","","","","","","","74","J","1","","","96","main_expt",""
"","bandit","176","447418","0.0-137.0-0.0","26408861","wem/bandit_either_3","A1ZT30BGR3266K","either","4","286","","","","","","","0","0","1","0.7474787878","","0.8","0.2","0.4","0.6","","","","","0.6513715187","0.7474787878","0.4820287155","0.891162681","","","","","","","","74","J","1","","","97","main_expt",""
"","bandit","177","449311","0.0-138.0-0.0","26408861","wem/bandit_either_3","A1ZT30BGR3266K","either","4","374","","","","","","","0","1","0","","0.7753317291","0.8","0.2","0.4","0.6","0.7004254565","0.7753317291","0.4599621431","0.8495400438","","","","","","","","","","","","74","J","1","","","98","main_expt",""
"","bandit","178","451282","0.0-139.0-0.0","26408861","wem/bandit_either_3","A1ZT30BGR3266K","either","4","447","","","","","","","0","1","0","","0.7088399779","0.8","0.2","0.4","0.6","0.6473310623","0.7088399779","0.4109144258","0.8671572546","","","","","","","","","","","","74","J","1","","","99","main_expt",""
"","bandit","179","453129","0.0-140.0-0.0","26408861","wem/bandit_either_3","A1ZT30BGR3266K","either","4","319","","","","","","","0","1","0","","0.7328055719","0.8","0.2","0.4","0.6","0.6160818326","0.7328055719","0.3466085394","0.8312294914","","","","","","","","","","","","74","J","1","","","100","main_expt",""
"","bandit","180","454921","0.0-141.0-0.0","26408861","wem/bandit_either_3","A1ZT30BGR3266K","either","4","262","","","","","","","0","0","1","","0.8183789849","0.8","0.2","0.4","0.6","0.6963675268","0.8183789849","0.3712289037","0.8135240708","","","","","","","","","","","","74","J","1","","","101","main_expt",""
"","bandit","181","456812","0.0-142.0-0.0","26408861","wem/bandit_either_3","A1ZT30BGR3266K","either","4","367","","","","","","","0","1","0","","0.7854635714","0.8","0.2","0.4","0.6","0.6339579424","0.7854635714","0.3626324234","0.8556055773","","","","","","","","","","","","74","J","1","","","102","main_expt",""
"","bandit","182","458688","0.0-143.0-0.0","26408861","wem/bandit_either_3","A1ZT30BGR3266K","either","4","349","","","","","","","0","1","0","","0.8481411385","0.8","0.2","0.4","0.6","0.6908430899","0.8481411385","0.2748825764","0.7632006143","","","","","","","","","","","","74","J","1","","","103","main_expt",""
"","bandit","183","461069","0.0-144.0-0.0","26408861","wem/bandit_either_3","A1ZT30BGR3266K","either","4","854","","","","","","","0","0","1","0.8129446485","","0.8","0.2","0.4","0.6","","","","","0.6866318891","0.8129446485","0.2381725209","0.8273213265","","","","","","","","74","J","1","","","104","main_expt",""
"","bandit","184","463083","0.0-145.0-0.0","26408861","wem/bandit_either_3","A1ZT30BGR3266K","either","4","508","","","","","","","0","0","1","","0.1939551764","0.8","0.2","0.4","0.6","0.6749941214","0.7898688037","0.1939551764","0.7930501456","","","","","","","","","","","","75","K","2","","","105","main_expt",""
"","bandit","185","464963","0.0-146.0-0.0","26408861","wem/bandit_either_3","A1ZT30BGR3266K","either","4","369","","","","","","","0","0","1","0.1884153881","","0.8","0.2","0.4","0.6","","","","","0.7300347885","0.7810744832","0.1884153881","0.7186603115","","","","","","","","75","K","2","","","106","main_expt",""
"","bandit","186","466789","0.0-147.0-0.0","26408861","wem/bandit_either_3","A1ZT30BGR3266K","either","4","314","","","","","","","0","0","1","0.1011451677","","0.8","0.2","0.4","0.6","","","","","0.8133516847","0.7837395221","0.1011451677","0.7155595947","","","","","","","","75","K","2","","","107","main_expt",""
"","bandit","187","468564","0.0-148.0-0.0","26408861","wem/bandit_either_3","A1ZT30BGR3266K","either","4","251","","","","","","","0","1","0","","0.7654707556","0.8","0.2","0.4","0.6","0.8009432675","0.787971135","0.1500242655","0.7654707556","","","","","","","","","","","","76","L","3","","","108","main_expt",""
"","bandit","188","470397","0.0-149.0-0.0","26408861","wem/bandit_either_3","A1ZT30BGR3266K","either","4","304","","","","","","","1","0","0","0.6288612937","","0.8","0.2","0.4","0.6","","","","","0.7379370491","0.6866525704","0.1285750889","0.6288612937","","","","","","","","76","L","3","","","109","main_expt",""
"","bandit","189","472185","0.0-150.0-0.0","26408861","wem/bandit_either_3","A1ZT30BGR3266K","either","4","279","","","","","","","1","0","0","0.6309058105","","0.8","0.2","0.4","0.6","","","","","0.7379992527","0.5824748378","0.06279291231","0.6309058105","","","","","","","","76","L","3","","","110","main_expt",""
"","bandit","190","474182","0.0-151.0-0.0","26408861","wem/bandit_either_3","A1ZT30BGR3266K","either","4","466","","","","","","","0","1","0","","0.6218965746","0.8","0.2","0.4","0.6","0.7464430213","0.659702805","0.07144278273","0.6218965746","","","","","","","","","","","","76","L","3","","","111","main_expt",""
"","bandit","191","475937","0.0-152.0-0.0","26408861","wem/bandit_either_3","A1ZT30BGR3266K","either","4","236","","","","","","","0","1","0","","0.6741482942","0.8","0.2","0.4","0.6","0.7736339118","0.5111205641","0.06013221683","0.6741482942","","","","","","","","","","","","76","L","3","","","112","main_expt",""
"","bandit","192","477716","0.0-153.0-0.0","26408861","wem/bandit_either_3","A1ZT30BGR3266K","either","4","266","","","","","","","0","1","0","","0.7405202534","0.8","0.2","0.4","0.6","0.8480767854","0.4852392648","0.1442356489","0.7405202534","","","","","","","","","","","","76","L","3","","","113","main_expt",""
"","bandit","193","479463","0.0-154.0-0.0","26408861","wem/bandit_either_3","A1ZT30BGR3266K","either","4","236","","","","","","","0","1","0","","0.743157628","0.8","0.2","0.4","0.6","0.8016933152","0.3531287621","0.1733870882","0.743157628","","","","","","","","","","","","76","L","3","","","114","main_expt",""
"","bandit","194","481199","0.0-155.0-0.0","26408861","wem/bandit_either_3","A1ZT30BGR3266K","either","4","212","","","","","","","1","0","0","0.7732583829","","0.8","0.2","0.4","0.6","","","","","0.8200260584","0.4090792957","0.2198725907","0.7732583829","","","","","","","","76","L","3","","","115","main_expt",""
"","bandit","195","482931","0.0-156.0-0.0","26408861","wem/bandit_either_3","A1ZT30BGR3266K","either","4","213","","","","","","","0","1","0","","0.6224016225","0.8","0.2","0.4","0.6","0.7761954976","0.4927933112","0.2116870815","0.6224016225","","","","","","","","","","","","76","L","3","","","116","main_expt",""
"","bandit","196","484698","0.0-157.0-0.0","26408861","wem/bandit_either_3","A1ZT30BGR3266K","either","4","248","","","","","","","1","0","0","0.6784399158","","0.8","0.2","0.4","0.6","","","","","0.7722233998","0.4255499736","0.1293815938","0.6784399158","","","","","","","","76","L","3","","","117","main_expt",""
"","bandit","197","486433","0.0-158.0-0.0","26408861","wem/bandit_either_3","A1ZT30BGR3266K","either","4","218","","","","","","","1","0","0","0.7499631032","","0.8","0.2","0.4","0.6","","","","","0.8049831996","0.4073726931","0.1442073762","0.7499631032","","","","","","","","76","L","3","","","118","main_expt",""
"","bandit","198","488209","0.0-159.0-0.0","26408861","wem/bandit_either_3","A1ZT30BGR3266K","either","4","268","","","","","","","1","0","0","0.6258432538","","0.8","0.2","0.4","0.6","","","","","0.8469405197","0.5447318884","0.2098334931","0.6258432538","","","","","","","","76","L","3","","","119","main_expt",""
"","bandit","199","489958","0.0-160.0-0.0","26408861","wem/bandit_either_3","A1ZT30BGR3266K","either","4","238","","","","","","","0","0","1","","0.5602994123","0.8","0.2","0.4","0.6","0.783925966","0.5336717705","0.243218138","0.5602994123","","","","","","","","","","","","76","L","3","","","120","main_expt",""
"","bandit","200","491627","0.0-161.0-0.0","26408861","wem/bandit_either_3","A1ZT30BGR3266K","either","4","157","","","","","","","0","1","0","","0.5850644561","0.8","0.2","0.4","0.6","0.8031476983","0.5621279662","0.1595445902","0.5850644561","","","","","","","","","","","","76","L","3","","","121","main_expt",""
"","bandit","201","493408","0.0-162.0-0.0","26408861","wem/bandit_either_3","A1ZT30BGR3266K","either","4","259","","","","","","","0","1","0","","0.6205732407","0.8","0.2","0.4","0.6","0.776878313","0.5664238538","0.1939767007","0.6205732407","","","","","","","","","","","","76","L","3","","","122","main_expt",""
"","bandit","202","495222","0.0-163.0-0.0","26408861","wem/bandit_either_3","A1ZT30BGR3266K","either","4","308","","","","","","","1","0","0","0.7954206102","","0.8","0.2","0.4","0.6","","","","","0.7695343448","0.6501842916","0.2265728871","0.7954206102","","","","","","","","76","L","3","","","123","main_expt",""
"","bandit","203","496995","0.0-164.0-0.0","26408861","wem/bandit_either_3","A1ZT30BGR3266K","either","4","258","","","","","","","0","0","1","","0.881213352","0.8","0.2","0.4","0.6","0.6154230174","0.5413703051","0.2027469411","0.881213352","","","","","","","","","","","","76","L","3","","","124","main_expt",""
"","bandit","204","498738","0.0-165.0-0.0","26408861","wem/bandit_either_3","A1ZT30BGR3266K","either","4","215","","","","","","","0","0","1","0.8598562332","","0.8","0.2","0.4","0.6","","","","","0.4710930195","0.5191338098","0.1506135949","0.8598562332","","","","","","","","76","L","3","","","125","main_expt",""
"","bandit","205","500320","0.0-166.0-0.0","26408861","wem/bandit_either_3","A1ZT30BGR3266K","either","4","75","","","","","","","1","0","0","0.867144728","","0.8","0.2","0.4","0.6","","","","","0.5258886302","0.6232591378","0.1875851228","0.867144728","","","","","","","","76","L","3","","","126","main_expt",""
"","bandit","206","502142","0.0-167.0-0.0","26408861","wem/bandit_either_3","A1ZT30BGR3266K","either","4","297","","","","","","","1","0","0","0.8677917819","","0.8","0.2","0.4","0.6","","","","","0.3996486754","0.601333273","0.2106184636","0.8677917819","","","","","","","","76","L","3","","","127","main_expt",""
"","bandit","207","503962","0.0-168.0-0.0","26408861","wem/bandit_either_3","A1ZT30BGR3266K","either","4","298","","","","","","","0","0","1","","0.8194058857","0.8","0.2","0.4","0.6","0.3557241191","0.6312294041","0.1276240755","0.8194058857","","","","","","","","","","","","76","L","3","","","128","main_expt",""
"","bandit","208","505763","0.0-169.0-0.0","26408861","wem/bandit_either_3","A1ZT30BGR3266K","either","4","285","","","","","","","1","0","0","0.813940224","","0.8","0.2","0.4","0.6","","","","","0.2432070908","0.6655034733","0.2163335705","0.813940224","","","","","","","","76","L","3","","","129","main_expt",""
"","bandit","209","507551","0.0-170.0-0.0","26408861","wem/bandit_either_3","A1ZT30BGR3266K","either","4","274","","","","","","","0","0","1","","0.7296764962","0.8","0.2","0.4","0.6","0.1722843937","0.6882303755","0.2448863899","0.7296764962","","","","","","","","","","","","76","L","3","","","130","main_expt",""
"","bandit","210","509333","0.0-171.0-0.0","26408861","wem/bandit_either_3","A1ZT30BGR3266K","either","4","264","","","","","","","0","0","1","","0.614258276","0.8","0.2","0.4","0.6","0.1336027919","0.6772884453","0.3447645787","0.614258276","","","","","","","","","","","","76","L","3","","","131","main_expt",""
"","bandit","211","511082","0.0-172.0-0.0","26408861","wem/bandit_either_3","A1ZT30BGR3266K","either","4","235","","","","","","","0","1","0","","0.5349540706","0.8","0.2","0.4","0.6","0.1351629047","0.6773684555","0.3622527956","0.5349540706","","","","","","","","","","","","76","L","3","","","132","main_expt",""
"","bandit","212","512943","0.0-173.0-0.0","26408861","wem/bandit_either_3","A1ZT30BGR3266K","either","4","339","","","","","","","0","0","1","0.5449090787","","0.8","0.2","0.4","0.6","","","","","0.2495029","0.7437755928","0.2961885878","0.5449090787","","","","","","","","76","L","3","","","133","main_expt",""
"","bandit","213","515012","0.0-174.0-0.0","26408861","wem/bandit_either_3","A1ZT30BGR3266K","either","4","542","","","","","","","0","0","1","0.2118512663","","0.8","0.2","0.4","0.6","","","","","0.2118512663","0.7423545867","0.2932126781","0.5037108559","","","","","","","","72","H","0","img/none_selected.jpg","","134","main_expt",""
"","bandit","214","516977","0.0-175.0-0.0","26408861","wem/bandit_either_3","A1ZT30BGR3266K","either","4","446","","","","","","","0","0","1","0.2474577379","","0.8","0.2","0.4","0.6","","","","","0.2474577379","0.7462440124","0.2836439675","0.5131336393","","","","","","","","72","H","0","img/none_selected.jpg","","135","main_expt",""
"","bandit","215","518766","0.0-176.0-0.0","26408861","wem/bandit_either_3","A1ZT30BGR3266K","either","4","276","","","","","","","0","0","1","0.1496333288","","0.8","0.2","0.4","0.6","","","","","0.1496333288","0.6372772774","0.1985775905","0.5847952324","","","","","","","","72","H","0","img/none_selected.jpg","","136","main_expt",""
"","bandit","216","520853","0.0-177.0-0.0","26408861","wem/bandit_either_3","A1ZT30BGR3266K","either","4","561","","","","","","","0","0","1","0.164835495","","0.8","0.2","0.4","0.6","","","","","0.164835495","0.6587707878","0.2655975","0.5191620222","","","","","","","","72","H","0","img/none_selected.jpg","","137","main_expt",""
"","bandit","217","523194","0.0-178.0-0.0","26408861","wem/bandit_either_3","A1ZT30BGR3266K","either","4","820","","","","","","","0","0","1","0.1629561883","","0.8","0.2","0.4","0.6","","","","","0.1629561883","0.6545472314","0.4066298912","0.3830682141","","","","","","","","72","H","0","img/none_selected.jpg","","138","main_expt",""
"","bandit","218","525273","0.0-179.0-0.0","26408861","wem/bandit_either_3","A1ZT30BGR3266K","either","4","559","","","","","","","0","0","1","0.1162724323","","0.8","0.2","0.4","0.6","","","","","0.1162724323","0.5773899651","0.4537429859","0.3036015776","","","","","","","","72","H","0","img/none_selected.jpg","","139","main_expt",""
"","bandit","219","526897","0.0-180.0-0.0","26408861","wem/bandit_either_3","A1ZT30BGR3266K","either","4","106","","","","","","","1","0","0","0.5786924042","","0.8","0.2","0.4","0.6","","","","","0.1262651596","0.5786924042","0.410026376","0.2541790234","","","","","","","","74","J","1","","","140","main_expt",""
"","bandit","220","528811","0.0-181.0-0.0","26408861","wem/bandit_either_3","A1ZT30BGR3266K","either","4","396","","","","","","","0","0","1","","0.4589731036","0.8","0.2","0.4","0.6","0.1258799353","0.4589731036","0.3978668086","0.1899663758","","","","","","","","","","","","74","J","1","","","141","main_expt",""
"","bandit","221","530665","0.0-182.0-0.0","26408861","wem/bandit_either_3","A1ZT30BGR3266K","either","4","328","","","","","","","0","0","1","","0.3667804619","0.8","0.2","0.4","0.6","0.1220135665","0.3667804619","0.4096738096","0.214868544","","","","","","","","","","","","74","J","1","","","142","main_expt",""
"","bandit","222","532463","0.0-183.0-0.0","26408861","wem/bandit_either_3","A1ZT30BGR3266K","either","4","275","","","","","","","0","0","1","0.3563831379","","0.8","0.2","0.4","0.6","","","","","0.1600355681","0.3563831379","0.5422751762","0.1549416237","","","","","","","","74","J","1","","","143","main_expt",""
"","bandit","223","534317","0.0-184.0-0.0","26408861","wem/bandit_either_3","A1ZT30BGR3266K","either","4","325","","","","","","","0","0","1","","0.3675361202","0.8","0.2","0.4","0.6","0.103653669","0.3675361202","0.6045197677","0.2142728447","","","","","","","","","","","","74","J","1","","","144","main_expt",""
"","bandit","224","536056","0.0-185.0-0.0","26408861","wem/bandit_either_3","A1ZT30BGR3266K","either","4","216","","","","","","","0","1","0","","0.6140727406","0.8","0.2","0.4","0.6","0.1417267119","0.3266856562","0.6140727406","0.2166472609","","","","","","","","","","","","75","K","2","","","145","main_expt",""
"","bandit","225","537884","0.0-186.0-0.0","26408861","wem/bandit_either_3","A1ZT30BGR3266K","either","4","320","","","","","","","0","0","1","","0.5553742365","0.8","0.2","0.4","0.6","0.1508894681","0.2815179259","0.5553742365","0.2446047688","","","","","","","","","","","","75","K","2","","","146","main_expt",""
"","bandit","226","539694","0.0-187.0-0.0","26408861","wem/bandit_either_3","A1ZT30BGR3266K","either","4","285","","","","","","","0","0","1","0.52787167","","0.8","0.2","0.4","0.6","","","","","0.1207147728","0.3560244833","0.52787167","0.3011136322","","","","","","","","75","K","2","","","147","main_expt",""
"","bandit","227","541487","0.0-188.0-0.0","26408861","wem/bandit_either_3","A1ZT30BGR3266K","either","4","267","","","","","","","0","0","1","","0.5053851794","0.8","0.2","0.4","0.6","0.1362234148","0.3585854149","0.5053851794","0.2519777133","","","","","","","","","","","","75","K","2","","","148","main_expt",""
"","bandit","228","543945","0.0-189.0-0.0","26408861","wem/bandit_either_3","A1ZT30BGR3266K","either","4","936","","","","","","","0","0","1","","0.5431256022","0.8","0.2","0.4","0.6","0.1244444975","0.284478414","0.5431256022","0.2996109941","","","","","","","","","","","","75","K","2","","","149","main_expt",""
"","bandit","229","545881","0.0-190.0-0.0","26408861","wem/bandit_either_3","A1ZT30BGR3266K","either","4","416","","","","","","","0","0","1","0.422574086","","0.8","0.2","0.4","0.6","","","","","0.1109305632","0.2617238314","0.422574086","0.2963563975","","","","","","","","75","K","2","","","150","main_expt",""
"","bandit","230","547629","0.0-191.0-0.0","26408861","wem/bandit_either_3","A1ZT30BGR3266K","either","4","239","","","","","","","0","1","0","","0.4327396174","0.8","0.2","0.4","0.6","0.11412436","0.2709462114","0.3907227364","0.4327396174","","","","","","","","","","","","76","L","3","","","151","main_expt",""
"","bandit","231","549442","0.0-192.0-0.0","26408861","wem/bandit_either_3","A1ZT30BGR3266K","either","4","293","","","","","","","0","0","1","0.4303068123","","0.8","0.2","0.4","0.6","","","","","0.1469045903","0.2993716907","0.5580814469","0.4303068123","","","","","","","","76","L","3","","","152","main_expt",""
"","bandit","232","551227","0.0-193.0-0.0","26408861","wem/bandit_either_3","A1ZT30BGR3266K","either","4","275","","","","","","","1","0","0","0.455197397","","0.8","0.2","0.4","0.6","","","","","0.1633028487","0.2733354782","0.51223936","0.455197397","","","","","","","","76","L","3","","","153","main_expt",""
"","bandit","233","553046","0.0-194.0-0.0","26408861","wem/bandit_either_3","A1ZT30BGR3266K","either","4","288","","","","","","","0","0","1","0.6184454144","","0.8","0.2","0.4","0.6","","","","","0.1340882311","0.3264007987","0.4811601507","0.6184454144","","","","","","","","76","L","3","","","154","main_expt",""
"","bandit","234","554845","0.0-195.0-0.0","26408861","wem/bandit_either_3","A1ZT30BGR3266K","either","4","278","","","","","","","0","1","0","","0.5833601464","0.8","0.2","0.4","0.6","0.1041462846","0.204433578","0.575425417","0.5833601464","","","","","","","","","","","","76","L","3","","","155","main_expt",""
"","bandit","235","556793","0.0-196.0-0.0","26408861","wem/bandit_either_3","A1ZT30BGR3266K","either","4","423","","","","","","","1","0","0","0.646897734","","0.8","0.2","0.4","0.6","","","","","0.08564190031","0.07451572188","0.6109018817","0.646897734","","","","","","","","76","L","3","","","156","main_expt",""
"","bandit","236","558777","0.0-197.0-0.0","26408861","wem/bandit_either_3","A1ZT30BGR3266K","either","4","471","","","","","","","0","1","0","","0.6912470103","0.8","0.2","0.4","0.6","0.06977116317","0.1251686374","0.6812883852","0.6912470103","","","","","","","","","","","","76","L","3","","","157","main_expt",""
"","bandit","237","560752","0.0-198.0-0.0","26408861","wem/bandit_either_3","A1ZT30BGR3266K","either","4","451","","","","","","","0","0","1","0.7865398282","","0.8","0.2","0.4","0.6","","","","","0.1504927074","0.1292052795","0.73777041","0.7865398282","","","","","","","","76","L","3","","","158","main_expt",""
"","bandit","238","562586","0.0-199.0-0.0","26408861","wem/bandit_either_3","A1ZT30BGR3266K","either","4","323","","","","","","","0","1","0","","0.7220910122","0.8","0.2","0.4","0.6","0.1429264201","0.1200050714","0.8388849062","0.7220910122","","","","","","","","","","","","76","L","3","","","159","main_expt",""
"","bandit","239","564454","0.0-200.0-0.0","26408861","wem/bandit_either_3","A1ZT30BGR3266K","either","4","353","","","","","","","0","0","1","0.710563805","","0.8","0.2","0.4","0.6","","","","","0.1832893837","0.1156014834","0.8006667519","0.710563805","","","","","","","","76","L","3","","","160","main_expt",""
"","bandit","240","566263","0.0-201.0-0.0","26408861","wem/bandit_either_3","A1ZT30BGR3266K","either","4","293","","","","","","","0","0","1","0.6205281072","","0.8","0.2","0.4","0.6","","","","","0.2337310763","0.1425751263","0.7406956812","0.6205281072","","","","","","","","76","L","3","","","161","main_expt",""
"","bandit","241","568098","0.0-202.0-0.0","26408861","wem/bandit_either_3","A1ZT30BGR3266K","either","4","305","","","","","","","0","0","1","0.5246840185","","0.8","0.2","0.4","0.6","","","","","0.2326198937","0.2108345254","0.775259894","0.5246840185","","","","","","","","76","L","3","","","162","main_expt",""
"","bandit","242","570283","0.0-203.0-0.0","26408861","wem/bandit_either_3","A1ZT30BGR3266K","either","4","673","","","","","","","0","0","1","","0.1584290897","0.8","0.2","0.4","0.6","0.1584290897","0.1664621688","0.6539471222","0.569340372","","","","","","","","","","","","72","H","0","img/none_selected.jpg","","163","main_expt",""
"","bandit","243","572169","0.0-204.0-0.0","26408861","wem/bandit_either_3","A1ZT30BGR3266K","either","4","366","","","","","","","0","0","1","0.1417900361","","0.8","0.2","0.4","0.6","","","","","0.1417900361","0.1741279052","0.7914062868","0.5688323765","","","","","","","","72","H","0","img/none_selected.jpg","","164","main_expt",""
"","bandit","244","574101","0.0-205.0-0.0","26408861","wem/bandit_either_3","A1ZT30BGR3266K","either","4","413","","","","","","","0","0","1","0.08849486786","","0.8","0.2","0.4","0.6","","","","","0.08849486786","0.1891196979","0.8415061218","0.5195648955","","","","","","","","72","H","0","img/none_selected.jpg","","165","main_expt",""
"","bandit","245","575888","0.0-206.0-0.0","26408861","wem/bandit_either_3","A1ZT30BGR3266K","either","4","273","","","","","","","0","1","0","","0.3016440744","0.8","0.2","0.4","0.6","0.1010416226","0.3016440744","0.9084068317","0.536500984","","","","","","","","","","","","74","J","1","","","166","main_expt",""
"","bandit","246","577778","0.0-207.0-0.0","26408861","wem/bandit_either_3","A1ZT30BGR3266K","either","4","369","","","","","","","0","0","1","0.3427468607","","0.8","0.2","0.4","0.6","","","","","0.1506776516","0.3427468607","0.8857506799","0.4243381616","","","","","","","","74","J","1","","","167","main_expt",""
"","bandit","247","579583","0.0-208.0-0.0","26408861","wem/bandit_either_3","A1ZT30BGR3266K","either","4","294","","","","","","","0","0","1","","0.3759001064","0.8","0.2","0.4","0.6","0.2532220847","0.3759001064","0.9247721234","0.4877327119","","","","","","","","","","","","74","J","1","","","168","main_expt",""
"","bandit","248","581364","0.0-209.0-0.0","26408861","wem/bandit_either_3","A1ZT30BGR3266K","either","4","274","","","","","","","0","1","0","","0.3824832387","0.8","0.2","0.4","0.6","0.2223654062","0.3824832387","0.8870410368","0.5096331713","","","","","","","","","","","","74","J","1","","","169","main_expt",""
"","bandit","249","583168","0.0-210.0-0.0","26408861","wem/bandit_either_3","A1ZT30BGR3266K","either","4","287","","","","","","","0","1","0","","0.3257043992","0.8","0.2","0.4","0.6","0.2161840498","0.3257043992","0.8782412079","0.6111595203","","","","","","","","","","","","74","J","1","","","170","main_expt",""
"","bandit","250","585008","0.0-211.0-0.0","26408861","wem/bandit_either_3","A1ZT30BGR3266K","either","4","333","","","","","","","1","0","0","0.2943589708","","0.8","0.2","0.4","0.6","","","","","0.1996440145","0.2943589708","0.7978982074","0.5888321224","","","","","","","","74","J","1","","","171","main_expt",""
"","bandit","251","586858","0.0-212.0-0.0","26408861","wem/bandit_either_3","A1ZT30BGR3266K","either","4","331","","","","","","","0","1","0","","0.4298537702","0.8","0.2","0.4","0.6","0.275753823","0.4298537702","0.7896885826","0.6295404033","","","","","","","","","","","","74","J","1","","","172","main_expt",""
"","bandit","252","588678","0.0-213.0-0.0","26408861","wem/bandit_either_3","A1ZT30BGR3266K","either","4","298","","","","","","","0","1","0","","0.4196262671","0.8","0.2","0.4","0.6","0.2850946521","0.4196262671","0.7771385218","0.5976712981","","","","","","","","","","","","74","J","1","","","173","main_expt",""
"","bandit","253","590487","0.0-214.0-0.0","26408861","wem/bandit_either_3","A1ZT30BGR3266K","either","4","299","","","","","","","0","1","0","","0.4056978145","0.8","0.2","0.4","0.6","0.2836726952","0.4056978145","0.8412209493","0.5936331925","","","","","","","","","","","","74","J","1","","","174","main_expt",""
"","bandit","254","592302","0.0-215.0-0.0","26408861","wem/bandit_either_3","A1ZT30BGR3266K","either","4","292","","","","","","","0","1","0","","0.3323311207","0.8","0.2","0.4","0.6","0.27413619","0.3323311207","0.8433491626","0.544145328","","","","","","","","","","","","74","J","1","","","175","main_expt",""
"","bandit","255","594184","0.0-216.0-0.0","26408861","wem/bandit_either_3","A1ZT30BGR3266K","either","4","354","","","","","","","0","1","0","","0.3087900888","0.8","0.2","0.4","0.6","0.2369491767","0.3087900888","0.778586436","0.3584947592","","","","","","","","","","","","74","J","1","","","176","main_expt",""
"","bandit","256","595972","0.0-217.0-0.0","26408861","wem/bandit_either_3","A1ZT30BGR3266K","either","4","277","","","","","","","0","0","1","0.3898613412","","0.8","0.2","0.4","0.6","","","","","0.3440943848","0.3898613412","0.7488794252","0.436171931","","","","","","","","74","J","1","","","177","main_expt",""
"","bandit","257","597799","0.0-218.0-0.0","26408861","wem/bandit_either_3","A1ZT30BGR3266K","either","4","318","","","","","","","0","1","0","","0.5236321052","0.8","0.2","0.4","0.6","0.3529135521","0.5236321052","0.7738581751","0.5193680035","","","","","","","","","","","","74","J","1","","","178","main_expt",""
"","bandit","258","599598","0.0-219.0-0.0","26408861","wem/bandit_either_3","A1ZT30BGR3266K","either","4","288","","","","","","","1","0","0","0.2955080601","","0.8","0.2","0.4","0.6","","","","","0.3787243664","0.2955080601","0.7527820287","0.3957798075","","","","","","","","74","J","1","","","179","main_expt",""
"","bandit","259","601510","0.0-220.0-0.0","26408861","wem/bandit_either_3","A1ZT30BGR3266K","either","4","394","","","","","","","0","0","1","","0.3174151272","0.8","0.2","0.4","0.6","0.3092677326","0.3174151272","0.8022950929","0.4249873197","","","","","","","","","","","","74","J","1","","","180","main_expt",""
"","bandit","260","603359","0.0-221.0-0.0","26408861","wem/bandit_either_3","A1ZT30BGR3266K","either","4","322","","","","","","","0","0","1","0.3560995969","","0.8","0.2","0.4","0.6","","","","","0.3701559146","0.3560995969","0.7505347306","0.4260342439","","","","","","","","74","J","1","","","181","main_expt",""
"","bandit","261","605153","0.0-222.0-0.0","26408861","wem/bandit_either_3","A1ZT30BGR3266K","either","4","265","","","","","","","0","1","0","","0.4649908644","0.8","0.2","0.4","0.6","0.2672844749","0.4649908644","0.603349844","0.4305619521","","","","","","","","","","","","74","J","1","","","182","main_expt",""
"","bandit","262","607174","0.0-223.0-0.0","26408861","wem/bandit_either_3","A1ZT30BGR3266K","either","4","496","","","","","","","0","0","1","","0.4588174784","0.8","0.2","0.4","0.6","0.3046315644","0.4588174784","0.6464544124","0.4638513582","","","","","","","","","","","","74","J","1","","","183","main_expt",""
"","bandit","263","609003","0.0-224.0-0.0","26408861","wem/bandit_either_3","A1ZT30BGR3266K","either","4","313","","","","","","","0","1","0","","0.509799977","0.8","0.2","0.4","0.6","0.3507685813","0.509799977","0.6606024443","0.5084330557","","","","","","","","","","","","74","J","1","","","184","main_expt",""
"","bandit","264","610989","0.0-225.0-0.0","26408861","wem/bandit_either_3","A1ZT30BGR3266K","either","4","473","","","","","","","0","0","1","","0.4557178443","0.8","0.2","0.4","0.6","0.3250269766","0.4557178443","0.7034535028","0.5853778332","","","","","","","","","","","","74","J","1","","","185","main_expt",""
"","bandit","265","612824","0.0-226.0-0.0","26408861","wem/bandit_either_3","A1ZT30BGR3266K","either","4","313","","","","","","","0","0","1","","0.3250172706","0.8","0.2","0.4","0.6","0.3636669497","0.3250172706","0.7672503758","0.5009207633","","","","","","","","","","","","74","J","1","","","186","main_expt",""
"","bandit","266","614627","0.0-227.0-0.0","26408861","wem/bandit_either_3","A1ZT30BGR3266K","either","4","290","","","","","","","0","0","1","","0.2982192525","0.8","0.2","0.4","0.6","0.4095027401","0.2982192525","0.7505037824","0.4376492532","","","","","","","","","","","","74","J","1","","","187","main_expt",""
"","bandit","267","616168","0.0-228.0-0.0","26408861","wem/bandit_either_3","A1ZT30BGR3266K","either","4","22","","","","","","","0","0","1","0.7458261356","","0.8","0.2","0.4","0.6","","","","","0.3356624093","0.2647713636","0.7458261356","0.317868257","","","","","","","","75","K","2","","","188","main_expt",""
"","bandit","268","617963","0.0-229.0-0.0","26408861","wem/bandit_either_3","A1ZT30BGR3266K","either","4","272","","","","","","","1","0","0","0.747965221","","0.8","0.2","0.4","0.6","","","","","0.3717951419","0.2798663258","0.747965221","0.3700786551","","","","","","","","75","K","2","","","189","main_expt",""
"","bandit","269","619792","0.0-230.0-0.0","26408861","wem/bandit_either_3","A1ZT30BGR3266K","either","4","305","","","","","","","0","1","0","","0.7459095382","0.8","0.2","0.4","0.6","0.3266606931","0.2146362806","0.7459095382","0.3423477616","","","","","","","","","","","","75","K","2","","","190","main_expt",""
"","bandit","270","621626","0.0-231.0-0.0","26408861","wem/bandit_either_3","A1ZT30BGR3266K","either","4","316","","","","","","","0","0","1","","0.6299055833","0.8","0.2","0.4","0.6","0.4206899072","0.3132783624","0.6299055833","0.2488230813","","","","","","","","","","","","75","K","2","","","191","main_expt",""
"","bandit","271","623426","0.0-232.0-0.0","26408861","wem/bandit_either_3","A1ZT30BGR3266K","either","4","285","","","","","","","0","1","0","","0.688533977","0.8","0.2","0.4","0.6","0.4982817076","0.2488083766","0.688533977","0.2193108308","","","","","","","","","","","","75","K","2","","","192","main_expt",""
"","bandit","272","625339","0.0-233.0-0.0","26408861","wem/bandit_either_3","A1ZT30BGR3266K","either","4","403","","","","","","","0","1","0","","0.7176496952","0.8","0.2","0.4","0.6","0.4820211017","0.225611763","0.7176496952","0.4057276106","","","","","","","","","","","","75","K","2","","","193","main_expt",""
"","bandit","273","627532","0.0-234.0-0.0","26408861","wem/bandit_either_3","A1ZT30BGR3266K","either","4","670","","","","","","","1","0","0","0.746212457","","0.8","0.2","0.4","0.6","","","","","0.5373891537","0.2159393038","0.746212457","0.3826056333","","","","","","","","75","K","2","","","194","main_expt",""
"","bandit","274","629397","0.0-235.0-0.0","26408861","wem/bandit_either_3","A1ZT30BGR3266K","either","4","334","","","","","","","0","0","1","0.6800784202","","0.8","0.2","0.4","0.6","","","","","0.3890275207","0.3112228701","0.6800784202","0.4922935908","","","","","","","","75","K","2","","","195","main_expt",""
"","bandit","275","631182","0.0-236.0-0.0","26408861","wem/bandit_either_3","A1ZT30BGR3266K","either","4","263","","","","","","","0","1","0","","0.5986295964","0.8","0.2","0.4","0.6","0.4329462643","0.3249051539","0.5986295964","0.5475793877","","","","","","","","","","","","75","K","2","","","196","main_expt",""
"","bandit","276","633313","0.0-237.0-0.0","26408861","wem/bandit_either_3","A1ZT30BGR3266K","either","4","599","","","","","","","0","0","1","0.5323622673","","0.8","0.2","0.4","0.6","","","","","0.416825946","0.2985018541","0.5323622673","0.6069385875","","","","","","","","75","K","2","","","197","main_expt",""
"","bandit","277","635178","0.0-238.0-0.0","26408861","wem/bandit_either_3","A1ZT30BGR3266K","either","4","343","","","","","","","0","0","1","0.5348043844","","0.8","0.2","0.4","0.6","","","","","0.4063336836","0.3109366799","0.5348043844","0.4946816555","","","","","","","","75","K","2","","","198","main_expt",""
"","bandit","278","636980","0.0-239.0-0.0","26408861","wem/bandit_either_3","A1ZT30BGR3266K","either","4","279","","","","","","","0","0","1","0.4534403339","","0.8","0.2","0.4","0.6","","","","","0.361264989","0.3143364341","0.4534403339","0.479635203","","","","","","","","75","K","2","","","199","main_expt",""
"","bandit","279","638748","0.0-240.0-0.0","26408861","wem/bandit_either_3","A1ZT30BGR3266K","either","4","232","","","","","","","0","0","1","0.4185876589","","0.8","0.2","0.4","0.6","","","","","0.4700223374","0.3176919365","0.4185876589","0.4969837249","","","","","","","","75","K","2","","","200","main_expt",""
"","bandit","280","640755","0.0-241.0-0.0","26408861","wem/bandit_either_3","A1ZT30BGR3266K","either","4","491","","","","","","","1","0","0","0.4548125401","","0.8","0.2","0.4","0.6","","","","","0.4751543938","0.2848283651","0.3812211227","0.4548125401","","","","","","","","76","L","3","","","201","main_expt",""
"","bandit","281","642510","0.0-242.0-0.0","26408861","wem/bandit_either_3","A1ZT30BGR3266K","either","4","241","","","","","","","1","0","0","0.5767771981","","0.8","0.2","0.4","0.6","","","","","0.4044794657","0.2439676923","0.4414728031","0.5767771981","","","","","","","","76","L","3","","","202","main_expt",""
"","bandit","282","644338","0.0-243.0-0.0","26408861","wem/bandit_either_3","A1ZT30BGR3266K","either","4","305","","","","","","","0","0","1","","0.6118171827","0.8","0.2","0.4","0.6","0.3321077444","0.2582922662","0.3698030662","0.6118171827","","","","","","","","","","","","76","L","3","","","203","main_expt",""
"","bandit","283","646187","0.0-244.0-0.0","26408861","wem/bandit_either_3","A1ZT30BGR3266K","either","4","333","","","","","","","0","0","1","0.5373194108","","0.8","0.2","0.4","0.6","","","","","0.3697340749","0.3799793739","0.4899087748","0.5373194108","","","","","","","","76","L","3","","","204","main_expt",""
"","bandit","284","648070","0.0-245.0-0.0","26408861","wem/bandit_either_3","A1ZT30BGR3266K","either","4","359","","","","","","","0","0","1","0.5501461309","","0.8","0.2","0.4","0.6","","","","","0.3998168993","0.4441528059","0.4310108402","0.5501461309","","","","","","","","76","L","3","","","205","main_expt",""
"","bandit","285","649841","0.0-246.0-0.0","26408861","wem/bandit_either_3","A1ZT30BGR3266K","either","4","250","","","","","","","0","0","1","0.5094027242","","0.8","0.2","0.4","0.6","","","","","0.4929909192","0.4468516792","0.3912115078","0.5094027242","","","","","","","","76","L","3","","","206","main_expt",""
"","bandit","286","651632","0.0-247.0-0.0","26408861","wem/bandit_either_3","A1ZT30BGR3266K","either","4","256","","","","","","","1","0","0","0.4960693894","","0.8","0.2","0.4","0.6","","","","","0.4960693894","0.399366085","0.3195818707","0.6449696869","","","","","","","","72","H","0","img/none_selected.jpg","","207","main_expt",""
"","bandit","287","653527","0.0-248.0-0.0","26408861","wem/bandit_either_3","A1ZT30BGR3266K","either","4","378","","","","","","","1","0","0","0.3912862986","","0.8","0.2","0.4","0.6","","","","","0.3912862986","0.4206610772","0.2378171997","0.549996868","","","","","","","","72","H","0","img/none_selected.jpg","","208","main_expt",""
"","bandit","288","655366","0.0-249.0-0.0","26408861","wem/bandit_either_3","A1ZT30BGR3266K","either","4","326","","","","","","","1","0","0","0.4218938049","","0.8","0.2","0.4","0.6","","","","","0.4218938049","0.5145499259","0.2339104391","0.5258833792","","","","","","","","72","H","0","img/none_selected.jpg","","209","main_expt",""
"","bandit","289","657163","0.0-250.0-0.0","26408861","wem/bandit_either_3","A1ZT30BGR3266K","either","4","274","","","","","","","1","0","0","0.6003160005","","0.8","0.2","0.4","0.6","","","","","0.6003160005","0.3497539355","0.2506558306","0.5453980868","","","","","","","","72","H","0","img/none_selected.jpg","","210","main_expt",""
"","bandit","290","659117","0.0-251.0-0.0","26408861","wem/bandit_either_3","A1ZT30BGR3266K","either","4","434","","","","","","","1","0","0","0.5481562991","","0.8","0.2","0.4","0.6","","","","","0.5481562991","0.3335821388","0.3466578502","0.5370950561","","","","","","","","72","H","0","img/none_selected.jpg","","211","main_expt",""
"","bandit","291","661038","0.0-252.0-0.0","26408861","wem/bandit_either_3","A1ZT30BGR3266K","either","4","405","","","","","","","1","0","0","0.6210595125","","0.8","0.2","0.4","0.6","","","","","0.6210595125","0.2778022227","0.4162959965","0.5774996514","","","","","","","","72","H","0","img/none_selected.jpg","","212","main_expt",""
"","bandit","292","662857","0.0-253.0-0.0","26408861","wem/bandit_either_3","A1ZT30BGR3266K","either","4","291","","","","","","","0","0","1","0.7732161257","","0.8","0.2","0.4","0.6","","","","","0.7732161257","0.2949104287","0.545788555","0.4826056363","","","","","","","","72","H","0","img/none_selected.jpg","","213","main_expt",""
"","bandit","293","664637","0.0-254.0-0.0","26408861","wem/bandit_either_3","A1ZT30BGR3266K","either","4","260","","","","","","","1","0","0","0.7689771773","","0.8","0.2","0.4","0.6","","","","","0.7689771773","0.2443343027","0.6077749924","0.4913277851","","","","","","","","72","H","0","img/none_selected.jpg","","214","main_expt",""
"","bandit","294","666503","0.0-255.0-0.0","26408861","wem/bandit_either_3","A1ZT30BGR3266K","either","4","351","","","","","","","0","1","0","","0.6841712945","0.8","0.2","0.4","0.6","0.6841712945","0.2232989174","0.4883429648","0.5415006571","","","","","","","","","","","","72","H","0","img/none_selected.jpg","","215","main_expt",""
"","bandit","295","668407","0.0-256.0-0.0","26408861","wem/bandit_either_3","A1ZT30BGR3266K","either","4","375","","","","","","","0","0","1","0.7019934296","","0.8","0.2","0.4","0.6","","","","","0.7019934296","0.2918619336","0.3309854328","0.5198015267","","","","","","","","72","H","0","img/none_selected.jpg","","216","main_expt",""
"","bandit","296","670174","0.0-257.0-0.0","26408861","wem/bandit_either_3","A1ZT30BGR3266K","either","4","254","","","","","","","0","1","0","","0.7537099884","0.8","0.2","0.4","0.6","0.7537099884","0.3571058798","0.3310528633","0.545097872","","","","","","","","","","","","72","H","0","img/none_selected.jpg","","217","main_expt",""
"","bandit","297","672078","0.0-258.0-0.0","26408861","wem/bandit_either_3","A1ZT30BGR3266K","either","4","378","","","","","","","0","0","1","","0.8428980993","0.8","0.2","0.4","0.6","0.8428980993","0.3738303097","0.4147218791","0.5776025334","","","","","","","","","","","","72","H","0","img/none_selected.jpg","","218","main_expt",""
"","bandit","298","673907","0.0-259.0-0.0","26408861","wem/bandit_either_3","A1ZT30BGR3266K","either","4","295","","","","","","","0","0","1","","0.8007326434","0.8","0.2","0.4","0.6","0.8007326434","0.4832874948","0.3402104323","0.5616346574","","","","","","","","","","","","72","H","0","img/none_selected.jpg","","219","main_expt",""
"","bandit","299","675773","0.0-260.0-0.0","26408861","wem/bandit_either_3","A1ZT30BGR3266K","either","4","342","","","","","","","1","0","0","0.8518850648","","0.8","0.2","0.4","0.6","","","","","0.8518850648","0.475455537","0.3448871422","0.6261942659","","","","","","","","72","H","0","img/none_selected.jpg","","220","main_expt",""
"","bandit","300","677586","0.0-261.0-0.0","26408861","wem/bandit_either_3","A1ZT30BGR3266K","either","4","297","","","","","","","1","0","0","0.8488451861","","0.8","0.2","0.4","0.6","","","","","0.8488451861","0.3849790123","0.4438284365","0.6533416475","","","","","","","","72","H","0","img/none_selected.jpg","","221","main_expt",""
"","bandit","301","679504","0.0-262.0-0.0","26408861","wem/bandit_either_3","A1ZT30BGR3266K","either","4","409","","","","","","","0","1","0","","0.8202185963","0.8","0.2","0.4","0.6","0.8202185963","0.2708628555","0.3768672835","0.6780524799","","","","","","","","","","","","72","H","0","img/none_selected.jpg","","222","main_expt",""
"","bandit","302","681583","0.0-263.0-0.0","26408861","wem/bandit_either_3","A1ZT30BGR3266K","either","4","560","","","","","","","1","0","0","0.839196386","","0.8","0.2","0.4","0.6","","","","","0.839196386","0.3886191555","0.4599748191","0.638470603","","","","","","","","72","H","0","img/none_selected.jpg","","223","main_expt",""
"","bandit","303","683417","0.0-264.0-0.0","26408861","wem/bandit_either_3","A1ZT30BGR3266K","either","4","324","","","","","","","0","0","1","","0.8340435664","0.8","0.2","0.4","0.6","0.8340435664","0.3352763987","0.5868274652","0.560582988","","","","","","","","","","","","72","H","0","img/none_selected.jpg","","224","main_expt",""
"","bandit","304","685200","0.0-265.0-0.0","26408861","wem/bandit_either_3","A1ZT30BGR3266K","either","4","269","","","","","","","1","0","0","0.8229669419","","0.8","0.2","0.4","0.6","","","","","0.8229669419","0.3948846532","0.510759767","0.5004803289","","","","","","","","72","H","0","img/none_selected.jpg","","225","main_expt",""
"","bandit","305","687123","0.0-266.0-0.0","26408861","wem/bandit_either_3","A1ZT30BGR3266K","either","4","408","","","","","","","1","0","0","0.8326575293","","0.8","0.2","0.4","0.6","","","","","0.8326575293","0.385279681","0.6026028704","0.5109709899","","","","","","","","72","H","0","img/none_selected.jpg","","226","main_expt",""
"","bandit","306","688912","0.0-267.0-0.0","26408861","wem/bandit_either_3","A1ZT30BGR3266K","either","4","256","","","","","","","1","0","0","0.8904476858","","0.8","0.2","0.4","0.6","","","","","0.8904476858","0.3296530349","0.588132951","0.4271661703","","","","","","","","72","H","0","img/none_selected.jpg","","227","main_expt",""
"","bandit","307","690814","0.0-268.0-0.0","26408861","wem/bandit_either_3","A1ZT30BGR3266K","either","4","376","","","","","","","1","0","0","0.8877596604","","0.8","0.2","0.4","0.6","","","","","0.8877596604","0.4227788413","0.5754590721","0.374673526","","","","","","","","72","H","0","img/none_selected.jpg","","228","main_expt",""
"","bandit","308","692628","0.0-269.0-0.0","26408861","wem/bandit_either_3","A1ZT30BGR3266K","either","4","289","","","","","","","1","0","0","0.8647697669","","0.8","0.2","0.4","0.6","","","","","0.8647697669","0.4470353227","0.6311951266","0.393435759","","","","","","","","72","H","0","img/none_selected.jpg","","229","main_expt",""
"","bandit","309","694403","0.0-270.0-0.0","26408861","wem/bandit_either_3","A1ZT30BGR3266K","either","4","242","","","","","","","1","0","0","0.8704214291","","0.8","0.2","0.4","0.6","","","","","0.8704214291","0.2986819632","0.6164228117","0.3299431778","","","","","","","","72","H","0","img/none_selected.jpg","","230","main_expt",""
"","bandit","310","696198","0.0-271.0-0.0","26408861","wem/bandit_either_3","A1ZT30BGR3266K","either","4","269","","","","","","","0","1","0","","0.8598686354","0.8","0.2","0.4","0.6","0.8598686354","0.4508866759","0.5943568022","0.3477061432","","","","","","","","","","","","72","H","0","img/none_selected.jpg","","231","main_expt",""
"","bandit","311","697983","0.0-272.0-0.0","26408861","wem/bandit_either_3","A1ZT30BGR3266K","either","4","264","","","","","","","0","0","1","","0.7939027672","0.8","0.2","0.4","0.6","0.7939027672","0.5125968159","0.6032910051","0.3430234075","","","","","","","","","","","","72","H","0","img/none_selected.jpg","","232","main_expt",""
"","bandit","312","699759","0.0-273.0-0.0","26408861","wem/bandit_either_3","A1ZT30BGR3266K","either","4","262","","","","","","","1","0","0","0.7930400566","","0.8","0.2","0.4","0.6","","","","","0.7930400566","0.6020802482","0.7225660168","0.2812772396","","","","","","","","72","H","0","img/none_selected.jpg","","233","main_expt",""
"","bandit","313","701682","0.0-274.0-0.0","26408861","wem/bandit_either_3","A1ZT30BGR3266K","either","4","395","","","","","","","1","0","0","0.7549101179","","0.8","0.2","0.4","0.6","","","","","0.7549101179","0.5927943616","0.6718439238","0.2049555934","","","","","","","","72","H","0","img/none_selected.jpg","","234","main_expt",""
"","bandit","314","703479","0.0-275.0-0.0","26408861","wem/bandit_either_3","A1ZT30BGR3266K","either","4","268","","","","","","","0","0","1","","0.7654291135","0.8","0.2","0.4","0.6","0.7654291135","0.5814417759","0.6025803433","0.144612338","","","","","","","","","","","","72","H","0","img/none_selected.jpg","","235","main_expt",""
"","bandit","315","705293","0.0-276.0-0.0","26408861","wem/bandit_either_3","A1ZT30BGR3266K","either","4","283","","","","","","","0","0","1","0.6965918162","","0.8","0.2","0.4","0.6","","","","","0.6965918162","0.6530024001","0.6170166349","0.1509581517","","","","","","","","72","H","0","img/none_selected.jpg","","236","main_expt",""
"","bandit","316","707134","0.0-277.0-0.0","26408861","wem/bandit_either_3","A1ZT30BGR3266K","either","4","317","","","","","","","1","0","0","0.8151927982","","0.8","0.2","0.4","0.6","","","","","0.8151927982","0.5861490443","0.6426153702","0.2267465707","","","","","","","","72","H","0","img/none_selected.jpg","","237","main_expt",""
"","bandit","317","709018","0.0-278.0-0.0","26408861","wem/bandit_either_3","A1ZT30BGR3266K","either","4","373","","","","","","","1","0","0","0.7696745118","","0.8","0.2","0.4","0.6","","","","","0.7696745118","0.6086881899","0.5421138037","0.1651127221","","","","","","","","72","H","0","img/none_selected.jpg","","238","main_expt",""
"","bandit","318","710806","0.0-279.0-0.0","26408861","wem/bandit_either_3","A1ZT30BGR3266K","either","4","275","","","","","","","1","0","0","0.7368178416","","0.8","0.2","0.4","0.6","","","","","0.7368178416","0.6323362843","0.5534077834","0.1587945469","","","","","","","","72","H","0","img/none_selected.jpg","","239","main_expt",""
"","bandit","319","712649","0.0-280.0-0.0","26408861","wem/bandit_either_3","A1ZT30BGR3266K","either","4","330","","","","","","","1","0","0","0.6443792527","","0.8","0.2","0.4","0.6","","","","","0.6443792527","0.5620837446","0.7267030345","0.08644000702","","","","","","","","72","H","0","img/none_selected.jpg","","240","main_expt",""
"","bandit","320","714495","0.0-281.0-0.0","26408861","wem/bandit_either_3","A1ZT30BGR3266K","either","4","320","","","","","","","1","0","0","0.6467572307","","0.8","0.2","0.4","0.6","","","","","0.6467572307","0.5571148452","0.7211407476","0.06677296221","","","","","","","","72","H","0","img/none_selected.jpg","","241","main_expt",""
"","bandit","321","716377","0.0-282.0-0.0","26408861","wem/bandit_either_3","A1ZT30BGR3266K","either","4","374","","","","","","","0","0","1","0.6131120494","","0.8","0.2","0.4","0.6","","","","","0.6131120494","0.4016720442","0.6764936995","0.08066643837","","","","","","","","72","H","0","img/none_selected.jpg","","242","main_expt",""
"","bandit","322","718198","0.0-283.0-0.0","26408861","wem/bandit_either_3","A1ZT30BGR3266K","either","4","297","","","","","","","0","1","0","","0.7409975133","0.8","0.2","0.4","0.6","0.7409975133","0.5389796081","0.6677952341","0.08086195374","","","","","","","","","","","","72","H","0","img/none_selected.jpg","","243","main_expt",""
