"consent","trial_type","trial_index","time_elapsed","internal_node_id","subjID","study","MID","cond","drift","rt","responses","key_press","expt_phase","like","value","connected","gems","bombs","no_reward","GemPrChosen","BombPrChosen","GainOverPainPr_0","GainOverPainPr_1","GainOverPainPr_2","GainOverPainPr_3","LosePr_0","LosePr_1","LosePr_2","LosePr_3","WinPr_0","WinPr_1","WinPr_2","WinPr_3","Q0","Q1","Q2","gender","age","ethnicity","target","respCharCode","respKey","respChoiceNum","respChoice","practice","trial_counter","trial_label","button_pressed"
"INL_behavioral_consent_30min_online.html","consent","0","19441","0.0-0.0","26620314","wem/bandit_either_3","A3OE7882P03XR4","either","8","","","","","","","","","","","","","","","","","","","","","","","","","","","","","","","","","","","","","","",""
"","survey-text","1","30392","0.0-1.0","26620314","wem/bandit_either_3","A3OE7882P03XR4","either","8","9922","{""Q0"":""A3OE7882P03XR4""}","","","","","","","","","","","","","","","","","","","","","","","","","","","","","","","","","","","","",""
"","text","2","46467","0.0-2.0","26620314","wem/bandit_either_3","A3OE7882P03XR4","either","8","15060","","32","","","","","","","","","","","","","","","","","","","","","","","","","","","","","","","","","","","",""
"","text","3","55506","0.0-3.0","26620314","wem/bandit_either_3","A3OE7882P03XR4","either","8","9036","","32","","","","","","","","","","","","","","","","","","","","","","","","","","","","","","","","","","","",""
"","text","4","69119","0.0-4.0","26620314","wem/bandit_either_3","A3OE7882P03XR4","either","8","13611","","32","","","","","","","","","","","","","","","","","","","","","","","","","","","","","","","","","","","",""
"","text","5","80356","0.0-5.0","26620314","wem/bandit_either_3","A3OE7882P03XR4","either","8","11233","","32","","","","","","","","","","","","","","","","","","","","","","","","","","","","","","","","","","","",""
"","text","6","91128","0.0-6.0","26620314","wem/bandit_either_3","A3OE7882P03XR4","either","8","10769","","32","","","","","","","","","","","","","","","","","","","","","","","","","","","","","","","","","","","",""
"","text","7","95026","0.0-7.0","26620314","wem/bandit_either_3","A3OE7882P03XR4","either","8","3894","","32","","","","","","","","","","","","","","","","","","","","","","","","","","","","","","","","","","","",""
"","text","8","98664","0.0-8.0","26620314","wem/bandit_either_3","A3OE7882P03XR4","either","8","3636","","32","","","","","","","","","","","","","","","","","","","","","","","","","","","","","","","","","","","",""
"","identification","9","140179","0.0-9.0-0.0","26620314","wem/bandit_either_3","A3OE7882P03XR4","either","8","41480","","","","3","3","0","","","","","","","","","","","","","","","","","","","","","","","","the village of Zur","","","","","","","",""
"","identification","10","148656","0.0-9.0-1.0","26620314","wem/bandit_either_3","A3OE7882P03XR4","either","8","7432","","","","0","0","0","","","","","","","","","","","","","","","","","","","","","","","","the village of Nyx","","","","","","","",""
"","text","11","158714","0.0-10.0","26620314","wem/bandit_either_3","A3OE7882P03XR4","either","8","9042","","32","","","","","","","","","","","","","","","","","","","","","","","","","","","","","","","","","","","",""
"","text","12","162851","0.0-11.0","26620314","wem/bandit_either_3","A3OE7882P03XR4","either","8","4133","","32","","","","","","","","","","","","","","","","","","","","","","","","","","","","","","","","","","","",""
"","text","13","164671","0.0-12.0","26620314","wem/bandit_either_3","A3OE7882P03XR4","either","8","1818","","32","","","","","","","","","","","","","","","","","","","","","","","","","","","","","","","","","","","",""
"","text","14","167998","0.0-13.0","26620314","wem/bandit_either_3","A3OE7882P03XR4","either","8","3324","","32","","","","","","","","","","","","","","","","","","","","","","","","","","","","","","","","","","","",""
"","bandit","15","171369","0.0-14.0-0.0","26620314","wem/bandit_either_3","A3OE7882P03XR4","either","8","1842","","","","","","","0","0","1","0","0","","","","","0","","","","0","","","","","","","","","","","74","J","0","img/none_selected_demo.jpg","true","0","",""
"","bandit","16","174547","0.0-15.0-0.0","26620314","wem/bandit_either_3","A3OE7882P03XR4","either","8","1637","","","","","","","0","0","1","0","0","","","","","0","","","","0","","","","","","","","","","","75","K","0","img/none_selected_demo.jpg","true","0","",""
"","text","17","180373","0.0-16.0","26620314","wem/bandit_either_3","A3OE7882P03XR4","either","8","5822","","32","","","","","","","","","","","","","","","","","","","","","","","","","","","","","","","","","","","",""
"","text","18","186437","0.0-17.0","26620314","wem/bandit_either_3","A3OE7882P03XR4","either","8","6061","","32","","","","","","","","","","","","","","","","","","","","","","","","","","","","","","","","","","","",""
"","text","19","191585","0.0-18.0","26620314","wem/bandit_either_3","A3OE7882P03XR4","either","8","5146","","32","","","","","","","","","","","","","","","","","","","","","","","","","","","","","","","","","","","",""
"","text","20","195338","0.0-19.0","26620314","wem/bandit_either_3","A3OE7882P03XR4","either","8","3750","","32","","","","","","","","","","","","","","","","","","","","","","","","","","","","","","","","","","","",""
"","bandit","21","198171","0.0-20.0-0.0","26620314","wem/bandit_either_3","A3OE7882P03XR4","either","8","1300","","","","","","","0","0","1","0.8","","0.5","0.5","","","","","","","0.8","0.2","","","","","","","","","","74","J","0","img/none_selected_demo.jpg","true","0","80_20_practice",""
"","bandit","22","201623","0.0-20.0-1.0","26620314","wem/bandit_either_3","A3OE7882P03XR4","either","8","1922","","","","","","","0","1","0","","0.8","0.5","0.5","","","0.8","0.2","","","","","","","","","","","","","","74","J","0","img/none_selected_demo.jpg","true","0","80_20_practice",""
"","bandit","23","203997","0.0-20.0-2.0","26620314","wem/bandit_either_3","A3OE7882P03XR4","either","8","836","","","","","","","0","1","0","","0.8","0.5","0.5","","","0.8","0.2","","","","","","","","","","","","","","74","J","0","img/none_selected_demo.jpg","true","0","80_20_practice",""
"","bandit","24","206258","0.0-20.0-3.0","26620314","wem/bandit_either_3","A3OE7882P03XR4","either","8","735","","","","","","","0","0","1","0.2","","0.5","0.5","","","","","","","0.8","0.2","","","","","","","","","","75","K","1","","true","0","80_20_practice",""
"","bandit","25","208158","0.0-20.0-4.0","26620314","wem/bandit_either_3","A3OE7882P03XR4","either","8","358","","","","","","","0","0","1","0.2","","0.5","0.5","","","","","","","0.8","0.2","","","","","","","","","","75","K","1","","true","0","80_20_practice",""
"","bandit","26","210147","0.0-20.0-5.0","26620314","wem/bandit_either_3","A3OE7882P03XR4","either","8","476","","","","","","","0","0","1","","0.2","0.5","0.5","","","0.8","0.2","","","","","","","","","","","","","","75","K","1","","true","0","80_20_practice",""
"","bandit","27","212125","0.0-20.0-6.0","26620314","wem/bandit_either_3","A3OE7882P03XR4","either","8","450","","","","","","","0","0","1","","0.2","0.5","0.5","","","0.8","0.2","","","","","","","","","","","","","","75","K","1","","true","0","80_20_practice",""
"","bandit","28","213997","0.0-20.0-7.0","26620314","wem/bandit_either_3","A3OE7882P03XR4","either","8","356","","","","","","","0","0","1","0.2","","0.5","0.5","","","","","","","0.8","0.2","","","","","","","","","","75","K","1","","true","0","80_20_practice",""
"","bandit","29","216279","0.0-20.0-8.0","26620314","wem/bandit_either_3","A3OE7882P03XR4","either","8","748","","","","","","","0","1","0","","0.8","0.5","0.5","","","0.8","0.2","","","","","","","","","","","","","","74","J","0","img/none_selected_demo.jpg","true","0","80_20_practice",""
"","bandit","30","218202","0.0-20.0-9.0","26620314","wem/bandit_either_3","A3OE7882P03XR4","either","8","402","","","","","","","0","1","0","","0.8","0.5","0.5","","","0.8","0.2","","","","","","","","","","","","","","74","J","0","img/none_selected_demo.jpg","true","0","80_20_practice",""
"","bandit","31","220061","0.0-20.0-10.0","26620314","wem/bandit_either_3","A3OE7882P03XR4","either","8","333","","","","","","","0","0","1","0.8","","0.5","0.5","","","","","","","0.8","0.2","","","","","","","","","","74","J","0","img/none_selected_demo.jpg","true","0","80_20_practice",""
"","bandit","32","221955","0.0-20.0-11.0","26620314","wem/bandit_either_3","A3OE7882P03XR4","either","8","369","","","","","","","0","0","1","","0.8","0.5","0.5","","","0.8","0.2","","","","","","","","","","","","","","74","J","0","img/none_selected_demo.jpg","true","0","80_20_practice",""
"","bandit","33","223931","0.0-20.0-12.0","26620314","wem/bandit_either_3","A3OE7882P03XR4","either","8","452","","","","","","","1","0","0","0.8","","0.5","0.5","","","","","","","0.8","0.2","","","","","","","","","","74","J","0","img/none_selected_demo.jpg","true","0","80_20_practice",""
"","bandit","34","225878","0.0-20.0-13.0","26620314","wem/bandit_either_3","A3OE7882P03XR4","either","8","414","","","","","","","1","0","0","0.8","","0.5","0.5","","","","","","","0.8","0.2","","","","","","","","","","74","J","0","img/none_selected_demo.jpg","true","0","80_20_practice",""
"","bandit","35","227746","0.0-20.0-14.0","26620314","wem/bandit_either_3","A3OE7882P03XR4","either","8","345","","","","","","","0","1","0","","0.8","0.5","0.5","","","0.8","0.2","","","","","","","","","","","","","","74","J","0","img/none_selected_demo.jpg","true","0","80_20_practice",""
"","bandit","36","229775","0.0-20.0-15.0","26620314","wem/bandit_either_3","A3OE7882P03XR4","either","8","501","","","","","","","0","1","0","","0.8","0.5","0.5","","","0.8","0.2","","","","","","","","","","","","","","74","J","0","img/none_selected_demo.jpg","true","0","80_20_practice",""
"","bandit","37","231630","0.0-20.0-16.0","26620314","wem/bandit_either_3","A3OE7882P03XR4","either","8","343","","","","","","","0","0","1","","0.8","0.5","0.5","","","0.8","0.2","","","","","","","","","","","","","","74","J","0","img/none_selected_demo.jpg","true","0","80_20_practice",""
"","bandit","38","233516","0.0-20.0-17.0","26620314","wem/bandit_either_3","A3OE7882P03XR4","either","8","359","","","","","","","0","0","1","","0.2","0.5","0.5","","","0.8","0.2","","","","","","","","","","","","","","75","K","1","","true","0","80_20_practice",""
"","bandit","39","235332","0.0-20.0-18.0","26620314","wem/bandit_either_3","A3OE7882P03XR4","either","8","295","","","","","","","0","0","1","","0.2","0.5","0.5","","","0.8","0.2","","","","","","","","","","","","","","75","K","1","","true","0","80_20_practice",""
"","bandit","40","237159","0.0-20.0-19.0","26620314","wem/bandit_either_3","A3OE7882P03XR4","either","8","300","","","","","","","0","0","1","","0.2","0.5","0.5","","","0.8","0.2","","","","","","","","","","","","","","75","K","1","","true","0","80_20_practice",""
"","text","41","241199","0.0-21.0","26620314","wem/bandit_either_3","A3OE7882P03XR4","either","8","4036","","32","","","","","","","","","","","","","","","","","","","","","","","","","","","","","","","","","","","",""
"","bandit","42","245822","0.0-22.0-0.0","26620314","wem/bandit_either_3","A3OE7882P03XR4","either","8","3094","","","","","","","1","0","0","1","0","","","","","0","1","","","1","0","","","","","","","","","","74","J","0","img/none_selected_demo.jpg","true","0","",""
"","text","43","252387","0.0-23.0","26620314","wem/bandit_either_3","A3OE7882P03XR4","either","8","6563","","32","","","","","","","","","","","","","","","","","","","","","","","","","","","","","","","","","","","",""
"","text","44","256501","0.0-24.0","26620314","wem/bandit_either_3","A3OE7882P03XR4","either","8","4112","","32","","","","","","","","","","","","","","","","","","","","","","","","","","","","","","","","","","","",""
"","text","45","259091","0.0-25.0","26620314","wem/bandit_either_3","A3OE7882P03XR4","either","8","2585","","32","","","","","","","","","","","","","","","","","","","","","","","","","","","","","","","","","","","",""
"","text","46","261642","0.0-26.0","26620314","wem/bandit_either_3","A3OE7882P03XR4","either","8","2546","","32","","","","","","","","","","","","","","","","","","","","","","","","","","","","","","","","","","","",""
"","text","47","267866","0.0-27.0","26620314","wem/bandit_either_3","A3OE7882P03XR4","either","8","6219","","32","","","","","","","","","","","","","","","","","","","","","","","","","","","","","","","","","","","",""
"","text","48","271527","0.0-28.0","26620314","wem/bandit_either_3","A3OE7882P03XR4","either","8","3657","","32","","","","","","","","","","","","","","","","","","","","","","","","","","","","","","","","","","","",""
"","text","49","275710","0.0-29.0","26620314","wem/bandit_either_3","A3OE7882P03XR4","either","8","4179","","32","","","","","","","","","","","","","","","","","","","","","","","","","","","","","","","","","","","",""
"","text","50","278822","0.0-30.0","26620314","wem/bandit_either_3","A3OE7882P03XR4","either","8","3108","","32","","","","","","","","","","","","","","","","","","","","","","","","","","","","","","","","","","","",""
"","text","51","281666","0.0-31.0","26620314","wem/bandit_either_3","A3OE7882P03XR4","either","8","2840","","32","","","","","","","","","","","","","","","","","","","","","","","","","","","","","","","","","","","",""
"","text","52","283225","0.0-32.0","26620314","wem/bandit_either_3","A3OE7882P03XR4","either","8","1558","","32","","","","","","","","","","","","","","","","","","","","","","","","","","","","","","","","","","","",""
"","text","53","286637","0.0-33.0","26620314","wem/bandit_either_3","A3OE7882P03XR4","either","8","3406","","32","","","","","","","","","","","","","","","","","","","","","","","","","","","","","","","","","","","",""
"","bandit","54","288774","0.0-34.0-0.0","26620314","wem/bandit_either_3","A3OE7882P03XR4","either","8","617","","","","","","","1","0","0","0.8","","0.5","0.5","0.5","0.5","","","","","0.8","0.2","0.6","0.2","","","","","","","","72","H","0","img/none_selected.jpg","true","0","full_practice",""
"","bandit","55","290776","0.0-34.0-1.0","26620314","wem/bandit_either_3","A3OE7882P03XR4","either","8","459","","","","","","","0","1","0","","0.8","0.5","0.5","0.5","0.5","0.8","0.2","0.6","0.2","","","","","","","","","","","","72","H","0","img/none_selected.jpg","true","0","full_practice",""
"","bandit","56","292697","0.0-34.0-2.0","26620314","wem/bandit_either_3","A3OE7882P03XR4","either","8","383","","","","","","","0","1","0","","0.8","0.5","0.5","0.5","0.5","0.8","0.2","0.6","0.2","","","","","","","","","","","","72","H","0","img/none_selected.jpg","true","0","full_practice",""
"","bandit","57","294565","0.0-34.0-3.0","26620314","wem/bandit_either_3","A3OE7882P03XR4","either","8","332","","","","","","","0","0","1","0.8","","0.5","0.5","0.5","0.5","","","","","0.8","0.2","0.6","0.2","","","","","","","","72","H","0","img/none_selected.jpg","true","0","full_practice",""
"","bandit","58","296415","0.0-34.0-4.0","26620314","wem/bandit_either_3","A3OE7882P03XR4","either","8","317","","","","","","","0","0","1","0.8","","0.5","0.5","0.5","0.5","","","","","0.8","0.2","0.6","0.2","","","","","","","","72","H","0","img/none_selected.jpg","true","0","full_practice",""
"","bandit","59","298100","0.0-34.0-5.0","26620314","wem/bandit_either_3","A3OE7882P03XR4","either","8","157","","","","","","","0","0","1","","0.8","0.5","0.5","0.5","0.5","0.8","0.2","0.6","0.2","","","","","","","","","","","","72","H","0","img/none_selected.jpg","true","0","full_practice",""
"","bandit","60","300071","0.0-34.0-6.0","26620314","wem/bandit_either_3","A3OE7882P03XR4","either","8","437","","","","","","","0","0","1","","0.2","0.5","0.5","0.5","0.5","0.8","0.2","0.6","0.2","","","","","","","","","","","","76","L","3","","true","0","full_practice",""
"","bandit","61","301906","0.0-34.0-7.0","26620314","wem/bandit_either_3","A3OE7882P03XR4","either","8","305","","","","","","","0","1","0","","0.2","0.5","0.5","0.5","0.5","0.8","0.2","0.6","0.2","","","","","","","","","","","","76","L","3","","true","0","full_practice",""
"","bandit","62","303759","0.0-34.0-8.0","26620314","wem/bandit_either_3","A3OE7882P03XR4","either","8","339","","","","","","","0","0","1","","0.2","0.5","0.5","0.5","0.5","0.8","0.2","0.6","0.2","","","","","","","","","","","","76","L","3","","true","0","full_practice",""
"","bandit","63","305397","0.0-34.0-9.0","26620314","wem/bandit_either_3","A3OE7882P03XR4","either","8","115","","","","","","","0","1","0","","0.2","0.5","0.5","0.5","0.5","0.8","0.2","0.6","0.2","","","","","","","","","","","","76","L","3","","true","0","full_practice",""
"","bandit","64","307180","0.0-34.0-10.0","26620314","wem/bandit_either_3","A3OE7882P03XR4","either","8","244","","","","","","","0","0","1","","0.2","0.5","0.5","0.5","0.5","0.8","0.2","0.6","0.2","","","","","","","","","","","","76","L","3","","true","0","full_practice",""
"","bandit","65","308845","0.0-34.0-11.0","26620314","wem/bandit_either_3","A3OE7882P03XR4","either","8","139","","","","","","","0","0","1","","0.2","0.5","0.5","0.5","0.5","0.8","0.2","0.6","0.2","","","","","","","","","","","","76","L","3","","true","0","full_practice",""
"","bandit","66","310509","0.0-34.0-12.0","26620314","wem/bandit_either_3","A3OE7882P03XR4","either","8","136","","","","","","","0","0","1","","0.6","0.5","0.5","0.5","0.5","0.8","0.2","0.6","0.2","","","","","","","","","","","","75","K","2","","true","0","full_practice",""
"","bandit","67","312231","0.0-34.0-13.0","26620314","wem/bandit_either_3","A3OE7882P03XR4","either","8","193","","","","","","","0","1","0","","0.6","0.5","0.5","0.5","0.5","0.8","0.2","0.6","0.2","","","","","","","","","","","","75","K","2","","true","0","full_practice",""
"","bandit","68","313949","0.0-34.0-14.0","26620314","wem/bandit_either_3","A3OE7882P03XR4","either","8","205","","","","","","","0","1","0","","0.6","0.5","0.5","0.5","0.5","0.8","0.2","0.6","0.2","","","","","","","","","","","","75","K","2","","true","0","full_practice",""
"","bandit","69","315573","0.0-34.0-15.0","26620314","wem/bandit_either_3","A3OE7882P03XR4","either","8","81","","","","","","","0","0","1","0.6","","0.5","0.5","0.5","0.5","","","","","0.8","0.2","0.6","0.2","","","","","","","","75","K","2","","true","0","full_practice",""
"","bandit","70","317191","0.0-34.0-16.0","26620314","wem/bandit_either_3","A3OE7882P03XR4","either","8","71","","","","","","","0","1","0","","0.6","0.5","0.5","0.5","0.5","0.8","0.2","0.6","0.2","","","","","","","","","","","","75","K","2","","true","0","full_practice",""
"","bandit","71","318910","0.0-34.0-17.0","26620314","wem/bandit_either_3","A3OE7882P03XR4","either","8","207","","","","","","","0","0","1","","0.6","0.5","0.5","0.5","0.5","0.8","0.2","0.6","0.2","","","","","","","","","","","","75","K","2","","true","0","full_practice",""
"","bandit","72","320475","0.0-34.0-18.0","26620314","wem/bandit_either_3","A3OE7882P03XR4","either","8","36","","","","","","","0","1","0","","0.6","0.5","0.5","0.5","0.5","0.8","0.2","0.6","0.2","","","","","","","","","","","","75","K","2","","true","0","full_practice",""
"","bandit","73","322264","0.0-34.0-19.0","26620314","wem/bandit_either_3","A3OE7882P03XR4","either","8","263","","","","","","","1","0","0","0.2","","0.5","0.5","0.5","0.5","","","","","0.8","0.2","0.6","0.2","","","","","","","","74","J","1","","true","0","full_practice",""
"","text","74","324900","0.0-35.0","26620314","wem/bandit_either_3","A3OE7882P03XR4","either","8","2622","","32","","","","","","","","","","","","","","","","","","","","","","","","","","","","","","","","","","","",""
"","text","75","335418","0.0-36.0","26620314","wem/bandit_either_3","A3OE7882P03XR4","either","8","9498","","32","","","","","","","","","","","","","","","","","","","","","","","","","","","","","","","","","","","",""
"","text","76","343890","0.0-37.0","26620314","wem/bandit_either_3","A3OE7882P03XR4","either","8","8470","","32","","","","","","","","","","","","","","","","","","","","","","","","","","","","","","","","","","","",""
"","text","77","347796","0.0-38.0","26620314","wem/bandit_either_3","A3OE7882P03XR4","either","8","3902","","32","","","","","","","","","","","","","","","","","","","","","","","","","","","","","","","","","","","",""
"","text","78","351001","0.0-39.0","26620314","wem/bandit_either_3","A3OE7882P03XR4","either","8","3200","","32","","","","","","","","","","","","","","","","","","","","","","","","","","","","","","","","","","","",""
"","text","79","354687","0.0-40.0","26620314","wem/bandit_either_3","A3OE7882P03XR4","either","8","3679","","32","","","","","","","","","","","","","","","","","","","","","","","","","","","","","","","","","","","",""
"","bandit","80","357232","0.0-41.0-0.0","26620314","wem/bandit_either_3","A3OE7882P03XR4","either","8","1011","","","","","","","1","0","0","0.4468950172","","0.2","0.8","0.4","0.6","","","","","0.2428949588","0.4468950172","0.6337563202","0.3040937467","","","","","","","","74","J","1","","","1","main_expt",""
"","bandit","81","359196","0.0-42.0-0.0","26620314","wem/bandit_either_3","A3OE7882P03XR4","either","8","431","","","","","","","0","0","1","","0.3846124694","0.2","0.8","0.4","0.6","0.248961424","0.3846124694","0.7380673114","0.2687625136","","","","","","","","","","","","74","J","1","","","2","main_expt",""
"","bandit","82","361066","0.0-43.0-0.0","26620314","wem/bandit_either_3","A3OE7882P03XR4","either","8","332","","","","","","","0","0","1","0.3885967974","","0.2","0.8","0.4","0.6","","","","","0.1878604038","0.3885967974","0.7715549737","0.3017919557","","","","","","","","74","J","1","","","3","main_expt",""
"","bandit","83","362877","0.0-44.0-0.0","26620314","wem/bandit_either_3","A3OE7882P03XR4","either","8","290","","","","","","","0","0","1","0.2891644394","","0.2","0.8","0.4","0.6","","","","","0.1194049449","0.2891644394","0.8257013646","0.3388517529","","","","","","","","74","J","1","","","4","main_expt",""
"","bandit","84","364657","0.0-45.0-0.0","26620314","wem/bandit_either_3","A3OE7882P03XR4","either","8","260","","","","","","","0","0","1","0.2654579937","","0.2","0.8","0.4","0.6","","","","","0.197046458","0.2654579937","0.8617886559","0.389096829","","","","","","","","74","J","1","","","5","main_expt",""
"","bandit","85","366479","0.0-46.0-0.0","26620314","wem/bandit_either_3","A3OE7882P03XR4","either","8","286","","","","","","","1","0","0","0.355160999","","0.2","0.8","0.4","0.6","","","","","0.2312720201","0.355160999","0.8452125903","0.4799636182","","","","","","","","74","J","1","","","6","main_expt",""
"","bandit","86","368286","0.0-47.0-0.0","26620314","wem/bandit_either_3","A3OE7882P03XR4","either","8","280","","","","","","","0","0","1","0.4733904832","","0.2","0.8","0.4","0.6","","","","","0.3255591742","0.4733904832","0.8765288384","0.5316557606","","","","","","","","74","J","1","","","7","main_expt",""
"","bandit","87","369961","0.0-48.0-0.0","26620314","wem/bandit_either_3","A3OE7882P03XR4","either","8","143","","","","","","","0","0","1","0.4900136729","","0.2","0.8","0.4","0.6","","","","","0.163151729","0.4900136729","0.8625068071","0.4935712437","","","","","","","","74","J","1","","","8","main_expt",""
"","bandit","88","371861","0.0-49.0-0.0","26620314","wem/bandit_either_3","A3OE7882P03XR4","either","8","373","","","","","","","0","1","0","","0.8385781597","0.2","0.8","0.4","0.6","0.1671639775","0.4543552171","0.8385781597","0.5400450001","","","","","","","","","","","","75","K","2","","","9","main_expt",""
"","bandit","89","373672","0.0-50.0-0.0","26620314","wem/bandit_either_3","A3OE7882P03XR4","either","8","294","","","","","","","1","0","0","0.833356221","","0.2","0.8","0.4","0.6","","","","","0.1315225434","0.4523920981","0.833356221","0.6510952772","","","","","","","","75","K","2","","","10","main_expt",""
"","bandit","90","375479","0.0-51.0-0.0","26620314","wem/bandit_either_3","A3OE7882P03XR4","either","8","273","","","","","","","1","0","0","0.9030756702","","0.2","0.8","0.4","0.6","","","","","0.1287002637","0.4053083118","0.9030756702","0.6117649901","","","","","","","","75","K","2","","","11","main_expt",""
"","bandit","91","377221","0.0-52.0-0.0","26620314","wem/bandit_either_3","A3OE7882P03XR4","either","8","218","","","","","","","1","0","0","0.9129290363","","0.2","0.8","0.4","0.6","","","","","0.1026596936","0.4059907931","0.9129290363","0.6360746298","","","","","","","","75","K","2","","","12","main_expt",""
"","bandit","92","378976","0.0-53.0-0.0","26620314","wem/bandit_either_3","A3OE7882P03XR4","either","8","232","","","","","","","0","1","0","","0.8638417716","0.2","0.8","0.4","0.6","0.1287514256","0.2934167972","0.8638417716","0.5673960652","","","","","","","","","","","","75","K","2","","","13","main_expt",""
"","bandit","93","380752","0.0-54.0-0.0","26620314","wem/bandit_either_3","A3OE7882P03XR4","either","8","237","","","","","","","1","0","0","0.787806988","","0.2","0.8","0.4","0.6","","","","","0.1786171179","0.3260927596","0.787806988","0.6747725803","","","","","","","","75","K","2","","","14","main_expt",""
"","bandit","94","382471","0.0-55.0-0.0","26620314","wem/bandit_either_3","A3OE7882P03XR4","either","8","197","","","","","","","1","0","0","0.7254212376","","0.2","0.8","0.4","0.6","","","","","0.1459410532","0.3355382734","0.7254212376","0.6277188345","","","","","","","","75","K","2","","","15","main_expt",""
"","bandit","95","384231","0.0-56.0-0.0","26620314","wem/bandit_either_3","A3OE7882P03XR4","either","8","233","","","","","","","0","1","0","","0.7238415528","0.2","0.8","0.4","0.6","0.2255600906","0.3040928121","0.7238415528","0.5435568235","","","","","","","","","","","","75","K","2","","","16","main_expt",""
"","bandit","96","385875","0.0-57.0-0.0","26620314","wem/bandit_either_3","A3OE7882P03XR4","either","8","104","","","","","","","0","1","0","","0.7796243455","0.2","0.8","0.4","0.6","0.2052013943","0.2730366263","0.7796243455","0.4180161478","","","","","","","","","","","","75","K","2","","","17","main_expt",""
"","bandit","97","387923","0.0-58.0-0.0","26620314","wem/bandit_either_3","A3OE7882P03XR4","either","8","531","","","","","","","1","0","0","0.6928902724","","0.2","0.8","0.4","0.6","","","","","0.1780354615","0.4105298721","0.6928902724","0.4961111773","","","","","","","","75","K","2","","","18","main_expt",""
"","bandit","98","389757","0.0-59.0-0.0","26620314","wem/bandit_either_3","A3OE7882P03XR4","either","8","311","","","","","","","1","0","0","0.7658630901","","0.2","0.8","0.4","0.6","","","","","0.1576496117","0.3586923344","0.7658630901","0.445530788","","","","","","","","75","K","2","","","19","main_expt",""
"","bandit","99","391626","0.0-60.0-0.0","26620314","wem/bandit_either_3","A3OE7882P03XR4","either","8","329","","","","","","","0","1","0","","0.7584200513","0.2","0.8","0.4","0.6","0.1618752313","0.3220075653","0.7584200513","0.3443163705","","","","","","","","","","","","75","K","2","","","20","main_expt",""
"","bandit","100","393322","0.0-61.0-0.0","26620314","wem/bandit_either_3","A3OE7882P03XR4","either","8","153","","","","","","","0","1","0","","0.7727038765","0.2","0.8","0.4","0.6","0.2152187387","0.2729660799","0.7727038765","0.3012808647","","","","","","","","","","","","75","K","2","","","21","main_expt",""
"","bandit","101","395179","0.0-62.0-0.0","26620314","wem/bandit_either_3","A3OE7882P03XR4","either","8","326","","","","","","","1","0","0","0.8152565923","","0.2","0.8","0.4","0.6","","","","","0.3547982299","0.2712352107","0.8152565923","0.2882062485","","","","","","","","75","K","2","","","22","main_expt",""
"","bandit","102","397055","0.0-63.0-0.0","26620314","wem/bandit_either_3","A3OE7882P03XR4","either","8","345","","","","","","","0","0","1","","0.7537075358","0.2","0.8","0.4","0.6","0.323805638","0.3390855774","0.7537075358","0.2113421372","","","","","","","","","","","","75","K","2","","","23","main_expt",""
"","bandit","103","398939","0.0-64.0-0.0","26620314","wem/bandit_either_3","A3OE7882P03XR4","either","8","353","","","","","","","0","1","0","","0.7108822858","0.2","0.8","0.4","0.6","0.3588909826","0.3483259141","0.7108822858","0.2201805416","","","","","","","","","","","","75","K","2","","","24","main_expt",""
"","bandit","104","400778","0.0-65.0-0.0","26620314","wem/bandit_either_3","A3OE7882P03XR4","either","8","301","","","","","","","0","1","0","","0.6930515954","0.2","0.8","0.4","0.6","0.3885553436","0.3416976173","0.6930515954","0.2580956466","","","","","","","","","","","","75","K","2","","","25","main_expt",""
"","bandit","105","402504","0.0-66.0-0.0","26620314","wem/bandit_either_3","A3OE7882P03XR4","either","8","197","","","","","","","0","1","0","","0.6905393417","0.2","0.8","0.4","0.6","0.4871556374","0.4243476322","0.6905393417","0.2153432854","","","","","","","","","","","","75","K","2","","","26","main_expt",""
"","bandit","106","404364","0.0-67.0-0.0","26620314","wem/bandit_either_3","A3OE7882P03XR4","either","8","338","","","","","","","0","0","1","","0.7531652131","0.2","0.8","0.4","0.6","0.4934119911","0.5257754898","0.7531652131","0.1727955236","","","","","","","","","","","","75","K","2","","","27","main_expt",""
"","bandit","107","406196","0.0-68.0-0.0","26620314","wem/bandit_either_3","A3OE7882P03XR4","either","8","305","","","","","","","0","1","0","","0.1894296703","0.2","0.8","0.4","0.6","0.4322092846","0.5246232361","0.8001777041","0.1894296703","","","","","","","","","","","","76","L","3","","","28","main_expt",""
"","bandit","108","408041","0.0-69.0-0.0","26620314","wem/bandit_either_3","A3OE7882P03XR4","either","8","329","","","","","","","0","0","1","0.2128919211","","0.2","0.8","0.4","0.6","","","","","0.3459113699","0.375994784","0.8118404327","0.2128919211","","","","","","","","76","L","3","","","29","main_expt",""
"","bandit","109","409911","0.0-70.0-0.0","26620314","wem/bandit_either_3","A3OE7882P03XR4","either","8","335","","","","","","","0","0","1","","0.206056468","0.2","0.8","0.4","0.6","0.280789843","0.2936890161","0.7839534503","0.206056468","","","","","","","","","","","","76","L","3","","","30","main_expt",""
"","bandit","110","411825","0.0-71.0-0.0","26620314","wem/bandit_either_3","A3OE7882P03XR4","either","8","383","","","","","","","0","0","1","0.2878812258","","0.2","0.8","0.4","0.6","","","","","0.2613810438","0.2878812258","0.8066372971","0.1725623241","","","","","","","","74","J","1","","","31","main_expt",""
"","bandit","111","413682","0.0-72.0-0.0","26620314","wem/bandit_either_3","A3OE7882P03XR4","either","8","322","","","","","","","0","0","1","0.2451492808","","0.2","0.8","0.4","0.6","","","","","0.3821585683","0.2451492808","0.8049259064","0.1629883914","","","","","","","","74","J","1","","","32","main_expt",""
"","bandit","112","415541","0.0-73.0-0.0","26620314","wem/bandit_either_3","A3OE7882P03XR4","either","8","330","","","","","","","0","1","0","","0.2714925976","0.2","0.8","0.4","0.6","0.2714925976","0.2802113289","0.7891664673","0.2107911223","","","","","","","","","","","","72","H","0","img/none_selected.jpg","","33","main_expt",""
"","bandit","113","417328","0.0-74.0-0.0","26620314","wem/bandit_either_3","A3OE7882P03XR4","either","8","254","","","","","","","0","0","1","","0.2755575364","0.2","0.8","0.4","0.6","0.2755575364","0.2892342718","0.7854278051","0.1025901997","","","","","","","","","","","","72","H","0","img/none_selected.jpg","","34","main_expt",""
"","bandit","114","419014","0.0-75.0-0.0","26620314","wem/bandit_either_3","A3OE7882P03XR4","either","8","142","","","","","","","0","0","1","","0.2697856654","0.2","0.8","0.4","0.6","0.2697856654","0.2486893666","0.7260182018","0.1289879153","","","","","","","","","","","","72","H","0","img/none_selected.jpg","","35","main_expt",""
"","bandit","115","420853","0.0-76.0-0.0","26620314","wem/bandit_either_3","A3OE7882P03XR4","either","8","298","","","","","","","0","0","1","0.2483646443","","0.2","0.8","0.4","0.6","","","","","0.2483646443","0.3536408983","0.7910957192","0.1645491317","","","","","","","","72","H","0","img/none_selected.jpg","","36","main_expt",""
"","bandit","116","422735","0.0-77.0-0.0","26620314","wem/bandit_either_3","A3OE7882P03XR4","either","8","342","","","","","","","0","0","1","","0.2103950957","0.2","0.8","0.4","0.6","0.2103950957","0.2493566902","0.7996551039","0.1698046746","","","","","","","","","","","","72","H","0","img/none_selected.jpg","","37","main_expt",""
"","bandit","117","424438","0.0-78.0-0.0","26620314","wem/bandit_either_3","A3OE7882P03XR4","either","8","173","","","","","","","0","0","1","0.2948354516","","0.2","0.8","0.4","0.6","","","","","0.2128944509","0.2948354516","0.6717479894","0.2281502886","","","","","","","","74","J","1","","","38","main_expt",""
"","bandit","118","426349","0.0-79.0-0.0","26620314","wem/bandit_either_3","A3OE7882P03XR4","either","8","367","","","","","","","1","0","0","0.3373274679","","0.2","0.8","0.4","0.6","","","","","0.2965153327","0.3373274679","0.7121128808","0.1561271762","","","","","","","","74","J","1","","","39","main_expt",""
"","bandit","119","428147","0.0-80.0-0.0","26620314","wem/bandit_either_3","A3OE7882P03XR4","either","8","276","","","","","","","0","0","1","","0.4138768052","0.2","0.8","0.4","0.6","0.4447532253","0.4138768052","0.7157410044","0.1543620621","","","","","","","","","","","","74","J","1","","","40","main_expt",""
"","bandit","120","429794","0.0-81.0-0.0","26620314","wem/bandit_either_3","A3OE7882P03XR4","either","8","120","","","","","","","0","0","1","0.438096834","","0.2","0.8","0.4","0.6","","","","","0.5330008696","0.438096834","0.681196038","0.2271499981","","","","","","","","74","J","1","","","41","main_expt",""
"","bandit","121","431452","0.0-82.0-0.0","26620314","wem/bandit_either_3","A3OE7882P03XR4","either","8","131","","","","","","","1","0","0","0.6504320647","","0.2","0.8","0.4","0.6","","","","","0.573861049","0.4185173612","0.6504320647","0.2882452936","","","","","","","","75","K","2","","","42","main_expt",""
"","bandit","122","433213","0.0-83.0-0.0","26620314","wem/bandit_either_3","A3OE7882P03XR4","either","8","245","","","","","","","1","0","0","0.7369830744","","0.2","0.8","0.4","0.6","","","","","0.6654349765","0.3796335567","0.7369830744","0.298522686","","","","","","","","75","K","2","","","43","main_expt",""
"","bandit","123","434841","0.0-84.0-0.0","26620314","wem/bandit_either_3","A3OE7882P03XR4","either","8","84","","","","","","","0","1","0","","0.6797935378","0.2","0.8","0.4","0.6","0.691198465","0.31766129","0.6797935378","0.3188886026","","","","","","","","","","","","75","K","2","","","44","main_expt",""
"","bandit","124","436700","0.0-85.0-0.0","26620314","wem/bandit_either_3","A3OE7882P03XR4","either","8","327","","","","","","","0","0","1","","0.6507473666","0.2","0.8","0.4","0.6","0.7652674903","0.4047397141","0.6507473666","0.2705760174","","","","","","","","","","","","75","K","2","","","45","main_expt",""
"","bandit","125","438436","0.0-86.0-0.0","26620314","wem/bandit_either_3","A3OE7882P03XR4","either","8","204","","","","","","","0","0","1","","0.6334510787","0.2","0.8","0.4","0.6","0.8065230058","0.4961613307","0.6334510787","0.2506880939","","","","","","","","","","","","75","K","2","","","46","main_expt",""
"","bandit","126","439970","0.0-87.0-0.0","26620314","wem/bandit_either_3","A3OE7882P03XR4","either","8","2","","","","","","","0","1","0","","0.6143175143","0.2","0.8","0.4","0.6","0.7774474893","0.4624468315","0.6143175143","0.2491585872","","","","","","","","","","","","75","K","2","","","47","main_expt",""
"","bandit","127","442073","0.0-88.0-0.0","26620314","wem/bandit_either_3","A3OE7882P03XR4","either","8","565","","","","","","","1","0","0","0.6404512611","","0.2","0.8","0.4","0.6","","","","","0.7693176975","0.4886537242","0.6404512611","0.1997021219","","","","","","","","75","K","2","","","48","main_expt",""
"","bandit","128","444143","0.0-89.0-0.0","26620314","wem/bandit_either_3","A3OE7882P03XR4","either","8","550","","","","","","","0","1","0","","0.6758621215","0.2","0.8","0.4","0.6","0.807419373","0.4270302022","0.6758621215","0.2119577724","","","","","","","","","","","","75","K","2","","","49","main_expt",""
"","bandit","129","445893","0.0-90.0-0.0","26620314","wem/bandit_either_3","A3OE7882P03XR4","either","8","222","","","","","","","0","1","0","","0.6873234502","0.2","0.8","0.4","0.6","0.8562769227","0.5151345658","0.6873234502","0.2615271711","","","","","","","","","","","","75","K","2","","","50","main_expt",""
"","bandit","130","447706","0.0-91.0-0.0","26620314","wem/bandit_either_3","A3OE7882P03XR4","either","8","277","","","","","","","1","0","0","0.7776044395","","0.2","0.8","0.4","0.6","","","","","0.8705114925","0.5134524181","0.7776044395","0.2764427577","","","","","","","","75","K","2","","","51","main_expt",""
"","bandit","131","449580","0.0-92.0-0.0","26620314","wem/bandit_either_3","A3OE7882P03XR4","either","8","345","","","","","","","0","1","0","","0.8403410939","0.2","0.8","0.4","0.6","0.9310361031","0.4842684999","0.8403410939","0.3833776697","","","","","","","","","","","","75","K","2","","","52","main_expt",""
"","bandit","132","451419","0.0-93.0-0.0","26620314","wem/bandit_either_3","A3OE7882P03XR4","either","8","306","","","","","","","0","0","1","","0.8151983534","0.2","0.8","0.4","0.6","0.905794742","0.4412850773","0.8151983534","0.4356502318","","","","","","","","","","","","75","K","2","","","53","main_expt",""
"","bandit","133","453136","0.0-94.0-0.0","26620314","wem/bandit_either_3","A3OE7882P03XR4","either","8","194","","","","","","","0","1","0","","0.8081222638","0.2","0.8","0.4","0.6","0.9391541593","0.4397693946","0.8081222638","0.4120588364","","","","","","","","","","","","75","K","2","","","54","main_expt",""
"","bandit","134","454858","0.0-95.0-0.0","26620314","wem/bandit_either_3","A3OE7882P03XR4","either","8","180","","","","","","","0","1","0","","0.742009976","0.2","0.8","0.4","0.6","0.9596285882","0.3928202278","0.742009976","0.2714296105","","","","","","","","","","","","75","K","2","","","55","main_expt",""
"","bandit","135","456534","0.0-96.0-0.0","26620314","wem/bandit_either_3","A3OE7882P03XR4","either","8","151","","","","","","","0","1","0","","0.7065076074","0.2","0.8","0.4","0.6","0.9565658233","0.4593665993","0.7065076074","0.2122311877","","","","","","","","","","","","75","K","2","","","56","main_expt",""
"","bandit","136","458302","0.0-97.0-0.0","26620314","wem/bandit_either_3","A3OE7882P03XR4","either","8","236","","","","","","","0","0","1","","0.6860695476","0.2","0.8","0.4","0.6","0.9681540372","0.4006145211","0.6860695476","0.2282278588","","","","","","","","","","","","75","K","2","","","57","main_expt",""
"","bandit","137","460079","0.0-98.0-0.0","26620314","wem/bandit_either_3","A3OE7882P03XR4","either","8","257","","","","","","","0","1","0","","0.742301155","0.2","0.8","0.4","0.6","0.9207083952","0.4597890412","0.742301155","0.1392076118","","","","","","","","","","","","75","K","2","","","58","main_expt",""
"","bandit","138","461856","0.0-99.0-0.0","26620314","wem/bandit_either_3","A3OE7882P03XR4","either","8","245","","","","","","","1","0","0","0.5291004622","","0.2","0.8","0.4","0.6","","","","","0.9178227258","0.4232266093","0.5291004622","0.1706239206","","","","","","","","75","K","2","","","59","main_expt",""
"","bandit","139","463603","0.0-100.0-0.0","26620314","wem/bandit_either_3","A3OE7882P03XR4","either","8","220","","","","","","","0","1","0","","0.6348838793","0.2","0.8","0.4","0.6","0.8951285427","0.3565880291","0.6348838793","0.1674269281","","","","","","","","","","","","75","K","2","","","60","main_expt",""
"","bandit","140","465312","0.0-101.0-0.0","26620314","wem/bandit_either_3","A3OE7882P03XR4","either","8","186","","","","","","","1","0","0","0.6796423313","","0.2","0.8","0.4","0.6","","","","","0.8506814954","0.3663276413","0.6796423313","0.2182313474","","","","","","","","75","K","2","","","61","main_expt",""
"","bandit","141","467109","0.0-102.0-0.0","26620314","wem/bandit_either_3","A3OE7882P03XR4","either","8","262","","","","","","","1","0","0","0.6928172916","","0.2","0.8","0.4","0.6","","","","","0.8513854559","0.3193005293","0.6928172916","0.2949218256","","","","","","","","75","K","2","","","62","main_expt",""
"","bandit","142","468874","0.0-103.0-0.0","26620314","wem/bandit_either_3","A3OE7882P03XR4","either","8","222","","","","","","","0","0","1","","0.6996506825","0.2","0.8","0.4","0.6","0.8927579502","0.1562068481","0.6996506825","0.3170222383","","","","","","","","","","","","75","K","2","","","63","main_expt",""
"","bandit","143","470651","0.0-104.0-0.0","26620314","wem/bandit_either_3","A3OE7882P03XR4","either","8","242","","","","","","","0","1","0","","0.7294442249","0.2","0.8","0.4","0.6","0.9217936765","0.2300477965","0.7294442249","0.3033511374","","","","","","","","","","","","75","K","2","","","64","main_expt",""
"","bandit","144","472478","0.0-105.0-0.0","26620314","wem/bandit_either_3","A3OE7882P03XR4","either","8","287","","","","","","","0","1","0","","0.6605354899","0.2","0.8","0.4","0.6","0.9357047413","0.2869838185","0.6605354899","0.3973690147","","","","","","","","","","","","75","K","2","","","65","main_expt",""
"","bandit","145","474277","0.0-106.0-0.0","26620314","wem/bandit_either_3","A3OE7882P03XR4","either","8","266","","","","","","","0","0","1","0.6959621059","","0.2","0.8","0.4","0.6","","","","","0.910343843","0.3287476356","0.6959621059","0.4320294497","","","","","","","","75","K","2","","","66","main_expt",""
"","bandit","146","476034","0.0-107.0-0.0","26620314","wem/bandit_either_3","A3OE7882P03XR4","either","8","218","","","","","","","0","0","1","0.653899752","","0.2","0.8","0.4","0.6","","","","","0.9022080512","0.3018365728","0.653899752","0.3208465419","","","","","","","","75","K","2","","","67","main_expt",""
"","bandit","147","477699","0.0-108.0-0.0","26620314","wem/bandit_either_3","A3OE7882P03XR4","either","8","134","","","","","","","1","0","0","0.6517851336","","0.2","0.8","0.4","0.6","","","","","0.8492414063","0.3208616414","0.6517851336","0.3570730799","","","","","","","","75","K","2","","","68","main_expt",""
"","bandit","148","479565","0.0-109.0-0.0","26620314","wem/bandit_either_3","A3OE7882P03XR4","either","8","355","","","","","","","0","1","0","","0.7011615004","0.2","0.8","0.4","0.6","0.768219052","0.386863802","0.7011615004","0.3451514791","","","","","","","","","","","","75","K","2","","","69","main_expt",""
"","bandit","149","481376","0.0-110.0-0.0","26620314","wem/bandit_either_3","A3OE7882P03XR4","either","8","275","","","","","","","0","0","1","","0.6278947594","0.2","0.8","0.4","0.6","0.7996218848","0.3628244161","0.6278947594","0.3127714871","","","","","","","","","","","","75","K","2","","","70","main_expt",""
"","bandit","150","483002","0.0-111.0-0.0","26620314","wem/bandit_either_3","A3OE7882P03XR4","either","8","90","","","","","","","0","0","1","0.3855297895","","0.2","0.8","0.4","0.6","","","","","0.9130189757","0.2969295023","0.688517509","0.3855297895","","","","","","","","76","L","3","","","71","main_expt",""
"","bandit","151","484723","0.0-112.0-0.0","26620314","wem/bandit_either_3","A3OE7882P03XR4","either","8","191","","","","","","","0","0","1","0.3555010044","","0.2","0.8","0.4","0.6","","","","","0.9016843832","0.3512325323","0.6125440106","0.3555010044","","","","","","","","76","L","3","","","72","main_expt",""
"","bandit","152","486493","0.0-113.0-0.0","26620314","wem/bandit_either_3","A3OE7882P03XR4","either","8","241","","","","","","","0","0","1","0.3278360739","","0.2","0.8","0.4","0.6","","","","","0.9166584401","0.3845321254","0.4884410468","0.3278360739","","","","","","","","76","L","3","","","73","main_expt",""
"","bandit","153","488501","0.0-114.0-0.0","26620314","wem/bandit_either_3","A3OE7882P03XR4","either","8","479","","","","","","","1","0","0","0.3760614253","","0.2","0.8","0.4","0.6","","","","","0.8699410266","0.3760614253","0.5800760741","0.3275161349","","","","","","","","74","J","1","","","74","main_expt",""
"","bandit","154","490328","0.0-115.0-0.0","26620314","wem/bandit_either_3","A3OE7882P03XR4","either","8","303","","","","","","","0","0","1","0.370831352","","0.2","0.8","0.4","0.6","","","","","0.8192171788","0.370831352","0.6614390465","0.3454333807","","","","","","","","74","J","1","","","75","main_expt",""
"","bandit","155","492046","0.0-116.0-0.0","26620314","wem/bandit_either_3","A3OE7882P03XR4","either","8","201","","","","","","","0","0","1","0.4008199491","","0.2","0.8","0.4","0.6","","","","","0.8990587115","0.4008199491","0.6861570843","0.4213924804","","","","","","","","74","J","1","","","76","main_expt",""
"","bandit","156","493695","0.0-117.0-0.0","26620314","wem/bandit_either_3","A3OE7882P03XR4","either","8","96","","","","","","","0","0","1","0.3928984844","","0.2","0.8","0.4","0.6","","","","","0.9062137116","0.3928984844","0.5980737028","0.439510692","","","","","","","","74","J","1","","","77","main_expt",""
"","bandit","157","495431","0.0-118.0-0.0","26620314","wem/bandit_either_3","A3OE7882P03XR4","either","8","199","","","","","","","0","0","1","0.6754083514","","0.2","0.8","0.4","0.6","","","","","0.9215914722","0.4709058574","0.6754083514","0.4419424199","","","","","","","","75","K","2","","","78","main_expt",""
"","bandit","158","497163","0.0-119.0-0.0","26620314","wem/bandit_either_3","A3OE7882P03XR4","either","8","212","","","","","","","0","0","1","","0.7012934339","0.2","0.8","0.4","0.6","0.895443078","0.4971614577","0.7012934339","0.5056762283","","","","","","","","","","","","75","K","2","","","79","main_expt",""
"","bandit","159","498912","0.0-120.0-0.0","26620314","wem/bandit_either_3","A3OE7882P03XR4","either","8","212","","","","","","","0","1","0","","0.7789772955","0.2","0.8","0.4","0.6","0.7789772955","0.4828267768","0.7067798052","0.4558190996","","","","","","","","","","","","72","H","0","img/none_selected.jpg","","80","main_expt",""
"","bandit","160","500660","0.0-121.0-0.0","26620314","wem/bandit_either_3","A3OE7882P03XR4","either","8","211","","","","","","","0","1","0","","0.755426824","0.2","0.8","0.4","0.6","0.755426824","0.4280570329","0.7259433061","0.4774921548","","","","","","","","","","","","72","H","0","img/none_selected.jpg","","81","main_expt",""
"","bandit","161","502345","0.0-122.0-0.0","26620314","wem/bandit_either_3","A3OE7882P03XR4","either","8","147","","","","","","","0","1","0","","0.8356426425","0.2","0.8","0.4","0.6","0.8356426425","0.486136241","0.7022130872","0.3611036613","","","","","","","","","","","","72","H","0","img/none_selected.jpg","","82","main_expt",""
"","bandit","162","504120","0.0-123.0-0.0","26620314","wem/bandit_either_3","A3OE7882P03XR4","either","8","243","","","","","","","1","0","0","0.8783145762","","0.2","0.8","0.4","0.6","","","","","0.8783145762","0.3539143083","0.75927227","0.3341354767","","","","","","","","72","H","0","img/none_selected.jpg","","83","main_expt",""
"","bandit","163","505906","0.0-124.0-0.0","26620314","wem/bandit_either_3","A3OE7882P03XR4","either","8","247","","","","","","","1","0","0","0.9087743635","","0.2","0.8","0.4","0.6","","","","","0.9087743635","0.374811954","0.8556046088","0.288479151","","","","","","","","72","H","0","img/none_selected.jpg","","84","main_expt",""
"","bandit","164","507682","0.0-125.0-0.0","26620314","wem/bandit_either_3","A3OE7882P03XR4","either","8","249","","","","","","","1","0","0","0.8632011641","","0.2","0.8","0.4","0.6","","","","","0.8632011641","0.4518264681","0.7835234447","0.3061923995","","","","","","","","72","H","0","img/none_selected.jpg","","85","main_expt",""
"","bandit","165","509498","0.0-126.0-0.0","26620314","wem/bandit_either_3","A3OE7882P03XR4","either","8","266","","","","","","","0","1","0","","0.8341253046","0.2","0.8","0.4","0.6","0.8341253046","0.461936863","0.7037548709","0.3370204437","","","","","","","","","","","","72","H","0","img/none_selected.jpg","","86","main_expt",""
"","bandit","166","511387","0.0-127.0-0.0","26620314","wem/bandit_either_3","A3OE7882P03XR4","either","8","347","","","","","","","0","1","0","","0.8728746981","0.2","0.8","0.4","0.6","0.8728746981","0.3681660755","0.6903674631","0.3900809043","","","","","","","","","","","","72","H","0","img/none_selected.jpg","","87","main_expt",""
"","bandit","167","513183","0.0-128.0-0.0","26620314","wem/bandit_either_3","A3OE7882P03XR4","either","8","263","","","","","","","0","1","0","","0.8408980459","0.2","0.8","0.4","0.6","0.8408980459","0.3788462328","0.5883284312","0.4296615172","","","","","","","","","","","","72","H","0","img/none_selected.jpg","","88","main_expt",""
"","bandit","168","514970","0.0-129.0-0.0","26620314","wem/bandit_either_3","A3OE7882P03XR4","either","8","252","","","","","","","0","1","0","","0.8585781628","0.2","0.8","0.4","0.6","0.8585781628","0.3316952272","0.5258490985","0.4636560077","","","","","","","","","","","","72","H","0","img/none_selected.jpg","","89","main_expt",""
"","bandit","169","516773","0.0-130.0-0.0","26620314","wem/bandit_either_3","A3OE7882P03XR4","either","8","263","","","","","","","0","1","0","","0.925840658","0.2","0.8","0.4","0.6","0.925840658","0.438068917","0.6395041767","0.4463585346","","","","","","","","","","","","72","H","0","img/none_selected.jpg","","90","main_expt",""
"","bandit","170","518523","0.0-131.0-0.0","26620314","wem/bandit_either_3","A3OE7882P03XR4","either","8","226","","","","","","","0","1","0","","0.9201841885","0.2","0.8","0.4","0.6","0.9201841885","0.5158843935","0.6931091445","0.4734463503","","","","","","","","","","","","72","H","0","img/none_selected.jpg","","91","main_expt",""
"","bandit","171","520276","0.0-132.0-0.0","26620314","wem/bandit_either_3","A3OE7882P03XR4","either","8","229","","","","","","","0","1","0","","0.8508076908","0.2","0.8","0.4","0.6","0.8508076908","0.5182757575","0.6725373887","0.5248255385","","","","","","","","","","","","72","H","0","img/none_selected.jpg","","92","main_expt",""
"","bandit","172","522098","0.0-133.0-0.0","26620314","wem/bandit_either_3","A3OE7882P03XR4","either","8","285","","","","","","","1","0","0","0.8106711147","","0.2","0.8","0.4","0.6","","","","","0.8106711147","0.5498130742","0.7388835399","0.3386726181","","","","","","","","72","H","0","img/none_selected.jpg","","93","main_expt",""
"","bandit","173","523977","0.0-134.0-0.0","26620314","wem/bandit_either_3","A3OE7882P03XR4","either","8","360","","","","","","","0","1","0","","0.8543263914","0.2","0.8","0.4","0.6","0.8543263914","0.6049407638","0.697373586","0.3718894848","","","","","","","","","","","","72","H","0","img/none_selected.jpg","","94","main_expt",""
"","bandit","174","525804","0.0-135.0-0.0","26620314","wem/bandit_either_3","A3OE7882P03XR4","either","8","292","","","","","","","0","1","0","","0.8387782901","0.2","0.8","0.4","0.6","0.8387782901","0.6604115927","0.7550322224","0.4005278521","","","","","","","","","","","","72","H","0","img/none_selected.jpg","","95","main_expt",""
"","bandit","175","527518","0.0-136.0-0.0","26620314","wem/bandit_either_3","A3OE7882P03XR4","either","8","181","","","","","","","1","0","0","0.8208071174","","0.2","0.8","0.4","0.6","","","","","0.8208071174","0.7003847986","0.6576962358","0.3694595514","","","","","","","","72","H","0","img/none_selected.jpg","","96","main_expt",""
"","bandit","176","529267","0.0-137.0-0.0","26620314","wem/bandit_either_3","A3OE7882P03XR4","either","8","219","","","","","","","0","1","0","","0.765358829","0.2","0.8","0.4","0.6","0.765358829","0.6793148949","0.6802484638","0.3186037095","","","","","","","","","","","","72","H","0","img/none_selected.jpg","","97","main_expt",""
"","bandit","177","531142","0.0-138.0-0.0","26620314","wem/bandit_either_3","A3OE7882P03XR4","either","8","334","","","","","","","0","1","0","","0.7823463211","0.2","0.8","0.4","0.6","0.7823463211","0.6204607354","0.7042077447","0.2786717818","","","","","","","","","","","","72","H","0","img/none_selected.jpg","","98","main_expt",""
"","bandit","178","532902","0.0-139.0-0.0","26620314","wem/bandit_either_3","A3OE7882P03XR4","either","8","231","","","","","","","0","1","0","","0.7523003034","0.2","0.8","0.4","0.6","0.7523003034","0.6166262367","0.7355617892","0.32929866","","","","","","","","","","","","72","H","0","img/none_selected.jpg","","99","main_expt",""
"","bandit","179","534726","0.0-140.0-0.0","26620314","wem/bandit_either_3","A3OE7882P03XR4","either","8","277","","","","","","","0","0","1","","0.7174790615","0.2","0.8","0.4","0.6","0.7174790615","0.5347115766","0.7117411671","0.3115323478","","","","","","","","","","","","72","H","0","img/none_selected.jpg","","100","main_expt",""
"","bandit","180","536512","0.0-141.0-0.0","26620314","wem/bandit_either_3","A3OE7882P03XR4","either","8","253","","","","","","","0","1","0","","0.7660578318","0.2","0.8","0.4","0.6","0.7660578318","0.3418016043","0.7263903312","0.4221749579","","","","","","","","","","","","72","H","0","img/none_selected.jpg","","101","main_expt",""
"","bandit","181","538423","0.0-142.0-0.0","26620314","wem/bandit_either_3","A3OE7882P03XR4","either","8","376","","","","","","","0","0","1","0.7201180075","","0.2","0.8","0.4","0.6","","","","","0.7201180075","0.2550922237","0.7357346189","0.2718078598","","","","","","","","72","H","0","img/none_selected.jpg","","102","main_expt",""
"","bandit","182","540091","0.0-143.0-0.0","26620314","wem/bandit_either_3","A3OE7882P03XR4","either","8","136","","","","","","","0","1","0","","0.8452780714","0.2","0.8","0.4","0.6","0.8452780714","0.3181696353","0.7026134783","0.3011307106","","","","","","","","","","","","72","H","0","img/none_selected.jpg","","103","main_expt",""
"","bandit","183","541928","0.0-144.0-0.0","26620314","wem/bandit_either_3","A3OE7882P03XR4","either","8","299","","","","","","","0","1","0","","0.7236924273","0.2","0.8","0.4","0.6","0.7236924273","0.3383579412","0.8073666152","0.3659291838","","","","","","","","","","","","72","H","0","img/none_selected.jpg","","104","main_expt",""
"","bandit","184","543702","0.0-145.0-0.0","26620314","wem/bandit_either_3","A3OE7882P03XR4","either","8","257","","","","","","","0","1","0","","0.743719778","0.2","0.8","0.4","0.6","0.743719778","0.2354673658","0.824483439","0.3499435223","","","","","","","","","","","","72","H","0","img/none_selected.jpg","","105","main_expt",""
"","bandit","185","545463","0.0-146.0-0.0","26620314","wem/bandit_either_3","A3OE7882P03XR4","either","8","234","","","","","","","0","0","1","","0.7985687284","0.2","0.8","0.4","0.6","0.7985687284","0.159398249","0.9208810438","0.3602262465","","","","","","","","","","","","72","H","0","img/none_selected.jpg","","106","main_expt",""
"","bandit","186","547278","0.0-147.0-0.0","26620314","wem/bandit_either_3","A3OE7882P03XR4","either","8","284","","","","","","","0","1","0","","0.8911910097","0.2","0.8","0.4","0.6","0.799345197","0.1295169146","0.8911910097","0.3252215163","","","","","","","","","","","","75","K","2","","","107","main_expt",""
"","bandit","187","549106","0.0-148.0-0.0","26620314","wem/bandit_either_3","A3OE7882P03XR4","either","8","291","","","","","","","0","0","1","","0.8450149587","0.2","0.8","0.4","0.6","0.8681690713","0.07754053308","0.8450149587","0.2812406992","","","","","","","","","","","","75","K","2","","","108","main_expt",""
"","bandit","188","550942","0.0-149.0-0.0","26620314","wem/bandit_either_3","A3OE7882P03XR4","either","8","302","","","","","","","0","0","1","0.2559497519","","0.2","0.8","0.4","0.6","","","","","0.8556732204","0.06591215473","0.868327257","0.2559497519","","","","","","","","76","L","3","","","109","main_expt",""
"","bandit","189","552834","0.0-150.0-0.0","26620314","wem/bandit_either_3","A3OE7882P03XR4","either","8","353","","","","","","","0","0","1","0.2817400418","","0.2","0.8","0.4","0.6","","","","","0.8669893864","0.1189546392","0.8868335222","0.2817400418","","","","","","","","76","L","3","","","110","main_expt",""
"","bandit","190","554696","0.0-151.0-0.0","26620314","wem/bandit_either_3","A3OE7882P03XR4","either","8","324","","","","","","","0","0","1","0.09523351692","","0.2","0.8","0.4","0.6","","","","","0.799383849","0.09523351692","0.8770728171","0.2773620367","","","","","","","","74","J","1","","","111","main_expt",""
"","bandit","191","556461","0.0-152.0-0.0","26620314","wem/bandit_either_3","A3OE7882P03XR4","either","8","234","","","","","","","0","0","1","","0.107489667","0.2","0.8","0.4","0.6","0.859799476","0.107489667","0.8481710002","0.2833316415","","","","","","","","","","","","74","J","1","","","112","main_expt",""
"","bandit","192","558502","0.0-153.0-0.0","26620314","wem/bandit_either_3","A3OE7882P03XR4","either","8","500","","","","","","","0","0","1","","0.7932436089","0.2","0.8","0.4","0.6","0.7932436089","0.1026187258","0.8573528835","0.3433702059","","","","","","","","","","","","72","H","0","img/none_selected.jpg","","113","main_expt",""
"","bandit","193","560346","0.0-154.0-0.0","26620314","wem/bandit_either_3","A3OE7882P03XR4","either","8","305","","","","","","","0","1","0","","0.849407262","0.2","0.8","0.4","0.6","0.849407262","0.1044839951","0.8291807482","0.4828882278","","","","","","","","","","","","72","H","0","img/none_selected.jpg","","114","main_expt",""
"","bandit","194","562119","0.0-155.0-0.0","26620314","wem/bandit_either_3","A3OE7882P03XR4","either","8","243","","","","","","","1","0","0","0.8882716547","","0.2","0.8","0.4","0.6","","","","","0.8882716547","0.1213931844","0.761972944","0.54932579","","","","","","","","72","H","0","img/none_selected.jpg","","115","main_expt",""
"","bandit","195","563851","0.0-156.0-0.0","26620314","wem/bandit_either_3","A3OE7882P03XR4","either","8","205","","","","","","","1","0","0","0.8741354715","","0.2","0.8","0.4","0.6","","","","","0.8741354715","0.1184144227","0.786197192","0.6971345968","","","","","","","","72","H","0","img/none_selected.jpg","","116","main_expt",""
"","bandit","196","565408","0.0-157.0-0.0","26620314","wem/bandit_either_3","A3OE7882P03XR4","either","8","39","","","","","","","1","0","0","0.8083823922","","0.2","0.8","0.4","0.6","","","","","0.8083823922","0.1983931569","0.7834453561","0.5396272374","","","","","","","","72","H","0","img/none_selected.jpg","","117","main_expt",""
"","bandit","197","567200","0.0-158.0-0.0","26620314","wem/bandit_either_3","A3OE7882P03XR4","either","8","274","","","","","","","0","1","0","","0.868525306","0.2","0.8","0.4","0.6","0.868525306","0.2840039584","0.6742380839","0.5544567993","","","","","","","","","","","","72","H","0","img/none_selected.jpg","","118","main_expt",""
"","bandit","198","569203","0.0-159.0-0.0","26620314","wem/bandit_either_3","A3OE7882P03XR4","either","8","460","","","","","","","0","0","1","","0.8386471998","0.2","0.8","0.4","0.6","0.8386471998","0.3563325119","0.7350700153","0.5504896642","","","","","","","","","","","","72","H","0","img/none_selected.jpg","","119","main_expt",""
"","bandit","199","570829","0.0-160.0-0.0","26620314","wem/bandit_either_3","A3OE7882P03XR4","either","8","91","","","","","","","0","1","0","","0.8103559508","0.2","0.8","0.4","0.6","0.8103559508","0.5682387565","0.70601835","0.5812137135","","","","","","","","","","","","72","H","0","img/none_selected.jpg","","120","main_expt",""
"","bandit","200","572546","0.0-161.0-0.0","26620314","wem/bandit_either_3","A3OE7882P03XR4","either","8","200","","","","","","","0","1","0","","0.8193015173","0.2","0.8","0.4","0.6","0.8193015173","0.5189107771","0.7347719752","0.6033058466","","","","","","","","","","","","72","H","0","img/none_selected.jpg","","121","main_expt",""
"","bandit","201","574319","0.0-162.0-0.0","26620314","wem/bandit_either_3","A3OE7882P03XR4","either","8","239","","","","","","","0","1","0","","0.8025146027","0.2","0.8","0.4","0.6","0.8025146027","0.4428493372","0.8270923978","0.6102220397","","","","","","","","","","","","72","H","0","img/none_selected.jpg","","122","main_expt",""
"","bandit","202","576194","0.0-163.0-0.0","26620314","wem/bandit_either_3","A3OE7882P03XR4","either","8","337","","","","","","","0","1","0","","0.8121847492","0.2","0.8","0.4","0.6","0.8121847492","0.472724465","0.7980631313","0.6108151959","","","","","","","","","","","","72","H","0","img/none_selected.jpg","","123","main_expt",""
"","bandit","203","578011","0.0-164.0-0.0","26620314","wem/bandit_either_3","A3OE7882P03XR4","either","8","294","","","","","","","0","1","0","","0.8299418439","0.2","0.8","0.4","0.6","0.8299418439","0.4799585558","0.7369852887","0.7117385939","","","","","","","","","","","","72","H","0","img/none_selected.jpg","","124","main_expt",""
"","bandit","204","579911","0.0-165.0-0.0","26620314","wem/bandit_either_3","A3OE7882P03XR4","either","8","359","","","","","","","1","0","0","0.825688343","","0.2","0.8","0.4","0.6","","","","","0.825688343","0.5080184993","0.7465944313","0.7554186078","","","","","","","","72","H","0","img/none_selected.jpg","","125","main_expt",""
"","bandit","205","581710","0.0-166.0-0.0","26620314","wem/bandit_either_3","A3OE7882P03XR4","either","8","269","","","","","","","0","1","0","","0.8372054396","0.2","0.8","0.4","0.6","0.8372054396","0.4555098289","0.7596834852","0.8855751833","","","","","","","","","","","","72","H","0","img/none_selected.jpg","","126","main_expt",""
"","bandit","206","583396","0.0-167.0-0.0","26620314","wem/bandit_either_3","A3OE7882P03XR4","either","8","154","","","","","","","0","1","0","","0.7906689898","0.2","0.8","0.4","0.6","0.7906689898","0.5475411796","0.7398299979","0.8003015049","","","","","","","","","","","","72","H","0","img/none_selected.jpg","","127","main_expt",""
"","bandit","207","585249","0.0-168.0-0.0","26620314","wem/bandit_either_3","A3OE7882P03XR4","either","8","314","","","","","","","0","1","0","","0.8008571507","0.2","0.8","0.4","0.6","0.8008571507","0.612647382","0.7764866849","0.8403113951","","","","","","","","","","","","72","H","0","img/none_selected.jpg","","128","main_expt",""
"","bandit","208","587041","0.0-169.0-0.0","26620314","wem/bandit_either_3","A3OE7882P03XR4","either","8","245","","","","","","","0","1","0","","0.7829297973","0.2","0.8","0.4","0.6","0.7829297973","0.7128970287","0.6435675963","0.8826872071","","","","","","","","","","","","72","H","0","img/none_selected.jpg","","129","main_expt",""
"","bandit","209","588811","0.0-170.0-0.0","26620314","wem/bandit_either_3","A3OE7882P03XR4","either","8","235","","","","","","","1","0","0","0.6898445721","","0.2","0.8","0.4","0.6","","","","","0.6898445721","0.7309911721","0.7030252038","0.8641000085","","","","","","","","72","H","0","img/none_selected.jpg","","130","main_expt",""
"","bandit","210","590605","0.0-171.0-0.0","26620314","wem/bandit_either_3","A3OE7882P03XR4","either","8","246","","","","","","","0","1","0","","0.5864867529","0.2","0.8","0.4","0.6","0.5864867529","0.73180147","0.6829232191","0.8752037592","","","","","","","","","","","","72","H","0","img/none_selected.jpg","","131","main_expt",""
"","bandit","211","592363","0.0-172.0-0.0","26620314","wem/bandit_either_3","A3OE7882P03XR4","either","8","221","","","","","","","0","1","0","","0.560122833","0.2","0.8","0.4","0.6","0.560122833","0.8467134838","0.7406452387","0.8279556795","","","","","","","","","","","","72","H","0","img/none_selected.jpg","","132","main_expt",""
"","bandit","212","594245","0.0-173.0-0.0","26620314","wem/bandit_either_3","A3OE7882P03XR4","either","8","348","","","","","","","1","0","0","0.48439517","","0.2","0.8","0.4","0.6","","","","","0.48439517","0.8481264083","0.6666234363","0.8194722428","","","","","","","","72","H","0","img/none_selected.jpg","","133","main_expt",""
"","bandit","213","596103","0.0-174.0-0.0","26620314","wem/bandit_either_3","A3OE7882P03XR4","either","8","319","","","","","","","0","0","1","","0.3919863126","0.2","0.8","0.4","0.6","0.3919863126","0.8771050955","0.680542061","0.8037084922","","","","","","","","","","","","72","H","0","img/none_selected.jpg","","134","main_expt",""
"","bandit","214","597742","0.0-175.0-0.0","26620314","wem/bandit_either_3","A3OE7882P03XR4","either","8","109","","","","","","","0","1","0","","0.5174750093","0.2","0.8","0.4","0.6","0.5174750093","0.9103241533","0.7006187635","0.8155916457","","","","","","","","","","","","72","H","0","img/none_selected.jpg","","135","main_expt",""
"","bandit","215","599741","0.0-176.0-0.0","26620314","wem/bandit_either_3","A3OE7882P03XR4","either","8","457","","","","","","","0","0","1","","0.4264762493","0.2","0.8","0.4","0.6","0.4264762493","0.9126032517","0.6936815578","0.8281957705","","","","","","","","","","","","72","H","0","img/none_selected.jpg","","136","main_expt",""
"","bandit","216","603825","0.0-177.0-0.0","26620314","wem/bandit_either_3","A3OE7882P03XR4","either","8","2546","","","","","","","0","0","1","","0.6531428085","0.2","0.8","0.4","0.6","0.5351999402","0.8983360858","0.6531428085","0.7055403129","","","","","","","","","","","","75","K","2","","","137","main_expt",""
"","bandit","217","605826","0.0-178.0-0.0","26620314","wem/bandit_either_3","A3OE7882P03XR4","either","8","469","","","","","","","1","0","0","0.6769758131","","0.2","0.8","0.4","0.6","","","","","0.4758748922","0.8851370462","0.6769758131","0.6884351598","","","","","","","","75","K","2","","","138","main_expt",""
"","bandit","218","607671","0.0-179.0-0.0","26620314","wem/bandit_either_3","A3OE7882P03XR4","either","8","297","","","","","","","0","1","0","","0.7649589049","0.2","0.8","0.4","0.6","0.4039793023","0.8662270416","0.7649589049","0.6090423031","","","","","","","","","","","","75","K","2","","","139","main_expt",""
"","bandit","219","609575","0.0-180.0-0.0","26620314","wem/bandit_either_3","A3OE7882P03XR4","either","8","364","","","","","","","0","1","0","","0.7674202191","0.2","0.8","0.4","0.6","0.384774136","0.8345767194","0.7674202191","0.7000077187","","","","","","","","","","","","75","K","2","","","140","main_expt",""
"","bandit","220","611385","0.0-181.0-0.0","26620314","wem/bandit_either_3","A3OE7882P03XR4","either","8","280","","","","","","","1","0","0","0.8575114448","","0.2","0.8","0.4","0.6","","","","","0.327254859","0.8783670964","0.8575114448","0.6643185619","","","","","","","","75","K","2","","","141","main_expt",""
"","bandit","221","613247","0.0-182.0-0.0","26620314","wem/bandit_either_3","A3OE7882P03XR4","either","8","328","","","","","","","0","1","0","","0.8134430427","0.2","0.8","0.4","0.6","0.4536641492","0.8895828315","0.8134430427","0.7079845674","","","","","","","","","","","","75","K","2","","","142","main_expt",""
"","bandit","222","615032","0.0-183.0-0.0","26620314","wem/bandit_either_3","A3OE7882P03XR4","either","8","252","","","","","","","0","1","0","","0.8345505038","0.2","0.8","0.4","0.6","0.4348486293","0.9053928798","0.8345505038","0.6624187643","","","","","","","","","","","","75","K","2","","","143","main_expt",""
"","bandit","223","616736","0.0-184.0-0.0","26620314","wem/bandit_either_3","A3OE7882P03XR4","either","8","170","","","","","","","0","0","1","0.7482817554","","0.2","0.8","0.4","0.6","","","","","0.4086594597","0.9033088386","0.7482817554","0.6779247185","","","","","","","","75","K","2","","","144","main_expt",""
"","bandit","224","618452","0.0-185.0-0.0","26620314","wem/bandit_either_3","A3OE7882P03XR4","either","8","177","","","","","","","0","1","0","","0.7400387939","0.2","0.8","0.4","0.6","0.4420772456","0.8572864227","0.7400387939","0.7216102374","","","","","","","","","","","","75","K","2","","","145","main_expt",""
"","bandit","225","620245","0.0-186.0-0.0","26620314","wem/bandit_either_3","A3OE7882P03XR4","either","8","260","","","","","","","1","0","0","0.795971973","","0.2","0.8","0.4","0.6","","","","","0.508741462","0.8687508917","0.795971973","0.7837267619","","","","","","","","75","K","2","","","146","main_expt",""
"","bandit","226","622016","0.0-187.0-0.0","26620314","wem/bandit_either_3","A3OE7882P03XR4","either","8","248","","","","","","","0","1","0","","0.7503502301","0.2","0.8","0.4","0.6","0.4624398998","0.8657621525","0.7503502301","0.7652264833","","","","","","","","","","","","75","K","2","","","147","main_expt",""
"","bandit","227","623696","0.0-188.0-0.0","26620314","wem/bandit_either_3","A3OE7882P03XR4","either","8","149","","","","","","","0","1","0","","0.8200474043","0.2","0.8","0.4","0.6","0.4062589849","0.8362891365","0.8200474043","0.7358716413","","","","","","","","","","","","75","K","2","","","148","main_expt",""
"","bandit","228","625562","0.0-189.0-0.0","26620314","wem/bandit_either_3","A3OE7882P03XR4","either","8","325","","","","","","","0","0","1","","0.8509010271","0.2","0.8","0.4","0.6","0.4895331913","0.8144386017","0.8509010271","0.7129200786","","","","","","","","","","","","75","K","2","","","149","main_expt",""
"","bandit","229","627197","0.0-190.0-0.0","26620314","wem/bandit_either_3","A3OE7882P03XR4","either","8","96","","","","","","","0","1","0","","0.8298908313","0.2","0.8","0.4","0.6","0.4704746919","0.6948055455","0.8298908313","0.705531668","","","","","","","","","","","","75","K","2","","","150","main_expt",""
"","bandit","230","629070","0.0-191.0-0.0","26620314","wem/bandit_either_3","A3OE7882P03XR4","either","8","341","","","","","","","0","0","1","","0.7362749002","0.2","0.8","0.4","0.6","0.4725745774","0.6231991314","0.7362749002","0.5744604188","","","","","","","","","","","","75","K","2","","","151","main_expt",""
"","bandit","231","630736","0.0-192.0-0.0","26620314","wem/bandit_either_3","A3OE7882P03XR4","either","8","138","","","","","","","0","1","0","","0.7601791643","0.2","0.8","0.4","0.6","0.4943906398","0.7045057733","0.7601791643","0.5372669321","","","","","","","","","","","","75","K","2","","","152","main_expt",""
"","bandit","232","632568","0.0-193.0-0.0","26620314","wem/bandit_either_3","A3OE7882P03XR4","either","8","290","","","","","","","0","0","1","","0.7590648118","0.2","0.8","0.4","0.6","0.4639524782","0.5331338622","0.7590648118","0.5447545218","","","","","","","","","","","","75","K","2","","","153","main_expt",""
"","bandit","233","634346","0.0-194.0-0.0","26620314","wem/bandit_either_3","A3OE7882P03XR4","either","8","253","","","","","","","0","0","1","0.5096720896","","0.2","0.8","0.4","0.6","","","","","0.3935792086","0.5096720896","0.7805387907","0.4191749193","","","","","","","","74","J","1","","","154","main_expt",""
"","bandit","234","636032","0.0-195.0-0.0","26620314","wem/bandit_either_3","A3OE7882P03XR4","either","8","144","","","","","","","1","0","0","0.4719011365","","0.2","0.8","0.4","0.6","","","","","0.4127348605","0.4719011365","0.8450805748","0.4269770229","","","","","","","","74","J","1","","","155","main_expt",""
"","bandit","235","637883","0.0-196.0-0.0","26620314","wem/bandit_either_3","A3OE7882P03XR4","either","8","318","","","","","","","0","0","1","0.5818713095","","0.2","0.8","0.4","0.6","","","","","0.3697675558","0.5818713095","0.8513110265","0.4589862704","","","","","","","","74","J","1","","","156","main_expt",""
"","bandit","236","639430","0.0-197.0-0.0","26620314","wem/bandit_either_3","A3OE7882P03XR4","either","8","11","","","","","","","0","0","1","0.5804022203","","0.2","0.8","0.4","0.6","","","","","0.3604398023","0.5804022203","0.8226236001","0.5370818316","","","","","","","","74","J","1","","","157","main_expt",""
"","bandit","237","641280","0.0-198.0-0.0","26620314","wem/bandit_either_3","A3OE7882P03XR4","either","8","318","","","","","","","0","0","1","0.4773166223","","0.2","0.8","0.4","0.6","","","","","0.4061750625","0.4773166223","0.8843141367","0.4757376888","","","","","","","","74","J","1","","","158","main_expt",""
"","bandit","238","643186","0.0-199.0-0.0","26620314","wem/bandit_either_3","A3OE7882P03XR4","either","8","370","","","","","","","0","0","1","","0.4887287223","0.2","0.8","0.4","0.6","0.4696417586","0.419048585","0.8078798749","0.4887287223","","","","","","","","","","","","76","L","3","","","159","main_expt",""
"","bandit","239","645019","0.0-200.0-0.0","26620314","wem/bandit_either_3","A3OE7882P03XR4","either","8","295","","","","","","","0","1","0","","0.4588489809","0.2","0.8","0.4","0.6","0.4659569923","0.4672574386","0.7689164465","0.4588489809","","","","","","","","","","","","76","L","3","","","160","main_expt",""
"","bandit","240","646850","0.0-201.0-0.0","26620314","wem/bandit_either_3","A3OE7882P03XR4","either","8","308","","","","","","","0","0","1","0.4920004413","","0.2","0.8","0.4","0.6","","","","","0.3947207546","0.5612985374","0.7863156869","0.4920004413","","","","","","","","76","L","3","","","161","main_expt",""
"","bandit","241","648847","0.0-202.0-0.0","26620314","wem/bandit_either_3","A3OE7882P03XR4","either","8","449","","","","","","","0","0","1","","0.2460097942","0.2","0.8","0.4","0.6","0.2460097942","0.5288680036","0.8098475403","0.5389881207","","","","","","","","","","","","72","H","0","img/none_selected.jpg","","162","main_expt",""
"","bandit","242","650670","0.0-203.0-0.0","26620314","wem/bandit_either_3","A3OE7882P03XR4","either","8","284","","","","","","","0","1","0","","0.3603606056","0.2","0.8","0.4","0.6","0.3603606056","0.6096883849","0.8222712862","0.6040136001","","","","","","","","","","","","72","H","0","img/none_selected.jpg","","163","main_expt",""
"","bandit","243","652562","0.0-204.0-0.0","26620314","wem/bandit_either_3","A3OE7882P03XR4","either","8","357","","","","","","","0","0","1","","0.2507209727","0.2","0.8","0.4","0.6","0.2507209727","0.4868922288","0.7876031225","0.623756827","","","","","","","","","","","","72","H","0","img/none_selected.jpg","","164","main_expt",""
"","bandit","244","654177","0.0-205.0-0.0","26620314","wem/bandit_either_3","A3OE7882P03XR4","either","8","93","","","","","","","0","0","1","","0.2162043423","0.2","0.8","0.4","0.6","0.2162043423","0.4055552053","0.7435052823","0.6164515281","","","","","","","","","","","","72","H","0","img/none_selected.jpg","","165","main_expt",""
"","bandit","245","656096","0.0-206.0-0.0","26620314","wem/bandit_either_3","A3OE7882P03XR4","either","8","385","","","","","","","0","0","1","","0.6545739251","0.2","0.8","0.4","0.6","0.2573409732","0.4748236382","0.6545739251","0.4660222187","","","","","","","","","","","","75","K","2","","","166","main_expt",""
"","bandit","246","657688","0.0-207.0-0.0","26620314","wem/bandit_either_3","A3OE7882P03XR4","either","8","52","","","","","","","0","0","1","0.6645907447","","0.2","0.8","0.4","0.6","","","","","0.4016088623","0.4725242185","0.6645907447","0.3336058786","","","","","","","","75","K","2","","","167","main_expt",""
"","bandit","247","659511","0.0-208.0-0.0","26620314","wem/bandit_either_3","A3OE7882P03XR4","either","8","274","","","","","","","0","1","0","","0.7243751722","0.2","0.8","0.4","0.6","0.5522858252","0.4775208721","0.7243751722","0.2887723434","","","","","","","","","","","","75","K","2","","","168","main_expt",""
"","bandit","248","661315","0.0-209.0-0.0","26620314","wem/bandit_either_3","A3OE7882P03XR4","either","8","263","","","","","","","0","1","0","","0.6453105543","0.2","0.8","0.4","0.6","0.5461138513","0.4682732781","0.6453105543","0.3357056981","","","","","","","","","","","","75","K","2","","","169","main_expt",""
"","bandit","249","663439","0.0-210.0-0.0","26620314","wem/bandit_either_3","A3OE7882P03XR4","either","8","587","","","","","","","0","1","0","","0.5334010147","0.2","0.8","0.4","0.6","0.4402798015","0.4246621539","0.5334010147","0.4179693295","","","","","","","","","","","","75","K","2","","","170","main_expt",""
"","bandit","250","665517","0.0-211.0-0.0","26620314","wem/bandit_either_3","A3OE7882P03XR4","either","8","556","","","","","","","1","0","0","0.498122785","","0.2","0.8","0.4","0.6","","","","","0.450294849","0.2843380906","0.498122785","0.3050406521","","","","","","","","75","K","2","","","171","main_expt",""
"","bandit","251","667403","0.0-212.0-0.0","26620314","wem/bandit_either_3","A3OE7882P03XR4","either","8","355","","","","","","","0","1","0","","0.4356988635","0.2","0.8","0.4","0.6","0.6475755847","0.2668952485","0.4356988635","0.3364500029","","","","","","","","","","","","75","K","2","","","172","main_expt",""
"","bandit","252","669247","0.0-213.0-0.0","26620314","wem/bandit_either_3","A3OE7882P03XR4","either","8","308","","","","","","","0","1","0","","0.3964199688","0.2","0.8","0.4","0.6","0.6095255177","0.3802819164","0.3964199688","0.421339117","","","","","","","","","","","","75","K","2","","","173","main_expt",""
"","bandit","253","671107","0.0-214.0-0.0","26620314","wem/bandit_either_3","A3OE7882P03XR4","either","8","303","","","","","","","0","0","1","0.3194345802","","0.2","0.8","0.4","0.6","","","","","0.5003628493","0.4042455133","0.3194345802","0.4913704717","","","","","","","","75","K","2","","","174","main_expt",""
"","bandit","254","672909","0.0-215.0-0.0","26620314","wem/bandit_either_3","A3OE7882P03XR4","either","8","258","","","","","","","0","0","1","","0.2865230234","0.2","0.8","0.4","0.6","0.5576212716","0.4393989914","0.2865230234","0.5882611891","","","","","","","","","","","","75","K","2","","","175","main_expt",""
"","bandit","255","674773","0.0-216.0-0.0","26620314","wem/bandit_either_3","A3OE7882P03XR4","either","8","335","","","","","","","0","0","1","0.3352692614","","0.2","0.8","0.4","0.6","","","","","0.6230679906","0.4705173801","0.3352692614","0.6313830356","","","","","","","","75","K","2","","","176","main_expt",""
"","bandit","256","676676","0.0-217.0-0.0","26620314","wem/bandit_either_3","A3OE7882P03XR4","either","8","361","","","","","","","0","1","0","","0.6501784685","0.2","0.8","0.4","0.6","0.6501784685","0.4698597734","0.3389264817","0.5531265137","","","","","","","","","","","","72","H","0","img/none_selected.jpg","","177","main_expt",""
"","bandit","257","678471","0.0-218.0-0.0","26620314","wem/bandit_either_3","A3OE7882P03XR4","either","8","276","","","","","","","0","0","1","","0.6334155083","0.2","0.8","0.4","0.6","0.6334155083","0.3570804947","0.3709673039","0.4621004187","","","","","","","","","","","","72","H","0","img/none_selected.jpg","","178","main_expt",""
"","bandit","258","680298","0.0-219.0-0.0","26620314","wem/bandit_either_3","A3OE7882P03XR4","either","8","291","","","","","","","0","1","0","","0.7548338289","0.2","0.8","0.4","0.6","0.7548338289","0.3441184995","0.2940579202","0.512884041","","","","","","","","","","","","72","H","0","img/none_selected.jpg","","179","main_expt",""
"","bandit","259","682127","0.0-220.0-0.0","26620314","wem/bandit_either_3","A3OE7882P03XR4","either","8","316","","","","","","","0","1","0","","0.8074073351","0.2","0.8","0.4","0.6","0.8074073351","0.3646136501","0.3218724025","0.506744284","","","","","","","","","","","","72","H","0","img/none_selected.jpg","","180","main_expt",""
"","bandit","260","683987","0.0-221.0-0.0","26620314","wem/bandit_either_3","A3OE7882P03XR4","either","8","312","","","","","","","0","1","0","","0.780721516","0.2","0.8","0.4","0.6","0.780721516","0.3777688814","0.3633286182","0.4556494723","","","","","","","","","","","","72","H","0","img/none_selected.jpg","","181","main_expt",""
"","bandit","261","685856","0.0-222.0-0.0","26620314","wem/bandit_either_3","A3OE7882P03XR4","either","8","325","","","","","","","0","0","1","0.7647415088","","0.2","0.8","0.4","0.6","","","","","0.7647415088","0.4578236703","0.3324048704","0.4494525508","","","","","","","","72","H","0","img/none_selected.jpg","","182","main_expt",""
"","bandit","262","687534","0.0-223.0-0.0","26620314","wem/bandit_either_3","A3OE7882P03XR4","either","8","138","","","","","","","0","0","1","0.4244895098","","0.2","0.8","0.4","0.6","","","","","0.7349307529","0.4244895098","0.3092830871","0.5189143621","","","","","","","","74","J","1","","","183","main_expt",""
"","bandit","263","689467","0.0-224.0-0.0","26620314","wem/bandit_either_3","A3OE7882P03XR4","either","8","398","","","","","","","0","0","1","","0.3566779322","0.2","0.8","0.4","0.6","0.8298088288","0.3566779322","0.3905692936","0.5167606333","","","","","","","","","","","","74","J","1","","","184","main_expt",""
"","bandit","264","691075","0.0-225.0-0.0","26620314","wem/bandit_either_3","A3OE7882P03XR4","either","8","71","","","","","","","0","0","1","0.3737416658","","0.2","0.8","0.4","0.6","","","","","0.7894193193","0.3737416658","0.4626192444","0.5270237034","","","","","","","","74","J","1","","","185","main_expt",""
"","bandit","265","692948","0.0-226.0-0.0","26620314","wem/bandit_either_3","A3OE7882P03XR4","either","8","341","","","","","","","0","1","0","","0.5556036571","0.2","0.8","0.4","0.6","0.7665022487","0.3120176694","0.6061762586","0.5556036571","","","","","","","","","","","","76","L","3","","","186","main_expt",""
"","bandit","266","694784","0.0-227.0-0.0","26620314","wem/bandit_either_3","A3OE7882P03XR4","either","8","302","","","","","","","0","1","0","","0.5865134094","0.2","0.8","0.4","0.6","0.7394266891","0.4134691065","0.530958695","0.5865134094","","","","","","","","","","","","76","L","3","","","187","main_expt",""
"","bandit","267","696638","0.0-228.0-0.0","26620314","wem/bandit_either_3","A3OE7882P03XR4","either","8","311","","","","","","","0","0","1","","0.5034866795","0.2","0.8","0.4","0.6","0.6567361442","0.4637770407","0.380024655","0.5034866795","","","","","","","","","","","","76","L","3","","","188","main_expt",""
"","bandit","268","698434","0.0-229.0-0.0","26620314","wem/bandit_either_3","A3OE7882P03XR4","either","8","246","","","","","","","0","0","1","","0.5761715841","0.2","0.8","0.4","0.6","0.6572443956","0.5739034088","0.4563575644","0.5761715841","","","","","","","","","","","","76","L","3","","","189","main_expt",""
"","bandit","269","700113","0.0-230.0-0.0","26620314","wem/bandit_either_3","A3OE7882P03XR4","either","8","157","","","","","","","1","0","0","0.5325489933","","0.2","0.8","0.4","0.6","","","","","0.6735764162","0.5859504021","0.4540853102","0.5325489933","","","","","","","","76","L","3","","","190","main_expt",""
"","bandit","270","701954","0.0-231.0-0.0","26620314","wem/bandit_either_3","A3OE7882P03XR4","either","8","301","","","","","","","0","0","1","0.5614919892","","0.2","0.8","0.4","0.6","","","","","0.5997518312","0.5325822721","0.4328006462","0.5614919892","","","","","","","","76","L","3","","","191","main_expt",""
"","bandit","271","703675","0.0-232.0-0.0","26620314","wem/bandit_either_3","A3OE7882P03XR4","either","8","172","","","","","","","0","0","1","0.5972832049","","0.2","0.8","0.4","0.6","","","","","0.6582178794","0.4622441745","0.4979354652","0.5972832049","","","","","","","","76","L","3","","","192","main_expt",""
"","bandit","272","705508","0.0-233.0-0.0","26620314","wem/bandit_either_3","A3OE7882P03XR4","either","8","289","","","","","","","1","0","0","0.6997951875","","0.2","0.8","0.4","0.6","","","","","0.7246172867","0.4765036663","0.4887187701","0.6997951875","","","","","","","","76","L","3","","","193","main_expt",""
"","bandit","273","707389","0.0-234.0-0.0","26620314","wem/bandit_either_3","A3OE7882P03XR4","either","8","339","","","","","","","1","0","0","0.7511051992","","0.2","0.8","0.4","0.6","","","","","0.7721250451","0.4504155567","0.4993882896","0.7511051992","","","","","","","","76","L","3","","","194","main_expt",""
"","bandit","274","709236","0.0-235.0-0.0","26620314","wem/bandit_either_3","A3OE7882P03XR4","either","8","317","","","","","","","0","0","1","0.8281457055","","0.2","0.8","0.4","0.6","","","","","0.8366496483","0.4354252764","0.5011331455","0.8281457055","","","","","","","","76","L","3","","","195","main_expt",""
"","bandit","275","711031","0.0-236.0-0.0","26620314","wem/bandit_either_3","A3OE7882P03XR4","either","8","255","","","","","","","0","1","0","","0.8248544968","0.2","0.8","0.4","0.6","0.8484646997","0.4170899215","0.4487960683","0.8248544968","","","","","","","","","","","","76","L","3","","","196","main_expt",""
"","bandit","276","712887","0.0-237.0-0.0","26620314","wem/bandit_either_3","A3OE7882P03XR4","either","8","315","","","","","","","0","0","1","","0.8532714289","0.2","0.8","0.4","0.6","0.8734060335","0.4149059055","0.3975590019","0.8532714289","","","","","","","","","","","","76","L","3","","","197","main_expt",""
"","bandit","277","714735","0.0-238.0-0.0","26620314","wem/bandit_either_3","A3OE7882P03XR4","either","8","304","","","","","","","1","0","0","0.7587337752","","0.2","0.8","0.4","0.6","","","","","0.8515360685","0.4737306044","0.4161601929","0.7587337752","","","","","","","","76","L","3","","","198","main_expt",""
"","bandit","278","716572","0.0-239.0-0.0","26620314","wem/bandit_either_3","A3OE7882P03XR4","either","8","313","","","","","","","1","0","0","0.8124408481","","0.2","0.8","0.4","0.6","","","","","0.8805923715","0.4541760911","0.4483979408","0.8124408481","","","","","","","","76","L","3","","","199","main_expt",""
"","bandit","279","718241","0.0-240.0-0.0","26620314","wem/bandit_either_3","A3OE7882P03XR4","either","8","126","","","","","","","0","1","0","","0.7935778268","0.2","0.8","0.4","0.6","0.9645818821","0.3964714959","0.5303380975","0.7935778268","","","","","","","","","","","","76","L","3","","","200","main_expt",""
"","bandit","280","720096","0.0-241.0-0.0","26620314","wem/bandit_either_3","A3OE7882P03XR4","either","8","318","","","","","","","0","1","0","","0.736942723","0.2","0.8","0.4","0.6","0.9689478708","0.3815447649","0.4014045657","0.736942723","","","","","","","","","","","","76","L","3","","","201","main_expt",""
"","bandit","281","721842","0.0-242.0-0.0","26620314","wem/bandit_either_3","A3OE7882P03XR4","either","8","214","","","","","","","1","0","0","0.7001951276","","0.2","0.8","0.4","0.6","","","","","0.9678291885","0.3726367513","0.5115169607","0.7001951276","","","","","","","","76","L","3","","","202","main_expt",""
"","bandit","282","723714","0.0-243.0-0.0","26620314","wem/bandit_either_3","A3OE7882P03XR4","either","8","337","","","","","","","0","1","0","","0.7209300446","0.2","0.8","0.4","0.6","0.9633244117","0.3062653216","0.5026191452","0.7209300446","","","","","","","","","","","","76","L","3","","","203","main_expt",""
"","bandit","283","725584","0.0-244.0-0.0","26620314","wem/bandit_either_3","A3OE7882P03XR4","either","8","338","","","","","","","1","0","0","0.8574132932","","0.2","0.8","0.4","0.6","","","","","0.9730812582","0.2848501254","0.4736298566","0.8574132932","","","","","","","","76","L","3","","","204","main_expt",""
"","bandit","284","727472","0.0-245.0-0.0","26620314","wem/bandit_either_3","A3OE7882P03XR4","either","8","336","","","","","","","0","1","0","","0.9038760074","0.2","0.8","0.4","0.6","0.9521206422","0.3457586416","0.6121858428","0.9038760074","","","","","","","","","","","","76","L","3","","","205","main_expt",""
"","bandit","285","729366","0.0-246.0-0.0","26620314","wem/bandit_either_3","A3OE7882P03XR4","either","8","345","","","","","","","1","0","0","0.9273356803","","0.2","0.8","0.4","0.6","","","","","0.9614764056","0.4609097875","0.6377028942","0.9273356803","","","","","","","","76","L","3","","","206","main_expt",""
"","bandit","286","731197","0.0-247.0-0.0","26620314","wem/bandit_either_3","A3OE7882P03XR4","either","8","288","","","","","","","0","1","0","","0.9502037039","0.2","0.8","0.4","0.6","0.9625830716","0.4980316736","0.5700483165","0.9502037039","","","","","","","","","","","","76","L","3","","","207","main_expt",""
"","bandit","287","733432","0.0-248.0-0.0","26620314","wem/bandit_either_3","A3OE7882P03XR4","either","8","702","","","","","","","1","0","0","0.944094639","","0.2","0.8","0.4","0.6","","","","","0.9359306517","0.4537691537","0.624428721","0.944094639","","","","","","","","76","L","3","","","208","main_expt",""
"","bandit","288","735426","0.0-249.0-0.0","26620314","wem/bandit_either_3","A3OE7882P03XR4","either","8","462","","","","","","","1","0","0","0.9070839441","","0.2","0.8","0.4","0.6","","","","","0.9632917203","0.4475842875","0.4861871301","0.9070839441","","","","","","","","76","L","3","","","209","main_expt",""
"","bandit","289","737208","0.0-250.0-0.0","26620314","wem/bandit_either_3","A3OE7882P03XR4","either","8","230","","","","","","","0","0","1","","0.8960653589","0.2","0.8","0.4","0.6","0.9633226214","0.4803454055","0.3956361612","0.8960653589","","","","","","","","","","","","76","L","3","","","210","main_expt",""
"","bandit","290","739004","0.0-251.0-0.0","26620314","wem/bandit_either_3","A3OE7882P03XR4","either","8","267","","","","","","","1","0","0","0.9155455821","","0.2","0.8","0.4","0.6","","","","","0.9719781217","0.4126443349","0.3599204452","0.9155455821","","","","","","","","76","L","3","","","211","main_expt",""
"","bandit","291","740852","0.0-252.0-0.0","26620314","wem/bandit_either_3","A3OE7882P03XR4","either","8","307","","","","","","","1","0","0","0.9087954588","","0.2","0.8","0.4","0.6","","","","","0.9700781686","0.3384802849","0.3349000901","0.9087954588","","","","","","","","76","L","3","","","212","main_expt",""
"","bandit","292","742695","0.0-253.0-0.0","26620314","wem/bandit_either_3","A3OE7882P03XR4","either","8","308","","","","","","","0","0","1","0.8528540962","","0.2","0.8","0.4","0.6","","","","","0.971165811","0.3039242722","0.3183344176","0.8528540962","","","","","","","","76","L","3","","","213","main_expt",""
"","bandit","293","744397","0.0-254.0-0.0","26620314","wem/bandit_either_3","A3OE7882P03XR4","either","8","162","","","","","","","1","0","0","0.8506041988","","0.2","0.8","0.4","0.6","","","","","0.9627117","0.4541530846","0.2390758011","0.8506041988","","","","","","","","76","L","3","","","214","main_expt",""
"","bandit","294","746448","0.0-255.0-0.0","26620314","wem/bandit_either_3","A3OE7882P03XR4","either","8","506","","","","","","","1","0","0","0.8001829978","","0.2","0.8","0.4","0.6","","","","","0.9552130497","0.5101749692","0.1997060473","0.8001829978","","","","","","","","76","L","3","","","215","main_expt",""
"","bandit","295","748369","0.0-256.0-0.0","26620314","wem/bandit_either_3","A3OE7882P03XR4","either","8","374","","","","","","","1","0","0","0.733614842","","0.2","0.8","0.4","0.6","","","","","0.9220350188","0.5580520347","0.2326539104","0.733614842","","","","","","","","76","L","3","","","216","main_expt",""
"","bandit","296","750238","0.0-257.0-0.0","26620314","wem/bandit_either_3","A3OE7882P03XR4","either","8","331","","","","","","","1","0","0","0.7479737912","","0.2","0.8","0.4","0.6","","","","","0.8736667029","0.4368451062","0.2319826337","0.7479737912","","","","","","","","76","L","3","","","217","main_expt",""
"","bandit","297","752059","0.0-258.0-0.0","26620314","wem/bandit_either_3","A3OE7882P03XR4","either","8","275","","","","","","","1","0","0","0.7713398237","","0.2","0.8","0.4","0.6","","","","","0.7602784417","0.3963441813","0.3143382807","0.7713398237","","","","","","","","76","L","3","","","218","main_expt",""
"","bandit","298","753907","0.0-259.0-0.0","26620314","wem/bandit_either_3","A3OE7882P03XR4","either","8","309","","","","","","","1","0","0","0.8077055691","","0.2","0.8","0.4","0.6","","","","","0.7643050859","0.4809426617","0.3304972923","0.8077055691","","","","","","","","76","L","3","","","219","main_expt",""
"","bandit","299","755797","0.0-260.0-0.0","26620314","wem/bandit_either_3","A3OE7882P03XR4","either","8","353","","","","","","","0","0","1","0.7778114837","","0.2","0.8","0.4","0.6","","","","","0.7793587236","0.397759556","0.2866104843","0.7778114837","","","","","","","","76","L","3","","","220","main_expt",""
"","bandit","300","757687","0.0-261.0-0.0","26620314","wem/bandit_either_3","A3OE7882P03XR4","either","8","354","","","","","","","1","0","0","0.7214198583","","0.2","0.8","0.4","0.6","","","","","0.82086311","0.4087677593","0.3602561646","0.7214198583","","","","","","","","76","L","3","","","221","main_expt",""
"","bandit","301","759617","0.0-262.0-0.0","26620314","wem/bandit_either_3","A3OE7882P03XR4","either","8","380","","","","","","","0","0","1","0.8091526303","","0.2","0.8","0.4","0.6","","","","","0.8543662658","0.4561280915","0.3228749062","0.8091526303","","","","","","","","76","L","3","","","222","main_expt",""
"","bandit","302","761377","0.0-263.0-0.0","26620314","wem/bandit_either_3","A3OE7882P03XR4","either","8","225","","","","","","","1","0","0","0.8240838469","","0.2","0.8","0.4","0.6","","","","","0.8599459829","0.4419858618","0.2549485676","0.8240838469","","","","","","","","76","L","3","","","223","main_expt",""
"","bandit","303","763338","0.0-264.0-0.0","26620314","wem/bandit_either_3","A3OE7882P03XR4","either","8","423","","","","","","","0","0","1","0.7670685714","","0.2","0.8","0.4","0.6","","","","","0.8747991669","0.494409337","0.2389333491","0.7670685714","","","","","","","","76","L","3","","","224","main_expt",""
"","bandit","304","765179","0.0-265.0-0.0","26620314","wem/bandit_either_3","A3OE7882P03XR4","either","8","281","","","","","","","1","0","0","0.8775689376","","0.2","0.8","0.4","0.6","","","","","0.7910409491","0.3713348049","0.1517307125","0.8775689376","","","","","","","","76","L","3","","","225","main_expt",""
"","bandit","305","767065","0.0-266.0-0.0","26620314","wem/bandit_either_3","A3OE7882P03XR4","either","8","368","","","","","","","0","0","1","0.8846504348","","0.2","0.8","0.4","0.6","","","","","0.7212928749","0.4013452417","0.1002450003","0.8846504348","","","","","","","","76","L","3","","","226","main_expt",""
"","bandit","306","768974","0.0-267.0-0.0","26620314","wem/bandit_either_3","A3OE7882P03XR4","either","8","371","","","","","","","1","0","0","0.851087938","","0.2","0.8","0.4","0.6","","","","","0.7090989562","0.393451628","0.1049945928","0.851087938","","","","","","","","76","L","3","","","227","main_expt",""
"","bandit","307","770996","0.0-268.0-0.0","26620314","wem/bandit_either_3","A3OE7882P03XR4","either","8","483","","","","","","","0","1","0","","0.9074720337","0.2","0.8","0.4","0.6","0.6606736223","0.4175844788","0.03915988122","0.9074720337","","","","","","","","","","","","76","L","3","","","228","main_expt",""
"","bandit","308","772902","0.0-269.0-0.0","26620314","wem/bandit_either_3","A3OE7882P03XR4","either","8","366","","","","","","","0","1","0","","0.872332114","0.2","0.8","0.4","0.6","0.6893924153","0.408368909","0.03767516843","0.872332114","","","","","","","","","","","","76","L","3","","","229","main_expt",""
"","bandit","309","774795","0.0-270.0-0.0","26620314","wem/bandit_either_3","A3OE7882P03XR4","either","8","351","","","","","","","1","0","0","0.7967167456","","0.2","0.8","0.4","0.6","","","","","0.6067604319","0.4777699032","0.05804790214","0.7967167456","","","","","","","","76","L","3","","","230","main_expt",""
"","bandit","310","776674","0.0-271.0-0.0","26620314","wem/bandit_either_3","A3OE7882P03XR4","either","8","337","","","","","","","0","1","0","","0.7760618079","0.2","0.8","0.4","0.6","0.5037419277","0.4935442242","0.04963095007","0.7760618079","","","","","","","","","","","","76","L","3","","","231","main_expt",""
"","bandit","311","778804","0.0-272.0-0.0","26620314","wem/bandit_either_3","A3OE7882P03XR4","either","8","593","","","","","","","0","0","1","0.7765467853","","0.2","0.8","0.4","0.6","","","","","0.4339479185","0.4889590317","0.03759782928","0.7765467853","","","","","","","","76","L","3","","","232","main_expt",""
"","bandit","312","780708","0.0-273.0-0.0","26620314","wem/bandit_either_3","A3OE7882P03XR4","either","8","358","","","","","","","1","0","0","0.7895219362","","0.2","0.8","0.4","0.6","","","","","0.4525546635","0.5212294662","0.03147013274","0.7895219362","","","","","","","","76","L","3","","","233","main_expt",""
"","bandit","313","782448","0.0-274.0-0.0","26620314","wem/bandit_either_3","A3OE7882P03XR4","either","8","187","","","","","","","1","0","0","0.7491899586","","0.2","0.8","0.4","0.6","","","","","0.3680080929","0.4420617392","0.03547440544","0.7491899586","","","","","","","","76","L","3","","","234","main_expt",""
"","bandit","314","784332","0.0-275.0-0.0","26620314","wem/bandit_either_3","A3OE7882P03XR4","either","8","362","","","","","","","0","0","1","0.7397351474","","0.2","0.8","0.4","0.6","","","","","0.3416373547","0.4816955248","0.04486782706","0.7397351474","","","","","","","","76","L","3","","","235","main_expt",""
"","bandit","315","786020","0.0-276.0-0.0","26620314","wem/bandit_either_3","A3OE7882P03XR4","either","8","143","","","","","","","1","0","0","0.6587673302","","0.2","0.8","0.4","0.6","","","","","0.3722877153","0.3028121716","0.03122339122","0.6587673302","","","","","","","","76","L","3","","","236","main_expt",""
"","bandit","316","787851","0.0-277.0-0.0","26620314","wem/bandit_either_3","A3OE7882P03XR4","either","8","295","","","","","","","1","0","0","0.7534934878","","0.2","0.8","0.4","0.6","","","","","0.3081002542","0.3802502189","0.04191117605","0.7534934878","","","","","","","","76","L","3","","","237","main_expt",""
"","bandit","317","790012","0.0-278.0-0.0","26620314","wem/bandit_either_3","A3OE7882P03XR4","either","8","618","","","","","","","0","1","0","","0.8023031038","0.2","0.8","0.4","0.6","0.2546656634","0.4160754302","0.06367740527","0.8023031038","","","","","","","","","","","","76","L","3","","","238","main_expt",""
"","bandit","318","791912","0.0-279.0-0.0","26620314","wem/bandit_either_3","A3OE7882P03XR4","either","8","355","","","","","","","1","0","0","0.8333986962","","0.2","0.8","0.4","0.6","","","","","0.3038323055","0.3510440385","0.06315957527","0.8333986962","","","","","","","","76","L","3","","","239","main_expt",""
"","bandit","319","793796","0.0-280.0-0.0","26620314","wem/bandit_either_3","A3OE7882P03XR4","either","8","330","","","","","","","1","0","0","0.840768508","","0.2","0.8","0.4","0.6","","","","","0.291884511","0.4182550587","0.05324295338","0.840768508","","","","","","","","76","L","3","","","240","main_expt",""
"","bandit","320","795567","0.0-281.0-0.0","26620314","wem/bandit_either_3","A3OE7882P03XR4","either","8","229","","","","","","","1","0","0","0.823006268","","0.2","0.8","0.4","0.6","","","","","0.3124975621","0.5037088371","0.04641095239","0.823006268","","","","","","","","76","L","3","","","241","main_expt",""
"","bandit","321","797323","0.0-282.0-0.0","26620314","wem/bandit_either_3","A3OE7882P03XR4","either","8","227","","","","","","","1","0","0","0.8152254121","","0.2","0.8","0.4","0.6","","","","","0.3637146884","0.4877747003","0.04954190216","0.8152254121","","","","","","","","76","L","3","","","242","main_expt",""
"","bandit","322","799196","0.0-283.0-0.0","26620314","wem/bandit_either_3","A3OE7882P03XR4","either","8","323","","","","","","","0","1","0","","0.8377493118","0.2","0.8","0.4","0.6","0.3304840913","0.5007011316","0.05592390002","0.8377493118","","","","","","","","","","","","76","L","3","","","243","main_expt",""
"","bandit","323","800986","0.0-284.0-0.0","26620314","wem/bandit_either_3","A3OE7882P03XR4","either","8","256","","","","","","","1","0","0","0.8258586067","","0.2","0.8","0.4","0.6","","","","","0.4067767971","0.5730304632","0.03808637997","0.8258586067","","","","","","","","76","L","3","","","244","main_expt",""
"","bandit","324","802727","0.0-285.0-0.0","26620314","wem/bandit_either_3","A3OE7882P03XR4","either","8","182","","","","","","","1","0","0","0.7889424323","","0.2","0.8","0.4","0.6","","","","","0.4091901929","0.6096531262","0.02077199453","0.7889424323","","","","","","","","76","L","3","","","245","main_expt",""
