"consent","trial_type","trial_index","time_elapsed","internal_node_id","subjID","study","MID","cond","drift","rt","responses","key_press","expt_phase","like","value","connected","gems","bombs","no_reward","GemPrChosen","BombPrChosen","GainOverPainPr_0","GainOverPainPr_1","GainOverPainPr_2","GainOverPainPr_3","LosePr_0","LosePr_1","LosePr_2","LosePr_3","WinPr_0","WinPr_1","WinPr_2","WinPr_3","Q0","Q1","Q2","gender","age","ethnicity","target","respCharCode","respKey","respChoiceNum","respChoice","practice","trial_counter","trial_label","button_pressed"
"INL_behavioral_consent_30min_online.html","consent","0","22842","0.0-0.0","27258699","wem/bandit_either_3","AVI7K876BV3QL","either","5","","","","","","","","","","","","","","","","","","","","","","","","","","","","","","","","","","","","","","",""
"","survey-text","1","35760","0.0-1.0","27258699","wem/bandit_either_3","AVI7K876BV3QL","either","5","11888","{""Q0"":""AVI7K876BV3QL""}","","","","","","","","","","","","","","","","","","","","","","","","","","","","","","","","","","","","",""
"","text","2","47763","0.0-2.0","27258699","wem/bandit_either_3","AVI7K876BV3QL","either","5","10983","","32","","","","","","","","","","","","","","","","","","","","","","","","","","","","","","","","","","","",""
"","text","3","58582","0.0-3.0","27258699","wem/bandit_either_3","AVI7K876BV3QL","either","5","10813","","32","","","","","","","","","","","","","","","","","","","","","","","","","","","","","","","","","","","",""
"","text","4","84138","0.0-4.0","27258699","wem/bandit_either_3","AVI7K876BV3QL","either","5","25542","","32","","","","","","","","","","","","","","","","","","","","","","","","","","","","","","","","","","","",""
"","text","5","102606","0.0-5.0","27258699","wem/bandit_either_3","AVI7K876BV3QL","either","5","18454","","32","","","","","","","","","","","","","","","","","","","","","","","","","","","","","","","","","","","",""
"","text","6","127061","0.0-6.0","27258699","wem/bandit_either_3","AVI7K876BV3QL","either","5","24452","","32","","","","","","","","","","","","","","","","","","","","","","","","","","","","","","","","","","","",""
"","text","7","135057","0.0-7.0","27258699","wem/bandit_either_3","AVI7K876BV3QL","either","5","7991","","32","","","","","","","","","","","","","","","","","","","","","","","","","","","","","","","","","","","",""
"","text","8","141603","0.0-8.0","27258699","wem/bandit_either_3","AVI7K876BV3QL","either","5","6543","","32","","","","","","","","","","","","","","","","","","","","","","","","","","","","","","","","","","","",""
"","identification","9","152927","0.0-9.0-0.0","27258699","wem/bandit_either_3","AVI7K876BV3QL","either","5","11275","","","","6","6","6","","","","","","","","","","","","","","","","","","","","","","","","the village of Zur","","","","","","","",""
"","identification","10","161188","0.0-9.0-1.0","27258699","wem/bandit_either_3","AVI7K876BV3QL","either","5","7211","","","","0","0","0","","","","","","","","","","","","","","","","","","","","","","","","the village of Nyx","","","","","","","",""
"","text","11","172923","0.0-10.0","27258699","wem/bandit_either_3","AVI7K876BV3QL","either","5","10694","","32","","","","","","","","","","","","","","","","","","","","","","","","","","","","","","","","","","","",""
"","text","12","178169","0.0-11.0","27258699","wem/bandit_either_3","AVI7K876BV3QL","either","5","5232","","32","","","","","","","","","","","","","","","","","","","","","","","","","","","","","","","","","","","",""
"","text","13","181389","0.0-12.0","27258699","wem/bandit_either_3","AVI7K876BV3QL","either","5","3201","","32","","","","","","","","","","","","","","","","","","","","","","","","","","","","","","","","","","","",""
"","text","14","185742","0.0-13.0","27258699","wem/bandit_either_3","AVI7K876BV3QL","either","5","4336","","32","","","","","","","","","","","","","","","","","","","","","","","","","","","","","","","","","","","",""
"","bandit","15","194421","0.0-14.0-0.0","27258699","wem/bandit_either_3","AVI7K876BV3QL","either","5","7129","","","","","","","0","0","1","0","0","","","","","0","","","","0","","","","","","","","","","","74","J","0","img/none_selected_demo.jpg","true","0","",""
"","bandit","16","201817","0.0-15.0-0.0","27258699","wem/bandit_either_3","AVI7K876BV3QL","either","5","5870","","","","","","","0","0","1","0","0","","","","","0","","","","0","","","","","","","","","","","75","K","0","img/none_selected_demo.jpg","true","0","",""
"","text","17","214047","0.0-16.0","27258699","wem/bandit_either_3","AVI7K876BV3QL","either","5","12227","","32","","","","","","","","","","","","","","","","","","","","","","","","","","","","","","","","","","","",""
"","text","18","224963","0.0-17.0","27258699","wem/bandit_either_3","AVI7K876BV3QL","either","5","10913","","32","","","","","","","","","","","","","","","","","","","","","","","","","","","","","","","","","","","",""
"","text","19","232329","0.0-18.0","27258699","wem/bandit_either_3","AVI7K876BV3QL","either","5","7349","","32","","","","","","","","","","","","","","","","","","","","","","","","","","","","","","","","","","","",""
"","text","20","236647","0.0-19.0","27258699","wem/bandit_either_3","AVI7K876BV3QL","either","5","4300","","32","","","","","","","","","","","","","","","","","","","","","","","","","","","","","","","","","","","",""
"","bandit","21","243160","0.0-20.0-0.0","27258699","wem/bandit_either_3","AVI7K876BV3QL","either","5","4982","","","","","","","0","0","1","","0.2","0.5","0.5","","","0.8","0.2","","","","","","","","","","","","","","75","K","1","","true","0","80_20_practice",""
"","bandit","22","247895","0.0-20.0-1.0","27258699","wem/bandit_either_3","AVI7K876BV3QL","either","5","3188","","","","","","","0","0","1","","0.8","0.5","0.5","","","0.8","0.2","","","","","","","","","","","","","","74","J","0","img/none_selected_demo.jpg","true","0","80_20_practice",""
"","bandit","23","250318","0.0-20.0-2.0","27258699","wem/bandit_either_3","AVI7K876BV3QL","either","5","863","","","","","","","1","0","0","0.2","","0.5","0.5","","","","","","","0.8","0.2","","","","","","","","","","75","K","1","","true","0","80_20_practice",""
"","bandit","24","252241","0.0-20.0-3.0","27258699","wem/bandit_either_3","AVI7K876BV3QL","either","5","397","","","","","","","0","0","1","","0.2","0.5","0.5","","","0.8","0.2","","","","","","","","","","","","","","75","K","1","","true","0","80_20_practice",""
"","bandit","25","254583","0.0-20.0-4.0","27258699","wem/bandit_either_3","AVI7K876BV3QL","either","5","796","","","","","","","0","0","1","0.2","","0.5","0.5","","","","","","","0.8","0.2","","","","","","","","","","75","K","1","","true","0","80_20_practice",""
"","bandit","26","256974","0.0-20.0-5.0","27258699","wem/bandit_either_3","AVI7K876BV3QL","either","5","866","","","","","","","0","0","1","0.2","","0.5","0.5","","","","","","","0.8","0.2","","","","","","","","","","75","K","1","","true","0","80_20_practice",""
"","bandit","27","259009","0.0-20.0-6.0","27258699","wem/bandit_either_3","AVI7K876BV3QL","either","5","466","","","","","","","1","0","0","0.8","","0.5","0.5","","","","","","","0.8","0.2","","","","","","","","","","74","J","0","img/none_selected_demo.jpg","true","0","80_20_practice",""
"","bandit","28","261050","0.0-20.0-7.0","27258699","wem/bandit_either_3","AVI7K876BV3QL","either","5","491","","","","","","","0","1","0","","0.8","0.5","0.5","","","0.8","0.2","","","","","","","","","","","","","","74","J","0","img/none_selected_demo.jpg","true","0","80_20_practice",""
"","bandit","29","263080","0.0-20.0-8.0","27258699","wem/bandit_either_3","AVI7K876BV3QL","either","5","468","","","","","","","1","0","0","0.8","","0.5","0.5","","","","","","","0.8","0.2","","","","","","","","","","74","J","0","img/none_selected_demo.jpg","true","0","80_20_practice",""
"","bandit","30","264961","0.0-20.0-9.0","27258699","wem/bandit_either_3","AVI7K876BV3QL","either","5","336","","","","","","","0","1","0","","0.8","0.5","0.5","","","0.8","0.2","","","","","","","","","","","","","","74","J","0","img/none_selected_demo.jpg","true","0","80_20_practice",""
"","bandit","31","266911","0.0-20.0-10.0","27258699","wem/bandit_either_3","AVI7K876BV3QL","either","5","399","","","","","","","1","0","0","0.8","","0.5","0.5","","","","","","","0.8","0.2","","","","","","","","","","74","J","0","img/none_selected_demo.jpg","true","0","80_20_practice",""
"","bandit","32","268760","0.0-20.0-11.0","27258699","wem/bandit_either_3","AVI7K876BV3QL","either","5","321","","","","","","","1","0","0","0.8","","0.5","0.5","","","","","","","0.8","0.2","","","","","","","","","","74","J","0","img/none_selected_demo.jpg","true","0","80_20_practice",""
"","bandit","33","270611","0.0-20.0-12.0","27258699","wem/bandit_either_3","AVI7K876BV3QL","either","5","296","","","","","","","1","0","0","0.8","","0.5","0.5","","","","","","","0.8","0.2","","","","","","","","","","74","J","0","img/none_selected_demo.jpg","true","0","80_20_practice",""
"","bandit","34","272477","0.0-20.0-13.0","27258699","wem/bandit_either_3","AVI7K876BV3QL","either","5","319","","","","","","","0","0","1","","0.8","0.5","0.5","","","0.8","0.2","","","","","","","","","","","","","","74","J","0","img/none_selected_demo.jpg","true","0","80_20_practice",""
"","bandit","35","274583","0.0-20.0-14.0","27258699","wem/bandit_either_3","AVI7K876BV3QL","either","5","567","","","","","","","0","1","0","","0.8","0.5","0.5","","","0.8","0.2","","","","","","","","","","","","","","74","J","0","img/none_selected_demo.jpg","true","0","80_20_practice",""
"","bandit","36","276374","0.0-20.0-15.0","27258699","wem/bandit_either_3","AVI7K876BV3QL","either","5","232","","","","","","","1","0","0","0.8","","0.5","0.5","","","","","","","0.8","0.2","","","","","","","","","","74","J","0","img/none_selected_demo.jpg","true","0","80_20_practice",""
"","bandit","37","278208","0.0-20.0-16.0","27258699","wem/bandit_either_3","AVI7K876BV3QL","either","5","305","","","","","","","1","0","0","0.8","","0.5","0.5","","","","","","","0.8","0.2","","","","","","","","","","74","J","0","img/none_selected_demo.jpg","true","0","80_20_practice",""
"","bandit","38","280040","0.0-20.0-17.0","27258699","wem/bandit_either_3","AVI7K876BV3QL","either","5","306","","","","","","","1","0","0","0.8","","0.5","0.5","","","","","","","0.8","0.2","","","","","","","","","","74","J","0","img/none_selected_demo.jpg","true","0","80_20_practice",""
"","bandit","39","281874","0.0-20.0-18.0","27258699","wem/bandit_either_3","AVI7K876BV3QL","either","5","305","","","","","","","0","0","1","","0.8","0.5","0.5","","","0.8","0.2","","","","","","","","","","","","","","74","J","0","img/none_selected_demo.jpg","true","0","80_20_practice",""
"","bandit","40","283988","0.0-20.0-19.0","27258699","wem/bandit_either_3","AVI7K876BV3QL","either","5","568","","","","","","","1","0","0","0.8","","0.5","0.5","","","","","","","0.8","0.2","","","","","","","","","","74","J","0","img/none_selected_demo.jpg","true","0","80_20_practice",""
"","text","41","295490","0.0-21.0","27258699","wem/bandit_either_3","AVI7K876BV3QL","either","5","11488","","32","","","","","","","","","","","","","","","","","","","","","","","","","","","","","","","","","","","",""
"","bandit","42","298669","0.0-22.0-0.0","27258699","wem/bandit_either_3","AVI7K876BV3QL","either","5","1622","","","","","","","1","0","0","1","0","","","","","0","1","","","1","0","","","","","","","","","","74","J","0","img/none_selected_demo.jpg","true","0","",""
"","text","43","378549","0.0-23.0","27258699","wem/bandit_either_3","AVI7K876BV3QL","either","5","79865","","32","","","","","","","","","","","","","","","","","","","","","","","","","","","","","","","","","","","",""
"","text","44","382881","0.0-24.0","27258699","wem/bandit_either_3","AVI7K876BV3QL","either","5","4326","","32","","","","","","","","","","","","","","","","","","","","","","","","","","","","","","","","","","","",""
"","text","45","386289","0.0-25.0","27258699","wem/bandit_either_3","AVI7K876BV3QL","either","5","3398","","32","","","","","","","","","","","","","","","","","","","","","","","","","","","","","","","","","","","",""
"","text","46","389752","0.0-26.0","27258699","wem/bandit_either_3","AVI7K876BV3QL","either","5","3454","","32","","","","","","","","","","","","","","","","","","","","","","","","","","","","","","","","","","","",""
"","text","47","399789","0.0-27.0","27258699","wem/bandit_either_3","AVI7K876BV3QL","either","5","10026","","32","","","","","","","","","","","","","","","","","","","","","","","","","","","","","","","","","","","",""
"","text","48","403626","0.0-28.0","27258699","wem/bandit_either_3","AVI7K876BV3QL","either","5","3831","","32","","","","","","","","","","","","","","","","","","","","","","","","","","","","","","","","","","","",""
"","text","49","408297","0.0-29.0","27258699","wem/bandit_either_3","AVI7K876BV3QL","either","5","4645","","32","","","","","","","","","","","","","","","","","","","","","","","","","","","","","","","","","","","",""
"","text","50","413070","0.0-30.0","27258699","wem/bandit_either_3","AVI7K876BV3QL","either","5","4763","","32","","","","","","","","","","","","","","","","","","","","","","","","","","","","","","","","","","","",""
"","text","51","418657","0.0-31.0","27258699","wem/bandit_either_3","AVI7K876BV3QL","either","5","5582","","32","","","","","","","","","","","","","","","","","","","","","","","","","","","","","","","","","","","",""
"","text","52","422821","0.0-32.0","27258699","wem/bandit_either_3","AVI7K876BV3QL","either","5","4160","","32","","","","","","","","","","","","","","","","","","","","","","","","","","","","","","","","","","","",""
"","text","53","436507","0.0-33.0","27258699","wem/bandit_either_3","AVI7K876BV3QL","either","5","13660","","32","","","","","","","","","","","","","","","","","","","","","","","","","","","","","","","","","","","",""
"","bandit","54","439091","0.0-34.0-0.0","27258699","wem/bandit_either_3","AVI7K876BV3QL","either","5","1043","","","","","","","0","1","0","","0.6","0.5","0.5","0.5","0.5","0.8","0.2","0.6","0.2","","","","","","","","","","","","75","K","2","","true","0","full_practice",""
"","bandit","55","441995","0.0-34.0-1.0","27258699","wem/bandit_either_3","AVI7K876BV3QL","either","5","1363","","","","","","","0","0","1","0.2","","0.5","0.5","0.5","0.5","","","","","0.8","0.2","0.6","0.2","","","","","","","","74","J","1","","true","0","full_practice",""
"","bandit","56","451487","0.0-34.0-2.0","27258699","wem/bandit_either_3","AVI7K876BV3QL","either","5","7936","","","","","","","0","1","0","","0.8","0.5","0.5","0.5","0.5","0.8","0.2","0.6","0.2","","","","","","","","","","","","72","H","0","img/none_selected.jpg","true","0","full_practice",""
"","bandit","57","453653","0.0-34.0-3.0","27258699","wem/bandit_either_3","AVI7K876BV3QL","either","5","628","","","","","","","0","0","1","","0.2","0.5","0.5","0.5","0.5","0.8","0.2","0.6","0.2","","","","","","","","","","","","76","L","3","","true","0","full_practice",""
"","bandit","58","455799","0.0-34.0-4.0","27258699","wem/bandit_either_3","AVI7K876BV3QL","either","5","613","","","","","","","0","1","0","","0.6","0.5","0.5","0.5","0.5","0.8","0.2","0.6","0.2","","","","","","","","","","","","75","K","2","","true","0","full_practice",""
"","bandit","59","457680","0.0-34.0-5.0","27258699","wem/bandit_either_3","AVI7K876BV3QL","either","5","334","","","","","","","1","0","0","0.8","","0.5","0.5","0.5","0.5","","","","","0.8","0.2","0.6","0.2","","","","","","","","72","H","0","img/none_selected.jpg","true","0","full_practice",""
"","bandit","60","459574","0.0-34.0-6.0","27258699","wem/bandit_either_3","AVI7K876BV3QL","either","5","367","","","","","","","1","0","0","0.8","","0.5","0.5","0.5","0.5","","","","","0.8","0.2","0.6","0.2","","","","","","","","72","H","0","img/none_selected.jpg","true","0","full_practice",""
"","bandit","61","461439","0.0-34.0-7.0","27258699","wem/bandit_either_3","AVI7K876BV3QL","either","5","327","","","","","","","1","0","0","0.8","","0.5","0.5","0.5","0.5","","","","","0.8","0.2","0.6","0.2","","","","","","","","72","H","0","img/none_selected.jpg","true","0","full_practice",""
"","bandit","62","463284","0.0-34.0-8.0","27258699","wem/bandit_either_3","AVI7K876BV3QL","either","5","318","","","","","","","0","0","1","","0.8","0.5","0.5","0.5","0.5","0.8","0.2","0.6","0.2","","","","","","","","","","","","72","H","0","img/none_selected.jpg","true","0","full_practice",""
"","bandit","63","465690","0.0-34.0-9.0","27258699","wem/bandit_either_3","AVI7K876BV3QL","either","5","847","","","","","","","0","0","1","","0.6","0.5","0.5","0.5","0.5","0.8","0.2","0.6","0.2","","","","","","","","","","","","75","K","2","","true","0","full_practice",""
"","bandit","64","467316","0.0-34.0-10.0","27258699","wem/bandit_either_3","AVI7K876BV3QL","either","5","86","","","","","","","0","1","0","","0.8","0.5","0.5","0.5","0.5","0.8","0.2","0.6","0.2","","","","","","","","","","","","72","H","0","img/none_selected.jpg","true","0","full_practice",""
"","bandit","65","469197","0.0-34.0-11.0","27258699","wem/bandit_either_3","AVI7K876BV3QL","either","5","333","","","","","","","0","1","0","","0.8","0.5","0.5","0.5","0.5","0.8","0.2","0.6","0.2","","","","","","","","","","","","72","H","0","img/none_selected.jpg","true","0","full_practice",""
"","bandit","66","471146","0.0-34.0-12.0","27258699","wem/bandit_either_3","AVI7K876BV3QL","either","5","410","","","","","","","0","1","0","","0.8","0.5","0.5","0.5","0.5","0.8","0.2","0.6","0.2","","","","","","","","","","","","72","H","0","img/none_selected.jpg","true","0","full_practice",""
"","bandit","67","473245","0.0-34.0-13.0","27258699","wem/bandit_either_3","AVI7K876BV3QL","either","5","562","","","","","","","0","1","0","","0.6","0.5","0.5","0.5","0.5","0.8","0.2","0.6","0.2","","","","","","","","","","","","75","K","2","","true","0","full_practice",""
"","bandit","68","475043","0.0-34.0-14.0","27258699","wem/bandit_either_3","AVI7K876BV3QL","either","5","259","","","","","","","1","0","0","0.8","","0.5","0.5","0.5","0.5","","","","","0.8","0.2","0.6","0.2","","","","","","","","72","H","0","img/none_selected.jpg","true","0","full_practice",""
"","bandit","69","477141","0.0-34.0-15.0","27258699","wem/bandit_either_3","AVI7K876BV3QL","either","5","553","","","","","","","0","0","1","","0.8","0.5","0.5","0.5","0.5","0.8","0.2","0.6","0.2","","","","","","","","","","","","72","H","0","img/none_selected.jpg","true","0","full_practice",""
"","bandit","70","479377","0.0-34.0-16.0","27258699","wem/bandit_either_3","AVI7K876BV3QL","either","5","677","","","","","","","0","0","1","0.2","","0.5","0.5","0.5","0.5","","","","","0.8","0.2","0.6","0.2","","","","","","","","74","J","1","","true","0","full_practice",""
"","bandit","71","480910","0.0-34.0-17.0","27258699","wem/bandit_either_3","AVI7K876BV3QL","either","5","1","","","","","","","0","0","1","","0.6","0.5","0.5","0.5","0.5","0.8","0.2","0.6","0.2","","","","","","","","","","","","75","K","2","","true","0","full_practice",""
"","bandit","72","482859","0.0-34.0-18.0","27258699","wem/bandit_either_3","AVI7K876BV3QL","either","5","409","","","","","","","0","0","1","0.8","","0.5","0.5","0.5","0.5","","","","","0.8","0.2","0.6","0.2","","","","","","","","72","H","0","img/none_selected.jpg","true","0","full_practice",""
"","bandit","73","484697","0.0-34.0-19.0","27258699","wem/bandit_either_3","AVI7K876BV3QL","either","5","298","","","","","","","0","0","1","0.2","","0.5","0.5","0.5","0.5","","","","","0.8","0.2","0.6","0.2","","","","","","","","76","L","3","","true","0","full_practice",""
"","text","74","489641","0.0-35.0","27258699","wem/bandit_either_3","AVI7K876BV3QL","either","5","4912","","32","","","","","","","","","","","","","","","","","","","","","","","","","","","","","","","","","","","",""
"","text","75","506302","0.0-36.0","27258699","wem/bandit_either_3","AVI7K876BV3QL","either","5","15644","","32","","","","","","","","","","","","","","","","","","","","","","","","","","","","","","","","","","","",""
"","text","76","508314","0.0-37.0","27258699","wem/bandit_either_3","AVI7K876BV3QL","either","5","1990","","32","","","","","","","","","","","","","","","","","","","","","","","","","","","","","","","","","","","",""
"","text","77","514713","0.0-38.0","27258699","wem/bandit_either_3","AVI7K876BV3QL","either","5","6380","","32","","","","","","","","","","","","","","","","","","","","","","","","","","","","","","","","","","","",""
"","text","78","524070","0.0-39.0","27258699","wem/bandit_either_3","AVI7K876BV3QL","either","5","9341","","32","","","","","","","","","","","","","","","","","","","","","","","","","","","","","","","","","","","",""
"","text","79","531521","0.0-40.0","27258699","wem/bandit_either_3","AVI7K876BV3QL","either","5","7437","","32","","","","","","","","","","","","","","","","","","","","","","","","","","","","","","","","","","","",""
"","bandit","80","534626","0.0-41.0-0.0","27258699","wem/bandit_either_3","AVI7K876BV3QL","either","5","1562","","","","","","","0","0","1","","0.4253928501","0.4","0.2","0.6","0.8","0.6131215568","0.4909711759","0.4253928501","0.32692793","","","","","","","","","","","","75","K","2","","","1","main_expt",""
"","bandit","81","536579","0.0-42.0-0.0","27258699","wem/bandit_either_3","AVI7K876BV3QL","either","5","403","","","","","","","0","1","0","","0.6783759564","0.4","0.2","0.6","0.8","0.6783759564","0.5514346198","0.5447097682","0.3068321923","","","","","","","","","","","","72","H","0","img/none_selected.jpg","","2","main_expt",""
"","bandit","82","538620","0.0-43.0-0.0","27258699","wem/bandit_either_3","AVI7K876BV3QL","either","5","512","","","","","","","0","1","0","","0.5966913043","0.4","0.2","0.6","0.8","0.6535049038","0.5966913043","0.5631376832","0.2871808385","","","","","","","","","","","","74","J","1","","","3","main_expt",""
"","bandit","83","540514","0.0-44.0-0.0","27258699","wem/bandit_either_3","AVI7K876BV3QL","either","5","368","","","","","","","0","0","1","0.3062311279","","0.4","0.2","0.6","0.8","","","","","0.5433476707","0.6236804691","0.5889355808","0.3062311279","","","","","","","","76","L","3","","","4","main_expt",""
"","bandit","84","542081","0.0-45.0-0.0","27258699","wem/bandit_either_3","AVI7K876BV3QL","either","5","33","","","","","","","0","0","1","","0.4256320799","0.4","0.2","0.6","0.8","0.4256320799","0.5844938386","0.6125363118","0.2453374439","","","","","","","","","","","","72","H","0","img/none_selected.jpg","","5","main_expt",""
"","bandit","85","544005","0.0-46.0-0.0","27258699","wem/bandit_either_3","AVI7K876BV3QL","either","5","397","","","","","","","0","0","1","","0.4929788692","0.4","0.2","0.6","0.8","0.4097031487","0.4929788692","0.5204159956","0.2258644136","","","","","","","","","","","","74","J","1","","","6","main_expt",""
"","bandit","86","546121","0.0-47.0-0.0","27258699","wem/bandit_either_3","AVI7K876BV3QL","either","5","567","","","","","","","0","1","0","","0.3978044106","0.4","0.2","0.6","0.8","0.4614862243","0.3978044106","0.5949894572","0.2251512132","","","","","","","","","","","","74","J","1","","","7","main_expt",""
"","bandit","87","548101","0.0-48.0-0.0","27258699","wem/bandit_either_3","AVI7K876BV3QL","either","5","442","","","","","","","0","1","0","","0.4305419438","0.4","0.2","0.6","0.8","0.4305419438","0.5080346622","0.7043393759","0.1597376121","","","","","","","","","","","","72","H","0","img/none_selected.jpg","","8","main_expt",""
"","bandit","88","550201","0.0-49.0-0.0","27258699","wem/bandit_either_3","AVI7K876BV3QL","either","5","569","","","","","","","0","0","1","","0.440708512","0.4","0.2","0.6","0.8","0.6000641755","0.440708512","0.6866437556","0.1395884133","","","","","","","","","","","","74","J","1","","","9","main_expt",""
"","bandit","89","552406","0.0-50.0-0.0","27258699","wem/bandit_either_3","AVI7K876BV3QL","either","5","678","","","","","","","1","0","0","0.66675231","","0.4","0.2","0.6","0.8","","","","","0.66675231","0.4862198985","0.6743415364","0.1529628815","","","","","","","","72","H","0","img/none_selected.jpg","","10","main_expt",""
"","bandit","90","554611","0.0-51.0-0.0","27258699","wem/bandit_either_3","AVI7K876BV3QL","either","5","679","","","","","","","0","1","0","","0.538431352","0.4","0.2","0.6","0.8","0.538431352","0.4942886423","0.6907290289","0.1918890603","","","","","","","","","","","","72","H","0","img/none_selected.jpg","","11","main_expt",""
"","bandit","91","556667","0.0-52.0-0.0","27258699","wem/bandit_either_3","AVI7K876BV3QL","either","5","508","","","","","","","0","0","1","","0.5683478731","0.4","0.2","0.6","0.8","0.5683478731","0.4999864232","0.7254617755","0.1412308375","","","","","","","","","","","","72","H","0","img/none_selected.jpg","","12","main_expt",""
"","bandit","92","558853","0.0-53.0-0.0","27258699","wem/bandit_either_3","AVI7K876BV3QL","either","5","644","","","","","","","0","0","1","0.3945724157","","0.4","0.2","0.6","0.8","","","","","0.5870071372","0.3945724157","0.7533793381","0.1854965676","","","","","","","","74","J","1","","","13","main_expt",""
"","bandit","93","560983","0.0-54.0-0.0","27258699","wem/bandit_either_3","AVI7K876BV3QL","either","5","590","","","","","","","1","0","0","0.3389967741","","0.4","0.2","0.6","0.8","","","","","0.3389967741","0.458684297","0.6909187676","0.2200151947","","","","","","","","72","H","0","img/none_selected.jpg","","14","main_expt",""
"","bandit","94","567299","0.0-55.0-0.0","27258699","wem/bandit_either_3","AVI7K876BV3QL","either","5","4772","","","","","","","1","0","0","0.2927381815","","0.4","0.2","0.6","0.8","","","","","0.2927381815","0.5338449271","0.7916820586","0.1497743902","","","","","","","","72","H","0","img/none_selected.jpg","","15","main_expt",""
"","bandit","95","569637","0.0-56.0-0.0","27258699","wem/bandit_either_3","AVI7K876BV3QL","either","5","785","","","","","","","0","0","1","0.2268478953","","0.4","0.2","0.6","0.8","","","","","0.2268478953","0.6821016448","0.7991661796","0.1767244745","","","","","","","","72","H","0","img/none_selected.jpg","","16","main_expt",""
"","bandit","96","572126","0.0-57.0-0.0","27258699","wem/bandit_either_3","AVI7K876BV3QL","either","5","947","","","","","","","0","1","0","","0.6963612506","0.4","0.2","0.6","0.8","0.2364877179","0.6963612506","0.7352739439","0.1953364786","","","","","","","","","","","","74","J","1","","","17","main_expt",""
"","bandit","97","574627","0.0-58.0-0.0","27258699","wem/bandit_either_3","AVI7K876BV3QL","either","5","957","","","","","","","1","0","0","0.280777314","","0.4","0.2","0.6","0.8","","","","","0.280777314","0.7035779666","0.6911569498","0.139355503","","","","","","","","72","H","0","img/none_selected.jpg","","18","main_expt",""
"","bandit","98","576889","0.0-59.0-0.0","27258699","wem/bandit_either_3","AVI7K876BV3QL","either","5","724","","","","","","","0","0","1","","0.3280428268","0.4","0.2","0.6","0.8","0.3280428268","0.677086514","0.6372159304","0.129677489","","","","","","","","","","","","72","H","0","img/none_selected.jpg","","19","main_expt",""
"","bandit","99","579143","0.0-60.0-0.0","27258699","wem/bandit_either_3","AVI7K876BV3QL","either","5","715","","","","","","","0","0","1","","0.213865824","0.4","0.2","0.6","0.8","0.213865824","0.5211019236","0.5917564331","0.1584506979","","","","","","","","","","","","72","H","0","img/none_selected.jpg","","20","main_expt",""
"","bandit","100","581307","0.0-61.0-0.0","27258699","wem/bandit_either_3","AVI7K876BV3QL","either","5","609","","","","","","","0","0","1","","0.2755747612","0.4","0.2","0.6","0.8","0.2755747612","0.6040081297","0.6351733259","0.1934985877","","","","","","","","","","","","72","H","0","img/none_selected.jpg","","21","main_expt",""
"","bandit","101","583191","0.0-62.0-0.0","27258699","wem/bandit_either_3","AVI7K876BV3QL","either","5","348","","","","","","","1","0","0","0.5276460007","","0.4","0.2","0.6","0.8","","","","","0.3096891892","0.5276460007","0.57448168","0.1184813826","","","","","","","","74","J","1","","","22","main_expt",""
"","bandit","102","585197","0.0-63.0-0.0","27258699","wem/bandit_either_3","AVI7K876BV3QL","either","5","471","","","","","","","0","1","0","","0.4373756081","0.4","0.2","0.6","0.8","0.1855444332","0.4373756081","0.532235281","0.1387482349","","","","","","","","","","","","74","J","1","","","23","main_expt",""
"","bandit","103","587641","0.0-64.0-0.0","27258699","wem/bandit_either_3","AVI7K876BV3QL","either","5","887","","","","","","","0","0","1","","0.4051577966","0.4","0.2","0.6","0.8","0.2026045625","0.4051577966","0.4695599312","0.1275075135","","","","","","","","","","","","74","J","1","","","24","main_expt",""
"","bandit","104","589549","0.0-65.0-0.0","27258699","wem/bandit_either_3","AVI7K876BV3QL","either","5","377","","","","","","","0","0","1","0.2610081957","","0.4","0.2","0.6","0.8","","","","","0.2610081957","0.3583026632","0.3710761786","0.1324238285","","","","","","","","72","H","0","img/none_selected.jpg","","25","main_expt",""
"","bandit","105","591556","0.0-66.0-0.0","27258699","wem/bandit_either_3","AVI7K876BV3QL","either","5","461","","","","","","","0","0","1","0.3104834237","","0.4","0.2","0.6","0.8","","","","","0.2068764453","0.4070676783","0.3104834237","0.2222282692","","","","","","","","75","K","2","","","26","main_expt",""
"","bandit","106","593635","0.0-67.0-0.0","27258699","wem/bandit_either_3","AVI7K876BV3QL","either","5","549","","","","","","","0","0","1","","0.2367528544","0.4","0.2","0.6","0.8","0.1387354037","0.3962805628","0.4250638914","0.2367528544","","","","","","","","","","","","76","L","3","","","27","main_expt",""
"","bandit","107","595570","0.0-68.0-0.0","27258699","wem/bandit_either_3","AVI7K876BV3QL","either","5","392","","","","","","","0","0","1","","0.3381264529","0.4","0.2","0.6","0.8","0.2065421522","0.3381264529","0.3738912408","0.1581712713","","","","","","","","","","","","74","J","1","","","28","main_expt",""
"","bandit","108","597438","0.0-69.0-0.0","27258699","wem/bandit_either_3","AVI7K876BV3QL","either","5","330","","","","","","","0","0","1","","0.2452437498","0.4","0.2","0.6","0.8","0.2452437498","0.3405446746","0.411092256","0.2361440946","","","","","","","","","","","","72","H","0","img/none_selected.jpg","","29","main_expt",""
"","bandit","109","599369","0.0-70.0-0.0","27258699","wem/bandit_either_3","AVI7K876BV3QL","either","5","388","","","","","","","0","1","0","","0.306262239","0.4","0.2","0.6","0.8","0.3076129501","0.3536414415","0.306262239","0.3051502752","","","","","","","","","","","","75","K","2","","","30","main_expt",""
"","bandit","110","601317","0.0-71.0-0.0","27258699","wem/bandit_either_3","AVI7K876BV3QL","either","5","391","","","","","","","0","0","1","","0.3588845582","0.4","0.2","0.6","0.8","0.275744379","0.3201297868","0.2846857217","0.3588845582","","","","","","","","","","","","76","L","3","","","31","main_expt",""
"","bandit","111","603253","0.0-72.0-0.0","27258699","wem/bandit_either_3","AVI7K876BV3QL","either","5","380","","","","","","","0","0","1","0.260797537","","0.4","0.2","0.6","0.8","","","","","0.1582224348","0.414050106","0.260797537","0.3351264969","","","","","","","","75","K","2","","","32","main_expt",""
"","bandit","112","605229","0.0-73.0-0.0","27258699","wem/bandit_either_3","AVI7K876BV3QL","either","5","437","","","","","","","0","0","1","","0.4846208784","0.4","0.2","0.6","0.8","0.07234251762","0.4846208784","0.3108282978","0.3369799553","","","","","","","","","","","","74","J","1","","","33","main_expt",""
"","bandit","113","607249","0.0-74.0-0.0","27258699","wem/bandit_either_3","AVI7K876BV3QL","either","5","476","","","","","","","0","0","1","","0.3996464291","0.4","0.2","0.6","0.8","0.07244310326","0.4250330595","0.3996464291","0.3040676539","","","","","","","","","","","","75","K","2","","","34","main_expt",""
"","bandit","114","609228","0.0-75.0-0.0","27258699","wem/bandit_either_3","AVI7K876BV3QL","either","5","443","","","","","","","0","1","0","","0.4368131495","0.4","0.2","0.6","0.8","0.07140094546","0.499329675","0.4368131495","0.2974236485","","","","","","","","","","","","75","K","2","","","35","main_expt",""
"","bandit","115","611189","0.0-76.0-0.0","27258699","wem/bandit_either_3","AVI7K876BV3QL","either","5","430","","","","","","","0","0","1","0.3396719642","","0.4","0.2","0.6","0.8","","","","","0.08624361683","0.3892953339","0.3396719642","0.310238309","","","","","","","","75","K","2","","","36","main_expt",""
"","bandit","116","613110","0.0-77.0-0.0","27258699","wem/bandit_either_3","AVI7K876BV3QL","either","5","370","","","","","","","0","0","1","0.4409026667","","0.4","0.2","0.6","0.8","","","","","0.07543251018","0.3680424748","0.4409026667","0.2818719109","","","","","","","","75","K","2","","","37","main_expt",""
"","bandit","117","615013","0.0-78.0-0.0","27258699","wem/bandit_either_3","AVI7K876BV3QL","either","5","351","","","","","","","1","0","0","0.4909804269","","0.4","0.2","0.6","0.8","","","","","0.1324785543","0.4909804269","0.489392614","0.2925765749","","","","","","","","74","J","1","","","38","main_expt",""
"","bandit","118","617047","0.0-79.0-0.0","27258699","wem/bandit_either_3","AVI7K876BV3QL","either","5","491","","","","","","","0","0","1","","0.5165168671","0.4","0.2","0.6","0.8","0.1824024676","0.5165168671","0.4403114744","0.3033582507","","","","","","","","","","","","74","J","1","","","39","main_expt",""
"","bandit","119","619095","0.0-80.0-0.0","27258699","wem/bandit_either_3","AVI7K876BV3QL","either","5","500","","","","","","","1","0","0","0.6036007873","","0.4","0.2","0.6","0.8","","","","","0.09861269436","0.6036007873","0.343221944","0.2371445562","","","","","","","","74","J","1","","","40","main_expt",""
"","bandit","120","621328","0.0-81.0-0.0","27258699","wem/bandit_either_3","AVI7K876BV3QL","either","5","704","","","","","","","0","1","0","","0.6078828369","0.4","0.2","0.6","0.8","0.1028082326","0.6078828369","0.450343793","0.2072661203","","","","","","","","","","","","74","J","1","","","41","main_expt",""
"","bandit","121","623373","0.0-82.0-0.0","27258699","wem/bandit_either_3","AVI7K876BV3QL","either","5","502","","","","","","","0","1","0","","0.5757077757","0.4","0.2","0.6","0.8","0.1326350751","0.5757077757","0.4422822993","0.1850700716","","","","","","","","","","","","74","J","1","","","42","main_expt",""
"","bandit","122","625545","0.0-83.0-0.0","27258699","wem/bandit_either_3","AVI7K876BV3QL","either","5","612","","","","","","","0","0","1","","0.504524575","0.4","0.2","0.6","0.8","0.1591685393","0.504524575","0.4755437476","0.1700345657","","","","","","","","","","","","74","J","1","","","43","main_expt",""
"","bandit","123","627424","0.0-84.0-0.0","27258699","wem/bandit_either_3","AVI7K876BV3QL","either","5","323","","","","","","","1","0","0","0.6211160782","","0.4","0.2","0.6","0.8","","","","","0.1558361793","0.3354744533","0.6211160782","0.150922449","","","","","","","","75","K","2","","","44","main_expt",""
"","bandit","124","629659","0.0-85.0-0.0","27258699","wem/bandit_either_3","AVI7K876BV3QL","either","5","690","","","","","","","1","0","0","0.5950963145","","0.4","0.2","0.6","0.8","","","","","0.08224127908","0.2259933845","0.5950963145","0.08792573626","","","","","","","","75","K","2","","","45","main_expt",""
"","bandit","125","631676","0.0-86.0-0.0","27258699","wem/bandit_either_3","AVI7K876BV3QL","either","5","455","","","","","","","1","0","0","0.600883672","","0.4","0.2","0.6","0.8","","","","","0.05681632526","0.1991815266","0.600883672","0.05210962111","","","","","","","","75","K","2","","","46","main_expt",""
"","bandit","126","633829","0.0-87.0-0.0","27258699","wem/bandit_either_3","AVI7K876BV3QL","either","5","610","","","","","","","1","0","0","0.6018426621","","0.4","0.2","0.6","0.8","","","","","0.02046531905","0.1821259253","0.6018426621","0.1658512007","","","","","","","","75","K","2","","","47","main_expt",""
"","bandit","127","635751","0.0-88.0-0.0","27258699","wem/bandit_either_3","AVI7K876BV3QL","either","5","387","","","","","","","0","0","1","","0.6719149388","0.4","0.2","0.6","0.8","0.02793369594","0.1850219792","0.6719149388","0.2171730843","","","","","","","","","","","","75","K","2","","","48","main_expt",""
"","bandit","128","637757","0.0-89.0-0.0","27258699","wem/bandit_either_3","AVI7K876BV3QL","either","5","464","","","","","","","0","0","1","","0.5824093935","0.4","0.2","0.6","0.8","0.01520235592","0.2843491098","0.5824093935","0.2545874694","","","","","","","","","","","","75","K","2","","","49","main_expt",""
"","bandit","129","639624","0.0-90.0-0.0","27258699","wem/bandit_either_3","AVI7K876BV3QL","either","5","314","","","","","","","0","0","1","","0.2385085868","0.4","0.2","0.6","0.8","0.008868670712","0.2385085868","0.5697547833","0.1971443839","","","","","","","","","","","","74","J","1","","","50","main_expt",""
"","bandit","130","641526","0.0-91.0-0.0","27258699","wem/bandit_either_3","AVI7K876BV3QL","either","5","359","","","","","","","1","0","0","0.5875551098","","0.4","0.2","0.6","0.8","","","","","0.004668439046","0.2762119933","0.5875551098","0.1743954459","","","","","","","","75","K","2","","","51","main_expt",""
"","bandit","131","643621","0.0-92.0-0.0","27258699","wem/bandit_either_3","AVI7K876BV3QL","either","5","544","","","","","","","0","0","1","","0.691822337","0.4","0.2","0.6","0.8","0.003090075005","0.2350807626","0.691822337","0.1007451992","","","","","","","","","","","","75","K","2","","","52","main_expt",""
"","bandit","132","652951","0.0-93.0-0.0","27258699","wem/bandit_either_3","AVI7K876BV3QL","either","5","7802","","","","","","","1","0","0","0.7363191169","","0.4","0.2","0.6","0.8","","","","","0.003474758773","0.2301492847","0.7363191169","0.1648918076","","","","","","","","75","K","2","","","53","main_expt",""
"","bandit","133","655440","0.0-94.0-0.0","27258699","wem/bandit_either_3","AVI7K876BV3QL","either","5","957","","","","","","","1","0","0","0.7639548597","","0.4","0.2","0.6","0.8","","","","","0.003279238457","0.2779325162","0.7639548597","0.1761014763","","","","","","","","75","K","2","","","54","main_expt",""
"","bandit","134","657551","0.0-95.0-0.0","27258699","wem/bandit_either_3","AVI7K876BV3QL","either","5","576","","","","","","","0","0","1","0.7264154962","","0.4","0.2","0.6","0.8","","","","","0.001847339967","0.2882189161","0.7264154962","0.1460392243","","","","","","","","75","K","2","","","55","main_expt",""
"","bandit","135","659416","0.0-96.0-0.0","27258699","wem/bandit_either_3","AVI7K876BV3QL","either","5","330","","","","","","","0","0","1","0.2646822794","","0.4","0.2","0.6","0.8","","","","","0.001186331615","0.2646822794","0.7511403137","0.1882527018","","","","","","","","74","J","1","","","56","main_expt",""
"","bandit","136","661276","0.0-97.0-0.0","27258699","wem/bandit_either_3","AVI7K876BV3QL","either","5","326","","","","","","","0","0","1","0.1836596221","","0.4","0.2","0.6","0.8","","","","","0.001917609755","0.3080117871","0.6292194553","0.1836596221","","","","","","","","76","L","3","","","57","main_expt",""
"","bandit","137","663182","0.0-98.0-0.0","27258699","wem/bandit_either_3","AVI7K876BV3QL","either","5","361","","","","","","","0","0","1","","0.004115025419","0.4","0.2","0.6","0.8","0.004115025419","0.2609020091","0.5622591622","0.2259562874","","","","","","","","","","","","72","H","0","img/none_selected.jpg","","58","main_expt",""
"","bandit","138","665023","0.0-99.0-0.0","27258699","wem/bandit_either_3","AVI7K876BV3QL","either","5","294","","","","","","","0","1","0","","0.6394190939","0.4","0.2","0.6","0.8","0.007083433589","0.3014652953","0.6394190939","0.1673227733","","","","","","","","","","","","75","K","2","","","59","main_expt",""
"","bandit","139","667398","0.0-100.0-0.0","27258699","wem/bandit_either_3","AVI7K876BV3QL","either","5","832","","","","","","","0","1","0","","0.2872544729","0.4","0.2","0.6","0.8","0.0100473459","0.2872544729","0.502148976","0.1404143731","","","","","","","","","","","","74","J","1","","","60","main_expt",""
"","bandit","140","669519","0.0-101.0-0.0","27258699","wem/bandit_either_3","AVI7K876BV3QL","either","5","595","","","","","","","0","0","1","0.5541662771","","0.4","0.2","0.6","0.8","","","","","0.02288810402","0.2347068593","0.5541662771","0.1087230511","","","","","","","","75","K","2","","","61","main_expt",""
"","bandit","141","671472","0.0-102.0-0.0","27258699","wem/bandit_either_3","AVI7K876BV3QL","either","5","406","","","","","","","1","0","0","0.6016144889","","0.4","0.2","0.6","0.8","","","","","0.04890713094","0.1786743828","0.6016144889","0.1173770395","","","","","","","","75","K","2","","","62","main_expt",""
"","bandit","142","673710","0.0-103.0-0.0","27258699","wem/bandit_either_3","AVI7K876BV3QL","either","5","676","","","","","","","1","0","0","0.6306423252","","0.4","0.2","0.6","0.8","","","","","0.06015841579","0.1627017484","0.6306423252","0.1173961002","","","","","","","","75","K","2","","","63","main_expt",""
"","bandit","143","675709","0.0-104.0-0.0","27258699","wem/bandit_either_3","AVI7K876BV3QL","either","5","453","","","","","","","0","1","0","","0.5963496952","0.4","0.2","0.6","0.8","0.0697324588","0.2220220934","0.5963496952","0.1093057248","","","","","","","","","","","","75","K","2","","","64","main_expt",""
"","bandit","144","677678","0.0-105.0-0.0","27258699","wem/bandit_either_3","AVI7K876BV3QL","either","5","408","","","","","","","0","1","0","","0.5835424673","0.4","0.2","0.6","0.8","0.03955641554","0.1387290973","0.5835424673","0.1437581537","","","","","","","","","","","","75","K","2","","","65","main_expt",""
"","bandit","145","679575","0.0-106.0-0.0","27258699","wem/bandit_either_3","AVI7K876BV3QL","either","5","338","","","","","","","0","0","1","0.5789137396","","0.4","0.2","0.6","0.8","","","","","0.04104317144","0.1481952943","0.5789137396","0.1321246006","","","","","","","","75","K","2","","","66","main_expt",""
"","bandit","146","681490","0.0-107.0-0.0","27258699","wem/bandit_either_3","AVI7K876BV3QL","either","5","375","","","","","","","0","0","1","","0.1354395346","0.4","0.2","0.6","0.8","0.07749417123","0.1354395346","0.6503196648","0.1441415222","","","","","","","","","","","","74","J","1","","","67","main_expt",""
"","bandit","147","683392","0.0-108.0-0.0","27258699","wem/bandit_either_3","AVI7K876BV3QL","either","5","351","","","","","","","1","0","0","0.7295955131","","0.4","0.2","0.6","0.8","","","","","0.1606162296","0.09431815687","0.7295955131","0.1794787892","","","","","","","","75","K","2","","","68","main_expt",""
"","bandit","148","685305","0.0-109.0-0.0","27258699","wem/bandit_either_3","AVI7K876BV3QL","either","5","374","","","","","","","1","0","0","0.7924649224","","0.4","0.2","0.6","0.8","","","","","0.1458723802","0.09491494314","0.7924649224","0.2467892919","","","","","","","","75","K","2","","","69","main_expt",""
"","bandit","149","687159","0.0-110.0-0.0","27258699","wem/bandit_either_3","AVI7K876BV3QL","either","5","316","","","","","","","1","0","0","0.7104550926","","0.4","0.2","0.6","0.8","","","","","0.09936082334","0.144379617","0.7104550926","0.2683381141","","","","","","","","75","K","2","","","70","main_expt",""
"","bandit","150","689216","0.0-111.0-0.0","27258699","wem/bandit_either_3","AVI7K876BV3QL","either","5","496","","","","","","","0","1","0","","0.6350436987","0.4","0.2","0.6","0.8","0.08487306657","0.1522740794","0.6350436987","0.3513633517","","","","","","","","","","","","75","K","2","","","71","main_expt",""
"","bandit","151","691488","0.0-112.0-0.0","27258699","wem/bandit_either_3","AVI7K876BV3QL","either","5","724","","","","","","","0","1","0","","0.5987872161","0.4","0.2","0.6","0.8","0.08819471669","0.1668466162","0.5987872161","0.2914052368","","","","","","","","","","","","75","K","2","","","72","main_expt",""
"","bandit","152","693855","0.0-113.0-0.0","27258699","wem/bandit_either_3","AVI7K876BV3QL","either","5","814","","","","","","","1","0","0","0.5985066563","","0.4","0.2","0.6","0.8","","","","","0.1283432424","0.1896474075","0.5985066563","0.2877488323","","","","","","","","75","K","2","","","73","main_expt",""
"","bandit","153","695946","0.0-114.0-0.0","27258699","wem/bandit_either_3","AVI7K876BV3QL","either","5","530","","","","","","","0","0","1","0.6384302553","","0.4","0.2","0.6","0.8","","","","","0.09379917772","0.2374421278","0.6384302553","0.2562899571","","","","","","","","75","K","2","","","74","main_expt",""
"","bandit","154","697822","0.0-115.0-0.0","27258699","wem/bandit_either_3","AVI7K876BV3QL","either","5","320","","","","","","","0","0","1","","0.2083661751","0.4","0.2","0.6","0.8","0.09049970266","0.2083661751","0.5658832615","0.2733605005","","","","","","","","","","","","74","J","1","","","75","main_expt",""
"","bandit","155","699758","0.0-116.0-0.0","27258699","wem/bandit_either_3","AVI7K876BV3QL","either","5","403","","","","","","","0","0","1","","0.08721668036","0.4","0.2","0.6","0.8","0.08721668036","0.2438220339","0.6242699585","0.3937912108","","","","","","","","","","","","72","H","0","img/none_selected.jpg","","76","main_expt",""
"","bandit","156","701827","0.0-117.0-0.0","27258699","wem/bandit_either_3","AVI7K876BV3QL","either","5","526","","","","","","","0","1","0","","0.2317864895","0.4","0.2","0.6","0.8","0.06435523183","0.2688374605","0.5744400186","0.2317864895","","","","","","","","","","","","76","L","3","","","77","main_expt",""
"","bandit","157","703767","0.0-118.0-0.0","27258699","wem/bandit_either_3","AVI7K876BV3QL","either","5","398","","","","","","","0","1","0","","0.5888420407","0.4","0.2","0.6","0.8","0.0482567949","0.354885782","0.5888420407","0.1809738678","","","","","","","","","","","","75","K","2","","","78","main_expt",""
"","bandit","158","705651","0.0-119.0-0.0","27258699","wem/bandit_either_3","AVI7K876BV3QL","either","5","345","","","","","","","0","0","1","0.1139783564","","0.4","0.2","0.6","0.8","","","","","0.0437210955","0.3618930149","0.6367332082","0.1139783564","","","","","","","","76","L","3","","","79","main_expt",""
"","bandit","159","707586","0.0-120.0-0.0","27258699","wem/bandit_either_3","AVI7K876BV3QL","either","5","388","","","","","","","0","0","1","","0.6870764151","0.4","0.2","0.6","0.8","0.02877808334","0.2656346555","0.6870764151","0.08785846653","","","","","","","","","","","","75","K","2","","","80","main_expt",""
"","bandit","160","709509","0.0-121.0-0.0","27258699","wem/bandit_either_3","AVI7K876BV3QL","either","5","373","","","","","","","1","0","0","0.594282643","","0.4","0.2","0.6","0.8","","","","","0.01921293631","0.4245431589","0.594282643","0.09113866108","","","","","","","","75","K","2","","","81","main_expt",""
"","bandit","161","715964","0.0-122.0-0.0","27258699","wem/bandit_either_3","AVI7K876BV3QL","either","5","4899","","","","","","","0","1","0","","0.6134463007","0.4","0.2","0.6","0.8","0.04933803159","0.4469352605","0.6134463007","0.1055231707","","","","","","","","","","","","75","K","2","","","82","main_expt",""
"","bandit","162","718034","0.0-123.0-0.0","27258699","wem/bandit_either_3","AVI7K876BV3QL","either","5","518","","","","","","","0","0","1","0.573719985","","0.4","0.2","0.6","0.8","","","","","0.03134335394","0.4492602846","0.573719985","0.09865920741","","","","","","","","75","K","2","","","83","main_expt",""
"","bandit","163","719930","0.0-124.0-0.0","27258699","wem/bandit_either_3","AVI7K876BV3QL","either","5","340","","","","","","","0","0","1","0.06745845416","","0.4","0.2","0.6","0.8","","","","","0.08181594064","0.4800113203","0.5666188995","0.06745845416","","","","","","","","76","L","3","","","84","main_expt",""
"","bandit","164","721830","0.0-125.0-0.0","27258699","wem/bandit_either_3","AVI7K876BV3QL","either","5","361","","","","","","","0","1","0","","0.5161506384","0.4","0.2","0.6","0.8","0.09326949564","0.53417275","0.5161506384","0.05723787215","","","","","","","","","","","","75","K","2","","","85","main_expt",""
"","bandit","165","723910","0.0-126.0-0.0","27258699","wem/bandit_either_3","AVI7K876BV3QL","either","5","527","","","","","","","0","0","1","","0.4408304524","0.4","0.2","0.6","0.8","0.1365856799","0.4431594274","0.4408304524","0.04283717318","","","","","","","","","","","","75","K","2","","","86","main_expt",""
"","bandit","166","726054","0.0-127.0-0.0","27258699","wem/bandit_either_3","AVI7K876BV3QL","either","5","591","","","","","","","0","0","1","0.04801612347","","0.4","0.2","0.6","0.8","","","","","0.1845868617","0.4135642243","0.4926691315","0.04801612347","","","","","","","","76","L","3","","","87","main_expt",""
"","bandit","167","727978","0.0-128.0-0.0","27258699","wem/bandit_either_3","AVI7K876BV3QL","either","5","353","","","","","","","0","1","0","","0.4785462387","0.4","0.2","0.6","0.8","0.2304222619","0.4785462387","0.6047228172","0.1154775412","","","","","","","","","","","","74","J","1","","","88","main_expt",""
"","bandit","168","730033","0.0-129.0-0.0","27258699","wem/bandit_either_3","AVI7K876BV3QL","either","5","514","","","","","","","1","0","0","0.5311406509","","0.4","0.2","0.6","0.8","","","","","0.1408060154","0.6395163219","0.5311406509","0.1308375778","","","","","","","","75","K","2","","","89","main_expt",""
"","bandit","169","732033","0.0-130.0-0.0","27258699","wem/bandit_either_3","AVI7K876BV3QL","either","5","464","","","","","","","0","1","0","","0.6262376813","0.4","0.2","0.6","0.8","0.1870966622","0.6143207643","0.6262376813","0.07282967421","","","","","","","","","","","","75","K","2","","","90","main_expt",""
"","bandit","170","734432","0.0-131.0-0.0","27258699","wem/bandit_either_3","AVI7K876BV3QL","either","5","831","","","","","","","0","0","1","","0.690423555","0.4","0.2","0.6","0.8","0.192698437","0.446485487","0.690423555","0.07599207753","","","","","","","","","","","","75","K","2","","","91","main_expt",""
"","bandit","171","737295","0.0-132.0-0.0","27258699","wem/bandit_either_3","AVI7K876BV3QL","either","5","1322","","","","","","","0","1","0","","0.6517149298","0.4","0.2","0.6","0.8","0.1683480261","0.5169677416","0.6517149298","0.04323911508","","","","","","","","","","","","75","K","2","","","92","main_expt",""
"","bandit","172","739313","0.0-133.0-0.0","27258699","wem/bandit_either_3","AVI7K876BV3QL","either","5","485","","","","","","","1","0","0","0.5656193004","","0.4","0.2","0.6","0.8","","","","","0.1330499919","0.4242737166","0.5656193004","0.04253576945","","","","","","","","75","K","2","","","93","main_expt",""
"","bandit","173","741402","0.0-134.0-0.0","27258699","wem/bandit_either_3","AVI7K876BV3QL","either","5","535","","","","","","","0","0","1","0.4344563295","","0.4","0.2","0.6","0.8","","","","","0.1880917327","0.3479993201","0.4344563295","0.04534385772","","","","","","","","75","K","2","","","94","main_expt",""
"","bandit","174","743246","0.0-135.0-0.0","27258699","wem/bandit_either_3","AVI7K876BV3QL","either","5","291","","","","","","","0","0","1","","0.3701135783","0.4","0.2","0.6","0.8","0.1867575465","0.3701135783","0.5651083109","0.03318992591","","","","","","","","","","","","74","J","1","","","95","main_expt",""
"","bandit","175","744968","0.0-136.0-0.0","27258699","wem/bandit_either_3","AVI7K876BV3QL","either","5","171","","","","","","","0","0","1","","0.03408771876","0.4","0.2","0.6","0.8","0.2231999883","0.3430407586","0.5348041914","0.03408771876","","","","","","","","","","","","76","L","3","","","96","main_expt",""
"","bandit","176","746929","0.0-137.0-0.0","27258699","wem/bandit_either_3","AVI7K876BV3QL","either","5","423","","","","","","","0","0","1","0.2876443713","","0.4","0.2","0.6","0.8","","","","","0.2149045243","0.2876443713","0.5627844697","0.05013144164","","","","","","","","74","J","1","","","97","main_expt",""
"","bandit","177","749087","0.0-138.0-0.0","27258699","wem/bandit_either_3","AVI7K876BV3QL","either","5","599","","","","","","","0","0","1","","0.6177525637","0.4","0.2","0.6","0.8","0.1963416079","0.3310412313","0.6177525637","0.03739082544","","","","","","","","","","","","75","K","2","","","98","main_expt",""
"","bandit","178","750978","0.0-139.0-0.0","27258699","wem/bandit_either_3","AVI7K876BV3QL","either","5","339","","","","","","","0","0","1","0.1659387142","","0.4","0.2","0.6","0.8","","","","","0.1659387142","0.3893078888","0.7429557604","0.1018336486","","","","","","","","72","H","0","img/none_selected.jpg","","99","main_expt",""
"","bandit","179","753286","0.0-140.0-0.0","27258699","wem/bandit_either_3","AVI7K876BV3QL","either","5","753","","","","","","","1","0","0","0.6717563967","","0.4","0.2","0.6","0.8","","","","","0.145948344","0.4049224607","0.6717563967","0.1398961818","","","","","","","","75","K","2","","","100","main_expt",""
"","bandit","180","756071","0.0-141.0-0.0","27258699","wem/bandit_either_3","AVI7K876BV3QL","either","5","1236","","","","","","","1","0","0","0.6929666651","","0.4","0.2","0.6","0.8","","","","","0.1366695263","0.3259939159","0.6929666651","0.1830356504","","","","","","","","75","K","2","","","101","main_expt",""
"","bandit","181","759555","0.0-142.0-0.0","27258699","wem/bandit_either_3","AVI7K876BV3QL","either","5","1941","","","","","","","1","0","0","0.6827494989","","0.4","0.2","0.6","0.8","","","","","0.1543059156","0.3598161211","0.6827494989","0.1396005595","","","","","","","","75","K","2","","","102","main_expt",""
"","bandit","182","762671","0.0-143.0-0.0","27258699","wem/bandit_either_3","AVI7K876BV3QL","either","5","1567","","","","","","","1","0","0","0.7315485361","","0.4","0.2","0.6","0.8","","","","","0.1484193465","0.3385951472","0.7315485361","0.0853830874","","","","","","","","75","K","2","","","103","main_expt",""
"","bandit","183","768853","0.0-144.0-0.0","27258699","wem/bandit_either_3","AVI7K876BV3QL","either","5","4642","","","","","","","0","1","0","","0.6852971926","0.4","0.2","0.6","0.8","0.1516288854","0.4881545817","0.6852971926","0.09317924201","","","","","","","","","","","","75","K","2","","","104","main_expt",""
"","bandit","184","771711","0.0-145.0-0.0","27258699","wem/bandit_either_3","AVI7K876BV3QL","either","5","1284","","","","","","","1","0","0","0.693594393","","0.4","0.2","0.6","0.8","","","","","0.1283123627","0.4790883063","0.693594393","0.08203708102","","","","","","","","75","K","2","","","105","main_expt",""
"","bandit","185","774270","0.0-146.0-0.0","27258699","wem/bandit_either_3","AVI7K876BV3QL","either","5","1013","","","","","","","1","0","0","0.6101065231","","0.4","0.2","0.6","0.8","","","","","0.2016068708","0.4354998123","0.6101065231","0.07160056992","","","","","","","","75","K","2","","","106","main_expt",""
"","bandit","186","776294","0.0-147.0-0.0","27258699","wem/bandit_either_3","AVI7K876BV3QL","either","5","466","","","","","","","0","0","1","","0.5549317608","0.4","0.2","0.6","0.8","0.2344181992","0.4789065637","0.5549317608","0.09799112372","","","","","","","","","","","","75","K","2","","","107","main_expt",""
"","bandit","187","778632","0.0-148.0-0.0","27258699","wem/bandit_either_3","AVI7K876BV3QL","either","5","795","","","","","","","1","0","0","0.5753690117","","0.4","0.2","0.6","0.8","","","","","0.2234564856","0.2921896665","0.5753690117","0.1101799882","","","","","","","","75","K","2","","","108","main_expt",""
"","bandit","188","780918","0.0-149.0-0.0","27258699","wem/bandit_either_3","AVI7K876BV3QL","either","5","740","","","","","","","0","0","1","","0.5748544728","0.4","0.2","0.6","0.8","0.2494485671","0.3545905428","0.5748544728","0.07189968831","","","","","","","","","","","","75","K","2","","","109","main_expt",""
"","bandit","189","783015","0.0-150.0-0.0","27258699","wem/bandit_either_3","AVI7K876BV3QL","either","5","534","","","","","","","0","0","1","0.6473038793","","0.4","0.2","0.6","0.8","","","","","0.2804015825","0.3110769573","0.6473038793","0.06101418375","","","","","","","","75","K","2","","","110","main_expt",""
"","bandit","190","784950","0.0-151.0-0.0","27258699","wem/bandit_either_3","AVI7K876BV3QL","either","5","405","","","","","","","1","0","0","0.6296147118","","0.4","0.2","0.6","0.8","","","","","0.254644275","0.3673577619","0.6296147118","0.1032726654","","","","","","","","75","K","2","","","111","main_expt",""
"","bandit","191","787441","0.0-152.0-0.0","27258699","wem/bandit_either_3","AVI7K876BV3QL","either","5","939","","","","","","","0","1","0","","0.6174722021","0.4","0.2","0.6","0.8","0.2686709136","0.3439961468","0.6174722021","0.1061240248","","","","","","","","","","","","75","K","2","","","112","main_expt",""
"","bandit","192","789499","0.0-153.0-0.0","27258699","wem/bandit_either_3","AVI7K876BV3QL","either","5","526","","","","","","","0","0","1","0.7467975424","","0.4","0.2","0.6","0.8","","","","","0.3211503982","0.3389202036","0.7467975424","0.1150632514","","","","","","","","75","K","2","","","113","main_expt",""
"","bandit","193","791600","0.0-154.0-0.0","27258699","wem/bandit_either_3","AVI7K876BV3QL","either","5","549","","","","","","","1","0","0","0.7797220863","","0.4","0.2","0.6","0.8","","","","","0.3067152309","0.3122185675","0.7797220863","0.1491479201","","","","","","","","75","K","2","","","114","main_expt",""
"","bandit","194","793857","0.0-155.0-0.0","27258699","wem/bandit_either_3","AVI7K876BV3QL","either","5","704","","","","","","","1","0","0","0.8152411921","","0.4","0.2","0.6","0.8","","","","","0.3274584286","0.2431064996","0.8152411921","0.08304421353","","","","","","","","75","K","2","","","115","main_expt",""
"","bandit","195","796017","0.0-156.0-0.0","27258699","wem/bandit_either_3","AVI7K876BV3QL","either","5","619","","","","","","","0","0","1","0.7362727539","","0.4","0.2","0.6","0.8","","","","","0.2491959293","0.2225404561","0.7362727539","0.1391191417","","","","","","","","75","K","2","","","116","main_expt",""
"","bandit","196","798221","0.0-157.0-0.0","27258699","wem/bandit_either_3","AVI7K876BV3QL","either","5","643","","","","","","","0","0","1","","0.2891792411","0.4","0.2","0.6","0.8","0.1425156065","0.2891792411","0.7051771602","0.1689833708","","","","","","","","","","","","74","J","1","","","117","main_expt",""
"","bandit","197","802057","0.0-158.0-0.0","27258699","wem/bandit_either_3","AVI7K876BV3QL","either","5","2283","","","","","","","0","0","1","0.1341186766","","0.4","0.2","0.6","0.8","","","","","0.1550025764","0.3147139712","0.7099604309","0.1341186766","","","","","","","","76","L","3","","","118","main_expt",""
"","bandit","198","803956","0.0-159.0-0.0","27258699","wem/bandit_either_3","AVI7K876BV3QL","either","5","354","","","","","","","0","1","0","","0.1733664784","0.4","0.2","0.6","0.8","0.1733664784","0.4890071061","0.6633752461","0.1211065448","","","","","","","","","","","","72","H","0","img/none_selected.jpg","","119","main_expt",""
"","bandit","199","805948","0.0-160.0-0.0","27258699","wem/bandit_either_3","AVI7K876BV3QL","either","5","452","","","","","","","0","1","0","","0.6748815414","0.4","0.2","0.6","0.8","0.2091577514","0.5238994176","0.6748815414","0.1317257861","","","","","","","","","","","","75","K","2","","","120","main_expt",""
"","bandit","200","808034","0.0-161.0-0.0","27258699","wem/bandit_either_3","AVI7K876BV3QL","either","5","515","","","","","","","1","0","0","0.694041989","","0.4","0.2","0.6","0.8","","","","","0.2038206067","0.4821854017","0.694041989","0.08851148741","","","","","","","","75","K","2","","","121","main_expt",""
"","bandit","201","810122","0.0-162.0-0.0","27258699","wem/bandit_either_3","AVI7K876BV3QL","either","5","532","","","","","","","0","1","0","","0.7808088803","0.4","0.2","0.6","0.8","0.1646827865","0.5695824443","0.7808088803","0.1313095228","","","","","","","","","","","","75","K","2","","","122","main_expt",""
"","bandit","202","812267","0.0-163.0-0.0","27258699","wem/bandit_either_3","AVI7K876BV3QL","either","5","581","","","","","","","0","1","0","","0.7513243775","0.4","0.2","0.6","0.8","0.08951947698","0.5884468641","0.7513243775","0.1990721176","","","","","","","","","","","","75","K","2","","","123","main_expt",""
"","bandit","203","814418","0.0-164.0-0.0","27258699","wem/bandit_either_3","AVI7K876BV3QL","either","5","589","","","","","","","0","0","1","","0.09676311751","0.4","0.2","0.6","0.8","0.09676311751","0.6578864121","0.7095593687","0.3510587203","","","","","","","","","","","","72","H","0","img/none_selected.jpg","","124","main_expt",""
"","bandit","204","816031","0.0-165.0-0.0","27258699","wem/bandit_either_3","AVI7K876BV3QL","either","5","56","","","","","","","0","0","1","","0.6464373278","0.4","0.2","0.6","0.8","0.08914634913","0.6610648035","0.6464373278","0.2829787335","","","","","","","","","","","","75","K","2","","","125","main_expt",""
"","bandit","205","818044","0.0-166.0-0.0","27258699","wem/bandit_either_3","AVI7K876BV3QL","either","5","465","","","","","","","1","0","0","0.69855693","","0.4","0.2","0.6","0.8","","","","","0.1104844084","0.6745370829","0.69855693","0.3253732313","","","","","","","","75","K","2","","","126","main_expt",""
"","bandit","206","820069","0.0-167.0-0.0","27258699","wem/bandit_either_3","AVI7K876BV3QL","either","5","490","","","","","","","1","0","0","0.6394960802","","0.4","0.2","0.6","0.8","","","","","0.1302598269","0.6357656308","0.6394960802","0.2969307539","","","","","","","","75","K","2","","","127","main_expt",""
"","bandit","207","825179","0.0-168.0-0.0","27258699","wem/bandit_either_3","AVI7K876BV3QL","either","5","3579","","","","","","","1","0","0","0.5912569563","","0.4","0.2","0.6","0.8","","","","","0.1739983423","0.6746479632","0.5912569563","0.3862322559","","","","","","","","75","K","2","","","128","main_expt",""
"","bandit","208","828110","0.0-169.0-0.0","27258699","wem/bandit_either_3","AVI7K876BV3QL","either","5","1362","","","","","","","1","0","0","0.6408154383","","0.4","0.2","0.6","0.8","","","","","0.2144078185","0.609360971","0.6408154383","0.3399993615","","","","","","","","75","K","2","","","129","main_expt",""
"","bandit","209","833663","0.0-170.0-0.0","27258699","wem/bandit_either_3","AVI7K876BV3QL","either","5","4005","","","","","","","1","0","0","0.6160079471","","0.4","0.2","0.6","0.8","","","","","0.2133227205","0.5791775941","0.6160079471","0.4343217783","","","","","","","","75","K","2","","","130","main_expt",""
"","bandit","210","835341","0.0-171.0-0.0","27258699","wem/bandit_either_3","AVI7K876BV3QL","either","5","132","","","","","","","0","1","0","","0.6639311205","0.4","0.2","0.6","0.8","0.3009586135","0.6039133906","0.6639311205","0.4116870082","","","","","","","","","","","","75","K","2","","","131","main_expt",""
"","bandit","211","837141","0.0-172.0-0.0","27258699","wem/bandit_either_3","AVI7K876BV3QL","either","5","247","","","","","","","0","0","1","0.7314418876","","0.4","0.2","0.6","0.8","","","","","0.3257006372","0.5564977279","0.7314418876","0.3235444519","","","","","","","","75","K","2","","","132","main_expt",""
"","bandit","212","839208","0.0-173.0-0.0","27258699","wem/bandit_either_3","AVI7K876BV3QL","either","5","508","","","","","","","0","0","1","","0.3286432436","0.4","0.2","0.6","0.8","0.3286432436","0.5453182718","0.7343064015","0.4204005917","","","","","","","","","","","","72","H","0","img/none_selected.jpg","","133","main_expt",""
"","bandit","213","841124","0.0-174.0-0.0","27258699","wem/bandit_either_3","AVI7K876BV3QL","either","5","369","","","","","","","1","0","0","0.6345074403","","0.4","0.2","0.6","0.8","","","","","0.3343575241","0.5557967555","0.6345074403","0.5326734174","","","","","","","","75","K","2","","","134","main_expt",""
"","bandit","214","843215","0.0-175.0-0.0","27258699","wem/bandit_either_3","AVI7K876BV3QL","either","5","538","","","","","","","1","0","0","0.752921597","","0.4","0.2","0.6","0.8","","","","","0.2917270645","0.5719827955","0.752921597","0.6096825818","","","","","","","","75","K","2","","","135","main_expt",""
"","bandit","215","845272","0.0-176.0-0.0","27258699","wem/bandit_either_3","AVI7K876BV3QL","either","5","516","","","","","","","0","1","0","","0.7642539739","0.4","0.2","0.6","0.8","0.3972485531","0.4756276611","0.7642539739","0.6827328332","","","","","","","","","","","","75","K","2","","","136","main_expt",""
"","bandit","216","847188","0.0-177.0-0.0","27258699","wem/bandit_either_3","AVI7K876BV3QL","either","5","354","","","","","","","0","0","1","0.7166238274","","0.4","0.2","0.6","0.8","","","","","0.4294090248","0.5078949877","0.7166238274","0.6604068036","","","","","","","","75","K","2","","","137","main_expt",""
"","bandit","217","849388","0.0-178.0-0.0","27258699","wem/bandit_either_3","AVI7K876BV3QL","either","5","651","","","","","","","1","0","0","0.713549589","","0.4","0.2","0.6","0.8","","","","","0.5009988565","0.4938131475","0.713549589","0.653661868","","","","","","","","75","K","2","","","138","main_expt",""
"","bandit","218","853369","0.0-179.0-0.0","27258699","wem/bandit_either_3","AVI7K876BV3QL","either","5","2433","","","","","","","0","0","1","0.6905374229","","0.4","0.2","0.6","0.8","","","","","0.4993746949","0.654612375","0.6905374229","0.6169918179","","","","","","","","75","K","2","","","139","main_expt",""
"","bandit","219","855968","0.0-180.0-0.0","27258699","wem/bandit_either_3","AVI7K876BV3QL","either","5","1037","","","","","","","1","0","0","0.6614813372","","0.4","0.2","0.6","0.8","","","","","0.5448973659","0.52663091","0.6614813372","0.6657435074","","","","","","","","75","K","2","","","140","main_expt",""
"","bandit","220","857967","0.0-181.0-0.0","27258699","wem/bandit_either_3","AVI7K876BV3QL","either","5","438","","","","","","","0","1","0","","0.7024355817","0.4","0.2","0.6","0.8","0.4829720837","0.5976356642","0.7024355817","0.6349341703","","","","","","","","","","","","75","K","2","","","141","main_expt",""
"","bandit","221","859946","0.0-182.0-0.0","27258699","wem/bandit_either_3","AVI7K876BV3QL","either","5","430","","","","","","","0","0","1","0.7185929435","","0.4","0.2","0.6","0.8","","","","","0.5402580016","0.5956183516","0.7185929435","0.6379356982","","","","","","","","75","K","2","","","142","main_expt",""
"","bandit","222","862457","0.0-183.0-0.0","27258699","wem/bandit_either_3","AVI7K876BV3QL","either","5","975","","","","","","","0","0","1","0.6240660549","","0.4","0.2","0.6","0.8","","","","","0.5478015274","0.6432894639","0.6240660549","0.6022688156","","","","","","","","75","K","2","","","143","main_expt",""
"","bandit","223","864947","0.0-184.0-0.0","27258699","wem/bandit_either_3","AVI7K876BV3QL","either","5","941","","","","","","","0","0","1","0.5189832842","","0.4","0.2","0.6","0.8","","","","","0.5189832842","0.6691106198","0.5797935966","0.5806731621","","","","","","","","72","H","0","img/none_selected.jpg","","144","main_expt",""
"","bandit","224","866813","0.0-185.0-0.0","27258699","wem/bandit_either_3","AVI7K876BV3QL","either","5","322","","","","","","","0","1","0","","0.520403766","0.4","0.2","0.6","0.8","0.4556604905","0.677031803","0.520403766","0.5512406412","","","","","","","","","","","","75","K","2","","","145","main_expt",""
"","bandit","225","869197","0.0-186.0-0.0","27258699","wem/bandit_either_3","AVI7K876BV3QL","either","5","838","","","","","","","0","0","1","0.5330345992","","0.4","0.2","0.6","0.8","","","","","0.48011385","0.6697886415","0.5330345992","0.6055708535","","","","","","","","75","K","2","","","146","main_expt",""
"","bandit","226","871129","0.0-187.0-0.0","27258699","wem/bandit_either_3","AVI7K876BV3QL","either","5","371","","","","","","","0","1","0","","0.7101623398","0.4","0.2","0.6","0.8","0.5363471167","0.7101623398","0.5692896821","0.5711328773","","","","","","","","","","","","74","J","1","","","147","main_expt",""
"","bandit","227","873196","0.0-188.0-0.0","27258699","wem/bandit_either_3","AVI7K876BV3QL","either","5","510","","","","","","","0","1","0","","0.733230793","0.4","0.2","0.6","0.8","0.4929714004","0.733230793","0.4877368026","0.4258462921","","","","","","","","","","","","74","J","1","","","148","main_expt",""
"","bandit","228","875363","0.0-189.0-0.0","27258699","wem/bandit_either_3","AVI7K876BV3QL","either","5","622","","","","","","","1","0","0","0.7010449773","","0.4","0.2","0.6","0.8","","","","","0.4356177925","0.7010449773","0.5936336812","0.327967402","","","","","","","","74","J","1","","","149","main_expt",""
"","bandit","229","877487","0.0-190.0-0.0","27258699","wem/bandit_either_3","AVI7K876BV3QL","either","5","570","","","","","","","0","1","0","","0.6668672445","0.4","0.2","0.6","0.8","0.4054894896","0.6668672445","0.7027445866","0.4343474627","","","","","","","","","","","","74","J","1","","","150","main_expt",""
"","bandit","230","879830","0.0-191.0-0.0","27258699","wem/bandit_either_3","AVI7K876BV3QL","either","5","795","","","","","","","0","0","1","","0.5612636021","0.4","0.2","0.6","0.8","0.5283130311","0.5612636021","0.7690633033","0.5382828223","","","","","","","","","","","","74","J","1","","","151","main_expt",""
"","bandit","231","882160","0.0-192.0-0.0","27258699","wem/bandit_either_3","AVI7K876BV3QL","either","5","774","","","","","","","0","0","1","","0.7032448324","0.4","0.2","0.6","0.8","0.6323123958","0.7032448324","0.5989969619","0.6572277468","","","","","","","","","","","","74","J","1","","","152","main_expt",""
"","bandit","232","884276","0.0-193.0-0.0","27258699","wem/bandit_either_3","AVI7K876BV3QL","either","5","556","","","","","","","0","1","0","","0.6918543646","0.4","0.2","0.6","0.8","0.5847243132","0.6918543646","0.6126787421","0.668560183","","","","","","","","","","","","74","J","1","","","153","main_expt",""
"","bandit","233","886555","0.0-194.0-0.0","27258699","wem/bandit_either_3","AVI7K876BV3QL","either","5","727","","","","","","","0","1","0","","0.647195156","0.4","0.2","0.6","0.8","0.4285456013","0.647195156","0.5461115941","0.6954524596","","","","","","","","","","","","74","J","1","","","154","main_expt",""
"","bandit","234","888540","0.0-195.0-0.0","27258699","wem/bandit_either_3","AVI7K876BV3QL","either","5","440","","","","","","","1","0","0","0.6135998722","","0.4","0.2","0.6","0.8","","","","","0.4772645207","0.6135998722","0.5456348337","0.5684527538","","","","","","","","74","J","1","","","155","main_expt",""
"","bandit","235","890881","0.0-196.0-0.0","27258699","wem/bandit_either_3","AVI7K876BV3QL","either","5","774","","","","","","","0","1","0","","0.5591033916","0.4","0.2","0.6","0.8","0.4982711843","0.5591033916","0.4782917504","0.6034375159","","","","","","","","","","","","74","J","1","","","156","main_expt",""
"","bandit","236","903868","0.0-197.0-0.0","27258699","wem/bandit_either_3","AVI7K876BV3QL","either","5","11440","","","","","","","0","1","0","","0.5275183668","0.4","0.2","0.6","0.8","0.5275183668","0.5090787948","0.4868537485","0.5835723018","","","","","","","","","","","","72","H","0","img/none_selected.jpg","","157","main_expt",""
"","bandit","237","905800","0.0-198.0-0.0","27258699","wem/bandit_either_3","AVI7K876BV3QL","either","5","383","","","","","","","0","0","1","","0.6087372924","0.4","0.2","0.6","0.8","0.4489423754","0.6087372924","0.5361642224","0.5234712835","","","","","","","","","","","","74","J","1","","","158","main_expt",""
"","bandit","238","907912","0.0-199.0-0.0","27258699","wem/bandit_either_3","AVI7K876BV3QL","either","5","570","","","","","","","1","0","0","0.4947944436","","0.4","0.2","0.6","0.8","","","","","0.4933275403","0.6064578463","0.4947944436","0.5636881177","","","","","","","","75","K","2","","","159","main_expt",""
"","bandit","239","910201","0.0-200.0-0.0","27258699","wem/bandit_either_3","AVI7K876BV3QL","either","5","738","","","","","","","0","0","1","","0.5106889885","0.4","0.2","0.6","0.8","0.4521998099","0.6951258233","0.5106889885","0.4785340868","","","","","","","","","","","","75","K","2","","","160","main_expt",""
"","bandit","240","912098","0.0-201.0-0.0","27258699","wem/bandit_either_3","AVI7K876BV3QL","either","5","355","","","","","","","0","1","0","","0.7129510734","0.4","0.2","0.6","0.8","0.5114636712","0.7129510734","0.4566704777","0.5038962889","","","","","","","","","","","","74","J","1","","","161","main_expt",""
"","bandit","241","914182","0.0-202.0-0.0","27258699","wem/bandit_either_3","AVI7K876BV3QL","either","5","527","","","","","","","0","1","0","","0.7028034005","0.4","0.2","0.6","0.8","0.5242674757","0.7028034005","0.3259271754","0.4448395692","","","","","","","","","","","","74","J","1","","","162","main_expt",""
"","bandit","242","916466","0.0-203.0-0.0","27258699","wem/bandit_either_3","AVI7K876BV3QL","either","5","752","","","","","","","0","1","0","","0.6293758899","0.4","0.2","0.6","0.8","0.5687322637","0.6293758899","0.2806734392","0.471982621","","","","","","","","","","","","74","J","1","","","163","main_expt",""
"","bandit","243","918697","0.0-204.0-0.0","27258699","wem/bandit_either_3","AVI7K876BV3QL","either","5","664","","","","","","","0","1","0","","0.6813427096","0.4","0.2","0.6","0.8","0.5635146256","0.6813427096","0.2973163189","0.6517066897","","","","","","","","","","","","74","J","1","","","164","main_expt",""
"","bandit","244","921280","0.0-205.0-0.0","27258699","wem/bandit_either_3","AVI7K876BV3QL","either","5","1038","","","","","","","0","0","1","","0.2872552927","0.4","0.2","0.6","0.8","0.6588968294","0.7231406025","0.2872552927","0.6339143586","","","","","","","","","","","","75","K","2","","","165","main_expt",""
"","bandit","245","923230","0.0-206.0-0.0","27258699","wem/bandit_either_3","AVI7K876BV3QL","either","5","381","","","","","","","0","0","1","0.6274448994","","0.4","0.2","0.6","0.8","","","","","0.74872254","0.6274448994","0.325395791","0.6507743373","","","","","","","","74","J","1","","","166","main_expt",""
"","bandit","246","925196","0.0-207.0-0.0","27258699","wem/bandit_either_3","AVI7K876BV3QL","either","5","396","","","","","","","0","1","0","","0.6778384319","0.4","0.2","0.6","0.8","0.7741304825","0.6778384319","0.3307719744","0.6753437353","","","","","","","","","","","","74","J","1","","","167","main_expt",""
"","bandit","247","928501","0.0-208.0-0.0","27258699","wem/bandit_either_3","AVI7K876BV3QL","either","5","1750","","","","","","","0","1","0","","0.6928942004","0.4","0.2","0.6","0.8","0.8873722237","0.6928942004","0.4033689778","0.6308788189","","","","","","","","","","","","74","J","1","","","168","main_expt",""
"","bandit","248","932356","0.0-209.0-0.0","27258699","wem/bandit_either_3","AVI7K876BV3QL","either","5","2286","","","","","","","0","1","0","","0.6181376835","0.4","0.2","0.6","0.8","0.8649989169","0.6181376835","0.4089274666","0.6289357746","","","","","","","","","","","","74","J","1","","","169","main_expt",""
"","bandit","249","935010","0.0-210.0-0.0","27258699","wem/bandit_either_3","AVI7K876BV3QL","either","5","1098","","","","","","","0","0","1","","0.6539136718","0.4","0.2","0.6","0.8","0.8634323334","0.6539136718","0.4033631647","0.6308829817","","","","","","","","","","","","74","J","1","","","170","main_expt",""
"","bandit","250","937141","0.0-211.0-0.0","27258699","wem/bandit_either_3","AVI7K876BV3QL","either","5","590","","","","","","","1","0","0","0.8050812792","","0.4","0.2","0.6","0.8","","","","","0.8050812792","0.7935188527","0.3743415885","0.6008061885","","","","","","","","72","H","0","img/none_selected.jpg","","171","main_expt",""
"","bandit","251","939362","0.0-212.0-0.0","27258699","wem/bandit_either_3","AVI7K876BV3QL","either","5","672","","","","","","","0","0","1","","0.7635000848","0.4","0.2","0.6","0.8","0.7635000848","0.7959482017","0.4145867416","0.6498855282","","","","","","","","","","","","72","H","0","img/none_selected.jpg","","172","main_expt",""
"","bandit","252","941377","0.0-213.0-0.0","27258699","wem/bandit_either_3","AVI7K876BV3QL","either","5","455","","","","","","","0","1","0","","0.7720377381","0.4","0.2","0.6","0.8","0.7793560846","0.7720377381","0.4421490518","0.6361658802","","","","","","","","","","","","74","J","1","","","173","main_expt",""
"","bandit","253","944531","0.0-214.0-0.0","27258699","wem/bandit_either_3","AVI7K876BV3QL","either","5","1593","","","","","","","0","1","0","","0.7290013271","0.4","0.2","0.6","0.8","0.7290013271","0.7751150559","0.373112653","0.5494915933","","","","","","","","","","","","72","H","0","img/none_selected.jpg","","174","main_expt",""
"","bandit","254","948493","0.0-215.0-0.0","27258699","wem/bandit_either_3","AVI7K876BV3QL","either","5","2420","","","","","","","0","1","0","","0.7699246652","0.4","0.2","0.6","0.8","0.8353873757","0.7699246652","0.372221374","0.6292002022","","","","","","","","","","","","74","J","1","","","175","main_expt",""
"","bandit","255","950504","0.0-216.0-0.0","27258699","wem/bandit_either_3","AVI7K876BV3QL","either","5","455","","","","","","","1","0","0","0.8589437223","","0.4","0.2","0.6","0.8","","","","","0.8589437223","0.8092821718","0.3594456443","0.4999600136","","","","","","","","72","H","0","img/none_selected.jpg","","176","main_expt",""
"","bandit","256","952958","0.0-217.0-0.0","27258699","wem/bandit_either_3","AVI7K876BV3QL","either","5","893","","","","","","","1","0","0","0.8824379228","","0.4","0.2","0.6","0.8","","","","","0.8824379228","0.7728258073","0.3705823864","0.4500304274","","","","","","","","72","H","0","img/none_selected.jpg","","177","main_expt",""
"","bandit","257","955557","0.0-218.0-0.0","27258699","wem/bandit_either_3","AVI7K876BV3QL","either","5","1053","","","","","","","1","0","0","0.8862787626","","0.4","0.2","0.6","0.8","","","","","0.8862787626","0.8128952128","0.3042584581","0.4626099748","","","","","","","","72","H","0","img/none_selected.jpg","","178","main_expt",""
"","bandit","258","958108","0.0-219.0-0.0","27258699","wem/bandit_either_3","AVI7K876BV3QL","either","5","1002","","","","","","","1","0","0","0.8851661012","","0.4","0.2","0.6","0.8","","","","","0.8851661012","0.7878088044","0.3056645996","0.3074659707","","","","","","","","72","H","0","img/none_selected.jpg","","179","main_expt",""
"","bandit","259","960610","0.0-220.0-0.0","27258699","wem/bandit_either_3","AVI7K876BV3QL","either","5","957","","","","","","","1","0","0","0.8623840347","","0.4","0.2","0.6","0.8","","","","","0.8623840347","0.7626215198","0.3124458775","0.2445312817","","","","","","","","72","H","0","img/none_selected.jpg","","180","main_expt",""
"","bandit","260","963118","0.0-221.0-0.0","27258699","wem/bandit_either_3","AVI7K876BV3QL","either","5","957","","","","","","","1","0","0","0.8815853427","","0.4","0.2","0.6","0.8","","","","","0.8815853427","0.7059637017","0.2597333415","0.2284870313","","","","","","","","72","H","0","img/none_selected.jpg","","181","main_expt",""
"","bandit","261","965315","0.0-222.0-0.0","27258699","wem/bandit_either_3","AVI7K876BV3QL","either","5","649","","","","","","","1","0","0","0.8955826305","","0.4","0.2","0.6","0.8","","","","","0.8955826305","0.6691747745","0.2117009826","0.2195648065","","","","","","","","72","H","0","img/none_selected.jpg","","182","main_expt",""
"","bandit","262","967432","0.0-223.0-0.0","27258699","wem/bandit_either_3","AVI7K876BV3QL","either","5","553","","","","","","","0","1","0","","0.9362873759","0.4","0.2","0.6","0.8","0.9362873759","0.5523838876","0.2327762041","0.2327716204","","","","","","","","","","","","72","H","0","img/none_selected.jpg","","183","main_expt",""
"","bandit","263","969576","0.0-224.0-0.0","27258699","wem/bandit_either_3","AVI7K876BV3QL","either","5","584","","","","","","","1","0","0","0.9484326647","","0.4","0.2","0.6","0.8","","","","","0.9484326647","0.5451875246","0.2750618684","0.3207903029","","","","","","","","72","H","0","img/none_selected.jpg","","184","main_expt",""
"","bandit","264","971732","0.0-225.0-0.0","27258699","wem/bandit_either_3","AVI7K876BV3QL","either","5","590","","","","","","","0","1","0","","0.9660783121","0.4","0.2","0.6","0.8","0.9660783121","0.6090771744","0.2305846964","0.3609723674","","","","","","","","","","","","72","H","0","img/none_selected.jpg","","185","main_expt",""
"","bandit","265","974048","0.0-226.0-0.0","27258699","wem/bandit_either_3","AVI7K876BV3QL","either","5","753","","","","","","","1","0","0","0.9665376101","","0.4","0.2","0.6","0.8","","","","","0.9665376101","0.5810996076","0.2597669424","0.4442397518","","","","","","","","72","H","0","img/none_selected.jpg","","186","main_expt",""
"","bandit","266","1028528","0.0-227.0-0.0","27258699","wem/bandit_either_3","AVI7K876BV3QL","either","5","52921","","","","","","","1","0","0","0.9644184371","","0.4","0.2","0.6","0.8","","","","","0.9644184371","0.4445572548","0.2143742246","0.4478442549","","","","","","","","72","H","0","img/none_selected.jpg","","187","main_expt",""
"","bandit","267","1031798","0.0-228.0-0.0","27258699","wem/bandit_either_3","AVI7K876BV3QL","either","5","1743","","","","","","","1","0","0","0.9731237162","","0.4","0.2","0.6","0.8","","","","","0.9731237162","0.4113554433","0.2294707647","0.4026396634","","","","","","","","72","H","0","img/none_selected.jpg","","188","main_expt",""
"","bandit","268","1035517","0.0-229.0-0.0","27258699","wem/bandit_either_3","AVI7K876BV3QL","either","5","2157","","","","","","","0","1","0","","0.9787475226","0.4","0.2","0.6","0.8","0.9787475226","0.4053553249","0.2469430613","0.5072589837","","","","","","","","","","","","72","H","0","img/none_selected.jpg","","189","main_expt",""
"","bandit","269","1038341","0.0-230.0-0.0","27258699","wem/bandit_either_3","AVI7K876BV3QL","either","5","1263","","","","","","","0","1","0","","0.9847816181","0.4","0.2","0.6","0.8","0.9847816181","0.4927633492","0.2437728268","0.5234843415","","","","","","","","","","","","72","H","0","img/none_selected.jpg","","190","main_expt",""
"","bandit","270","1040944","0.0-231.0-0.0","27258699","wem/bandit_either_3","AVI7K876BV3QL","either","5","1069","","","","","","","0","1","0","","0.9713064587","0.4","0.2","0.6","0.8","0.9713064587","0.428678546","0.1655579887","0.5054414672","","","","","","","","","","","","72","H","0","img/none_selected.jpg","","191","main_expt",""
"","bandit","271","1044630","0.0-232.0-0.0","27258699","wem/bandit_either_3","AVI7K876BV3QL","either","5","2138","","","","","","","1","0","0","0.9558555722","","0.4","0.2","0.6","0.8","","","","","0.9558555722","0.3358015867","0.1501427492","0.7037613703","","","","","","","","72","H","0","img/none_selected.jpg","","192","main_expt",""
"","bandit","272","1050062","0.0-233.0-0.0","27258699","wem/bandit_either_3","AVI7K876BV3QL","either","5","3879","","","","","","","1","0","0","0.9443800135","","0.4","0.2","0.6","0.8","","","","","0.9443800135","0.2816430679","0.2062706367","0.5980286963","","","","","","","","72","H","0","img/none_selected.jpg","","193","main_expt",""
"","bandit","273","1051970","0.0-234.0-0.0","27258699","wem/bandit_either_3","AVI7K876BV3QL","either","5","343","","","","","","","0","1","0","","0.947825408","0.4","0.2","0.6","0.8","0.947825408","0.2951519504","0.2782937815","0.5607231578","","","","","","","","","","","","72","H","0","img/none_selected.jpg","","194","main_expt",""
"","bandit","274","1054637","0.0-235.0-0.0","27258699","wem/bandit_either_3","AVI7K876BV3QL","either","5","1118","","","","","","","0","1","0","","0.9531013361","0.4","0.2","0.6","0.8","0.9531013361","0.2482291913","0.2393938873","0.6222063369","","","","","","","","","","","","72","H","0","img/none_selected.jpg","","195","main_expt",""
"","bandit","275","1057368","0.0-236.0-0.0","27258699","wem/bandit_either_3","AVI7K876BV3QL","either","5","1175","","","","","","","1","0","0","0.9653581558","","0.4","0.2","0.6","0.8","","","","","0.9653581558","0.2548661126","0.3385483064","0.7092042058","","","","","","","","72","H","0","img/none_selected.jpg","","196","main_expt",""
"","bandit","276","1061820","0.0-237.0-0.0","27258699","wem/bandit_either_3","AVI7K876BV3QL","either","5","2901","","","","","","","0","1","0","","0.9774234012","0.4","0.2","0.6","0.8","0.9774234012","0.2789697966","0.3474357388","0.7397780251","","","","","","","","","","","","72","H","0","img/none_selected.jpg","","197","main_expt",""
"","bandit","277","1064034","0.0-238.0-0.0","27258699","wem/bandit_either_3","AVI7K876BV3QL","either","5","638","","","","","","","1","0","0","0.9866112083","","0.4","0.2","0.6","0.8","","","","","0.9866112083","0.2893473624","0.4511600961","0.6977166648","","","","","","","","72","H","0","img/none_selected.jpg","","198","main_expt",""
"","bandit","278","1065966","0.0-239.0-0.0","27258699","wem/bandit_either_3","AVI7K876BV3QL","either","5","355","","","","","","","1","0","0","0.9889390623","","0.4","0.2","0.6","0.8","","","","","0.9889390623","0.2499124536","0.4387406867","0.591703898","","","","","","","","72","H","0","img/none_selected.jpg","","199","main_expt",""
"","bandit","279","1068180","0.0-240.0-0.0","27258699","wem/bandit_either_3","AVI7K876BV3QL","either","5","660","","","","","","","1","0","0","0.9894921125","","0.4","0.2","0.6","0.8","","","","","0.9894921125","0.2643429758","0.4368135332","0.5107967375","","","","","","","","72","H","0","img/none_selected.jpg","","200","main_expt",""
"","bandit","280","1070164","0.0-241.0-0.0","27258699","wem/bandit_either_3","AVI7K876BV3QL","either","5","411","","","","","","","1","0","0","0.989248002","","0.4","0.2","0.6","0.8","","","","","0.989248002","0.2382870841","0.3070084091","0.6528148869","","","","","","","","72","H","0","img/none_selected.jpg","","201","main_expt",""
"","bandit","281","1072090","0.0-242.0-0.0","27258699","wem/bandit_either_3","AVI7K876BV3QL","either","5","373","","","","","","","0","1","0","","0.9957983392","0.4","0.2","0.6","0.8","0.9957983392","0.1604624283","0.3603585946","0.6892998309","","","","","","","","","","","","72","H","0","img/none_selected.jpg","","202","main_expt",""
"","bandit","282","1073996","0.0-243.0-0.0","27258699","wem/bandit_either_3","AVI7K876BV3QL","either","5","366","","","","","","","0","1","0","","0.9958893","0.4","0.2","0.6","0.8","0.9958893","0.1407610566","0.260320329","0.6989476798","","","","","","","","","","","","72","H","0","img/none_selected.jpg","","203","main_expt",""
"","bandit","283","1075869","0.0-244.0-0.0","27258699","wem/bandit_either_3","AVI7K876BV3QL","either","5","315","","","","","","","1","0","0","0.9955962674","","0.4","0.2","0.6","0.8","","","","","0.9955962674","0.1343245238","0.2003029851","0.772264117","","","","","","","","72","H","0","img/none_selected.jpg","","204","main_expt",""
"","bandit","284","1077766","0.0-245.0-0.0","27258699","wem/bandit_either_3","AVI7K876BV3QL","either","5","308","","","","","","","1","0","0","0.9943432705","","0.4","0.2","0.6","0.8","","","","","0.9943432705","0.1715400642","0.1922312923","0.7366863645","","","","","","","","72","H","0","img/none_selected.jpg","","205","main_expt",""
"","bandit","285","1079628","0.0-246.0-0.0","27258699","wem/bandit_either_3","AVI7K876BV3QL","either","5","297","","","","","","","1","0","0","0.9982320458","","0.4","0.2","0.6","0.8","","","","","0.9982320458","0.117617648","0.1936085521","0.7477287432","","","","","","","","72","H","0","img/none_selected.jpg","","206","main_expt",""
"","bandit","286","1081544","0.0-247.0-0.0","27258699","wem/bandit_either_3","AVI7K876BV3QL","either","5","362","","","","","","","0","1","0","","0.9976530308","0.4","0.2","0.6","0.8","0.9976530308","0.1182717864","0.1821705986","0.8185776196","","","","","","","","","","","","72","H","0","img/none_selected.jpg","","207","main_expt",""
"","bandit","287","1083443","0.0-248.0-0.0","27258699","wem/bandit_either_3","AVI7K876BV3QL","either","5","337","","","","","","","0","1","0","","0.9961811318","0.4","0.2","0.6","0.8","0.9961811318","0.1445047472","0.1145050302","0.8161769506","","","","","","","","","","","","72","H","0","img/none_selected.jpg","","208","main_expt",""
"","bandit","288","1085326","0.0-249.0-0.0","27258699","wem/bandit_either_3","AVI7K876BV3QL","either","5","310","","","","","","","0","1","0","","0.9977639941","0.4","0.2","0.6","0.8","0.9977639941","0.1264159314","0.1206637037","0.8224464957","","","","","","","","","","","","72","H","0","img/none_selected.jpg","","209","main_expt",""
"","bandit","289","1086878","0.0-250.0-0.0","27258699","wem/bandit_either_3","AVI7K876BV3QL","either","5","2","","","","","","","0","1","0","","0.9953783407","0.4","0.2","0.6","0.8","0.9953783407","0.1208777168","0.1422927172","0.7392866018","","","","","","","","","","","","72","H","0","img/none_selected.jpg","","210","main_expt",""
"","bandit","290","1090770","0.0-251.0-0.0","27258699","wem/bandit_either_3","AVI7K876BV3QL","either","5","2335","","","","","","","0","1","0","","0.9976351195","0.4","0.2","0.6","0.8","0.9976351195","0.1733448518","0.1811219169","0.7125411919","","","","","","","","","","","","72","H","0","img/none_selected.jpg","","211","main_expt",""
"","bandit","291","1092859","0.0-252.0-0.0","27258699","wem/bandit_either_3","AVI7K876BV3QL","either","5","539","","","","","","","0","1","0","","0.9983589292","0.4","0.2","0.6","0.8","0.9983589292","0.1085262221","0.1982527665","0.7191881067","","","","","","","","","","","","72","H","0","img/none_selected.jpg","","212","main_expt",""
"","bandit","292","1094959","0.0-253.0-0.0","27258699","wem/bandit_either_3","AVI7K876BV3QL","either","5","547","","","","","","","0","1","0","","0.9960427138","0.4","0.2","0.6","0.8","0.9960427138","0.08145678985","0.124448309","0.7523845147","","","","","","","","","","","","72","H","0","img/none_selected.jpg","","213","main_expt",""
"","bandit","293","1101682","0.0-254.0-0.0","27258699","wem/bandit_either_3","AVI7K876BV3QL","either","5","5158","","","","","","","0","1","0","","0.9924650588","0.4","0.2","0.6","0.8","0.9924650588","0.05725631888","0.1036015692","0.7193420906","","","","","","","","","","","","72","H","0","img/none_selected.jpg","","214","main_expt",""
"","bandit","294","1103700","0.0-255.0-0.0","27258699","wem/bandit_either_3","AVI7K876BV3QL","either","5","439","","","","","","","0","1","0","","0.9858211903","0.4","0.2","0.6","0.8","0.9858211903","0.04356988172","0.14458031","0.6784461291","","","","","","","","","","","","72","H","0","img/none_selected.jpg","","215","main_expt",""
"","bandit","295","1105803","0.0-256.0-0.0","27258699","wem/bandit_either_3","AVI7K876BV3QL","either","5","544","","","","","","","0","1","0","","0.9915289077","0.4","0.2","0.6","0.8","0.9915289077","0.04316154837","0.2094876981","0.5658185063","","","","","","","","","","","","72","H","0","img/none_selected.jpg","","216","main_expt",""
"","bandit","296","1107769","0.0-257.0-0.0","27258699","wem/bandit_either_3","AVI7K876BV3QL","either","5","409","","","","","","","1","0","0","0.9929544916","","0.4","0.2","0.6","0.8","","","","","0.9929544916","0.03453558383","0.24936904","0.4886301847","","","","","","","","72","H","0","img/none_selected.jpg","","217","main_expt",""
"","bandit","297","1109741","0.0-258.0-0.0","27258699","wem/bandit_either_3","AVI7K876BV3QL","either","5","426","","","","","","","0","1","0","","0.9741721496","0.4","0.2","0.6","0.8","0.9741721496","0.03800932399","0.2006789107","0.5674985979","","","","","","","","","","","","72","H","0","img/none_selected.jpg","","218","main_expt",""
"","bandit","298","1111690","0.0-259.0-0.0","27258699","wem/bandit_either_3","AVI7K876BV3QL","either","5","390","","","","","","","1","0","0","0.9413517393","","0.4","0.2","0.6","0.8","","","","","0.9413517393","0.07914639327","0.2118480588","0.6088772151","","","","","","","","72","H","0","img/none_selected.jpg","","219","main_expt",""
"","bandit","299","1113517","0.0-260.0-0.0","27258699","wem/bandit_either_3","AVI7K876BV3QL","either","5","263","","","","","","","0","0","1","0.9230346446","","0.4","0.2","0.6","0.8","","","","","0.9230346446","0.07044987786","0.2159213458","0.5856238885","","","","","","","","72","H","0","img/none_selected.jpg","","220","main_expt",""
"","bandit","300","1115888","0.0-261.0-0.0","27258699","wem/bandit_either_3","AVI7K876BV3QL","either","5","799","","","","","","","0","1","0","","0.9216350241","0.4","0.2","0.6","0.8","0.9216350241","0.1351506501","0.2097338805","0.6601978635","","","","","","","","","","","","72","H","0","img/none_selected.jpg","","221","main_expt",""
"","bandit","301","1118209","0.0-262.0-0.0","27258699","wem/bandit_either_3","AVI7K876BV3QL","either","5","763","","","","","","","0","1","0","","0.9093406134","0.4","0.2","0.6","0.8","0.9093406134","0.2099108548","0.1468233299","0.6540659739","","","","","","","","","","","","72","H","0","img/none_selected.jpg","","222","main_expt",""
"","bandit","302","1120448","0.0-263.0-0.0","27258699","wem/bandit_either_3","AVI7K876BV3QL","either","5","687","","","","","","","0","0","1","","0.8361447498","0.4","0.2","0.6","0.8","0.8361447498","0.2971693323","0.1379540926","0.7010542315","","","","","","","","","","","","72","H","0","img/none_selected.jpg","","223","main_expt",""
"","bandit","303","1122799","0.0-264.0-0.0","27258699","wem/bandit_either_3","AVI7K876BV3QL","either","5","795","","","","","","","0","1","0","","0.2754671199","0.4","0.2","0.6","0.8","0.8626161161","0.2754671199","0.1943723139","0.7972730751","","","","","","","","","","","","74","J","1","","","224","main_expt",""
"","bandit","304","1125064","0.0-265.0-0.0","27258699","wem/bandit_either_3","AVI7K876BV3QL","either","5","707","","","","","","","0","0","1","","0.2483133052","0.4","0.2","0.6","0.8","0.9176165053","0.2483133052","0.2949344278","0.8726314772","","","","","","","","","","","","74","J","1","","","225","main_expt",""
"","bandit","305","1127464","0.0-266.0-0.0","27258699","wem/bandit_either_3","AVI7K876BV3QL","either","5","843","","","","","","","0","1","0","","0.4040967375","0.4","0.2","0.6","0.8","0.9516545376","0.2945032007","0.4040967375","0.8569150835","","","","","","","","","","","","75","K","2","","","226","main_expt",""
"","bandit","306","1129727","0.0-267.0-0.0","27258699","wem/bandit_either_3","AVI7K876BV3QL","either","5","696","","","","","","","1","0","0","0.4369809926","","0.4","0.2","0.6","0.8","","","","","0.9448551655","0.2544933329","0.4369809926","0.8773762417","","","","","","","","75","K","2","","","227","main_expt",""
"","bandit","307","1131822","0.0-268.0-0.0","27258699","wem/bandit_either_3","AVI7K876BV3QL","either","5","532","","","","","","","1","0","0","0.4228749262","","0.4","0.2","0.6","0.8","","","","","0.9298030406","0.22227057","0.4228749262","0.8514828757","","","","","","","","75","K","2","","","228","main_expt",""
"","bandit","308","1134082","0.0-269.0-0.0","27258699","wem/bandit_either_3","AVI7K876BV3QL","either","5","693","","","","","","","0","1","0","","0.4953143479","0.4","0.2","0.6","0.8","0.9022116856","0.2319557967","0.4953143479","0.893786405","","","","","","","","","","","","75","K","2","","","229","main_expt",""
"","bandit","309","1136649","0.0-270.0-0.0","27258699","wem/bandit_either_3","AVI7K876BV3QL","either","5","1008","","","","","","","0","0","1","","0.4752889979","0.4","0.2","0.6","0.8","0.8934587516","0.3107577299","0.4752889979","0.9350514117","","","","","","","","","","","","75","K","2","","","230","main_expt",""
"","bandit","310","1138846","0.0-271.0-0.0","27258699","wem/bandit_either_3","AVI7K876BV3QL","either","5","636","","","","","","","1","0","0","0.4887049862","","0.4","0.2","0.6","0.8","","","","","0.8403693225","0.3046703461","0.4887049862","0.9139197991","","","","","","","","75","K","2","","","231","main_expt",""
"","bandit","311","1141108","0.0-272.0-0.0","27258699","wem/bandit_either_3","AVI7K876BV3QL","either","5","706","","","","","","","1","0","0","0.6065944358","","0.4","0.2","0.6","0.8","","","","","0.7373772703","0.4259459217","0.6065944358","0.8753904063","","","","","","","","75","K","2","","","232","main_expt",""
"","bandit","312","1143007","0.0-273.0-0.0","27258699","wem/bandit_either_3","AVI7K876BV3QL","either","5","345","","","","","","","0","1","0","","0.5320380184","0.4","0.2","0.6","0.8","0.7275490615","0.3391655585","0.5320380184","0.807664976","","","","","","","","","","","","75","K","2","","","233","main_expt",""
"","bandit","313","1144897","0.0-274.0-0.0","27258699","wem/bandit_either_3","AVI7K876BV3QL","either","5","336","","","","","","","0","1","0","","0.5845689413","0.4","0.2","0.6","0.8","0.6910989812","0.3380141995","0.5845689413","0.817303243","","","","","","","","","","","","75","K","2","","","234","main_expt",""
"","bandit","314","1146676","0.0-275.0-0.0","27258699","wem/bandit_either_3","AVI7K876BV3QL","either","5","213","","","","","","","0","0","1","0.4424117598","","0.4","0.2","0.6","0.8","","","","","0.6506848601","0.2949514339","0.4424117598","0.8320050337","","","","","","","","75","K","2","","","235","main_expt",""
"","bandit","315","1149337","0.0-276.0-0.0","27258699","wem/bandit_either_3","AVI7K876BV3QL","either","5","1104","","","","","","","0","0","1","0.4411324282","","0.4","0.2","0.6","0.8","","","","","0.589166471","0.2575094814","0.4411324282","0.8539654836","","","","","","","","75","K","2","","","236","main_expt",""
"","bandit","316","1151287","0.0-277.0-0.0","27258699","wem/bandit_either_3","AVI7K876BV3QL","either","5","377","","","","","","","0","0","1","0.5792865955","","0.4","0.2","0.6","0.8","","","","","0.5475273787","0.3298960346","0.5792865955","0.8151920012","","","","","","","","75","K","2","","","237","main_expt",""
"","bandit","317","1153199","0.0-278.0-0.0","27258699","wem/bandit_either_3","AVI7K876BV3QL","either","5","346","","","","","","","0","1","0","","0.5644141111","0.4","0.2","0.6","0.8","0.5644141111","0.3922637729","0.6435093149","0.8724257749","","","","","","","","","","","","72","H","0","img/none_selected.jpg","","238","main_expt",""
"","bandit","318","1155171","0.0-279.0-0.0","27258699","wem/bandit_either_3","AVI7K876BV3QL","either","5","401","","","","","","","0","1","0","","0.557522906","0.4","0.2","0.6","0.8","0.557522906","0.3200188668","0.571754567","0.8232187668","","","","","","","","","","","","72","H","0","img/none_selected.jpg","","239","main_expt",""
"","bandit","319","1157133","0.0-280.0-0.0","27258699","wem/bandit_either_3","AVI7K876BV3QL","either","5","428","","","","","","","0","0","1","","0.603497511","0.4","0.2","0.6","0.8","0.603497511","0.3427015143","0.6642130709","0.8306623225","","","","","","","","","","","","72","H","0","img/none_selected.jpg","","240","main_expt",""
"","bandit","320","1159187","0.0-281.0-0.0","27258699","wem/bandit_either_3","AVI7K876BV3QL","either","5","486","","","","","","","0","0","1","0.702894688","","0.4","0.2","0.6","0.8","","","","","0.5998739494","0.3027961335","0.702894688","0.7592816599","","","","","","","","75","K","2","","","241","main_expt",""
"","bandit","321","1161100","0.0-282.0-0.0","27258699","wem/bandit_either_3","AVI7K876BV3QL","either","5","356","","","","","","","0","0","1","0.5674661637","","0.4","0.2","0.6","0.8","","","","","0.5674661637","0.2916945226","0.6468691102","0.8354326854","","","","","","","","72","H","0","img/none_selected.jpg","","242","main_expt",""
"","bandit","322","1162883","0.0-283.0-0.0","27258699","wem/bandit_either_3","AVI7K876BV3QL","either","5","223","","","","","","","0","0","1","","0.2703759756","0.4","0.2","0.6","0.8","0.620083209","0.2703759756","0.7073159297","0.8387573723","","","","","","","","","","","","74","J","1","","","243","main_expt",""
"","bandit","323","1164882","0.0-284.0-0.0","27258699","wem/bandit_either_3","AVI7K876BV3QL","either","5","423","","","","","","","1","0","0","0.8683205951","","0.4","0.2","0.6","0.8","","","","","0.7089992968","0.2055036404","0.6719420595","0.8683205951","","","","","","","","76","L","3","","","244","main_expt",""
