"consent","trial_type","trial_index","time_elapsed","internal_node_id","subjID","study","MID","cond","drift","rt","responses","key_press","expt_phase","like","value","connected","gems","bombs","no_reward","GemPrChosen","BombPrChosen","GainOverPainPr_0","GainOverPainPr_1","GainOverPainPr_2","GainOverPainPr_3","LosePr_0","LosePr_1","LosePr_2","LosePr_3","WinPr_0","WinPr_1","WinPr_2","WinPr_3","Q0","Q1","Q2","gender","age","ethnicity","target","respCharCode","respKey","respChoiceNum","respChoice","practice","trial_counter","trial_label","button_pressed"
"INL_behavioral_consent_30min_online.html","consent","0","7815","0.0-0.0","27517993","wem/bandit_either_3","AY5O199V9M9O7","either","7","","","","","","","","","","","","","","","","","","","","","","","","","","","","","","","","","","","","","","",""
"","survey-text","1","12247","0.0-1.0","27517993","wem/bandit_either_3","AY5O199V9M9O7","either","7","3418","{""Q0"":""AY5O199V9M9O7""}","","","","","","","","","","","","","","","","","","","","","","","","","","","","","","","","","","","","",""
"","text","2","21158","0.0-2.0","27517993","wem/bandit_either_3","AY5O199V9M9O7","either","7","7907","","32","","","","","","","","","","","","","","","","","","","","","","","","","","","","","","","","","","","",""
"","text","3","24765","0.0-3.0","27517993","wem/bandit_either_3","AY5O199V9M9O7","either","7","3604","","32","","","","","","","","","","","","","","","","","","","","","","","","","","","","","","","","","","","",""
"","text","4","29648","0.0-4.0","27517993","wem/bandit_either_3","AY5O199V9M9O7","either","7","4881","","32","","","","","","","","","","","","","","","","","","","","","","","","","","","","","","","","","","","",""
"","text","5","34026","0.0-5.0","27517993","wem/bandit_either_3","AY5O199V9M9O7","either","7","4376","","32","","","","","","","","","","","","","","","","","","","","","","","","","","","","","","","","","","","",""
"","text","6","54005","0.0-6.0","27517993","wem/bandit_either_3","AY5O199V9M9O7","either","7","19976","","32","","","","","","","","","","","","","","","","","","","","","","","","","","","","","","","","","","","",""
"","text","7","56855","0.0-7.0","27517993","wem/bandit_either_3","AY5O199V9M9O7","either","7","2848","","32","","","","","","","","","","","","","","","","","","","","","","","","","","","","","","","","","","","",""
"","text","8","60514","0.0-8.0","27517993","wem/bandit_either_3","AY5O199V9M9O7","either","7","3657","","32","","","","","","","","","","","","","","","","","","","","","","","","","","","","","","","","","","","",""
"","identification","9","116712","0.0-9.0-0.0","27517993","wem/bandit_either_3","AY5O199V9M9O7","either","7","56168","","","","6","6","6","","","","","","","","","","","","","","","","","","","","","","","","the village of Zur","","","","","","","",""
"","identification","10","127070","0.0-9.0-1.0","27517993","wem/bandit_either_3","AY5O199V9M9O7","either","7","9333","","","","0","0","0","","","","","","","","","","","","","","","","","","","","","","","","the village of Nyx","","","","","","","",""
"","text","11","133707","0.0-10.0","27517993","wem/bandit_either_3","AY5O199V9M9O7","either","7","5633","","32","","","","","","","","","","","","","","","","","","","","","","","","","","","","","","","","","","","",""
"","text","12","135692","0.0-11.0","27517993","wem/bandit_either_3","AY5O199V9M9O7","either","7","1983","","32","","","","","","","","","","","","","","","","","","","","","","","","","","","","","","","","","","","",""
"","text","13","137020","0.0-12.0","27517993","wem/bandit_either_3","AY5O199V9M9O7","either","7","1326","","32","","","","","","","","","","","","","","","","","","","","","","","","","","","","","","","","","","","",""
"","text","14","140131","0.0-13.0","27517993","wem/bandit_either_3","AY5O199V9M9O7","either","7","3109","","32","","","","","","","","","","","","","","","","","","","","","","","","","","","","","","","","","","","",""
"","bandit","15","143581","0.0-14.0-0.0","27517993","wem/bandit_either_3","AY5O199V9M9O7","either","7","1938","","","","","","","0","0","1","0","0","","","","","0","","","","0","","","","","","","","","","","74","J","0","img/none_selected_demo.jpg","true","0","",""
"","bandit","16","145638","0.0-15.0-0.0","27517993","wem/bandit_either_3","AY5O199V9M9O7","either","7","549","","","","","","","0","0","1","0","0","","","","","0","","","","0","","","","","","","","","","","75","K","0","img/none_selected_demo.jpg","true","0","",""
"","text","17","149471","0.0-16.0","27517993","wem/bandit_either_3","AY5O199V9M9O7","either","7","3830","","32","","","","","","","","","","","","","","","","","","","","","","","","","","","","","","","","","","","",""
"","text","18","163751","0.0-17.0","27517993","wem/bandit_either_3","AY5O199V9M9O7","either","7","14278","","32","","","","","","","","","","","","","","","","","","","","","","","","","","","","","","","","","","","",""
"","text","19","168114","0.0-18.0","27517993","wem/bandit_either_3","AY5O199V9M9O7","either","7","4361","","32","","","","","","","","","","","","","","","","","","","","","","","","","","","","","","","","","","","",""
"","text","20","170024","0.0-19.0","27517993","wem/bandit_either_3","AY5O199V9M9O7","either","7","1908","","32","","","","","","","","","","","","","","","","","","","","","","","","","","","","","","","","","","","",""
"","bandit","21","172272","0.0-20.0-0.0","27517993","wem/bandit_either_3","AY5O199V9M9O7","either","7","732","","","","","","","0","1","0","","0.8","0.5","0.5","","","0.8","0.2","","","","","","","","","","","","","","74","J","0","img/none_selected_demo.jpg","true","0","80_20_practice",""
"","bandit","22","174253","0.0-20.0-1.0","27517993","wem/bandit_either_3","AY5O199V9M9O7","either","7","474","","","","","","","0","0","1","","0.2","0.5","0.5","","","0.8","0.2","","","","","","","","","","","","","","75","K","1","","true","0","80_20_practice",""
"","bandit","23","176118","0.0-20.0-2.0","27517993","wem/bandit_either_3","AY5O199V9M9O7","either","7","357","","","","","","","0","0","1","0.2","","0.5","0.5","","","","","","","0.8","0.2","","","","","","","","","","75","K","1","","true","0","80_20_practice",""
"","bandit","24","177864","0.0-20.0-3.0","27517993","wem/bandit_either_3","AY5O199V9M9O7","either","7","238","","","","","","","1","0","0","0.8","","0.5","0.5","","","","","","","0.8","0.2","","","","","","","","","","74","J","0","img/none_selected_demo.jpg","true","0","80_20_practice",""
"","bandit","25","179661","0.0-20.0-4.0","27517993","wem/bandit_either_3","AY5O199V9M9O7","either","7","289","","","","","","","0","0","1","","0.8","0.5","0.5","","","0.8","0.2","","","","","","","","","","","","","","74","J","0","img/none_selected_demo.jpg","true","0","80_20_practice",""
"","bandit","26","181462","0.0-20.0-5.0","27517993","wem/bandit_either_3","AY5O199V9M9O7","either","7","293","","","","","","","0","0","1","","0.2","0.5","0.5","","","0.8","0.2","","","","","","","","","","","","","","75","K","1","","true","0","80_20_practice",""
"","bandit","27","183193","0.0-20.0-6.0","27517993","wem/bandit_either_3","AY5O199V9M9O7","either","7","222","","","","","","","0","1","0","","0.8","0.5","0.5","","","0.8","0.2","","","","","","","","","","","","","","74","J","0","img/none_selected_demo.jpg","true","0","80_20_practice",""
"","bandit","28","184990","0.0-20.0-7.0","27517993","wem/bandit_either_3","AY5O199V9M9O7","either","7","288","","","","","","","0","0","1","0.8","","0.5","0.5","","","","","","","0.8","0.2","","","","","","","","","","74","J","0","img/none_selected_demo.jpg","true","0","80_20_practice",""
"","bandit","29","186782","0.0-20.0-8.0","27517993","wem/bandit_either_3","AY5O199V9M9O7","either","7","285","","","","","","","0","1","0","","0.2","0.5","0.5","","","0.8","0.2","","","","","","","","","","","","","","75","K","1","","true","0","80_20_practice",""
"","bandit","30","188542","0.0-20.0-9.0","27517993","wem/bandit_either_3","AY5O199V9M9O7","either","7","251","","","","","","","0","0","1","","0.2","0.5","0.5","","","0.8","0.2","","","","","","","","","","","","","","75","K","1","","true","0","80_20_practice",""
"","bandit","31","190281","0.0-20.0-10.0","27517993","wem/bandit_either_3","AY5O199V9M9O7","either","7","230","","","","","","","1","0","0","0.8","","0.5","0.5","","","","","","","0.8","0.2","","","","","","","","","","74","J","0","img/none_selected_demo.jpg","true","0","80_20_practice",""
"","bandit","32","192058","0.0-20.0-11.0","27517993","wem/bandit_either_3","AY5O199V9M9O7","either","7","266","","","","","","","1","0","0","0.8","","0.5","0.5","","","","","","","0.8","0.2","","","","","","","","","","74","J","0","img/none_selected_demo.jpg","true","0","80_20_practice",""
"","bandit","33","194446","0.0-20.0-12.0","27517993","wem/bandit_either_3","AY5O199V9M9O7","either","7","879","","","","","","","0","0","1","","0.2","0.5","0.5","","","0.8","0.2","","","","","","","","","","","","","","75","K","1","","true","0","80_20_practice",""
"","bandit","34","196252","0.0-20.0-13.0","27517993","wem/bandit_either_3","AY5O199V9M9O7","either","7","297","","","","","","","0","1","0","","0.8","0.5","0.5","","","0.8","0.2","","","","","","","","","","","","","","74","J","0","img/none_selected_demo.jpg","true","0","80_20_practice",""
"","bandit","35","198106","0.0-20.0-14.0","27517993","wem/bandit_either_3","AY5O199V9M9O7","either","7","346","","","","","","","0","0","1","0.8","","0.5","0.5","","","","","","","0.8","0.2","","","","","","","","","","74","J","0","img/none_selected_demo.jpg","true","0","80_20_practice",""
"","bandit","36","199779","0.0-20.0-15.0","27517993","wem/bandit_either_3","AY5O199V9M9O7","either","7","164","","","","","","","0","1","0","","0.8","0.5","0.5","","","0.8","0.2","","","","","","","","","","","","","","74","J","0","img/none_selected_demo.jpg","true","0","80_20_practice",""
"","bandit","37","201468","0.0-20.0-16.0","27517993","wem/bandit_either_3","AY5O199V9M9O7","either","7","180","","","","","","","0","1","0","","0.8","0.5","0.5","","","0.8","0.2","","","","","","","","","","","","","","74","J","0","img/none_selected_demo.jpg","true","0","80_20_practice",""
"","bandit","38","203107","0.0-20.0-17.0","27517993","wem/bandit_either_3","AY5O199V9M9O7","either","7","129","","","","","","","0","1","0","","0.8","0.5","0.5","","","0.8","0.2","","","","","","","","","","","","","","74","J","0","img/none_selected_demo.jpg","true","0","80_20_practice",""
"","bandit","39","204783","0.0-20.0-18.0","27517993","wem/bandit_either_3","AY5O199V9M9O7","either","7","167","","","","","","","0","0","1","","0.8","0.5","0.5","","","0.8","0.2","","","","","","","","","","","","","","74","J","0","img/none_selected_demo.jpg","true","0","80_20_practice",""
"","bandit","40","206538","0.0-20.0-19.0","27517993","wem/bandit_either_3","AY5O199V9M9O7","either","7","246","","","","","","","0","0","1","0.8","","0.5","0.5","","","","","","","0.8","0.2","","","","","","","","","","74","J","0","img/none_selected_demo.jpg","true","0","80_20_practice",""
"","text","41","209512","0.0-21.0","27517993","wem/bandit_either_3","AY5O199V9M9O7","either","7","2971","","32","","","","","","","","","","","","","","","","","","","","","","","","","","","","","","","","","","","",""
"","bandit","42","212348","0.0-22.0-0.0","27517993","wem/bandit_either_3","AY5O199V9M9O7","either","7","1328","","","","","","","1","0","0","1","0","","","","","0","1","","","1","0","","","","","","","","","","74","J","0","img/none_selected_demo.jpg","true","0","",""
"","text","43","218449","0.0-23.0","27517993","wem/bandit_either_3","AY5O199V9M9O7","either","7","6098","","32","","","","","","","","","","","","","","","","","","","","","","","","","","","","","","","","","","","",""
"","text","44","221004","0.0-24.0","27517993","wem/bandit_either_3","AY5O199V9M9O7","either","7","2552","","32","","","","","","","","","","","","","","","","","","","","","","","","","","","","","","","","","","","",""
"","text","45","225363","0.0-25.0","27517993","wem/bandit_either_3","AY5O199V9M9O7","either","7","4357","","32","","","","","","","","","","","","","","","","","","","","","","","","","","","","","","","","","","","",""
"","text","46","227266","0.0-26.0","27517993","wem/bandit_either_3","AY5O199V9M9O7","either","7","1900","","32","","","","","","","","","","","","","","","","","","","","","","","","","","","","","","","","","","","",""
"","text","47","230294","0.0-27.0","27517993","wem/bandit_either_3","AY5O199V9M9O7","either","7","3025","","32","","","","","","","","","","","","","","","","","","","","","","","","","","","","","","","","","","","",""
"","text","48","232299","0.0-28.0","27517993","wem/bandit_either_3","AY5O199V9M9O7","either","7","2003","","32","","","","","","","","","","","","","","","","","","","","","","","","","","","","","","","","","","","",""
"","text","49","234647","0.0-29.0","27517993","wem/bandit_either_3","AY5O199V9M9O7","either","7","2346","","32","","","","","","","","","","","","","","","","","","","","","","","","","","","","","","","","","","","",""
"","text","50","235983","0.0-30.0","27517993","wem/bandit_either_3","AY5O199V9M9O7","either","7","1334","","32","","","","","","","","","","","","","","","","","","","","","","","","","","","","","","","","","","","",""
"","text","51","238085","0.0-31.0","27517993","wem/bandit_either_3","AY5O199V9M9O7","either","7","2099","","32","","","","","","","","","","","","","","","","","","","","","","","","","","","","","","","","","","","",""
"","text","52","239000","0.0-32.0","27517993","wem/bandit_either_3","AY5O199V9M9O7","either","7","912","","32","","","","","","","","","","","","","","","","","","","","","","","","","","","","","","","","","","","",""
"","text","53","243766","0.0-33.0","27517993","wem/bandit_either_3","AY5O199V9M9O7","either","7","4763","","32","","","","","","","","","","","","","","","","","","","","","","","","","","","","","","","","","","","",""
"","bandit","54","246319","0.0-34.0-0.0","27517993","wem/bandit_either_3","AY5O199V9M9O7","either","7","1045","","","","","","","0","0","1","","0.2","0.5","0.5","0.5","0.5","0.8","0.2","0.6","0.2","","","","","","","","","","","","76","L","3","","true","0","full_practice",""
"","bandit","55","248175","0.0-34.0-1.0","27517993","wem/bandit_either_3","AY5O199V9M9O7","either","7","345","","","","","","","1","0","0","0.8","","0.5","0.5","0.5","0.5","","","","","0.8","0.2","0.6","0.2","","","","","","","","72","H","0","img/none_selected.jpg","true","0","full_practice",""
"","bandit","56","249943","0.0-34.0-2.0","27517993","wem/bandit_either_3","AY5O199V9M9O7","either","7","259","","","","","","","0","1","0","","0.6","0.5","0.5","0.5","0.5","0.8","0.2","0.6","0.2","","","","","","","","","","","","75","K","2","","true","0","full_practice",""
"","bandit","57","251689","0.0-34.0-3.0","27517993","wem/bandit_either_3","AY5O199V9M9O7","either","7","237","","","","","","","0","0","1","","0.2","0.5","0.5","0.5","0.5","0.8","0.2","0.6","0.2","","","","","","","","","","","","74","J","1","","true","0","full_practice",""
"","bandit","58","253470","0.0-34.0-4.0","27517993","wem/bandit_either_3","AY5O199V9M9O7","either","7","271","","","","","","","1","0","0","0.8","","0.5","0.5","0.5","0.5","","","","","0.8","0.2","0.6","0.2","","","","","","","","72","H","0","img/none_selected.jpg","true","0","full_practice",""
"","bandit","59","255226","0.0-34.0-5.0","27517993","wem/bandit_either_3","AY5O199V9M9O7","either","7","245","","","","","","","0","0","1","0.8","","0.5","0.5","0.5","0.5","","","","","0.8","0.2","0.6","0.2","","","","","","","","72","H","0","img/none_selected.jpg","true","0","full_practice",""
"","bandit","60","257284","0.0-34.0-6.0","27517993","wem/bandit_either_3","AY5O199V9M9O7","either","7","549","","","","","","","0","0","1","0.2","","0.5","0.5","0.5","0.5","","","","","0.8","0.2","0.6","0.2","","","","","","","","74","J","1","","true","0","full_practice",""
"","bandit","61","258994","0.0-34.0-7.0","27517993","wem/bandit_either_3","AY5O199V9M9O7","either","7","201","","","","","","","0","0","1","","0.2","0.5","0.5","0.5","0.5","0.8","0.2","0.6","0.2","","","","","","","","","","","","76","L","3","","true","0","full_practice",""
"","bandit","62","260932","0.0-34.0-8.0","27517993","wem/bandit_either_3","AY5O199V9M9O7","either","7","430","","","","","","","1","0","0","0.8","","0.5","0.5","0.5","0.5","","","","","0.8","0.2","0.6","0.2","","","","","","","","72","H","0","img/none_selected.jpg","true","0","full_practice",""
"","bandit","63","262651","0.0-34.0-9.0","27517993","wem/bandit_either_3","AY5O199V9M9O7","either","7","208","","","","","","","0","1","0","","0.6","0.5","0.5","0.5","0.5","0.8","0.2","0.6","0.2","","","","","","","","","","","","75","K","2","","true","0","full_practice",""
"","bandit","64","264397","0.0-34.0-10.0","27517993","wem/bandit_either_3","AY5O199V9M9O7","either","7","237","","","","","","","0","1","0","","0.8","0.5","0.5","0.5","0.5","0.8","0.2","0.6","0.2","","","","","","","","","","","","72","H","0","img/none_selected.jpg","true","0","full_practice",""
"","bandit","65","266147","0.0-34.0-11.0","27517993","wem/bandit_either_3","AY5O199V9M9O7","either","7","243","","","","","","","0","0","1","0.2","","0.5","0.5","0.5","0.5","","","","","0.8","0.2","0.6","0.2","","","","","","","","74","J","1","","true","0","full_practice",""
"","bandit","66","267817","0.0-34.0-12.0","27517993","wem/bandit_either_3","AY5O199V9M9O7","either","7","161","","","","","","","0","1","0","","0.8","0.5","0.5","0.5","0.5","0.8","0.2","0.6","0.2","","","","","","","","","","","","72","H","0","img/none_selected.jpg","true","0","full_practice",""
"","bandit","67","269477","0.0-34.0-13.0","27517993","wem/bandit_either_3","AY5O199V9M9O7","either","7","150","","","","","","","0","0","1","","0.2","0.5","0.5","0.5","0.5","0.8","0.2","0.6","0.2","","","","","","","","","","","","76","L","3","","true","0","full_practice",""
"","bandit","68","271481","0.0-34.0-14.0","27517993","wem/bandit_either_3","AY5O199V9M9O7","either","7","494","","","","","","","0","0","1","0.2","","0.5","0.5","0.5","0.5","","","","","0.8","0.2","0.6","0.2","","","","","","","","76","L","3","","true","0","full_practice",""
"","bandit","69","273211","0.0-34.0-15.0","27517993","wem/bandit_either_3","AY5O199V9M9O7","either","7","220","","","","","","","0","1","0","","0.6","0.5","0.5","0.5","0.5","0.8","0.2","0.6","0.2","","","","","","","","","","","","75","K","2","","true","0","full_practice",""
"","bandit","70","274977","0.0-34.0-16.0","27517993","wem/bandit_either_3","AY5O199V9M9O7","either","7","252","","","","","","","1","0","0","0.6","","0.5","0.5","0.5","0.5","","","","","0.8","0.2","0.6","0.2","","","","","","","","75","K","2","","true","0","full_practice",""
"","bandit","71","276777","0.0-34.0-17.0","27517993","wem/bandit_either_3","AY5O199V9M9O7","either","7","290","","","","","","","0","0","1","0.6","","0.5","0.5","0.5","0.5","","","","","0.8","0.2","0.6","0.2","","","","","","","","75","K","2","","true","0","full_practice",""
"","bandit","72","278477","0.0-34.0-18.0","27517993","wem/bandit_either_3","AY5O199V9M9O7","either","7","190","","","","","","","0","0","1","0.2","","0.5","0.5","0.5","0.5","","","","","0.8","0.2","0.6","0.2","","","","","","","","74","J","1","","true","0","full_practice",""
"","bandit","73","280154","0.0-34.0-19.0","27517993","wem/bandit_either_3","AY5O199V9M9O7","either","7","166","","","","","","","0","0","1","","0.2","0.5","0.5","0.5","0.5","0.8","0.2","0.6","0.2","","","","","","","","","","","","74","J","1","","true","0","full_practice",""
"","text","74","282274","0.0-35.0","27517993","wem/bandit_either_3","AY5O199V9M9O7","either","7","2112","","32","","","","","","","","","","","","","","","","","","","","","","","","","","","","","","","","","","","",""
"","text","75","292159","0.0-36.0","27517993","wem/bandit_either_3","AY5O199V9M9O7","either","7","8881","","32","","","","","","","","","","","","","","","","","","","","","","","","","","","","","","","","","","","",""
"","text","76","298005","0.0-37.0","27517993","wem/bandit_either_3","AY5O199V9M9O7","either","7","5843","","32","","","","","","","","","","","","","","","","","","","","","","","","","","","","","","","","","","","",""
"","text","77","302511","0.0-38.0","27517993","wem/bandit_either_3","AY5O199V9M9O7","either","7","4503","","32","","","","","","","","","","","","","","","","","","","","","","","","","","","","","","","","","","","",""
"","text","78","308156","0.0-39.0","27517993","wem/bandit_either_3","AY5O199V9M9O7","either","7","5642","","32","","","","","","","","","","","","","","","","","","","","","","","","","","","","","","","","","","","",""
"","text","79","312592","0.0-40.0","27517993","wem/bandit_either_3","AY5O199V9M9O7","either","7","4433","","32","","","","","","","","","","","","","","","","","","","","","","","","","","","","","","","","","","","",""
"","bandit","80","315581","0.0-41.0-0.0","27517993","wem/bandit_either_3","AY5O199V9M9O7","either","7","1478","","","","","","","0","0","1","0.2888626749","","0.6","0.4","0.2","0.8","","","","","0.1731741302","0.5514722813","0.2888626749","0.7088318221","","","","","","","","75","K","2","","","1","main_expt",""
"","bandit","81","317419","0.0-42.0-0.0","27517993","wem/bandit_either_3","AY5O199V9M9O7","either","7","329","","","","","","","0","0","1","0.3999538902","","0.6","0.4","0.2","0.8","","","","","0.2874485847","0.5039303977","0.3999538902","0.6292935488","","","","","","","","75","K","2","","","2","main_expt",""
"","bandit","82","319199","0.0-43.0-0.0","27517993","wem/bandit_either_3","AY5O199V9M9O7","either","7","270","","","","","","","0","0","1","0.5527877924","","0.6","0.4","0.2","0.8","","","","","0.2683250969","0.5527877924","0.4126831114","0.5285482983","","","","","","","","74","J","1","","","3","main_expt",""
"","bandit","83","320934","0.0-44.0-0.0","27517993","wem/bandit_either_3","AY5O199V9M9O7","either","7","226","","","","","","","0","1","0","","0.6744491701","0.6","0.4","0.2","0.8","0.3988631097","0.6336700584","0.3923803367","0.6744491701","","","","","","","","","","","","76","L","3","","","4","main_expt",""
"","bandit","84","322756","0.0-45.0-0.0","27517993","wem/bandit_either_3","AY5O199V9M9O7","either","7","311","","","","","","","0","0","1","0.3568799457","","0.6","0.4","0.2","0.8","","","","","0.3568799457","0.6340088104","0.3803283439","0.7922285807","","","","","","","","72","H","0","img/none_selected.jpg","","5","main_expt",""
"","bandit","85","324508","0.0-46.0-0.0","27517993","wem/bandit_either_3","AY5O199V9M9O7","either","7","242","","","","","","","1","0","0","0.7459441126","","0.6","0.4","0.2","0.8","","","","","0.3188731731","0.5784181907","0.4214296899","0.7459441126","","","","","","","","76","L","3","","","6","main_expt",""
"","bandit","86","326279","0.0-47.0-0.0","27517993","wem/bandit_either_3","AY5O199V9M9O7","either","7","261","","","","","","","0","0","1","","0.7681481668","0.6","0.4","0.2","0.8","0.4574196012","0.6727083857","0.4755968838","0.7681481668","","","","","","","","","","","","76","L","3","","","7","main_expt",""
"","bandit","87","327909","0.0-48.0-0.0","27517993","wem/bandit_either_3","AY5O199V9M9O7","either","7","121","","","","","","","0","1","0","","0.5353568537","0.6","0.4","0.2","0.8","0.5037884951","0.7574508858","0.5353568537","0.7251609313","","","","","","","","","","","","75","K","2","","","8","main_expt",""
"","bandit","88","329656","0.0-49.0-0.0","27517993","wem/bandit_either_3","AY5O199V9M9O7","either","7","237","","","","","","","0","1","0","","0.8280759311","0.6","0.4","0.2","0.8","0.5750013994","0.8280759311","0.6246831942","0.7403055102","","","","","","","","","","","","74","J","1","","","9","main_expt",""
"","bandit","89","331566","0.0-50.0-0.0","27517993","wem/bandit_either_3","AY5O199V9M9O7","either","7","401","","","","","","","1","0","0","0.859726102","","0.6","0.4","0.2","0.8","","","","","0.5399040382","0.859726102","0.4475954046","0.722944265","","","","","","","","74","J","1","","","10","main_expt",""
"","bandit","90","333213","0.0-51.0-0.0","27517993","wem/bandit_either_3","AY5O199V9M9O7","either","7","137","","","","","","","0","0","1","0.4514702697","","0.6","0.4","0.2","0.8","","","","","0.5181098662","0.877956501","0.4514702697","0.6833847698","","","","","","","","75","K","2","","","11","main_expt",""
"","bandit","91","334953","0.0-52.0-0.0","27517993","wem/bandit_either_3","AY5O199V9M9O7","either","7","229","","","","","","","0","1","0","","0.8883669707","0.6","0.4","0.2","0.8","0.5489165229","0.8883669707","0.4873058782","0.689227163","","","","","","","","","","","","74","J","1","","","12","main_expt",""
"","bandit","92","336710","0.0-53.0-0.0","27517993","wem/bandit_either_3","AY5O199V9M9O7","either","7","249","","","","","","","0","1","0","","0.6186986429","0.6","0.4","0.2","0.8","0.6186986429","0.817149195","0.4862469224","0.5178623456","","","","","","","","","","","","72","H","0","img/none_selected.jpg","","13","main_expt",""
"","bandit","93","338462","0.0-54.0-0.0","27517993","wem/bandit_either_3","AY5O199V9M9O7","either","7","244","","","","","","","1","0","0","0.4768489018","","0.6","0.4","0.2","0.8","","","","","0.4944095791","0.8589139609","0.360908092","0.4768489018","","","","","","","","76","L","3","","","14","main_expt",""
"","bandit","94","340193","0.0-55.0-0.0","27517993","wem/bandit_either_3","AY5O199V9M9O7","either","7","220","","","","","","","1","0","0","0.5201849276","","0.6","0.4","0.2","0.8","","","","","0.4820951366","0.7955781648","0.4126647893","0.5201849276","","","","","","","","76","L","3","","","15","main_expt",""
"","bandit","95","341998","0.0-56.0-0.0","27517993","wem/bandit_either_3","AY5O199V9M9O7","either","7","295","","","","","","","1","0","0","0.6862231469","","0.6","0.4","0.2","0.8","","","","","0.4888848296","0.8864445785","0.4930686601","0.6862231469","","","","","","","","76","L","3","","","16","main_expt",""
"","bandit","96","343767","0.0-57.0-0.0","27517993","wem/bandit_either_3","AY5O199V9M9O7","either","7","258","","","","","","","1","0","0","0.7297328357","","0.6","0.4","0.2","0.8","","","","","0.381306026","0.8746062981","0.5162343008","0.7297328357","","","","","","","","76","L","3","","","17","main_expt",""
"","bandit","97","345543","0.0-58.0-0.0","27517993","wem/bandit_either_3","AY5O199V9M9O7","either","7","267","","","","","","","0","0","1","","0.6686287009","0.6","0.4","0.2","0.8","0.3537135189","0.8910236512","0.5627456494","0.6686287009","","","","","","","","","","","","76","L","3","","","18","main_expt",""
"","bandit","98","347345","0.0-59.0-0.0","27517993","wem/bandit_either_3","AY5O199V9M9O7","either","7","291","","","","","","","0","0","1","","0.4478227807","0.6","0.4","0.2","0.8","0.4891458502","0.8932054573","0.4478227807","0.7885428456","","","","","","","","","","","","75","K","2","","","19","main_expt",""
"","bandit","99","348932","0.0-60.0-0.0","27517993","wem/bandit_either_3","AY5O199V9M9O7","either","7","69","","","","","","","0","1","0","","0.5440957398","0.6","0.4","0.2","0.8","0.5440957398","0.8900063933","0.5306796692","0.7442236049","","","","","","","","","","","","72","H","0","img/none_selected.jpg","","20","main_expt",""
"","bandit","100","350722","0.0-61.0-0.0","27517993","wem/bandit_either_3","AY5O199V9M9O7","either","7","279","","","","","","","0","0","1","0.8748704397","","0.6","0.4","0.2","0.8","","","","","0.5621313733","0.8748704397","0.5423611418","0.7908218503","","","","","","","","74","J","1","","","21","main_expt",""
"","bandit","101","352643","0.0-62.0-0.0","27517993","wem/bandit_either_3","AY5O199V9M9O7","either","7","412","","","","","","","0","0","1","0.5296345876","","0.6","0.4","0.2","0.8","","","","","0.5296345876","0.8498769136","0.4190568807","0.7163236006","","","","","","","","72","H","0","img/none_selected.jpg","","22","main_expt",""
"","bandit","102","354428","0.0-63.0-0.0","27517993","wem/bandit_either_3","AY5O199V9M9O7","either","7","277","","","","","","","1","0","0","0.7061190667","","0.6","0.4","0.2","0.8","","","","","0.5187107172","0.8357449374","0.4329937009","0.7061190667","","","","","","","","76","L","3","","","23","main_expt",""
"","bandit","103","356214","0.0-64.0-0.0","27517993","wem/bandit_either_3","AY5O199V9M9O7","either","7","275","","","","","","","0","0","1","0.7470556917","","0.6","0.4","0.2","0.8","","","","","0.6000521927","0.8431908073","0.4298879426","0.7470556917","","","","","","","","76","L","3","","","24","main_expt",""
"","bandit","104","358077","0.0-65.0-0.0","27517993","wem/bandit_either_3","AY5O199V9M9O7","either","7","352","","","","","","","1","0","0","0.8154180688","","0.6","0.4","0.2","0.8","","","","","0.5443047256","0.8741885854","0.2992323157","0.8154180688","","","","","","","","76","L","3","","","25","main_expt",""
"","bandit","105","359932","0.0-66.0-0.0","27517993","wem/bandit_either_3","AY5O199V9M9O7","either","7","345","","","","","","","1","0","0","0.8395379789","","0.6","0.4","0.2","0.8","","","","","0.592493964","0.8940719671","0.3857263224","0.8395379789","","","","","","","","76","L","3","","","26","main_expt",""
"","bandit","106","361783","0.0-67.0-0.0","27517993","wem/bandit_either_3","AY5O199V9M9O7","either","7","340","","","","","","","0","0","1","0.8023078409","","0.6","0.4","0.2","0.8","","","","","0.5779569403","0.8733378856","0.3715251318","0.8023078409","","","","","","","","76","L","3","","","27","main_expt",""
"","bandit","107","363555","0.0-68.0-0.0","27517993","wem/bandit_either_3","AY5O199V9M9O7","either","7","261","","","","","","","1","0","0","0.8248968235","","0.6","0.4","0.2","0.8","","","","","0.7077223562","0.8695586723","0.3387808014","0.8248968235","","","","","","","","76","L","3","","","28","main_expt",""
"","bandit","108","365360","0.0-69.0-0.0","27517993","wem/bandit_either_3","AY5O199V9M9O7","either","7","295","","","","","","","1","0","0","0.8621011303","","0.6","0.4","0.2","0.8","","","","","0.7070353494","0.7908290088","0.3737397218","0.8621011303","","","","","","","","76","L","3","","","29","main_expt",""
"","bandit","109","367143","0.0-70.0-0.0","27517993","wem/bandit_either_3","AY5O199V9M9O7","either","7","271","","","","","","","1","0","0","0.8873668535","","0.6","0.4","0.2","0.8","","","","","0.6585428656","0.8518997755","0.3232047389","0.8873668535","","","","","","","","76","L","3","","","30","main_expt",""
"","bandit","110","368926","0.0-71.0-0.0","27517993","wem/bandit_either_3","AY5O199V9M9O7","either","7","272","","","","","","","0","1","0","","0.9318975106","0.6","0.4","0.2","0.8","0.6724088618","0.8509842625","0.4130267239","0.9318975106","","","","","","","","","","","","76","L","3","","","31","main_expt",""
"","bandit","111","370677","0.0-72.0-0.0","27517993","wem/bandit_either_3","AY5O199V9M9O7","either","7","240","","","","","","","1","0","0","0.9013609786","","0.6","0.4","0.2","0.8","","","","","0.6416581209","0.872996121","0.4167758813","0.9013609786","","","","","","","","76","L","3","","","32","main_expt",""
"","bandit","112","372453","0.0-73.0-0.0","27517993","wem/bandit_either_3","AY5O199V9M9O7","either","7","266","","","","","","","1","0","0","0.9041531295","","0.6","0.4","0.2","0.8","","","","","0.7055802426","0.8571046391","0.4546052232","0.9041531295","","","","","","","","76","L","3","","","33","main_expt",""
"","bandit","113","374188","0.0-74.0-0.0","27517993","wem/bandit_either_3","AY5O199V9M9O7","either","7","223","","","","","","","1","0","0","0.9386104272","","0.6","0.4","0.2","0.8","","","","","0.7554114371","0.9175819521","0.5231803088","0.9386104272","","","","","","","","76","L","3","","","34","main_expt",""
"","bandit","114","375964","0.0-75.0-0.0","27517993","wem/bandit_either_3","AY5O199V9M9O7","either","7","266","","","","","","","0","1","0","","0.9180645683","0.6","0.4","0.2","0.8","0.8008095759","0.9503165686","0.4661188593","0.9180645683","","","","","","","","","","","","76","L","3","","","35","main_expt",""
"","bandit","115","377915","0.0-76.0-0.0","27517993","wem/bandit_either_3","AY5O199V9M9O7","either","7","441","","","","","","","1","0","0","0.9095107155","","0.6","0.4","0.2","0.8","","","","","0.6925109639","0.9327615424","0.4106027186","0.9095107155","","","","","","","","76","L","3","","","36","main_expt",""
"","bandit","116","379616","0.0-77.0-0.0","27517993","wem/bandit_either_3","AY5O199V9M9O7","either","7","190","","","","","","","0","1","0","","0.9405648028","0.6","0.4","0.2","0.8","0.7764255689","0.9196494001","0.5021263718","0.9405648028","","","","","","","","","","","","76","L","3","","","37","main_expt",""
"","bandit","117","381379","0.0-78.0-0.0","27517993","wem/bandit_either_3","AY5O199V9M9O7","either","7","252","","","","","","","0","0","1","0.9058459248","","0.6","0.4","0.2","0.8","","","","","0.8392953971","0.928530414","0.5065313343","0.9058459248","","","","","","","","76","L","3","","","38","main_expt",""
"","bandit","118","383145","0.0-79.0-0.0","27517993","wem/bandit_either_3","AY5O199V9M9O7","either","7","252","","","","","","","1","0","0","0.8784462517","","0.6","0.4","0.2","0.8","","","","","0.7614495855","0.9001545702","0.6098243774","0.8784462517","","","","","","","","76","L","3","","","39","main_expt",""
"","bandit","119","384933","0.0-80.0-0.0","27517993","wem/bandit_either_3","AY5O199V9M9O7","either","7","276","","","","","","","1","0","0","0.8408568766","","0.6","0.4","0.2","0.8","","","","","0.8060705796","0.8432481254","0.679699592","0.8408568766","","","","","","","","76","L","3","","","40","main_expt",""
"","bandit","120","386703","0.0-81.0-0.0","27517993","wem/bandit_either_3","AY5O199V9M9O7","either","7","261","","","","","","","1","0","0","0.811342849","","0.6","0.4","0.2","0.8","","","","","0.7539991053","0.8326479564","0.616488607","0.811342849","","","","","","","","76","L","3","","","41","main_expt",""
"","bandit","121","388522","0.0-82.0-0.0","27517993","wem/bandit_either_3","AY5O199V9M9O7","either","7","311","","","","","","","0","1","0","","0.8058808774","0.6","0.4","0.2","0.8","0.7717369324","0.8602810298","0.6307104111","0.8058808774","","","","","","","","","","","","76","L","3","","","42","main_expt",""
"","bandit","122","390315","0.0-83.0-0.0","27517993","wem/bandit_either_3","AY5O199V9M9O7","either","7","282","","","","","","","1","0","0","0.7899844578","","0.6","0.4","0.2","0.8","","","","","0.7625968551","0.894365654","0.554567591","0.7899844578","","","","","","","","76","L","3","","","43","main_expt",""
"","bandit","123","392104","0.0-84.0-0.0","27517993","wem/bandit_either_3","AY5O199V9M9O7","either","7","278","","","","","","","1","0","0","0.7654486741","","0.6","0.4","0.2","0.8","","","","","0.8488621298","0.9033664713","0.5281861223","0.7654486741","","","","","","","","76","L","3","","","44","main_expt",""
"","bandit","124","393883","0.0-85.0-0.0","27517993","wem/bandit_either_3","AY5O199V9M9O7","either","7","269","","","","","","","1","0","0","0.7674111825","","0.6","0.4","0.2","0.8","","","","","0.8522077325","0.8829964613","0.5043334007","0.7674111825","","","","","","","","76","L","3","","","45","main_expt",""
"","bandit","125","395643","0.0-86.0-0.0","27517993","wem/bandit_either_3","AY5O199V9M9O7","either","7","248","","","","","","","0","0","1","0.6301273516","","0.6","0.4","0.2","0.8","","","","","0.8618589195","0.8674694879","0.5426256613","0.6301273516","","","","","","","","76","L","3","","","46","main_expt",""
"","bandit","126","397402","0.0-87.0-0.0","27517993","wem/bandit_either_3","AY5O199V9M9O7","either","7","249","","","","","","","1","0","0","0.7885969413","","0.6","0.4","0.2","0.8","","","","","0.905897833","0.8886720039","0.5024796093","0.7885969413","","","","","","","","76","L","3","","","47","main_expt",""
"","bandit","127","399171","0.0-88.0-0.0","27517993","wem/bandit_either_3","AY5O199V9M9O7","either","7","257","","","","","","","1","0","0","0.7983786211","","0.6","0.4","0.2","0.8","","","","","0.8929468812","0.9229902905","0.4689138593","0.7983786211","","","","","","","","76","L","3","","","48","main_expt",""
"","bandit","128","400959","0.0-89.0-0.0","27517993","wem/bandit_either_3","AY5O199V9M9O7","either","7","277","","","","","","","1","0","0","0.8249867574","","0.6","0.4","0.2","0.8","","","","","0.854905512","0.9141434128","0.4439560463","0.8249867574","","","","","","","","76","L","3","","","49","main_expt",""
"","bandit","129","402711","0.0-90.0-0.0","27517993","wem/bandit_either_3","AY5O199V9M9O7","either","7","239","","","","","","","1","0","0","0.7532301684","","0.6","0.4","0.2","0.8","","","","","0.8363103738","0.9181160336","0.4079842927","0.7532301684","","","","","","","","76","L","3","","","50","main_expt",""
"","bandit","130","404419","0.0-91.0-0.0","27517993","wem/bandit_either_3","AY5O199V9M9O7","either","7","199","","","","","","","0","0","1","0.6750909554","","0.6","0.4","0.2","0.8","","","","","0.7168506975","0.9266489825","0.4675199832","0.6750909554","","","","","","","","76","L","3","","","51","main_expt",""
"","bandit","131","406187","0.0-92.0-0.0","27517993","wem/bandit_either_3","AY5O199V9M9O7","either","7","256","","","","","","","0","0","1","0.6762079337","","0.6","0.4","0.2","0.8","","","","","0.6507986152","0.9285581488","0.4368052975","0.6762079337","","","","","","","","76","L","3","","","52","main_expt",""
"","bandit","132","407892","0.0-93.0-0.0","27517993","wem/bandit_either_3","AY5O199V9M9O7","either","7","196","","","","","","","0","0","1","","0.7882030045","0.6","0.4","0.2","0.8","0.6531867096","0.9171724481","0.4967902672","0.7882030045","","","","","","","","","","","","76","L","3","","","53","main_expt",""
"","bandit","133","409674","0.0-94.0-0.0","27517993","wem/bandit_either_3","AY5O199V9M9O7","either","7","270","","","","","","","1","0","0","0.8759533557","","0.6","0.4","0.2","0.8","","","","","0.6178049746","0.8709862684","0.5321533453","0.8759533557","","","","","","","","76","L","3","","","54","main_expt",""
"","bandit","134","411439","0.0-95.0-0.0","27517993","wem/bandit_either_3","AY5O199V9M9O7","either","7","256","","","","","","","1","0","0","0.9307112091","","0.6","0.4","0.2","0.8","","","","","0.5501477499","0.9016108676","0.593251847","0.9307112091","","","","","","","","76","L","3","","","55","main_expt",""
"","bandit","135","413216","0.0-96.0-0.0","27517993","wem/bandit_either_3","AY5O199V9M9O7","either","7","266","","","","","","","0","0","1","0.9486344027","","0.6","0.4","0.2","0.8","","","","","0.5181914202","0.9123335035","0.602347159","0.9486344027","","","","","","","","76","L","3","","","56","main_expt",""
"","bandit","136","414963","0.0-97.0-0.0","27517993","wem/bandit_either_3","AY5O199V9M9O7","either","7","236","","","","","","","1","0","0","0.9450559811","","0.6","0.4","0.2","0.8","","","","","0.5052283364","0.9338523698","0.736851976","0.9450559811","","","","","","","","76","L","3","","","57","main_expt",""
"","bandit","137","416681","0.0-98.0-0.0","27517993","wem/bandit_either_3","AY5O199V9M9O7","either","7","207","","","","","","","0","1","0","","0.960587128","0.6","0.4","0.2","0.8","0.4494585665","0.9023069914","0.7112026436","0.960587128","","","","","","","","","","","","76","L","3","","","58","main_expt",""
"","bandit","138","418478","0.0-99.0-0.0","27517993","wem/bandit_either_3","AY5O199V9M9O7","either","7","285","","","","","","","1","0","0","0.9272570312","","0.6","0.4","0.2","0.8","","","","","0.4431029696","0.903153386","0.7605469626","0.9272570312","","","","","","","","76","L","3","","","59","main_expt",""
"","bandit","139","420381","0.0-100.0-0.0","27517993","wem/bandit_either_3","AY5O199V9M9O7","either","7","391","","","","","","","0","0","1","","0.8975643475","0.6","0.4","0.2","0.8","0.4213069188","0.8975643475","0.6504737249","0.9075075979","","","","","","","","","","","","74","J","1","","","60","main_expt",""
"","bandit","140","422156","0.0-101.0-0.0","27517993","wem/bandit_either_3","AY5O199V9M9O7","either","7","263","","","","","","","0","0","1","","0.7417300409","0.6","0.4","0.2","0.8","0.4735464544","0.8455107238","0.7417300409","0.9011961695","","","","","","","","","","","","75","K","2","","","61","main_expt",""
"","bandit","141","423907","0.0-102.0-0.0","27517993","wem/bandit_either_3","AY5O199V9M9O7","either","7","240","","","","","","","0","0","1","0.4260239588","","0.6","0.4","0.2","0.8","","","","","0.4260239588","0.8423106617","0.6889655243","0.9025442902","","","","","","","","72","H","0","img/none_selected.jpg","","62","main_expt",""
"","bandit","142","425649","0.0-103.0-0.0","27517993","wem/bandit_either_3","AY5O199V9M9O7","either","7","231","","","","","","","1","0","0","0.900711875","","0.6","0.4","0.2","0.8","","","","","0.4048641732","0.6997676278","0.7532165261","0.900711875","","","","","","","","76","L","3","","","63","main_expt",""
"","bandit","143","427452","0.0-104.0-0.0","27517993","wem/bandit_either_3","AY5O199V9M9O7","either","7","293","","","","","","","1","0","0","0.8445511995","","0.6","0.4","0.2","0.8","","","","","0.261135461","0.8033841581","0.7614619666","0.8445511995","","","","","","","","76","L","3","","","64","main_expt",""
"","bandit","144","429256","0.0-105.0-0.0","27517993","wem/bandit_either_3","AY5O199V9M9O7","either","7","292","","","","","","","1","0","0","0.7838665633","","0.6","0.4","0.2","0.8","","","","","0.4398785507","0.8458775523","0.7474824059","0.7838665633","","","","","","","","76","L","3","","","65","main_expt",""
"","bandit","145","431054","0.0-106.0-0.0","27517993","wem/bandit_either_3","AY5O199V9M9O7","either","7","287","","","","","","","1","0","0","0.8399866527","","0.6","0.4","0.2","0.8","","","","","0.4549930047","0.8612648572","0.7083026918","0.8399866527","","","","","","","","76","L","3","","","66","main_expt",""
"","bandit","146","432837","0.0-107.0-0.0","27517993","wem/bandit_either_3","AY5O199V9M9O7","either","7","272","","","","","","","1","0","0","0.9109535201","","0.6","0.4","0.2","0.8","","","","","0.5565794079","0.8686018104","0.6535093674","0.9109535201","","","","","","","","76","L","3","","","67","main_expt",""
"","bandit","147","434618","0.0-108.0-0.0","27517993","wem/bandit_either_3","AY5O199V9M9O7","either","7","269","","","","","","","0","1","0","","0.9064065477","0.6","0.4","0.2","0.8","0.4211802827","0.8693437115","0.4923739087","0.9064065477","","","","","","","","","","","","76","L","3","","","68","main_expt",""
"","bandit","148","436452","0.0-109.0-0.0","27517993","wem/bandit_either_3","AY5O199V9M9O7","either","7","323","","","","","","","0","0","1","0.4898097669","","0.6","0.4","0.2","0.8","","","","","0.3687693293","0.9168970181","0.4898097669","0.9315833469","","","","","","","","75","K","2","","","69","main_expt",""
"","bandit","149","438258","0.0-110.0-0.0","27517993","wem/bandit_either_3","AY5O199V9M9O7","either","7","294","","","","","","","0","1","0","","0.9293527272","0.6","0.4","0.2","0.8","0.3460903474","0.9293527272","0.4369614599","0.9393923483","","","","","","","","","","","","74","J","1","","","70","main_expt",""
"","bandit","150","440063","0.0-111.0-0.0","27517993","wem/bandit_either_3","AY5O199V9M9O7","either","7","295","","","","","","","0","0","1","0.3278112836","","0.6","0.4","0.2","0.8","","","","","0.3278112836","0.949087413","0.5031037484","0.9568343035","","","","","","","","72","H","0","img/none_selected.jpg","","71","main_expt",""
"","bandit","151","441894","0.0-112.0-0.0","27517993","wem/bandit_either_3","AY5O199V9M9O7","either","7","321","","","","","","","1","0","0","0.947758434","","0.6","0.4","0.2","0.8","","","","","0.2720469766","0.906373323","0.5397903688","0.947758434","","","","","","","","76","L","3","","","72","main_expt",""
"","bandit","152","443678","0.0-113.0-0.0","27517993","wem/bandit_either_3","AY5O199V9M9O7","either","7","272","","","","","","","1","0","0","0.9052010222","","0.6","0.4","0.2","0.8","","","","","0.2451019773","0.93965919","0.5540652028","0.9052010222","","","","","","","","76","L","3","","","73","main_expt",""
"","bandit","153","445479","0.0-114.0-0.0","27517993","wem/bandit_either_3","AY5O199V9M9O7","either","7","290","","","","","","","0","1","0","","0.927704936","0.6","0.4","0.2","0.8","0.2645862521","0.9416319858","0.61733434","0.927704936","","","","","","","","","","","","76","L","3","","","74","main_expt",""
"","bandit","154","447272","0.0-115.0-0.0","27517993","wem/bandit_either_3","AY5O199V9M9O7","either","7","281","","","","","","","0","0","1","0.8769567517","","0.6","0.4","0.2","0.8","","","","","0.2298582","0.9535384208","0.6341908543","0.8769567517","","","","","","","","76","L","3","","","75","main_expt",""
"","bandit","155","449098","0.0-116.0-0.0","27517993","wem/bandit_either_3","AY5O199V9M9O7","either","7","314","","","","","","","0","0","1","","0.6355577018","0.6","0.4","0.2","0.8","0.3460043445","0.9585479729","0.6355577018","0.8456064169","","","","","","","","","","","","75","K","2","","","76","main_expt",""
"","bandit","156","450811","0.0-117.0-0.0","27517993","wem/bandit_either_3","AY5O199V9M9O7","either","7","199","","","","","","","1","0","0","0.8325595713","","0.6","0.4","0.2","0.8","","","","","0.2526488818","0.9610253773","0.7055426269","0.8325595713","","","","","","","","76","L","3","","","77","main_expt",""
"","bandit","157","452598","0.0-118.0-0.0","27517993","wem/bandit_either_3","AY5O199V9M9O7","either","7","275","","","","","","","1","0","0","0.9128982172","","0.6","0.4","0.2","0.8","","","","","0.2625396382","0.9580320452","0.6137882531","0.9128982172","","","","","","","","76","L","3","","","78","main_expt",""
"","bandit","158","454473","0.0-119.0-0.0","27517993","wem/bandit_either_3","AY5O199V9M9O7","either","7","363","","","","","","","1","0","0","0.9213349282","","0.6","0.4","0.2","0.8","","","","","0.2957535945","0.9403834825","0.668392527","0.9213349282","","","","","","","","76","L","3","","","79","main_expt",""
"","bandit","159","456345","0.0-120.0-0.0","27517993","wem/bandit_either_3","AY5O199V9M9O7","either","7","358","","","","","","","1","0","0","0.8935563746","","0.6","0.4","0.2","0.8","","","","","0.1831261498","0.946171157","0.7457361895","0.8935563746","","","","","","","","76","L","3","","","80","main_expt",""
"","bandit","160","458158","0.0-121.0-0.0","27517993","wem/bandit_either_3","AY5O199V9M9O7","either","7","302","","","","","","","1","0","0","0.932831263","","0.6","0.4","0.2","0.8","","","","","0.1450659425","0.9800092583","0.8028050151","0.932831263","","","","","","","","76","L","3","","","81","main_expt",""
"","bandit","161","460015","0.0-122.0-0.0","27517993","wem/bandit_either_3","AY5O199V9M9O7","either","7","346","","","","","","","0","1","0","","0.9403650082","0.6","0.4","0.2","0.8","0.1486641529","0.9666397243","0.8727424511","0.9403650082","","","","","","","","","","","","76","L","3","","","82","main_expt",""
"","bandit","162","461790","0.0-123.0-0.0","27517993","wem/bandit_either_3","AY5O199V9M9O7","either","7","264","","","","","","","0","1","0","","0.9066396881","0.6","0.4","0.2","0.8","0.1567811066","0.9637330664","0.8283068274","0.9066396881","","","","","","","","","","","","76","L","3","","","83","main_expt",""
"","bandit","163","463608","0.0-124.0-0.0","27517993","wem/bandit_either_3","AY5O199V9M9O7","either","7","307","","","","","","","0","0","1","0.8962006295","","0.6","0.4","0.2","0.8","","","","","0.196091916","0.9617949183","0.8030064341","0.8962006295","","","","","","","","76","L","3","","","84","main_expt",""
"","bandit","164","465460","0.0-125.0-0.0","27517993","wem/bandit_either_3","AY5O199V9M9O7","either","7","339","","","","","","","0","0","1","","0.1512390112","0.6","0.4","0.2","0.8","0.1512390112","0.9561985801","0.8622567251","0.9093999993","","","","","","","","","","","","72","H","0","img/none_selected.jpg","","85","main_expt",""
"","bandit","165","467818","0.0-126.0-0.0","27517993","wem/bandit_either_3","AY5O199V9M9O7","either","7","846","","","","","","","0","1","0","","0.9422505668","0.6","0.4","0.2","0.8","0.1486491559","0.9422505668","0.896584634","0.9326862648","","","","","","","","","","","","74","J","1","","","86","main_expt",""
"","bandit","166","469698","0.0-127.0-0.0","27517993","wem/bandit_either_3","AY5O199V9M9O7","either","7","368","","","","","","","0","1","0","","0.9208758521","0.6","0.4","0.2","0.8","0.1047878604","0.926711091","0.9208758521","0.9039434857","","","","","","","","","","","","75","K","2","","","87","main_expt",""
"","bandit","167","471479","0.0-128.0-0.0","27517993","wem/bandit_either_3","AY5O199V9M9O7","either","7","269","","","","","","","1","0","0","0.9092576496","","0.6","0.4","0.2","0.8","","","","","0.07038149384","0.9092576496","0.9266301883","0.9195127861","","","","","","","","74","J","1","","","88","main_expt",""
"","bandit","168","473267","0.0-129.0-0.0","27517993","wem/bandit_either_3","AY5O199V9M9O7","either","7","275","","","","","","","0","1","0","","0.8948591238","0.6","0.4","0.2","0.8","0.1311535074","0.8948591238","0.9259215542","0.9225053559","","","","","","","","","","","","74","J","1","","","89","main_expt",""
"","bandit","169","475257","0.0-130.0-0.0","27517993","wem/bandit_either_3","AY5O199V9M9O7","either","7","480","","","","","","","0","1","0","","0.8716727139","0.6","0.4","0.2","0.8","0.1241310956","0.8716727139","0.9400480964","0.9014563988","","","","","","","","","","","","74","J","1","","","90","main_expt",""
"","bandit","170","477049","0.0-131.0-0.0","27517993","wem/bandit_either_3","AY5O199V9M9O7","either","7","281","","","","","","","0","0","1","","0.8961855863","0.6","0.4","0.2","0.8","0.09664170694","0.8969144331","0.8961855863","0.9162570652","","","","","","","","","","","","75","K","2","","","91","main_expt",""
"","bandit","171","478829","0.0-132.0-0.0","27517993","wem/bandit_either_3","AY5O199V9M9O7","either","7","268","","","","","","","1","0","0","0.9171553871","","0.6","0.4","0.2","0.8","","","","","0.09586364307","0.9171199264","0.9211437923","0.9171553871","","","","","","","","76","L","3","","","92","main_expt",""
"","bandit","172","480606","0.0-133.0-0.0","27517993","wem/bandit_either_3","AY5O199V9M9O7","either","7","264","","","","","","","0","1","0","","0.9463284029","0.6","0.4","0.2","0.8","0.08304118766","0.9593171332","0.8947860396","0.9463284029","","","","","","","","","","","","76","L","3","","","93","main_expt",""
"","bandit","173","482403","0.0-134.0-0.0","27517993","wem/bandit_either_3","AY5O199V9M9O7","either","7","284","","","","","","","1","0","0","0.9477079066","","0.6","0.4","0.2","0.8","","","","","0.1222865453","0.959226596","0.822540961","0.9477079066","","","","","","","","76","L","3","","","94","main_expt",""
"","bandit","174","484166","0.0-135.0-0.0","27517993","wem/bandit_either_3","AY5O199V9M9O7","either","7","252","","","","","","","1","0","0","0.9474919074","","0.6","0.4","0.2","0.8","","","","","0.211460517","0.947105423","0.8288041746","0.9474919074","","","","","","","","76","L","3","","","95","main_expt",""
"","bandit","175","485960","0.0-136.0-0.0","27517993","wem/bandit_either_3","AY5O199V9M9O7","either","7","280","","","","","","","1","0","0","0.9722490369","","0.6","0.4","0.2","0.8","","","","","0.2757920232","0.937205139","0.8217366877","0.9722490369","","","","","","","","76","L","3","","","96","main_expt",""
"","bandit","176","487735","0.0-137.0-0.0","27517993","wem/bandit_either_3","AY5O199V9M9O7","either","7","262","","","","","","","1","0","0","0.980822097","","0.6","0.4","0.2","0.8","","","","","0.2646876298","0.9472767204","0.725285089","0.980822097","","","","","","","","76","L","3","","","97","main_expt",""
"","bandit","177","489500","0.0-138.0-0.0","27517993","wem/bandit_either_3","AY5O199V9M9O7","either","7","252","","","","","","","1","0","0","0.9761591307","","0.6","0.4","0.2","0.8","","","","","0.3278454636","0.962959595","0.7958966199","0.9761591307","","","","","","","","76","L","3","","","98","main_expt",""
"","bandit","178","491326","0.0-139.0-0.0","27517993","wem/bandit_either_3","AY5O199V9M9O7","either","7","314","","","","","","","1","0","0","0.9597391097","","0.6","0.4","0.2","0.8","","","","","0.4641870332","0.9720903607","0.7741840332","0.9597391097","","","","","","","","76","L","3","","","99","main_expt",""
"","bandit","179","493127","0.0-140.0-0.0","27517993","wem/bandit_either_3","AY5O199V9M9O7","either","7","288","","","","","","","1","0","0","0.9557148533","","0.6","0.4","0.2","0.8","","","","","0.3972344865","0.9737169538","0.7934767162","0.9557148533","","","","","","","","76","L","3","","","100","main_expt",""
"","bandit","180","494961","0.0-141.0-0.0","27517993","wem/bandit_either_3","AY5O199V9M9O7","either","7","323","","","","","","","1","0","0","0.9687934467","","0.6","0.4","0.2","0.8","","","","","0.4395304924","0.986468331","0.8307638242","0.9687934467","","","","","","","","76","L","3","","","101","main_expt",""
"","bandit","181","496788","0.0-142.0-0.0","27517993","wem/bandit_either_3","AY5O199V9M9O7","either","7","315","","","","","","","1","0","0","0.9713318577","","0.6","0.4","0.2","0.8","","","","","0.5248298482","0.9859557102","0.7737236933","0.9713318577","","","","","","","","76","L","3","","","102","main_expt",""
"","bandit","182","498654","0.0-143.0-0.0","27517993","wem/bandit_either_3","AY5O199V9M9O7","either","7","354","","","","","","","0","1","0","","0.9768128314","0.6","0.4","0.2","0.8","0.6218364577","0.9828698412","0.8168427084","0.9768128314","","","","","","","","","","","","76","L","3","","","103","main_expt",""
"","bandit","183","500444","0.0-144.0-0.0","27517993","wem/bandit_either_3","AY5O199V9M9O7","either","7","278","","","","","","","1","0","0","0.9566706727","","0.6","0.4","0.2","0.8","","","","","0.5528563194","0.9655029871","0.7020104164","0.9566706727","","","","","","","","76","L","3","","","104","main_expt",""
"","bandit","184","502353","0.0-145.0-0.0","27517993","wem/bandit_either_3","AY5O199V9M9O7","either","7","397","","","","","","","1","0","0","0.9352711559","","0.6","0.4","0.2","0.8","","","","","0.515821512","0.9587067199","0.6750414237","0.9352711559","","","","","","","","76","L","3","","","105","main_expt",""
"","bandit","185","504116","0.0-146.0-0.0","27517993","wem/bandit_either_3","AY5O199V9M9O7","either","7","252","","","","","","","1","0","0","0.8980036198","","0.6","0.4","0.2","0.8","","","","","0.5380341879","0.9358961366","0.5886413089","0.8980036198","","","","","","","","76","L","3","","","106","main_expt",""
"","bandit","186","505938","0.0-147.0-0.0","27517993","wem/bandit_either_3","AY5O199V9M9O7","either","7","310","","","","","","","1","0","0","0.9175797088","","0.6","0.4","0.2","0.8","","","","","0.3291998873","0.8829949032","0.5507707533","0.9175797088","","","","","","","","76","L","3","","","107","main_expt",""
"","bandit","187","507804","0.0-148.0-0.0","27517993","wem/bandit_either_3","AY5O199V9M9O7","either","7","353","","","","","","","1","0","0","0.8966825343","","0.6","0.4","0.2","0.8","","","","","0.3608627265","0.7668100276","0.4325904974","0.8966825343","","","","","","","","76","L","3","","","108","main_expt",""
"","bandit","188","509654","0.0-149.0-0.0","27517993","wem/bandit_either_3","AY5O199V9M9O7","either","7","338","","","","","","","1","0","0","0.8883819791","","0.6","0.4","0.2","0.8","","","","","0.3837942066","0.7652463225","0.3735159861","0.8883819791","","","","","","","","76","L","3","","","109","main_expt",""
"","bandit","189","511388","0.0-150.0-0.0","27517993","wem/bandit_either_3","AY5O199V9M9O7","either","7","223","","","","","","","1","0","0","0.9087011364","","0.6","0.4","0.2","0.8","","","","","0.3019365294","0.7974745759","0.3704440872","0.9087011364","","","","","","","","76","L","3","","","110","main_expt",""
"","bandit","190","513177","0.0-151.0-0.0","27517993","wem/bandit_either_3","AY5O199V9M9O7","either","7","277","","","","","","","0","1","0","","0.9337026812","0.6","0.4","0.2","0.8","0.3483008865","0.812352323","0.2749067499","0.9337026812","","","","","","","","","","","","76","L","3","","","111","main_expt",""
"","bandit","191","514978","0.0-152.0-0.0","27517993","wem/bandit_either_3","AY5O199V9M9O7","either","7","289","","","","","","","0","0","1","","0.2734667401","0.6","0.4","0.2","0.8","0.4342302697","0.7428975936","0.2734667401","0.9113388615","","","","","","","","","","","","75","K","2","","","112","main_expt",""
"","bandit","192","516817","0.0-153.0-0.0","27517993","wem/bandit_either_3","AY5O199V9M9O7","either","7","327","","","","","","","0","1","0","","0.7139653514","0.6","0.4","0.2","0.8","0.5187246657","0.7139653514","0.2291946885","0.8980528729","","","","","","","","","","","","74","J","1","","","113","main_expt",""
"","bandit","193","518844","0.0-154.0-0.0","27517993","wem/bandit_either_3","AY5O199V9M9O7","either","7","513","","","","","","","0","1","0","","0.5381742134","0.6","0.4","0.2","0.8","0.5381742134","0.7945657698","0.2413339081","0.8036326458","","","","","","","","","","","","72","H","0","img/none_selected.jpg","","114","main_expt",""
"","bandit","194","520660","0.0-155.0-0.0","27517993","wem/bandit_either_3","AY5O199V9M9O7","either","7","305","","","","","","","1","0","0","0.4785029821","","0.6","0.4","0.2","0.8","","","","","0.4785029821","0.8405588069","0.3092826039","0.8700945717","","","","","","","","72","H","0","img/none_selected.jpg","","115","main_expt",""
"","bandit","195","522520","0.0-156.0-0.0","27517993","wem/bandit_either_3","AY5O199V9M9O7","either","7","347","","","","","","","1","0","0","0.4654757386","","0.6","0.4","0.2","0.8","","","","","0.4654757386","0.8641798474","0.2361366225","0.8895114993","","","","","","","","72","H","0","img/none_selected.jpg","","116","main_expt",""
"","bandit","196","524334","0.0-157.0-0.0","27517993","wem/bandit_either_3","AY5O199V9M9O7","either","7","302","","","","","","","1","0","0","0.4578633225","","0.6","0.4","0.2","0.8","","","","","0.4578633225","0.8756768431","0.218402711","0.8936856952","","","","","","","","72","H","0","img/none_selected.jpg","","117","main_expt",""
"","bandit","197","526193","0.0-158.0-0.0","27517993","wem/bandit_either_3","AY5O199V9M9O7","either","7","346","","","","","","","1","0","0","0.4773941538","","0.6","0.4","0.2","0.8","","","","","0.4773941538","0.9015269718","0.2003641109","0.8077127093","","","","","","","","72","H","0","img/none_selected.jpg","","118","main_expt",""
"","bandit","198","528065","0.0-159.0-0.0","27517993","wem/bandit_either_3","AY5O199V9M9O7","either","7","360","","","","","","","0","1","0","","0.508374463","0.6","0.4","0.2","0.8","0.508374463","0.8709738884","0.1375137305","0.8901108642","","","","","","","","","","","","72","H","0","img/none_selected.jpg","","119","main_expt",""
"","bandit","199","529867","0.0-160.0-0.0","27517993","wem/bandit_either_3","AY5O199V9M9O7","either","7","289","","","","","","","0","1","0","","0.8268338002","0.6","0.4","0.2","0.8","0.4294310012","0.8268338002","0.08656631556","0.8731124259","","","","","","","","","","","","74","J","1","","","120","main_expt",""
"","bandit","200","531701","0.0-161.0-0.0","27517993","wem/bandit_either_3","AY5O199V9M9O7","either","7","322","","","","","","","1","0","0","0.07812634859","","0.6","0.4","0.2","0.8","","","","","0.3933985885","0.8432616236","0.07812634859","0.8509174952","","","","","","","","75","K","2","","","121","main_expt",""
"","bandit","201","533501","0.0-162.0-0.0","27517993","wem/bandit_either_3","AY5O199V9M9O7","either","7","288","","","","","","","0","0","1","0.09046411854","","0.6","0.4","0.2","0.8","","","","","0.2641409089","0.8128728295","0.09046411854","0.8707856005","","","","","","","","75","K","2","","","122","main_expt",""
"","bandit","202","535247","0.0-163.0-0.0","27517993","wem/bandit_either_3","AY5O199V9M9O7","either","7","227","","","","","","","0","1","0","","0.7592524618","0.6","0.4","0.2","0.8","0.2491349268","0.752198112","0.1132512529","0.7592524618","","","","","","","","","","","","76","L","3","","","123","main_expt",""
"","bandit","203","536995","0.0-164.0-0.0","27517993","wem/bandit_either_3","AY5O199V9M9O7","either","7","235","","","","","","","0","0","1","","0.09419269712","0.6","0.4","0.2","0.8","0.2587226179","0.7117781612","0.09419269712","0.7330206325","","","","","","","","","","","","75","K","2","","","124","main_expt",""
"","bandit","204","538738","0.0-165.0-0.0","27517993","wem/bandit_either_3","AY5O199V9M9O7","either","7","230","","","","","","","0","0","1","0.2925679814","","0.6","0.4","0.2","0.8","","","","","0.2925679814","0.7177409252","0.110513045","0.6903693331","","","","","","","","72","H","0","img/none_selected.jpg","","125","main_expt",""
"","bandit","205","540428","0.0-166.0-0.0","27517993","wem/bandit_either_3","AY5O199V9M9O7","either","7","177","","","","","","","0","1","0","","0.7240917845","0.6","0.4","0.2","0.8","0.3997536411","0.7240917845","0.07088043536","0.6370641568","","","","","","","","","","","","74","J","1","","","126","main_expt",""
"","bandit","206","542220","0.0-167.0-0.0","27517993","wem/bandit_either_3","AY5O199V9M9O7","either","7","277","","","","","","","0","0","1","0.6192694325","","0.6","0.4","0.2","0.8","","","","","0.4120812041","0.6788578752","0.1041728595","0.6192694325","","","","","","","","76","L","3","","","127","main_expt",""
"","bandit","207","543959","0.0-168.0-0.0","27517993","wem/bandit_either_3","AY5O199V9M9O7","either","7","227","","","","","","","0","0","1","0.559348281","","0.6","0.4","0.2","0.8","","","","","0.3731276689","0.6257789885","0.1006708935","0.559348281","","","","","","","","76","L","3","","","128","main_expt",""
"","bandit","208","545747","0.0-169.0-0.0","27517993","wem/bandit_either_3","AY5O199V9M9O7","either","7","275","","","","","","","0","0","1","","0.1336488566","0.6","0.4","0.2","0.8","0.3263017501","0.4761868647","0.1336488566","0.610360397","","","","","","","","","","","","75","K","2","","","129","main_expt",""
"","bandit","209","547523","0.0-170.0-0.0","27517993","wem/bandit_either_3","AY5O199V9M9O7","either","7","265","","","","","","","0","0","1","","0.4745188583","0.6","0.4","0.2","0.8","0.3226142564","0.4745188583","0.1271550391","0.5737783772","","","","","","","","","","","","74","J","1","","","130","main_expt",""
"","bandit","210","549162","0.0-171.0-0.0","27517993","wem/bandit_either_3","AY5O199V9M9O7","either","7","126","","","","","","","0","0","1","0.4674409752","","0.6","0.4","0.2","0.8","","","","","0.3907136596","0.4674409752","0.1594360192","0.6252154127","","","","","","","","74","J","1","","","131","main_expt",""
"","bandit","211","550972","0.0-172.0-0.0","27517993","wem/bandit_either_3","AY5O199V9M9O7","either","7","298","","","","","","","0","0","1","0.4983036492","","0.6","0.4","0.2","0.8","","","","","0.4983036492","0.368649462","0.1027658661","0.6473056352","","","","","","","","72","H","0","img/none_selected.jpg","","132","main_expt",""
"","bandit","212","553009","0.0-173.0-0.0","27517993","wem/bandit_either_3","AY5O199V9M9O7","either","7","525","","","","","","","1","0","0","0.4313577514","","0.6","0.4","0.2","0.8","","","","","0.6347393695","0.4313577514","0.1223548883","0.4595123468","","","","","","","","74","J","1","","","133","main_expt",""
"","bandit","213","554848","0.0-174.0-0.0","27517993","wem/bandit_either_3","AY5O199V9M9O7","either","7","328","","","","","","","0","0","1","","0.3692150919","0.6","0.4","0.2","0.8","0.6037412299","0.3692150919","0.1063029331","0.3043385566","","","","","","","","","","","","74","J","1","","","134","main_expt",""
"","bandit","214","556640","0.0-175.0-0.0","27517993","wem/bandit_either_3","AY5O199V9M9O7","either","7","280","","","","","","","0","0","1","0.3077662431","","0.6","0.4","0.2","0.8","","","","","0.5511090861","0.3077662431","0.080644856","0.340857567","","","","","","","","74","J","1","","","135","main_expt",""
"","bandit","215","558454","0.0-176.0-0.0","27517993","wem/bandit_either_3","AY5O199V9M9O7","either","7","300","","","","","","","0","0","1","0.1359867045","","0.6","0.4","0.2","0.8","","","","","0.585911414","0.314969588","0.1359867045","0.2655810755","","","","","","","","75","K","2","","","136","main_expt",""
"","bandit","216","560250","0.0-177.0-0.0","27517993","wem/bandit_either_3","AY5O199V9M9O7","either","7","276","","","","","","","0","0","1","0.3025530854","","0.6","0.4","0.2","0.8","","","","","0.5805905743","0.3590847215","0.168344283","0.3025530854","","","","","","","","76","L","3","","","137","main_expt",""
"","bandit","217","562088","0.0-178.0-0.0","27517993","wem/bandit_either_3","AY5O199V9M9O7","either","7","326","","","","","","","1","0","0","0.6357737786","","0.6","0.4","0.2","0.8","","","","","0.6357737786","0.3588584756","0.1867455324","0.2888348812","","","","","","","","72","H","0","img/none_selected.jpg","","138","main_expt",""
"","bandit","218","563904","0.0-179.0-0.0","27517993","wem/bandit_either_3","AY5O199V9M9O7","either","7","303","","","","","","","1","0","0","0.66639317","","0.6","0.4","0.2","0.8","","","","","0.66639317","0.4289761638","0.2277874407","0.2463208975","","","","","","","","72","H","0","img/none_selected.jpg","","139","main_expt",""
"","bandit","219","565722","0.0-180.0-0.0","27517993","wem/bandit_either_3","AY5O199V9M9O7","either","7","305","","","","","","","0","0","1","","0.6365789307","0.6","0.4","0.2","0.8","0.6365789307","0.3801639999","0.2577820179","0.273109751","","","","","","","","","","","","72","H","0","img/none_selected.jpg","","140","main_expt",""
"","bandit","220","567511","0.0-181.0-0.0","27517993","wem/bandit_either_3","AY5O199V9M9O7","either","7","275","","","","","","","0","0","1","","0.6045632144","0.6","0.4","0.2","0.8","0.6045632144","0.2445936549","0.3674069736","0.3355442787","","","","","","","","","","","","72","H","0","img/none_selected.jpg","","141","main_expt",""
"","bandit","221","569470","0.0-182.0-0.0","27517993","wem/bandit_either_3","AY5O199V9M9O7","either","7","446","","","","","","","0","1","0","","0.3394066497","0.6","0.4","0.2","0.8","0.5148607161","0.3394066497","0.4345417514","0.2781999234","","","","","","","","","","","","74","J","1","","","142","main_expt",""
"","bandit","222","571229","0.0-183.0-0.0","27517993","wem/bandit_either_3","AY5O199V9M9O7","either","7","245","","","","","","","1","0","0","0.2899754881","","0.6","0.4","0.2","0.8","","","","","0.4754154836","0.2899754881","0.3811672827","0.2599467226","","","","","","","","74","J","1","","","143","main_expt",""
"","bandit","223","573039","0.0-184.0-0.0","27517993","wem/bandit_either_3","AY5O199V9M9O7","either","7","298","","","","","","","0","0","1","0.3701332444","","0.6","0.4","0.2","0.8","","","","","0.516029258","0.3701332444","0.2754059391","0.2353144144","","","","","","","","74","J","1","","","144","main_expt",""
"","bandit","224","574823","0.0-185.0-0.0","27517993","wem/bandit_either_3","AY5O199V9M9O7","either","7","270","","","","","","","0","0","1","","0.2773400324","0.6","0.4","0.2","0.8","0.6646605279","0.3322753171","0.2773400324","0.2120114759","","","","","","","","","","","","75","K","2","","","145","main_expt",""
"","bandit","225","576613","0.0-186.0-0.0","27517993","wem/bandit_either_3","AY5O199V9M9O7","either","7","277","","","","","","","0","0","1","0.176067728","","0.6","0.4","0.2","0.8","","","","","0.6331546467","0.3203507811","0.2780426824","0.176067728","","","","","","","","76","L","3","","","146","main_expt",""
"","bandit","226","578310","0.0-187.0-0.0","27517993","wem/bandit_either_3","AY5O199V9M9O7","either","7","183","","","","","","","1","0","0","0.304761248","","0.6","0.4","0.2","0.8","","","","","0.6356747602","0.304761248","0.3373608721","0.1329453439","","","","","","","","74","J","1","","","147","main_expt",""
"","bandit","227","580090","0.0-188.0-0.0","27517993","wem/bandit_either_3","AY5O199V9M9O7","either","7","267","","","","","","","0","1","0","","0.3809280674","0.6","0.4","0.2","0.8","0.6301772709","0.3809280674","0.3529594122","0.1465103875","","","","","","","","","","","","74","J","1","","","148","main_expt",""
"","bandit","228","581858","0.0-189.0-0.0","27517993","wem/bandit_either_3","AY5O199V9M9O7","either","7","254","","","","","","","0","0","1","0.3997986218","","0.6","0.4","0.2","0.8","","","","","0.6640591829","0.3997986218","0.3878328211","0.1190451538","","","","","","","","74","J","1","","","149","main_expt",""
"","bandit","229","583647","0.0-190.0-0.0","27517993","wem/bandit_either_3","AY5O199V9M9O7","either","7","277","","","","","","","0","0","1","0.6592717552","","0.6","0.4","0.2","0.8","","","","","0.6592717552","0.3159341416","0.42943501","0.1195570164","","","","","","","","72","H","0","img/none_selected.jpg","","150","main_expt",""
"","bandit","230","585382","0.0-191.0-0.0","27517993","wem/bandit_either_3","AY5O199V9M9O7","either","7","222","","","","","","","0","0","1","0.5928743102","","0.6","0.4","0.2","0.8","","","","","0.5928743102","0.3052853957","0.5142681232","0.100492686","","","","","","","","72","H","0","img/none_selected.jpg","","151","main_expt",""
"","bandit","231","587158","0.0-192.0-0.0","27517993","wem/bandit_either_3","AY5O199V9M9O7","either","7","263","","","","","","","0","1","0","","0.6822187145","0.6","0.4","0.2","0.8","0.6822187145","0.1896018403","0.6321073962","0.1030367897","","","","","","","","","","","","72","H","0","img/none_selected.jpg","","152","main_expt",""
"","bandit","232","589016","0.0-193.0-0.0","27517993","wem/bandit_either_3","AY5O199V9M9O7","either","7","345","","","","","","","0","0","1","","0.2439656658","0.6","0.4","0.2","0.8","0.6832005509","0.2439656658","0.6965670792","0.2059045691","","","","","","","","","","","","74","J","1","","","153","main_expt",""
"","bandit","233","590831","0.0-194.0-0.0","27517993","wem/bandit_either_3","AY5O199V9M9O7","either","7","301","","","","","","","1","0","0","0.7109729062","","0.6","0.4","0.2","0.8","","","","","0.7109729062","0.3068434149","0.6516005735","0.2921647579","","","","","","","","72","H","0","img/none_selected.jpg","","154","main_expt",""
"","bandit","234","592653","0.0-195.0-0.0","27517993","wem/bandit_either_3","AY5O199V9M9O7","either","7","308","","","","","","","1","0","0","0.6975465092","","0.6","0.4","0.2","0.8","","","","","0.6975465092","0.2314644909","0.7291318088","0.1789694193","","","","","","","","72","H","0","img/none_selected.jpg","","155","main_expt",""
"","bandit","235","594460","0.0-196.0-0.0","27517993","wem/bandit_either_3","AY5O199V9M9O7","either","7","291","","","","","","","1","0","0","0.6580608271","","0.6","0.4","0.2","0.8","","","","","0.6580608271","0.2154001061","0.6273572288","0.2187195075","","","","","","","","72","H","0","img/none_selected.jpg","","156","main_expt",""
"","bandit","236","596227","0.0-197.0-0.0","27517993","wem/bandit_either_3","AY5O199V9M9O7","either","7","252","","","","","","","0","1","0","","0.5695802138","0.6","0.4","0.2","0.8","0.5695802138","0.1648135251","0.566197257","0.2669834713","","","","","","","","","","","","72","H","0","img/none_selected.jpg","","157","main_expt",""
"","bandit","237","598132","0.0-198.0-0.0","27517993","wem/bandit_either_3","AY5O199V9M9O7","either","7","391","","","","","","","0","0","1","0.4733954301","","0.6","0.4","0.2","0.8","","","","","0.4733954301","0.2215973425","0.4523642269","0.4240307821","","","","","","","","72","H","0","img/none_selected.jpg","","158","main_expt",""
"","bandit","238","599962","0.0-199.0-0.0","27517993","wem/bandit_either_3","AY5O199V9M9O7","either","7","318","","","","","","","0","1","0","","0.5619817243","0.6","0.4","0.2","0.8","0.5619817243","0.2243274726","0.3991212054","0.3840951437","","","","","","","","","","","","72","H","0","img/none_selected.jpg","","159","main_expt",""
"","bandit","239","601726","0.0-200.0-0.0","27517993","wem/bandit_either_3","AY5O199V9M9O7","either","7","251","","","","","","","0","0","1","0.2061161075","","0.6","0.4","0.2","0.8","","","","","0.4701658979","0.2061161075","0.3566558104","0.4098147986","","","","","","","","74","J","1","","","160","main_expt",""
"","bandit","240","603485","0.0-201.0-0.0","27517993","wem/bandit_either_3","AY5O199V9M9O7","either","7","246","","","","","","","0","1","0","","0.4430908041","0.6","0.4","0.2","0.8","0.5673671472","0.209200141","0.4430908041","0.4027252302","","","","","","","","","","","","75","K","2","","","161","main_expt",""
"","bandit","241","605733","0.0-202.0-0.0","27517993","wem/bandit_either_3","AY5O199V9M9O7","either","7","735","","","","","","","0","0","1","0.3824170733","","0.6","0.4","0.2","0.8","","","","","0.4921809208","0.1477343718","0.3966098285","0.3824170733","","","","","","","","76","L","3","","","162","main_expt",""
"","bandit","242","608712","0.0-203.0-0.0","27517993","wem/bandit_either_3","AY5O199V9M9O7","either","7","1465","","","","","","","1","0","0","0.4204505308","","0.6","0.4","0.2","0.8","","","","","0.4204505308","0.1525050104","0.3455868331","0.3352280924","","","","","","","","72","H","0","img/none_selected.jpg","","163","main_expt",""
"","bandit","243","610592","0.0-204.0-0.0","27517993","wem/bandit_either_3","AY5O199V9M9O7","either","7","366","","","","","","","1","0","0","0.534748173","","0.6","0.4","0.2","0.8","","","","","0.534748173","0.08831047354","0.3368969945","0.3379187571","","","","","","","","72","H","0","img/none_selected.jpg","","164","main_expt",""
"","bandit","244","612473","0.0-205.0-0.0","27517993","wem/bandit_either_3","AY5O199V9M9O7","either","7","367","","","","","","","1","0","0","0.4724966102","","0.6","0.4","0.2","0.8","","","","","0.4724966102","0.1035482763","0.3767562303","0.3160546663","","","","","","","","72","H","0","img/none_selected.jpg","","165","main_expt",""
"","bandit","245","614224","0.0-206.0-0.0","27517993","wem/bandit_either_3","AY5O199V9M9O7","either","7","236","","","","","","","0","0","1","0.5280505203","","0.6","0.4","0.2","0.8","","","","","0.5280505203","0.06888190676","0.4727650462","0.3058359067","","","","","","","","72","H","0","img/none_selected.jpg","","166","main_expt",""
"","bandit","246","616010","0.0-207.0-0.0","27517993","wem/bandit_either_3","AY5O199V9M9O7","either","7","273","","","","","","","0","0","1","","0.589670135","0.6","0.4","0.2","0.8","0.589670135","0.06051452263","0.6140635231","0.2561334246","","","","","","","","","","","","72","H","0","img/none_selected.jpg","","167","main_expt",""
"","bandit","247","619253","0.0-208.0-0.0","27517993","wem/bandit_either_3","AY5O199V9M9O7","either","7","1727","","","","","","","0","0","1","0.07905307949","","0.6","0.4","0.2","0.8","","","","","0.5058201204","0.07905307949","0.5629225295","0.2459084815","","","","","","","","74","J","1","","","168","main_expt",""
"","bandit","248","621022","0.0-209.0-0.0","27517993","wem/bandit_either_3","AY5O199V9M9O7","either","7","256","","","","","","","1","0","0","0.6456076899","","0.6","0.4","0.2","0.8","","","","","0.4102709571","0.07051596905","0.6456076899","0.2138460752","","","","","","","","75","K","2","","","169","main_expt",""
"","bandit","249","622915","0.0-210.0-0.0","27517993","wem/bandit_either_3","AY5O199V9M9O7","either","7","380","","","","","","","0","0","1","","0.719827795","0.6","0.4","0.2","0.8","0.5061826445","0.1056762318","0.719827795","0.1642406351","","","","","","","","","","","","75","K","2","","","170","main_expt",""
"","bandit","250","624733","0.0-211.0-0.0","27517993","wem/bandit_either_3","AY5O199V9M9O7","either","7","304","","","","","","","0","0","1","0.6716280274","","0.6","0.4","0.2","0.8","","","","","0.6092158501","0.1513980822","0.6716280274","0.2337150112","","","","","","","","75","K","2","","","171","main_expt",""
"","bandit","251","626635","0.0-212.0-0.0","27517993","wem/bandit_either_3","AY5O199V9M9O7","either","7","388","","","","","","","0","1","0","","0.5683226388","0.6","0.4","0.2","0.8","0.691496366","0.1552293495","0.5683226388","0.3128682212","","","","","","","","","","","","75","K","2","","","172","main_expt",""
"","bandit","252","628514","0.0-213.0-0.0","27517993","wem/bandit_either_3","AY5O199V9M9O7","either","7","365","","","","","","","1","0","0","0.7402253768","","0.6","0.4","0.2","0.8","","","","","0.7402253768","0.1325975083","0.4581357746","0.2775517843","","","","","","","","72","H","0","img/none_selected.jpg","","173","main_expt",""
"","bandit","253","630441","0.0-214.0-0.0","27517993","wem/bandit_either_3","AY5O199V9M9O7","either","7","413","","","","","","","1","0","0","0.6601004511","","0.6","0.4","0.2","0.8","","","","","0.6601004511","0.09024892351","0.5903479164","0.4159305855","","","","","","","","72","H","0","img/none_selected.jpg","","174","main_expt",""
"","bandit","254","632234","0.0-215.0-0.0","27517993","wem/bandit_either_3","AY5O199V9M9O7","either","7","279","","","","","","","0","0","1","","0.6781732273","0.6","0.4","0.2","0.8","0.6781732273","0.06963745108","0.5658285383","0.4471770837","","","","","","","","","","","","72","H","0","img/none_selected.jpg","","175","main_expt",""
"","bandit","255","634031","0.0-216.0-0.0","27517993","wem/bandit_either_3","AY5O199V9M9O7","either","7","283","","","","","","","0","1","0","","0.6932650799","0.6","0.4","0.2","0.8","0.6932650799","0.07897043431","0.5313506173","0.5162211083","","","","","","","","","","","","72","H","0","img/none_selected.jpg","","176","main_expt",""
"","bandit","256","635840","0.0-217.0-0.0","27517993","wem/bandit_either_3","AY5O199V9M9O7","either","7","295","","","","","","","0","1","0","","0.4231289234","0.6","0.4","0.2","0.8","0.6803850572","0.09469685393","0.4231289234","0.6372676231","","","","","","","","","","","","75","K","2","","","177","main_expt",""
"","bandit","257","637617","0.0-218.0-0.0","27517993","wem/bandit_either_3","AY5O199V9M9O7","either","7","263","","","","","","","0","0","1","","0.580807006","0.6","0.4","0.2","0.8","0.5407017663","0.1486386852","0.580807006","0.6295749113","","","","","","","","","","","","75","K","2","","","178","main_expt",""
"","bandit","258","639422","0.0-219.0-0.0","27517993","wem/bandit_either_3","AY5O199V9M9O7","either","7","290","","","","","","","0","0","1","0.4126066341","","0.6","0.4","0.2","0.8","","","","","0.5931576708","0.1965095934","0.5499948007","0.4126066341","","","","","","","","76","L","3","","","179","main_expt",""
"","bandit","259","641202","0.0-220.0-0.0","27517993","wem/bandit_either_3","AY5O199V9M9O7","either","7","265","","","","","","","0","0","1","0.516991344","","0.6","0.4","0.2","0.8","","","","","0.5390819372","0.1749048096","0.4918200669","0.516991344","","","","","","","","76","L","3","","","180","main_expt",""
"","bandit","260","642990","0.0-221.0-0.0","27517993","wem/bandit_either_3","AY5O199V9M9O7","either","7","273","","","","","","","0","0","1","0.232896561","","0.6","0.4","0.2","0.8","","","","","0.4929910299","0.232896561","0.5428702931","0.4239603033","","","","","","","","74","J","1","","","181","main_expt",""
"","bandit","261","644754","0.0-222.0-0.0","27517993","wem/bandit_either_3","AY5O199V9M9O7","either","7","249","","","","","","","0","0","1","0.2561822725","","0.6","0.4","0.2","0.8","","","","","0.458433212","0.2561822725","0.5870547156","0.3961891141","","","","","","","","74","J","1","","","182","main_expt",""
"","bandit","262","646526","0.0-223.0-0.0","27517993","wem/bandit_either_3","AY5O199V9M9O7","either","7","257","","","","","","","0","0","1","0.5725449786","","0.6","0.4","0.2","0.8","","","","","0.5725449786","0.2713883962","0.5031908535","0.4364601233","","","","","","","","72","H","0","img/none_selected.jpg","","183","main_expt",""
"","bandit","263","648166","0.0-224.0-0.0","27517993","wem/bandit_either_3","AY5O199V9M9O7","either","7","125","","","","","","","0","0","1","0.4878383732","","0.6","0.4","0.2","0.8","","","","","0.4878383732","0.3543557679","0.4239978994","0.4826964198","","","","","","","","72","H","0","img/none_selected.jpg","","184","main_expt",""
"","bandit","264","649954","0.0-225.0-0.0","27517993","wem/bandit_either_3","AY5O199V9M9O7","either","7","273","","","","","","","0","0","1","0.3425545299","","0.6","0.4","0.2","0.8","","","","","0.5189350158","0.2974533566","0.3425545299","0.4448789548","","","","","","","","75","K","2","","","185","main_expt",""
"","bandit","265","651655","0.0-226.0-0.0","27517993","wem/bandit_either_3","AY5O199V9M9O7","either","7","186","","","","","","","0","0","1","","0.2594221554","0.6","0.4","0.2","0.8","0.4310300585","0.3295130888","0.2594221554","0.4585835861","","","","","","","","","","","","75","K","2","","","186","main_expt",""
"","bandit","266","653494","0.0-227.0-0.0","27517993","wem/bandit_either_3","AY5O199V9M9O7","either","7","324","","","","","","","0","0","1","","0.3440574025","0.6","0.4","0.2","0.8","0.4005994516","0.3440574025","0.350747246","0.5470412386","","","","","","","","","","","","74","J","1","","","187","main_expt",""
"","bandit","267","655336","0.0-228.0-0.0","27517993","wem/bandit_either_3","AY5O199V9M9O7","either","7","327","","","","","","","1","0","0","0.5485419855","","0.6","0.4","0.2","0.8","","","","","0.5684333967","0.3176863717","0.3667816541","0.5485419855","","","","","","","","76","L","3","","","188","main_expt",""
"","bandit","268","657141","0.0-229.0-0.0","27517993","wem/bandit_either_3","AY5O199V9M9O7","either","7","290","","","","","","","1","0","0","0.6161015427","","0.6","0.4","0.2","0.8","","","","","0.5768443477","0.3194332301","0.3129240978","0.6161015427","","","","","","","","76","L","3","","","189","main_expt",""
"","bandit","269","658960","0.0-230.0-0.0","27517993","wem/bandit_either_3","AY5O199V9M9O7","either","7","303","","","","","","","1","0","0","0.5145576236","","0.6","0.4","0.2","0.8","","","","","0.6091254975","0.3585260795","0.3681084497","0.5145576236","","","","","","","","76","L","3","","","190","main_expt",""
"","bandit","270","660715","0.0-231.0-0.0","27517993","wem/bandit_either_3","AY5O199V9M9O7","either","7","240","","","","","","","0","0","1","0.4447609651","","0.6","0.4","0.2","0.8","","","","","0.6355225437","0.4438822556","0.3284994938","0.4447609651","","","","","","","","76","L","3","","","191","main_expt",""
"","bandit","271","662591","0.0-232.0-0.0","27517993","wem/bandit_either_3","AY5O199V9M9O7","either","7","361","","","","","","","0","1","0","","0.4273979598","0.6","0.4","0.2","0.8","0.7449996868","0.6336907385","0.2913335268","0.4273979598","","","","","","","","","","","","76","L","3","","","192","main_expt",""
"","bandit","272","664389","0.0-233.0-0.0","27517993","wem/bandit_either_3","AY5O199V9M9O7","either","7","282","","","","","","","0","0","1","0.4382354048","","0.6","0.4","0.2","0.8","","","","","0.7645281636","0.5871300795","0.3614904019","0.4382354048","","","","","","","","76","L","3","","","193","main_expt",""
"","bandit","273","666219","0.0-234.0-0.0","27517993","wem/bandit_either_3","AY5O199V9M9O7","either","7","314","","","","","","","0","0","1","0.4367950698","","0.6","0.4","0.2","0.8","","","","","0.7417458559","0.5919999684","0.4180963095","0.4367950698","","","","","","","","76","L","3","","","194","main_expt",""
"","bandit","274","667966","0.0-235.0-0.0","27517993","wem/bandit_either_3","AY5O199V9M9O7","either","7","232","","","","","","","1","0","0","0.4306922929","","0.6","0.4","0.2","0.8","","","","","0.7102393491","0.5599221581","0.4129416526","0.4306922929","","","","","","","","76","L","3","","","195","main_expt",""
"","bandit","275","669781","0.0-236.0-0.0","27517993","wem/bandit_either_3","AY5O199V9M9O7","either","7","300","","","","","","","0","0","1","","0.4436260943","0.6","0.4","0.2","0.8","0.6846894693","0.4552797342","0.6027995291","0.4436260943","","","","","","","","","","","","76","L","3","","","196","main_expt",""
"","bandit","276","671547","0.0-237.0-0.0","27517993","wem/bandit_either_3","AY5O199V9M9O7","either","7","251","","","","","","","0","0","1","0.4547077395","","0.6","0.4","0.2","0.8","","","","","0.6573901597","0.3045440077","0.6174547511","0.4547077395","","","","","","","","76","L","3","","","197","main_expt",""
"","bandit","277","673307","0.0-238.0-0.0","27517993","wem/bandit_either_3","AY5O199V9M9O7","either","7","244","","","","","","","0","0","1","0.545148617","","0.6","0.4","0.2","0.8","","","","","0.7020762336","0.4061180554","0.5727893511","0.545148617","","","","","","","","76","L","3","","","198","main_expt",""
"","bandit","278","675024","0.0-239.0-0.0","27517993","wem/bandit_either_3","AY5O199V9M9O7","either","7","203","","","","","","","1","0","0","0.5838562778","","0.6","0.4","0.2","0.8","","","","","0.7749867965","0.3406873398","0.5803616598","0.5838562778","","","","","","","","76","L","3","","","199","main_expt",""
"","bandit","279","676756","0.0-240.0-0.0","27517993","wem/bandit_either_3","AY5O199V9M9O7","either","7","215","","","","","","","0","0","1","0.6569131065","","0.6","0.4","0.2","0.8","","","","","0.7971262248","0.2810551981","0.5109940584","0.6569131065","","","","","","","","76","L","3","","","200","main_expt",""
"","bandit","280","678489","0.0-241.0-0.0","27517993","wem/bandit_either_3","AY5O199V9M9O7","either","7","217","","","","","","","1","0","0","0.6559739125","","0.6","0.4","0.2","0.8","","","","","0.6431063495","0.2295892347","0.444158281","0.6559739125","","","","","","","","76","L","3","","","201","main_expt",""
"","bandit","281","680279","0.0-242.0-0.0","27517993","wem/bandit_either_3","AY5O199V9M9O7","either","7","274","","","","","","","0","0","1","","0.5940698896","0.6","0.4","0.2","0.8","0.6153479028","0.2134833186","0.3774362348","0.5940698896","","","","","","","","","","","","76","L","3","","","202","main_expt",""
"","bandit","282","682017","0.0-243.0-0.0","27517993","wem/bandit_either_3","AY5O199V9M9O7","either","7","224","","","","","","","1","0","0","0.6288005559","","0.6","0.4","0.2","0.8","","","","","0.6107921693","0.1538434825","0.2852638898","0.6288005559","","","","","","","","76","L","3","","","203","main_expt",""
"","bandit","283","683802","0.0-244.0-0.0","27517993","wem/bandit_either_3","AY5O199V9M9O7","either","7","269","","","","","","","1","0","0","0.7483345684","","0.6","0.4","0.2","0.8","","","","","0.6364312764","0.08629221539","0.3900316507","0.7483345684","","","","","","","","76","L","3","","","204","main_expt",""
"","bandit","284","685562","0.0-245.0-0.0","27517993","wem/bandit_either_3","AY5O199V9M9O7","either","7","245","","","","","","","1","0","0","0.7823609999","","0.6","0.4","0.2","0.8","","","","","0.7098325313","0.1303029892","0.3334674042","0.7823609999","","","","","","","","76","L","3","","","205","main_expt",""
"","bandit","285","687358","0.0-246.0-0.0","27517993","wem/bandit_either_3","AY5O199V9M9O7","either","7","281","","","","","","","1","0","0","0.7053347691","","0.6","0.4","0.2","0.8","","","","","0.6423198407","0.1290793888","0.3997779834","0.7053347691","","","","","","","","76","L","3","","","206","main_expt",""
"","bandit","286","689126","0.0-247.0-0.0","27517993","wem/bandit_either_3","AY5O199V9M9O7","either","7","252","","","","","","","1","0","0","0.692958529","","0.6","0.4","0.2","0.8","","","","","0.7196337679","0.1471003053","0.2791746034","0.692958529","","","","","","","","76","L","3","","","207","main_expt",""
"","bandit","287","690891","0.0-248.0-0.0","27517993","wem/bandit_either_3","AY5O199V9M9O7","either","7","249","","","","","","","1","0","0","0.5726600787","","0.6","0.4","0.2","0.8","","","","","0.7273253538","0.1204476287","0.3447420344","0.5726600787","","","","","","","","76","L","3","","","208","main_expt",""
"","bandit","288","692654","0.0-249.0-0.0","27517993","wem/bandit_either_3","AY5O199V9M9O7","either","7","247","","","","","","","0","1","0","","0.7193759884","0.6","0.4","0.2","0.8","0.7701678217","0.1752658923","0.2106944101","0.7193759884","","","","","","","","","","","","76","L","3","","","209","main_expt",""
"","bandit","289","694384","0.0-250.0-0.0","27517993","wem/bandit_either_3","AY5O199V9M9O7","either","7","219","","","","","","","0","0","1","0.5469619257","","0.6","0.4","0.2","0.8","","","","","0.7673062315","0.2071456167","0.2609791638","0.5469619257","","","","","","","","76","L","3","","","210","main_expt",""
"","bandit","290","696023","0.0-251.0-0.0","27517993","wem/bandit_either_3","AY5O199V9M9O7","either","7","123","","","","","","","0","0","1","0.5432746348","","0.6","0.4","0.2","0.8","","","","","0.7733207599","0.1982577311","0.3702243554","0.5432746348","","","","","","","","76","L","3","","","211","main_expt",""
"","bandit","291","697869","0.0-252.0-0.0","27517993","wem/bandit_either_3","AY5O199V9M9O7","either","7","332","","","","","","","0","1","0","","0.7176010575","0.6","0.4","0.2","0.8","0.7176010575","0.2837026457","0.4070014152","0.4857525371","","","","","","","","","","","","72","H","0","img/none_selected.jpg","","212","main_expt",""
"","bandit","292","699655","0.0-253.0-0.0","27517993","wem/bandit_either_3","AY5O199V9M9O7","either","7","270","","","","","","","1","0","0","0.7241732444","","0.6","0.4","0.2","0.8","","","","","0.7241732444","0.2192955177","0.5001351259","0.4416723402","","","","","","","","72","H","0","img/none_selected.jpg","","213","main_expt",""
"","bandit","293","701482","0.0-254.0-0.0","27517993","wem/bandit_either_3","AY5O199V9M9O7","either","7","312","","","","","","","1","0","0","0.6696022014","","0.6","0.4","0.2","0.8","","","","","0.6696022014","0.2885853396","0.5667049056","0.4231083207","","","","","","","","72","H","0","img/none_selected.jpg","","214","main_expt",""
"","bandit","294","703282","0.0-255.0-0.0","27517993","wem/bandit_either_3","AY5O199V9M9O7","either","7","284","","","","","","","0","0","1","","0.6255990046","0.6","0.4","0.2","0.8","0.6255990046","0.2451296471","0.5259574602","0.329019478","","","","","","","","","","","","72","H","0","img/none_selected.jpg","","215","main_expt",""
"","bandit","295","705066","0.0-256.0-0.0","27517993","wem/bandit_either_3","AY5O199V9M9O7","either","7","270","","","","","","","0","1","0","","0.6771362935","0.6","0.4","0.2","0.8","0.6771362935","0.1946790852","0.5468860011","0.3469743373","","","","","","","","","","","","72","H","0","img/none_selected.jpg","","216","main_expt",""
"","bandit","296","706809","0.0-257.0-0.0","27517993","wem/bandit_either_3","AY5O199V9M9O7","either","7","228","","","","","","","1","0","0","0.6918953154","","0.6","0.4","0.2","0.8","","","","","0.6918953154","0.2497229096","0.6182745027","0.3618740044","","","","","","","","72","H","0","img/none_selected.jpg","","217","main_expt",""
"","bandit","297","708590","0.0-258.0-0.0","27517993","wem/bandit_either_3","AY5O199V9M9O7","either","7","265","","","","","","","1","0","0","0.5726390237","","0.6","0.4","0.2","0.8","","","","","0.5726390237","0.3076421025","0.5979125128","0.3574217595","","","","","","","","72","H","0","img/none_selected.jpg","","218","main_expt",""
"","bandit","298","710365","0.0-259.0-0.0","27517993","wem/bandit_either_3","AY5O199V9M9O7","either","7","259","","","","","","","0","1","0","","0.5179196303","0.6","0.4","0.2","0.8","0.5179196303","0.3488941347","0.5321687475","0.3862686792","","","","","","","","","","","","72","H","0","img/none_selected.jpg","","219","main_expt",""
"","bandit","299","712180","0.0-260.0-0.0","27517993","wem/bandit_either_3","AY5O199V9M9O7","either","7","299","","","","","","","0","0","1","","0.5578222379","0.6","0.4","0.2","0.8","0.5578222379","0.306784001","0.6053830099","0.4432846828","","","","","","","","","","","","72","H","0","img/none_selected.jpg","","220","main_expt",""
"","bandit","300","713980","0.0-261.0-0.0","27517993","wem/bandit_either_3","AY5O199V9M9O7","either","7","285","","","","","","","0","0","1","0.6640911266","","0.6","0.4","0.2","0.8","","","","","0.6640911266","0.3786925452","0.69383498","0.432499938","","","","","","","","72","H","0","img/none_selected.jpg","","221","main_expt",""
"","bandit","301","715719","0.0-262.0-0.0","27517993","wem/bandit_either_3","AY5O199V9M9O7","either","7","224","","","","","","","0","1","0","","0.5014801557","0.6","0.4","0.2","0.8","0.7340686256","0.5014801557","0.783375317","0.4050903391","","","","","","","","","","","","74","J","1","","","222","main_expt",""
"","bandit","302","717475","0.0-263.0-0.0","27517993","wem/bandit_either_3","AY5O199V9M9O7","either","7","239","","","","","","","0","1","0","","0.4081704387","0.6","0.4","0.2","0.8","0.852862777","0.4081704387","0.8374489269","0.3282593462","","","","","","","","","","","","74","J","1","","","223","main_expt",""
"","bandit","303","719280","0.0-264.0-0.0","27517993","wem/bandit_either_3","AY5O199V9M9O7","either","7","289","","","","","","","0","0","1","","0.422296693","0.6","0.4","0.2","0.8","0.7830506485","0.422296693","0.7801262993","0.2465370002","","","","","","","","","","","","74","J","1","","","224","main_expt",""
"","bandit","304","720998","0.0-265.0-0.0","27517993","wem/bandit_either_3","AY5O199V9M9O7","either","7","202","","","","","","","0","0","1","","0.3998144739","0.6","0.4","0.2","0.8","0.7447555501","0.3998144739","0.7438235551","0.2260872052","","","","","","","","","","","","74","J","1","","","225","main_expt",""
"","bandit","305","722821","0.0-266.0-0.0","27517993","wem/bandit_either_3","AY5O199V9M9O7","either","7","307","","","","","","","1","0","0","0.7561714458","","0.6","0.4","0.2","0.8","","","","","0.7331719472","0.2692780115","0.7561714458","0.2573895518","","","","","","","","75","K","2","","","226","main_expt",""
"","bandit","306","724636","0.0-267.0-0.0","27517993","wem/bandit_either_3","AY5O199V9M9O7","either","7","268","","","","","","","0","0","1","","0.7527106072","0.6","0.4","0.2","0.8","0.6417259928","0.268728261","0.7527106072","0.2134597582","","","","","","","","","","","","75","K","2","","","227","main_expt",""
"","bandit","307","726440","0.0-268.0-0.0","27517993","wem/bandit_either_3","AY5O199V9M9O7","either","7","291","","","","","","","0","0","1","0.6315627418","","0.6","0.4","0.2","0.8","","","","","0.6050549784","0.2211951924","0.6315627418","0.348479141","","","","","","","","75","K","2","","","228","main_expt",""
"","bandit","308","728236","0.0-269.0-0.0","27517993","wem/bandit_either_3","AY5O199V9M9O7","either","7","280","","","","","","","0","0","1","0.3250735223","","0.6","0.4","0.2","0.8","","","","","0.5962230341","0.219241791","0.5564086662","0.3250735223","","","","","","","","76","L","3","","","229","main_expt",""
"","bandit","309","729966","0.0-270.0-0.0","27517993","wem/bandit_either_3","AY5O199V9M9O7","either","7","213","","","","","","","0","0","1","","0.3395219718","0.6","0.4","0.2","0.8","0.5594933722","0.291585141","0.5895813861","0.3395219718","","","","","","","","","","","","76","L","3","","","230","main_expt",""
"","bandit","310","731742","0.0-271.0-0.0","27517993","wem/bandit_either_3","AY5O199V9M9O7","either","7","261","","","","","","","0","0","1","0.3315483329","","0.6","0.4","0.2","0.8","","","","","0.6411036761","0.2754541949","0.6148213975","0.3315483329","","","","","","","","76","L","3","","","231","main_expt",""
"","bandit","311","733528","0.0-272.0-0.0","27517993","wem/bandit_either_3","AY5O199V9M9O7","either","7","269","","","","","","","0","1","0","","0.5176988489","0.6","0.4","0.2","0.8","0.6653930637","0.3055336503","0.5176988489","0.3876030756","","","","","","","","","","","","75","K","2","","","232","main_expt",""
"","bandit","312","735317","0.0-273.0-0.0","27517993","wem/bandit_either_3","AY5O199V9M9O7","either","7","271","","","","","","","1","0","0","0.4505666118","","0.6","0.4","0.2","0.8","","","","","0.5426719569","0.3390100853","0.4505666118","0.3696248546","","","","","","","","75","K","2","","","233","main_expt",""
"","bandit","313","737076","0.0-274.0-0.0","27517993","wem/bandit_either_3","AY5O199V9M9O7","either","7","243","","","","","","","0","1","0","","0.4393496879","0.6","0.4","0.2","0.8","0.5581360181","0.3165323161","0.4393496879","0.3927474605","","","","","","","","","","","","75","K","2","","","234","main_expt",""
"","bandit","314","738802","0.0-275.0-0.0","27517993","wem/bandit_either_3","AY5O199V9M9O7","either","7","206","","","","","","","0","0","1","0.3542725407","","0.6","0.4","0.2","0.8","","","","","0.5299247183","0.2944333127","0.3542725407","0.4734072524","","","","","","","","75","K","2","","","235","main_expt",""
"","bandit","315","740552","0.0-276.0-0.0","27517993","wem/bandit_either_3","AY5O199V9M9O7","either","7","235","","","","","","","0","0","1","0.4127469632","","0.6","0.4","0.2","0.8","","","","","0.4709954077","0.4127469632","0.452511288","0.5857320117","","","","","","","","74","J","1","","","236","main_expt",""
"","bandit","316","742334","0.0-277.0-0.0","27517993","wem/bandit_either_3","AY5O199V9M9O7","either","7","265","","","","","","","0","1","0","","0.4353664578","0.6","0.4","0.2","0.8","0.4171051322","0.4353664578","0.4743784035","0.5208556897","","","","","","","","","","","","74","J","1","","","237","main_expt",""
"","bandit","317","744152","0.0-278.0-0.0","27517993","wem/bandit_either_3","AY5O199V9M9O7","either","7","302","","","","","","","0","0","1","0.3871798792","","0.6","0.4","0.2","0.8","","","","","0.40722148","0.3871798792","0.4666998134","0.4551370454","","","","","","","","74","J","1","","","238","main_expt",""
"","bandit","318","745802","0.0-279.0-0.0","27517993","wem/bandit_either_3","AY5O199V9M9O7","either","7","134","","","","","","","0","1","0","","0.3244704863","0.6","0.4","0.2","0.8","0.3113271407","0.3244704863","0.4916456171","0.2979137516","","","","","","","","","","","","74","J","1","","","239","main_expt",""
"","bandit","319","747599","0.0-280.0-0.0","27517993","wem/bandit_either_3","AY5O199V9M9O7","either","7","282","","","","","","","0","1","0","","0.3606581002","0.6","0.4","0.2","0.8","0.2505753432","0.3606581002","0.7128417261","0.2453134511","","","","","","","","","","","","74","J","1","","","240","main_expt",""
"","bandit","320","749350","0.0-281.0-0.0","27517993","wem/bandit_either_3","AY5O199V9M9O7","either","7","235","","","","","","","0","0","1","0.2015136922","","0.6","0.4","0.2","0.8","","","","","0.2015136922","0.3524522155","0.7711562233","0.1984184333","","","","","","","","72","H","0","img/none_selected.jpg","","241","main_expt",""
"","bandit","321","750968","0.0-282.0-0.0","27517993","wem/bandit_either_3","AY5O199V9M9O7","either","7","101","","","","","","","0","1","0","","0.2405045743","0.6","0.4","0.2","0.8","0.2405045743","0.3677191248","0.7503869254","0.35553679","","","","","","","","","","","","72","H","0","img/none_selected.jpg","","242","main_expt",""
"","bandit","322","752787","0.0-283.0-0.0","27517993","wem/bandit_either_3","AY5O199V9M9O7","either","7","301","","","","","","","1","0","0","0.3153476176","","0.6","0.4","0.2","0.8","","","","","0.2458255622","0.2524844898","0.6345316327","0.3153476176","","","","","","","","76","L","3","","","243","main_expt",""
"","bandit","323","754601","0.0-284.0-0.0","27517993","wem/bandit_either_3","AY5O199V9M9O7","either","7","299","","","","","","","1","0","0","0.2733658223","","0.6","0.4","0.2","0.8","","","","","0.3958019263","0.2870953983","0.6330191047","0.2733658223","","","","","","","","76","L","3","","","244","main_expt",""
"","bandit","324","756393","0.0-285.0-0.0","27517993","wem/bandit_either_3","AY5O199V9M9O7","either","7","275","","","","","","","1","0","0","0.3496419154","","0.6","0.4","0.2","0.8","","","","","0.3463698993","0.3392553197","0.6219736313","0.3496419154","","","","","","","","76","L","3","","","245","main_expt",""
"","bandit","325","758165","0.0-286.0-0.0","27517993","wem/bandit_either_3","AY5O199V9M9O7","either","7","255","","","","","","","0","0","1","0.4179672116","","0.6","0.4","0.2","0.8","","","","","0.2897199721","0.3836850971","0.633799682","0.4179672116","","","","","","","","76","L","3","","","246","main_expt",""
