"consent","trial_type","trial_index","time_elapsed","internal_node_id","subjID","study","MID","cond","drift","rt","responses","key_press","expt_phase","like","value","connected","gems","bombs","no_reward","GemPrChosen","BombPrChosen","GainOverPainPr_0","GainOverPainPr_1","GainOverPainPr_2","GainOverPainPr_3","LosePr_0","LosePr_1","LosePr_2","LosePr_3","WinPr_0","WinPr_1","WinPr_2","WinPr_3","Q0","Q1","Q2","gender","age","ethnicity","target","respCharCode","respKey","respChoiceNum","respChoice","practice","trial_counter","trial_label","button_pressed"
"INL_behavioral_consent_30min_online.html","consent","0","9109","0.0-0.0","29294253","wem/bandit_either_3","A107RJSS561Y7R","either","3","","","","","","","","","","","","","","","","","","","","","","","","","","","","","","","","","","","","","","",""
"","survey-text","1","13121","0.0-1.0","29294253","wem/bandit_either_3","A107RJSS561Y7R","either","3","3005","{""Q0"":""A107RJSS561Y7R""}","","","","","","","","","","","","","","","","","","","","","","","","","","","","","","","","","","","","",""
"","text","2","27515","0.0-2.0","29294253","wem/bandit_either_3","A107RJSS561Y7R","either","3","13391","","32","","","","","","","","","","","","","","","","","","","","","","","","","","","","","","","","","","","",""
"","text","3","33330","0.0-3.0","29294253","wem/bandit_either_3","A107RJSS561Y7R","either","3","5814","","32","","","","","","","","","","","","","","","","","","","","","","","","","","","","","","","","","","","",""
"","text","4","46661","0.0-4.0","29294253","wem/bandit_either_3","A107RJSS561Y7R","either","3","13329","","32","","","","","","","","","","","","","","","","","","","","","","","","","","","","","","","","","","","",""
"","text","5","57972","0.0-5.0","29294253","wem/bandit_either_3","A107RJSS561Y7R","either","3","11311","","32","","","","","","","","","","","","","","","","","","","","","","","","","","","","","","","","","","","",""
"","text","6","86085","0.0-6.0","29294253","wem/bandit_either_3","A107RJSS561Y7R","either","3","28111","","32","","","","","","","","","","","","","","","","","","","","","","","","","","","","","","","","","","","",""
"","text","7","91251","0.0-7.0","29294253","wem/bandit_either_3","A107RJSS561Y7R","either","3","5165","","32","","","","","","","","","","","","","","","","","","","","","","","","","","","","","","","","","","","",""
"","text","8","95847","0.0-8.0","29294253","wem/bandit_either_3","A107RJSS561Y7R","either","3","4595","","32","","","","","","","","","","","","","","","","","","","","","","","","","","","","","","","","","","","",""
"","identification","9","101394","0.0-9.0-0.0","29294253","wem/bandit_either_3","A107RJSS561Y7R","either","3","5538","","","","3","3","3","","","","","","","","","","","","","","","","","","","","","","","","the village of Zur","","","","","","","",""
"","identification","10","105659","0.0-9.0-1.0","29294253","wem/bandit_either_3","A107RJSS561Y7R","either","3","3253","","","","3","3","3","","","","","","","","","","","","","","","","","","","","","","","","the village of Nyx","","","","","","","",""
"","text","11","110437","0.0-10.0","29294253","wem/bandit_either_3","A107RJSS561Y7R","either","3","3777","","32","","","","","","","","","","","","","","","","","","","","","","","","","","","","","","","","","","","",""
"","text","12","113447","0.0-11.0","29294253","wem/bandit_either_3","A107RJSS561Y7R","either","3","3009","","32","","","","","","","","","","","","","","","","","","","","","","","","","","","","","","","","","","","",""
"","text","13","115024","0.0-12.0","29294253","wem/bandit_either_3","A107RJSS561Y7R","either","3","1575","","32","","","","","","","","","","","","","","","","","","","","","","","","","","","","","","","","","","","",""
"","text","14","118387","0.0-13.0","29294253","wem/bandit_either_3","A107RJSS561Y7R","either","3","3362","","32","","","","","","","","","","","","","","","","","","","","","","","","","","","","","","","","","","","",""
"","bandit","15","123138","0.0-14.0-0.0","29294253","wem/bandit_either_3","A107RJSS561Y7R","either","3","3246","","","","","","","0","0","1","0","0","","","","","0","","","","0","","","","","","","","","","","74","J","0","img/none_selected_demo.jpg","true","0","",""
"","bandit","16","126527","0.0-15.0-0.0","29294253","wem/bandit_either_3","A107RJSS561Y7R","either","3","1885","","","","","","","0","0","1","0","0","","","","","0","","","","0","","","","","","","","","","","75","K","0","img/none_selected_demo.jpg","true","0","",""
"","text","17","136964","0.0-16.0","29294253","wem/bandit_either_3","A107RJSS561Y7R","either","3","10436","","32","","","","","","","","","","","","","","","","","","","","","","","","","","","","","","","","","","","",""
"","text","18","146179","0.0-17.0","29294253","wem/bandit_either_3","A107RJSS561Y7R","either","3","9213","","32","","","","","","","","","","","","","","","","","","","","","","","","","","","","","","","","","","","",""
"","text","19","152213","0.0-18.0","29294253","wem/bandit_either_3","A107RJSS561Y7R","either","3","6033","","32","","","","","","","","","","","","","","","","","","","","","","","","","","","","","","","","","","","",""
"","text","20","155373","0.0-19.0","29294253","wem/bandit_either_3","A107RJSS561Y7R","either","3","3158","","32","","","","","","","","","","","","","","","","","","","","","","","","","","","","","","","","","","","",""
"","bandit","21","158625","0.0-20.0-0.0","29294253","wem/bandit_either_3","A107RJSS561Y7R","either","3","1748","","","","","","","0","1","0","","0.8","0.5","0.5","","","0.8","0.2","","","","","","","","","","","","","","74","J","0","img/none_selected_demo.jpg","true","0","80_20_practice",""
"","bandit","22","161803","0.0-20.0-1.0","29294253","wem/bandit_either_3","A107RJSS561Y7R","either","3","1675","","","","","","","0","1","0","","0.2","0.5","0.5","","","0.8","0.2","","","","","","","","","","","","","","75","K","1","","true","0","80_20_practice",""
"","bandit","23","163759","0.0-20.0-2.0","29294253","wem/bandit_either_3","A107RJSS561Y7R","either","3","450","","","","","","","1","0","0","0.8","","0.5","0.5","","","","","","","0.8","0.2","","","","","","","","","","74","J","0","img/none_selected_demo.jpg","true","0","80_20_practice",""
"","bandit","24","165740","0.0-20.0-3.0","29294253","wem/bandit_either_3","A107RJSS561Y7R","either","3","478","","","","","","","0","1","0","","0.8","0.5","0.5","","","0.8","0.2","","","","","","","","","","","","","","74","J","0","img/none_selected_demo.jpg","true","0","80_20_practice",""
"","bandit","25","167525","0.0-20.0-4.0","29294253","wem/bandit_either_3","A107RJSS561Y7R","either","3","281","","","","","","","0","1","0","","0.8","0.5","0.5","","","0.8","0.2","","","","","","","","","","","","","","74","J","0","img/none_selected_demo.jpg","true","0","80_20_practice",""
"","bandit","26","169262","0.0-20.0-5.0","29294253","wem/bandit_either_3","A107RJSS561Y7R","either","3","234","","","","","","","0","1","0","","0.8","0.5","0.5","","","0.8","0.2","","","","","","","","","","","","","","74","J","0","img/none_selected_demo.jpg","true","0","80_20_practice",""
"","bandit","27","171000","0.0-20.0-6.0","29294253","wem/bandit_either_3","A107RJSS561Y7R","either","3","234","","","","","","","0","0","1","","0.8","0.5","0.5","","","0.8","0.2","","","","","","","","","","","","","","74","J","0","img/none_selected_demo.jpg","true","0","80_20_practice",""
"","bandit","28","173566","0.0-20.0-7.0","29294253","wem/bandit_either_3","A107RJSS561Y7R","either","3","1061","","","","","","","0","0","1","0.2","","0.5","0.5","","","","","","","0.8","0.2","","","","","","","","","","75","K","1","","true","0","80_20_practice",""
"","bandit","29","175297","0.0-20.0-8.0","29294253","wem/bandit_either_3","A107RJSS561Y7R","either","3","228","","","","","","","0","0","1","","0.2","0.5","0.5","","","0.8","0.2","","","","","","","","","","","","","","75","K","1","","true","0","80_20_practice",""
"","bandit","30","177074","0.0-20.0-9.0","29294253","wem/bandit_either_3","A107RJSS561Y7R","either","3","273","","","","","","","0","0","1","0.2","","0.5","0.5","","","","","","","0.8","0.2","","","","","","","","","","75","K","1","","true","0","80_20_practice",""
"","bandit","31","178857","0.0-20.0-10.0","29294253","wem/bandit_either_3","A107RJSS561Y7R","either","3","280","","","","","","","0","1","0","","0.2","0.5","0.5","","","0.8","0.2","","","","","","","","","","","","","","75","K","1","","true","0","80_20_practice",""
"","bandit","32","180628","0.0-20.0-11.0","29294253","wem/bandit_either_3","A107RJSS561Y7R","either","3","267","","","","","","","0","0","1","0.2","","0.5","0.5","","","","","","","0.8","0.2","","","","","","","","","","75","K","1","","true","0","80_20_practice",""
"","bandit","33","182712","0.0-20.0-12.0","29294253","wem/bandit_either_3","A107RJSS561Y7R","either","3","580","","","","","","","0","1","0","","0.2","0.5","0.5","","","0.8","0.2","","","","","","","","","","","","","","75","K","1","","true","0","80_20_practice",""
"","bandit","34","184492","0.0-20.0-13.0","29294253","wem/bandit_either_3","A107RJSS561Y7R","either","3","277","","","","","","","0","0","1","","0.2","0.5","0.5","","","0.8","0.2","","","","","","","","","","","","","","75","K","1","","true","0","80_20_practice",""
"","bandit","35","186253","0.0-20.0-14.0","29294253","wem/bandit_either_3","A107RJSS561Y7R","either","3","257","","","","","","","1","0","0","0.8","","0.5","0.5","","","","","","","0.8","0.2","","","","","","","","","","74","J","0","img/none_selected_demo.jpg","true","0","80_20_practice",""
"","bandit","36","187944","0.0-20.0-15.0","29294253","wem/bandit_either_3","A107RJSS561Y7R","either","3","185","","","","","","","0","0","1","0.8","","0.5","0.5","","","","","","","0.8","0.2","","","","","","","","","","74","J","0","img/none_selected_demo.jpg","true","0","80_20_practice",""
"","bandit","37","191013","0.0-20.0-16.0","29294253","wem/bandit_either_3","A107RJSS561Y7R","either","3","1565","","","","","","","0","1","0","","0.8","0.5","0.5","","","0.8","0.2","","","","","","","","","","","","","","74","J","0","img/none_selected_demo.jpg","true","0","80_20_practice",""
"","bandit","38","192936","0.0-20.0-17.0","29294253","wem/bandit_either_3","A107RJSS561Y7R","either","3","420","","","","","","","1","0","0","0.8","","0.5","0.5","","","","","","","0.8","0.2","","","","","","","","","","74","J","0","img/none_selected_demo.jpg","true","0","80_20_practice",""
"","bandit","39","194717","0.0-20.0-18.0","29294253","wem/bandit_either_3","A107RJSS561Y7R","either","3","278","","","","","","","0","0","1","0.8","","0.5","0.5","","","","","","","0.8","0.2","","","","","","","","","","74","J","0","img/none_selected_demo.jpg","true","0","80_20_practice",""
"","bandit","40","196336","0.0-20.0-19.0","29294253","wem/bandit_either_3","A107RJSS561Y7R","either","3","115","","","","","","","1","0","0","0.8","","0.5","0.5","","","","","","","0.8","0.2","","","","","","","","","","74","J","0","img/none_selected_demo.jpg","true","0","80_20_practice",""
"","text","41","200206","0.0-21.0","29294253","wem/bandit_either_3","A107RJSS561Y7R","either","3","3868","","32","","","","","","","","","","","","","","","","","","","","","","","","","","","","","","","","","","","",""
"","bandit","42","202692","0.0-22.0-0.0","29294253","wem/bandit_either_3","A107RJSS561Y7R","either","3","979","","","","","","","1","0","0","1","0","","","","","0","1","","","1","0","","","","","","","","","","74","J","0","img/none_selected_demo.jpg","true","0","",""
"","text","43","212344","0.0-23.0","29294253","wem/bandit_either_3","A107RJSS561Y7R","either","3","9650","","32","","","","","","","","","","","","","","","","","","","","","","","","","","","","","","","","","","","",""
"","text","44","215810","0.0-24.0","29294253","wem/bandit_either_3","A107RJSS561Y7R","either","3","3465","","32","","","","","","","","","","","","","","","","","","","","","","","","","","","","","","","","","","","",""
"","text","45","219096","0.0-25.0","29294253","wem/bandit_either_3","A107RJSS561Y7R","either","3","3284","","32","","","","","","","","","","","","","","","","","","","","","","","","","","","","","","","","","","","",""
"","text","46","222153","0.0-26.0","29294253","wem/bandit_either_3","A107RJSS561Y7R","either","3","3056","","32","","","","","","","","","","","","","","","","","","","","","","","","","","","","","","","","","","","",""
"","text","47","227099","0.0-27.0","29294253","wem/bandit_either_3","A107RJSS561Y7R","either","3","4943","","32","","","","","","","","","","","","","","","","","","","","","","","","","","","","","","","","","","","",""
"","text","48","231098","0.0-28.0","29294253","wem/bandit_either_3","A107RJSS561Y7R","either","3","3998","","32","","","","","","","","","","","","","","","","","","","","","","","","","","","","","","","","","","","",""
"","text","49","235155","0.0-29.0","29294253","wem/bandit_either_3","A107RJSS561Y7R","either","3","4055","","32","","","","","","","","","","","","","","","","","","","","","","","","","","","","","","","","","","","",""
"","text","50","238045","0.0-30.0","29294253","wem/bandit_either_3","A107RJSS561Y7R","either","3","2888","","32","","","","","","","","","","","","","","","","","","","","","","","","","","","","","","","","","","","",""
"","text","51","244484","0.0-31.0","29294253","wem/bandit_either_3","A107RJSS561Y7R","either","3","6438","","32","","","","","","","","","","","","","","","","","","","","","","","","","","","","","","","","","","","",""
"","text","52","245489","0.0-32.0","29294253","wem/bandit_either_3","A107RJSS561Y7R","either","3","1004","","32","","","","","","","","","","","","","","","","","","","","","","","","","","","","","","","","","","","",""
"","text","53","247904","0.0-33.0","29294253","wem/bandit_either_3","A107RJSS561Y7R","either","3","2413","","32","","","","","","","","","","","","","","","","","","","","","","","","","","","","","","","","","","","",""
"","bandit","54","249956","0.0-34.0-0.0","29294253","wem/bandit_either_3","A107RJSS561Y7R","either","3","548","","","","","","","0","1","0","","0.8","0.5","0.5","0.5","0.5","0.8","0.2","0.6","0.2","","","","","","","","","","","","72","H","0","img/none_selected.jpg","true","0","full_practice",""
"","bandit","55","251801","0.0-34.0-1.0","29294253","wem/bandit_either_3","A107RJSS561Y7R","either","3","340","","","","","","","0","1","0","","0.8","0.5","0.5","0.5","0.5","0.8","0.2","0.6","0.2","","","","","","","","","","","","72","H","0","img/none_selected.jpg","true","0","full_practice",""
"","bandit","56","253512","0.0-34.0-2.0","29294253","wem/bandit_either_3","A107RJSS561Y7R","either","3","206","","","","","","","1","0","0","0.8","","0.5","0.5","0.5","0.5","","","","","0.8","0.2","0.6","0.2","","","","","","","","72","H","0","img/none_selected.jpg","true","0","full_practice",""
"","bandit","57","255287","0.0-34.0-3.0","29294253","wem/bandit_either_3","A107RJSS561Y7R","either","3","271","","","","","","","1","0","0","0.8","","0.5","0.5","0.5","0.5","","","","","0.8","0.2","0.6","0.2","","","","","","","","72","H","0","img/none_selected.jpg","true","0","full_practice",""
"","bandit","58","257061","0.0-34.0-4.0","29294253","wem/bandit_either_3","A107RJSS561Y7R","either","3","270","","","","","","","0","1","0","","0.8","0.5","0.5","0.5","0.5","0.8","0.2","0.6","0.2","","","","","","","","","","","","72","H","0","img/none_selected.jpg","true","0","full_practice",""
"","bandit","59","258829","0.0-34.0-5.0","29294253","wem/bandit_either_3","A107RJSS561Y7R","either","3","262","","","","","","","1","0","0","0.8","","0.5","0.5","0.5","0.5","","","","","0.8","0.2","0.6","0.2","","","","","","","","72","H","0","img/none_selected.jpg","true","0","full_practice",""
"","bandit","60","260371","0.0-34.0-6.0","29294253","wem/bandit_either_3","A107RJSS561Y7R","either","3","39","","","","","","","0","1","0","","0.8","0.5","0.5","0.5","0.5","0.8","0.2","0.6","0.2","","","","","","","","","","","","72","H","0","img/none_selected.jpg","true","0","full_practice",""
"","bandit","61","262091","0.0-34.0-7.0","29294253","wem/bandit_either_3","A107RJSS561Y7R","either","3","217","","","","","","","0","1","0","","0.8","0.5","0.5","0.5","0.5","0.8","0.2","0.6","0.2","","","","","","","","","","","","72","H","0","img/none_selected.jpg","true","0","full_practice",""
"","bandit","62","263653","0.0-34.0-8.0","29294253","wem/bandit_either_3","A107RJSS561Y7R","either","3","55","","","","","","","1","0","0","0.8","","0.5","0.5","0.5","0.5","","","","","0.8","0.2","0.6","0.2","","","","","","","","72","H","0","img/none_selected.jpg","true","0","full_practice",""
"","bandit","63","265403","0.0-34.0-9.0","29294253","wem/bandit_either_3","A107RJSS561Y7R","either","3","246","","","","","","","0","1","0","","0.8","0.5","0.5","0.5","0.5","0.8","0.2","0.6","0.2","","","","","","","","","","","","72","H","0","img/none_selected.jpg","true","0","full_practice",""
"","bandit","64","267197","0.0-34.0-10.0","29294253","wem/bandit_either_3","A107RJSS561Y7R","either","3","289","","","","","","","1","0","0","0.2","","0.5","0.5","0.5","0.5","","","","","0.8","0.2","0.6","0.2","","","","","","","","74","J","1","","true","0","full_practice",""
"","bandit","65","268904","0.0-34.0-11.0","29294253","wem/bandit_either_3","A107RJSS561Y7R","either","3","203","","","","","","","0","0","1","","0.2","0.5","0.5","0.5","0.5","0.8","0.2","0.6","0.2","","","","","","","","","","","","74","J","1","","true","0","full_practice",""
"","bandit","66","270618","0.0-34.0-12.0","29294253","wem/bandit_either_3","A107RJSS561Y7R","either","3","211","","","","","","","0","0","1","","0.2","0.5","0.5","0.5","0.5","0.8","0.2","0.6","0.2","","","","","","","","","","","","74","J","1","","true","0","full_practice",""
"","bandit","67","272240","0.0-34.0-13.0","29294253","wem/bandit_either_3","A107RJSS561Y7R","either","3","117","","","","","","","0","0","1","","0.2","0.5","0.5","0.5","0.5","0.8","0.2","0.6","0.2","","","","","","","","","","","","74","J","1","","true","0","full_practice",""
"","bandit","68","273765","0.0-34.0-14.0","29294253","wem/bandit_either_3","A107RJSS561Y7R","either","3","21","","","","","","","0","0","1","","0.2","0.5","0.5","0.5","0.5","0.8","0.2","0.6","0.2","","","","","","","","","","","","74","J","1","","true","0","full_practice",""
"","bandit","69","275386","0.0-34.0-15.0","29294253","wem/bandit_either_3","A107RJSS561Y7R","either","3","118","","","","","","","0","1","0","","0.6","0.5","0.5","0.5","0.5","0.8","0.2","0.6","0.2","","","","","","","","","","","","75","K","2","","true","0","full_practice",""
"","bandit","70","277019","0.0-34.0-16.0","29294253","wem/bandit_either_3","A107RJSS561Y7R","either","3","130","","","","","","","1","0","0","0.6","","0.5","0.5","0.5","0.5","","","","","0.8","0.2","0.6","0.2","","","","","","","","75","K","2","","true","0","full_practice",""
"","bandit","71","278601","0.0-34.0-17.0","29294253","wem/bandit_either_3","A107RJSS561Y7R","either","3","75","","","","","","","0","1","0","","0.6","0.5","0.5","0.5","0.5","0.8","0.2","0.6","0.2","","","","","","","","","","","","75","K","2","","true","0","full_practice",""
"","bandit","72","281031","0.0-34.0-18.0","29294253","wem/bandit_either_3","A107RJSS561Y7R","either","3","926","","","","","","","1","0","0","0.6","","0.5","0.5","0.5","0.5","","","","","0.8","0.2","0.6","0.2","","","","","","","","75","K","2","","true","0","full_practice",""
"","bandit","73","282717","0.0-34.0-19.0","29294253","wem/bandit_either_3","A107RJSS561Y7R","either","3","182","","","","","","","0","1","0","","0.6","0.5","0.5","0.5","0.5","0.8","0.2","0.6","0.2","","","","","","","","","","","","75","K","2","","true","0","full_practice",""
"","text","74","286402","0.0-35.0","29294253","wem/bandit_either_3","A107RJSS561Y7R","either","3","3679","","32","","","","","","","","","","","","","","","","","","","","","","","","","","","","","","","","","","","",""
"","text","75","298592","0.0-36.0","29294253","wem/bandit_either_3","A107RJSS561Y7R","either","3","11187","","32","","","","","","","","","","","","","","","","","","","","","","","","","","","","","","","","","","","",""
"","text","76","302300","0.0-37.0","29294253","wem/bandit_either_3","A107RJSS561Y7R","either","3","3705","","32","","","","","","","","","","","","","","","","","","","","","","","","","","","","","","","","","","","",""
"","text","77","303991","0.0-38.0","29294253","wem/bandit_either_3","A107RJSS561Y7R","either","3","1689","","32","","","","","","","","","","","","","","","","","","","","","","","","","","","","","","","","","","","",""
"","text","78","309020","0.0-39.0","29294253","wem/bandit_either_3","A107RJSS561Y7R","either","3","5028","","32","","","","","","","","","","","","","","","","","","","","","","","","","","","","","","","","","","","",""
"","text","79","311847","0.0-40.0","29294253","wem/bandit_either_3","A107RJSS561Y7R","either","3","2824","","32","","","","","","","","","","","","","","","","","","","","","","","","","","","","","","","","","","","",""
"","bandit","80","314282","0.0-41.0-0.0","29294253","wem/bandit_either_3","A107RJSS561Y7R","either","3","928","","","","","","","0","1","0","","0.4261870849","0.2","0.6","0.4","0.8","0.4261870849","0.1387034319","0.6473934842","0.6494041588","","","","","","","","","","","","72","H","0","img/none_selected.jpg","","1","main_expt",""
"","bandit","81","316250","0.0-42.0-0.0","29294253","wem/bandit_either_3","A107RJSS561Y7R","either","3","462","","","","","","","0","0","1","","0.3223101542","0.2","0.6","0.4","0.8","0.3223101542","0.2166337036","0.5221866694","0.7608835745","","","","","","","","","","","","72","H","0","img/none_selected.jpg","","2","main_expt",""
"","bandit","82","318033","0.0-43.0-0.0","29294253","wem/bandit_either_3","A107RJSS561Y7R","either","3","278","","","","","","","0","0","1","","0.2541217019","0.2","0.6","0.4","0.8","0.2541217019","0.3253899216","0.5356292978","0.7745567172","","","","","","","","","","","","72","H","0","img/none_selected.jpg","","3","main_expt",""
"","bandit","83","320358","0.0-44.0-0.0","29294253","wem/bandit_either_3","A107RJSS561Y7R","either","3","822","","","","","","","1","0","0","0.3003293127","","0.2","0.6","0.4","0.8","","","","","0.2272043942","0.3003293127","0.5154592071","0.8315703218","","","","","","","","74","J","1","","","4","main_expt",""
"","bandit","84","322118","0.0-45.0-0.0","29294253","wem/bandit_either_3","A107RJSS561Y7R","either","3","254","","","","","","","1","0","0","0.3839660868","","0.2","0.6","0.4","0.8","","","","","0.2967729676","0.3839660868","0.4578896037","0.8380789219","","","","","","","","74","J","1","","","5","main_expt",""
"","bandit","85","323784","0.0-46.0-0.0","29294253","wem/bandit_either_3","A107RJSS561Y7R","either","3","160","","","","","","","0","0","1","0.3833463511","","0.2","0.6","0.4","0.8","","","","","0.3211998527","0.3833463511","0.4825789634","0.8233568153","","","","","","","","74","J","1","","","6","main_expt",""
"","bandit","86","325553","0.0-47.0-0.0","29294253","wem/bandit_either_3","A107RJSS561Y7R","either","3","263","","","","","","","0","0","1","0.3173395401","","0.2","0.6","0.4","0.8","","","","","0.4190649117","0.3173395401","0.4013658759","0.8672840292","","","","","","","","74","J","1","","","7","main_expt",""
"","bandit","87","327128","0.0-48.0-0.0","29294253","wem/bandit_either_3","A107RJSS561Y7R","either","3","71","","","","","","","0","0","1","0.3721769634","","0.2","0.6","0.4","0.8","","","","","0.5253498774","0.3265190876","0.3721769634","0.7921451217","","","","","","","","75","K","2","","","8","main_expt",""
"","bandit","88","328861","0.0-49.0-0.0","29294253","wem/bandit_either_3","A107RJSS561Y7R","either","3","226","","","","","","","1","0","0","0.7826569337","","0.2","0.6","0.4","0.8","","","","","0.5552176016","0.4229840653","0.3934089605","0.7826569337","","","","","","","","76","L","3","","","9","main_expt",""
"","bandit","89","330582","0.0-50.0-0.0","29294253","wem/bandit_either_3","A107RJSS561Y7R","either","3","215","","","","","","","1","0","0","0.7150392401","","0.2","0.6","0.4","0.8","","","","","0.654745146","0.5107168356","0.3360942297","0.7150392401","","","","","","","","76","L","3","","","10","main_expt",""
"","bandit","90","332322","0.0-51.0-0.0","29294253","wem/bandit_either_3","A107RJSS561Y7R","either","3","235","","","","","","","0","0","1","0.6906605055","","0.2","0.6","0.4","0.8","","","","","0.6089063278","0.4383577931","0.4969537907","0.6906605055","","","","","","","","76","L","3","","","11","main_expt",""
"","bandit","91","334081","0.0-52.0-0.0","29294253","wem/bandit_either_3","A107RJSS561Y7R","either","3","253","","","","","","","0","0","1","","0.559155858","0.2","0.6","0.4","0.8","0.559155858","0.5487148549","0.4760264401","0.6725575113","","","","","","","","","","","","72","H","0","img/none_selected.jpg","","12","main_expt",""
"","bandit","92","335765","0.0-53.0-0.0","29294253","wem/bandit_either_3","A107RJSS561Y7R","either","3","175","","","","","","","1","0","0","0.7407599438","","0.2","0.6","0.4","0.8","","","","","0.6464491645","0.7407599438","0.4008761295","0.7404599176","","","","","","","","74","J","1","","","13","main_expt",""
"","bandit","93","337474","0.0-54.0-0.0","29294253","wem/bandit_either_3","A107RJSS561Y7R","either","3","204","","","","","","","1","0","0","0.8307131687","","0.2","0.6","0.4","0.8","","","","","0.6936958995","0.8307131687","0.358486362","0.6751607758","","","","","","","","74","J","1","","","14","main_expt",""
"","bandit","94","339236","0.0-55.0-0.0","29294253","wem/bandit_either_3","A107RJSS561Y7R","either","3","259","","","","","","","0","0","1","0.8114394421","","0.2","0.6","0.4","0.8","","","","","0.731471075","0.8114394421","0.395258373","0.6115440925","","","","","","","","74","J","1","","","15","main_expt",""
"","bandit","95","341437","0.0-56.0-0.0","29294253","wem/bandit_either_3","A107RJSS561Y7R","either","3","696","","","","","","","0","1","0","","0.4197334966","0.2","0.6","0.4","0.8","0.6487541525","0.8242397169","0.4197334966","0.7019001419","","","","","","","","","","","","75","K","2","","","16","main_expt",""
"","bandit","96","343202","0.0-57.0-0.0","29294253","wem/bandit_either_3","A107RJSS561Y7R","either","3","259","","","","","","","0","1","0","","0.2160816064","0.2","0.6","0.4","0.8","0.7654634758","0.8317633157","0.2160816064","0.7017998","","","","","","","","","","","","75","K","2","","","17","main_expt",""
"","bandit","97","344894","0.0-58.0-0.0","29294253","wem/bandit_either_3","A107RJSS561Y7R","either","3","187","","","","","","","0","0","1","","0.2058632209","0.2","0.6","0.4","0.8","0.7160830043","0.8158638682","0.2058632209","0.7672473748","","","","","","","","","","","","75","K","2","","","18","main_expt",""
"","bandit","98","346601","0.0-59.0-0.0","29294253","wem/bandit_either_3","A107RJSS561Y7R","either","3","202","","","","","","","1","0","0","0.7950219121","","0.2","0.6","0.4","0.8","","","","","0.6856656502","0.8291878069","0.2314559036","0.7950219121","","","","","","","","76","L","3","","","19","main_expt",""
"","bandit","99","348125","0.0-60.0-0.0","29294253","wem/bandit_either_3","A107RJSS561Y7R","either","3","17","","","","","","","1","0","0","0.8460513568","","0.2","0.6","0.4","0.8","","","","","0.6829400921","0.8665153398","0.1762066147","0.8460513568","","","","","","","","76","L","3","","","20","main_expt",""
"","bandit","100","349658","0.0-61.0-0.0","29294253","wem/bandit_either_3","A107RJSS561Y7R","either","3","26","","","","","","","0","1","0","","0.8571228725","0.2","0.6","0.4","0.8","0.6849203215","0.8181415858","0.150477598","0.8571228725","","","","","","","","","","","","76","L","3","","","21","main_expt",""
"","bandit","101","351169","0.0-62.0-0.0","29294253","wem/bandit_either_3","A107RJSS561Y7R","either","3","6","","","","","","","0","1","0","","0.8498483749","0.2","0.6","0.4","0.8","0.6832197831","0.7731960963","0.1957635407","0.8498483749","","","","","","","","","","","","76","L","3","","","22","main_expt",""
"","bandit","102","353406","0.0-63.0-0.0","29294253","wem/bandit_either_3","A107RJSS561Y7R","either","3","731","","","","","","","1","0","0","0.887495535","","0.2","0.6","0.4","0.8","","","","","0.6103957523","0.8004626553","0.2193187944","0.887495535","","","","","","","","76","L","3","","","23","main_expt",""
"","bandit","103","355078","0.0-64.0-0.0","29294253","wem/bandit_either_3","A107RJSS561Y7R","either","3","168","","","","","","","1","0","0","0.918231735","","0.2","0.6","0.4","0.8","","","","","0.5485819736","0.7941911222","0.1836328706","0.918231735","","","","","","","","76","L","3","","","24","main_expt",""
"","bandit","104","356761","0.0-65.0-0.0","29294253","wem/bandit_either_3","A107RJSS561Y7R","either","3","179","","","","","","","1","0","0","0.9111146318","","0.2","0.6","0.4","0.8","","","","","0.5852935809","0.7100633829","0.1410441375","0.9111146318","","","","","","","","76","L","3","","","25","main_expt",""
"","bandit","105","358436","0.0-66.0-0.0","29294253","wem/bandit_either_3","A107RJSS561Y7R","either","3","169","","","","","","","1","0","0","0.9190640316","","0.2","0.6","0.4","0.8","","","","","0.6097892937","0.6872129375","0.1082593399","0.9190640316","","","","","","","","76","L","3","","","26","main_expt",""
"","bandit","106","360009","0.0-67.0-0.0","29294253","wem/bandit_either_3","A107RJSS561Y7R","either","3","70","","","","","","","1","0","0","0.9372614837","","0.2","0.6","0.4","0.8","","","","","0.6653335402","0.6798864795","0.1042047793","0.9372614837","","","","","","","","76","L","3","","","27","main_expt",""
"","bandit","107","361526","0.0-68.0-0.0","29294253","wem/bandit_either_3","A107RJSS561Y7R","either","3","11","","","","","","","0","1","0","","0.9269484959","0.2","0.6","0.4","0.8","0.6850825106","0.6812343762","0.1153509117","0.9269484959","","","","","","","","","","","","76","L","3","","","28","main_expt",""
"","bandit","108","363119","0.0-69.0-0.0","29294253","wem/bandit_either_3","A107RJSS561Y7R","either","3","88","","","","","","","0","1","0","","0.9376772981","0.2","0.6","0.4","0.8","0.7309016742","0.5305157647","0.1601566248","0.9376772981","","","","","","","","","","","","76","L","3","","","29","main_expt",""
"","bandit","109","364642","0.0-70.0-0.0","29294253","wem/bandit_either_3","A107RJSS561Y7R","either","3","18","","","","","","","1","0","0","0.8795505253","","0.2","0.6","0.4","0.8","","","","","0.8141980113","0.4713174284","0.09548927903","0.8795505253","","","","","","","","76","L","3","","","30","main_expt",""
"","bandit","110","366243","0.0-71.0-0.0","29294253","wem/bandit_either_3","A107RJSS561Y7R","either","3","97","","","","","","","1","0","0","0.8605863748","","0.2","0.6","0.4","0.8","","","","","0.8926711601","0.2938490869","0.09272353297","0.8605863748","","","","","","","","76","L","3","","","31","main_expt",""
"","bandit","111","368523","0.0-72.0-0.0","29294253","wem/bandit_either_3","A107RJSS561Y7R","either","3","775","","","","","","","1","0","0","0.757600507","","0.2","0.6","0.4","0.8","","","","","0.8397563013","0.3005160425","0.09547929832","0.757600507","","","","","","","","76","L","3","","","32","main_expt",""
"","bandit","112","370280","0.0-73.0-0.0","29294253","wem/bandit_either_3","A107RJSS561Y7R","either","3","253","","","","","","","1","0","0","0.7257103923","","0.2","0.6","0.4","0.8","","","","","0.8251988787","0.3661211491","0.08683876107","0.7257103923","","","","","","","","76","L","3","","","33","main_expt",""
"","bandit","113","372688","0.0-74.0-0.0","29294253","wem/bandit_either_3","A107RJSS561Y7R","either","3","899","","","","","","","0","0","1","","0.5786815464","0.2","0.6","0.4","0.8","0.7303528712","0.4614725573","0.08117088791","0.5786815464","","","","","","","","","","","","76","L","3","","","34","main_expt",""
"","bandit","114","374573","0.0-75.0-0.0","29294253","wem/bandit_either_3","A107RJSS561Y7R","either","3","380","","","","","","","0","0","1","0.4812266686","","0.2","0.6","0.4","0.8","","","","","0.8093673003","0.4597324626","0.09593582107","0.4812266686","","","","","","","","76","L","3","","","35","main_expt",""
"","bandit","115","376111","0.0-76.0-0.0","29294253","wem/bandit_either_3","A107RJSS561Y7R","either","3","34","","","","","","","0","1","0","","0.79718131","0.2","0.6","0.4","0.8","0.79718131","0.4294742096","0.1392988708","0.4459447539","","","","","","","","","","","","72","H","0","img/none_selected.jpg","","36","main_expt",""
"","bandit","116","377840","0.0-77.0-0.0","29294253","wem/bandit_either_3","A107RJSS561Y7R","either","3","224","","","","","","","1","0","0","0.8157762275","","0.2","0.6","0.4","0.8","","","","","0.8157762275","0.5301274199","0.07673209605","0.5737218407","","","","","","","","72","H","0","img/none_selected.jpg","","37","main_expt",""
"","bandit","117","379431","0.0-78.0-0.0","29294253","wem/bandit_either_3","A107RJSS561Y7R","either","3","87","","","","","","","0","1","0","","0.7941499978","0.2","0.6","0.4","0.8","0.7941499978","0.5746889943","0.1078843958","0.6008421093","","","","","","","","","","","","72","H","0","img/none_selected.jpg","","38","main_expt",""
"","bandit","118","381820","0.0-79.0-0.0","29294253","wem/bandit_either_3","A107RJSS561Y7R","either","3","884","","","","","","","0","0","1","","0.7352357368","0.2","0.6","0.4","0.8","0.7352357368","0.6621100331","0.09731722171","0.6076920036","","","","","","","","","","","","72","H","0","img/none_selected.jpg","","39","main_expt",""
"","bandit","119","383565","0.0-80.0-0.0","29294253","wem/bandit_either_3","A107RJSS561Y7R","either","3","237","","","","","","","1","0","0","0.6794361822","","0.2","0.6","0.4","0.8","","","","","0.7920886563","0.6794361822","0.2123509389","0.6616622706","","","","","","","","74","J","1","","","40","main_expt",""
"","bandit","120","385328","0.0-81.0-0.0","29294253","wem/bandit_either_3","A107RJSS561Y7R","either","3","257","","","","","","","0","0","1","0.7140523024","","0.2","0.6","0.4","0.8","","","","","0.8780543775","0.7140523024","0.1265365425","0.6945341382","","","","","","","","74","J","1","","","41","main_expt",""
"","bandit","121","387038","0.0-82.0-0.0","29294253","wem/bandit_either_3","A107RJSS561Y7R","either","3","205","","","","","","","0","0","1","","0.166138795","0.2","0.6","0.4","0.8","0.9167256642","0.6669732994","0.166138795","0.6833149102","","","","","","","","","","","","75","K","2","","","42","main_expt",""
"","bandit","122","388645","0.0-83.0-0.0","29294253","wem/bandit_either_3","A107RJSS561Y7R","either","3","101","","","","","","","0","0","1","","0.7094953576","0.2","0.6","0.4","0.8","0.9407985187","0.5435093165","0.1782339186","0.7094953576","","","","","","","","","","","","76","L","3","","","43","main_expt",""
"","bandit","123","390286","0.0-84.0-0.0","29294253","wem/bandit_either_3","A107RJSS561Y7R","either","3","135","","","","","","","1","0","0","0.9000978766","","0.2","0.6","0.4","0.8","","","","","0.9000978766","0.6002661395","0.1342945815","0.7519468023","","","","","","","","72","H","0","img/none_selected.jpg","","44","main_expt",""
"","bandit","124","391923","0.0-85.0-0.0","29294253","wem/bandit_either_3","A107RJSS561Y7R","either","3","132","","","","","","","0","1","0","","0.9190036262","0.2","0.6","0.4","0.8","0.9190036262","0.5948203474","0.09086288848","0.7673203249","","","","","","","","","","","","72","H","0","img/none_selected.jpg","","45","main_expt",""
"","bandit","125","393518","0.0-86.0-0.0","29294253","wem/bandit_either_3","A107RJSS561Y7R","either","3","89","","","","","","","0","1","0","","0.8865788656","0.2","0.6","0.4","0.8","0.8865788656","0.6230250108","0.06420934006","0.722836051","","","","","","","","","","","","72","H","0","img/none_selected.jpg","","46","main_expt",""
"","bandit","126","395861","0.0-87.0-0.0","29294253","wem/bandit_either_3","A107RJSS561Y7R","either","3","838","","","","","","","0","1","0","","0.8207935484","0.2","0.6","0.4","0.8","0.8207935484","0.7239235909","0.02332738683","0.7392487755","","","","","","","","","","","","72","H","0","img/none_selected.jpg","","47","main_expt",""
"","bandit","127","397655","0.0-88.0-0.0","29294253","wem/bandit_either_3","A107RJSS561Y7R","either","3","288","","","","","","","0","1","0","","0.8170742187","0.2","0.6","0.4","0.8","0.8170742187","0.7715310514","0.03517565614","0.7551111279","","","","","","","","","","","","72","H","0","img/none_selected.jpg","","48","main_expt",""
"","bandit","128","399274","0.0-89.0-0.0","29294253","wem/bandit_either_3","A107RJSS561Y7R","either","3","113","","","","","","","0","0","1","","0.7874830355","0.2","0.6","0.4","0.8","0.7874830355","0.822179592","0.04466115719","0.6917772817","","","","","","","","","","","","72","H","0","img/none_selected.jpg","","49","main_expt",""
"","bandit","129","400892","0.0-90.0-0.0","29294253","wem/bandit_either_3","A107RJSS561Y7R","either","3","114","","","","","","","0","1","0","","0.8108951243","0.2","0.6","0.4","0.8","0.8279472521","0.8108951243","0.05053383529","0.6689959301","","","","","","","","","","","","74","J","1","","","50","main_expt",""
"","bandit","130","402631","0.0-91.0-0.0","29294253","wem/bandit_either_3","A107RJSS561Y7R","either","3","233","","","","","","","0","0","1","0.7649170446","","0.2","0.6","0.4","0.8","","","","","0.8426817256","0.7649170446","0.04681033125","0.6020608281","","","","","","","","74","J","1","","","51","main_expt",""
"","bandit","131","404166","0.0-92.0-0.0","29294253","wem/bandit_either_3","A107RJSS561Y7R","either","3","29","","","","","","","0","0","1","0.09308222201","","0.2","0.6","0.4","0.8","","","","","0.8377647656","0.8169848275","0.09308222201","0.6583182673","","","","","","","","75","K","2","","","52","main_expt",""
"","bandit","132","405729","0.0-93.0-0.0","29294253","wem/bandit_either_3","A107RJSS561Y7R","either","3","57","","","","","","","0","1","0","","0.5419436754","0.2","0.6","0.4","0.8","0.8241398149","0.8843577791","0.1397702629","0.5419436754","","","","","","","","","","","","76","L","3","","","53","main_expt",""
"","bandit","133","407297","0.0-94.0-0.0","29294253","wem/bandit_either_3","A107RJSS561Y7R","either","3","63","","","","","","","0","0","1","","0.5717614462","0.2","0.6","0.4","0.8","0.7289352116","0.8854515068","0.110287685","0.5717614462","","","","","","","","","","","","76","L","3","","","54","main_expt",""
"","bandit","134","408865","0.0-95.0-0.0","29294253","wem/bandit_either_3","A107RJSS561Y7R","either","3","62","","","","","","","0","0","1","","0.5895019519","0.2","0.6","0.4","0.8","0.5895019519","0.8884574585","0.1843384007","0.5497935615","","","","","","","","","","","","72","H","0","img/none_selected.jpg","","55","main_expt",""
"","bandit","135","410428","0.0-96.0-0.0","29294253","wem/bandit_either_3","A107RJSS561Y7R","either","3","58","","","","","","","1","0","0","0.8840911236","","0.2","0.6","0.4","0.8","","","","","0.4622464331","0.8840911236","0.2056752237","0.4902645195","","","","","","","","74","J","1","","","56","main_expt",""
"","bandit","136","412143","0.0-97.0-0.0","29294253","wem/bandit_either_3","A107RJSS561Y7R","either","3","209","","","","","","","1","0","0","0.864283103","","0.2","0.6","0.4","0.8","","","","","0.490024734","0.864283103","0.3410726922","0.5258365243","","","","","","","","74","J","1","","","57","main_expt",""
"","bandit","137","413787","0.0-98.0-0.0","29294253","wem/bandit_either_3","A107RJSS561Y7R","either","3","137","","","","","","","1","0","0","0.7377821737","","0.2","0.6","0.4","0.8","","","","","0.6182628796","0.7377821737","0.3873695161","0.6097664349","","","","","","","","74","J","1","","","58","main_expt",""
"","bandit","138","415411","0.0-99.0-0.0","29294253","wem/bandit_either_3","A107RJSS561Y7R","either","3","119","","","","","","","1","0","0","0.7469541206","","0.2","0.6","0.4","0.8","","","","","0.6976829826","0.7469541206","0.3281321534","0.6016711108","","","","","","","","74","J","1","","","59","main_expt",""
"","bandit","139","417030","0.0-100.0-0.0","29294253","wem/bandit_either_3","A107RJSS561Y7R","either","3","113","","","","","","","1","0","0","0.8019510571","","0.2","0.6","0.4","0.8","","","","","0.675433977","0.8019510571","0.2380439254","0.5544917648","","","","","","","","74","J","1","","","60","main_expt",""
"","bandit","140","418583","0.0-101.0-0.0","29294253","wem/bandit_either_3","A107RJSS561Y7R","either","3","49","","","","","","","0","1","0","","0.8943887388","0.2","0.6","0.4","0.8","0.7206550838","0.8943887388","0.2228222105","0.6842720067","","","","","","","","","","","","74","J","1","","","61","main_expt",""
"","bandit","141","420224","0.0-102.0-0.0","29294253","wem/bandit_either_3","A107RJSS561Y7R","either","3","131","","","","","","","1","0","0","0.8942973556","","0.2","0.6","0.4","0.8","","","","","0.7184677658","0.8942973556","0.2489253665","0.6824345281","","","","","","","","74","J","1","","","62","main_expt",""
"","bandit","142","421776","0.0-103.0-0.0","29294253","wem/bandit_either_3","A107RJSS561Y7R","either","3","47","","","","","","","1","0","0","0.8829609874","","0.2","0.6","0.4","0.8","","","","","0.6785259816","0.8829609874","0.2298237489","0.7321168219","","","","","","","","74","J","1","","","63","main_expt",""
"","bandit","143","423348","0.0-104.0-0.0","29294253","wem/bandit_either_3","A107RJSS561Y7R","either","3","65","","","","","","","1","0","0","0.8175344892","","0.2","0.6","0.4","0.8","","","","","0.6349383059","0.8175344892","0.1849055857","0.8123013145","","","","","","","","74","J","1","","","64","main_expt",""
"","bandit","144","424881","0.0-105.0-0.0","29294253","wem/bandit_either_3","A107RJSS561Y7R","either","3","28","","","","","","","1","0","0","0.7812905168","","0.2","0.6","0.4","0.8","","","","","0.629769122","0.7812905168","0.2285715909","0.8236121316","","","","","","","","74","J","1","","","65","main_expt",""
"","bandit","145","426394","0.0-106.0-0.0","29294253","wem/bandit_either_3","A107RJSS561Y7R","either","3","9","","","","","","","0","1","0","","0.7848445355","0.2","0.6","0.4","0.8","0.7158950816","0.7848445355","0.2477643906","0.8270077233","","","","","","","","","","","","74","J","1","","","66","main_expt",""
"","bandit","146","428731","0.0-107.0-0.0","29294253","wem/bandit_either_3","A107RJSS561Y7R","either","3","832","","","","","","","1","0","0","0.763143195","","0.2","0.6","0.4","0.8","","","","","0.6309271871","0.763143195","0.1801078726","0.7601471472","","","","","","","","74","J","1","","","67","main_expt",""
"","bandit","147","430408","0.0-108.0-0.0","29294253","wem/bandit_either_3","A107RJSS561Y7R","either","3","168","","","","","","","0","1","0","","0.7966751536","0.2","0.6","0.4","0.8","0.617221228","0.7966751536","0.08479184886","0.7567750057","","","","","","","","","","","","74","J","1","","","68","main_expt",""
"","bandit","148","432010","0.0-109.0-0.0","29294253","wem/bandit_either_3","A107RJSS561Y7R","either","3","96","","","","","","","0","1","0","","0.8534335227","0.2","0.6","0.4","0.8","0.6235929763","0.8534335227","0.06982522498","0.6871277649","","","","","","","","","","","","74","J","1","","","69","main_expt",""
"","bandit","149","433663","0.0-110.0-0.0","29294253","wem/bandit_either_3","A107RJSS561Y7R","either","3","148","","","","","","","0","0","1","0.8915498471","","0.2","0.6","0.4","0.8","","","","","0.5543620559","0.8915498471","0.05029268469","0.773099018","","","","","","","","74","J","1","","","70","main_expt",""
"","bandit","150","435200","0.0-111.0-0.0","29294253","wem/bandit_either_3","A107RJSS561Y7R","either","3","29","","","","","","","0","0","1","0.06413839938","","0.2","0.6","0.4","0.8","","","","","0.5333999135","0.8736989015","0.06413839938","0.7412476729","","","","","","","","75","K","2","","","71","main_expt",""
"","bandit","151","436767","0.0-112.0-0.0","29294253","wem/bandit_either_3","A107RJSS561Y7R","either","3","63","","","","","","","1","0","0","0.8080704968","","0.2","0.6","0.4","0.8","","","","","0.5905126671","0.8837551658","0.05155778705","0.8080704968","","","","","","","","76","L","3","","","72","main_expt",""
"","bandit","152","438499","0.0-113.0-0.0","29294253","wem/bandit_either_3","A107RJSS561Y7R","either","3","225","","","","","","","1","0","0","0.8270016227","","0.2","0.6","0.4","0.8","","","","","0.6925119087","0.8495494246","0.0232747386","0.8270016227","","","","","","","","76","L","3","","","73","main_expt",""
"","bandit","153","440105","0.0-114.0-0.0","29294253","wem/bandit_either_3","A107RJSS561Y7R","either","3","99","","","","","","","1","0","0","0.7872017979","","0.2","0.6","0.4","0.8","","","","","0.7134745341","0.9127472651","0.04751547773","0.7872017979","","","","","","","","76","L","3","","","74","main_expt",""
"","bandit","154","441881","0.0-115.0-0.0","29294253","wem/bandit_either_3","A107RJSS561Y7R","either","3","268","","","","","","","1","0","0","0.6167225576","","0.2","0.6","0.4","0.8","","","","","0.8065440948","0.9199060817","0.05282531612","0.6167225576","","","","","","","","76","L","3","","","75","main_expt",""
"","bandit","155","444191","0.0-116.0-0.0","29294253","wem/bandit_either_3","A107RJSS561Y7R","either","3","805","","","","","","","1","0","0","0.637182095","","0.2","0.6","0.4","0.8","","","","","0.7849172319","0.8691294168","0.08738729654","0.637182095","","","","","","","","76","L","3","","","76","main_expt",""
"","bandit","156","445777","0.0-117.0-0.0","29294253","wem/bandit_either_3","A107RJSS561Y7R","either","3","80","","","","","","","0","0","1","0.7169911294","","0.2","0.6","0.4","0.8","","","","","0.7818962729","0.9111329321","0.08851312664","0.7169911294","","","","","","","","76","L","3","","","77","main_expt",""
"","bandit","157","447461","0.0-118.0-0.0","29294253","wem/bandit_either_3","A107RJSS561Y7R","either","3","177","","","","","","","0","0","1","","0.7002933386","0.2","0.6","0.4","0.8","0.7002933386","0.9286966754","0.145228539","0.7446448061","","","","","","","","","","","","72","H","0","img/none_selected.jpg","","78","main_expt",""
"","bandit","158","449102","0.0-119.0-0.0","29294253","wem/bandit_either_3","A107RJSS561Y7R","either","3","136","","","","","","","1","0","0","0.9616021792","","0.2","0.6","0.4","0.8","","","","","0.6510109529","0.9616021792","0.1669860915","0.8152221547","","","","","","","","74","J","1","","","79","main_expt",""
"","bandit","159","450689","0.0-120.0-0.0","29294253","wem/bandit_either_3","A107RJSS561Y7R","either","3","78","","","","","","","1","0","0","0.950571795","","0.2","0.6","0.4","0.8","","","","","0.6765614865","0.950571795","0.1922913003","0.810351938","","","","","","","","74","J","1","","","80","main_expt",""
"","bandit","160","453183","0.0-121.0-0.0","29294253","wem/bandit_either_3","A107RJSS561Y7R","either","3","988","","","","","","","1","0","0","0.9331160128","","0.2","0.6","0.4","0.8","","","","","0.5908869344","0.9331160128","0.2407870914","0.8895110989","","","","","","","","74","J","1","","","81","main_expt",""
"","bandit","161","454803","0.0-122.0-0.0","29294253","wem/bandit_either_3","A107RJSS561Y7R","either","3","114","","","","","","","1","0","0","0.9465986336","","0.2","0.6","0.4","0.8","","","","","0.5267531711","0.9465986336","0.3077898034","0.9046816681","","","","","","","","74","J","1","","","82","main_expt",""
"","bandit","162","457002","0.0-123.0-0.0","29294253","wem/bandit_either_3","A107RJSS561Y7R","either","3","693","","","","","","","1","0","0","0.9371159138","","0.2","0.6","0.4","0.8","","","","","0.6168373964","0.9371159138","0.2337579628","0.8465278631","","","","","","","","74","J","1","","","83","main_expt",""
"","bandit","163","458660","0.0-124.0-0.0","29294253","wem/bandit_either_3","A107RJSS561Y7R","either","3","149","","","","","","","0","1","0","","0.5733990252","0.2","0.6","0.4","0.8","0.5733990252","0.8998840018","0.2781329454","0.7584930438","","","","","","","","","","","","72","H","0","img/none_selected.jpg","","84","main_expt",""
"","bandit","164","460426","0.0-125.0-0.0","29294253","wem/bandit_either_3","A107RJSS561Y7R","either","3","259","","","","","","","0","1","0","","0.9102188985","0.2","0.6","0.4","0.8","0.4719695616","0.9102188985","0.3013149798","0.7727946294","","","","","","","","","","","","74","J","1","","","85","main_expt",""
"","bandit","165","462021","0.0-126.0-0.0","29294253","wem/bandit_either_3","A107RJSS561Y7R","either","3","89","","","","","","","0","1","0","","0.9000055418","0.2","0.6","0.4","0.8","0.6941651786","0.9000055418","0.3231836659","0.8216594778","","","","","","","","","","","","74","J","1","","","86","main_expt",""
"","bandit","166","463685","0.0-127.0-0.0","29294253","wem/bandit_either_3","A107RJSS561Y7R","either","3","156","","","","","","","0","1","0","","0.8563468124","0.2","0.6","0.4","0.8","0.5408952125","0.8563468124","0.3986379136","0.7833884788","","","","","","","","","","","","74","J","1","","","87","main_expt",""
"","bandit","167","465328","0.0-128.0-0.0","29294253","wem/bandit_either_3","A107RJSS561Y7R","either","3","132","","","","","","","1","0","0","0.7349543302","","0.2","0.6","0.4","0.8","","","","","0.5438891422","0.7349543302","0.4230151841","0.7804426693","","","","","","","","74","J","1","","","88","main_expt",""
"","bandit","168","467506","0.0-129.0-0.0","29294253","wem/bandit_either_3","A107RJSS561Y7R","either","3","671","","","","","","","1","0","0","0.7907967515","","0.2","0.6","0.4","0.8","","","","","0.4294971294","0.7907967515","0.3761858397","0.7930928848","","","","","","","","74","J","1","","","89","main_expt",""
"","bandit","169","469250","0.0-130.0-0.0","29294253","wem/bandit_either_3","A107RJSS561Y7R","either","3","236","","","","","","","1","0","0","0.7883246469","","0.2","0.6","0.4","0.8","","","","","0.4928337868","0.7883246469","0.4799086841","0.7683039237","","","","","","","","74","J","1","","","90","main_expt",""
"","bandit","170","470846","0.0-131.0-0.0","29294253","wem/bandit_either_3","A107RJSS561Y7R","either","3","91","","","","","","","1","0","0","0.8389096604","","0.2","0.6","0.4","0.8","","","","","0.5655090935","0.8389096604","0.4558425901","0.8072091422","","","","","","","","74","J","1","","","91","main_expt",""
"","bandit","171","473310","0.0-132.0-0.0","29294253","wem/bandit_either_3","A107RJSS561Y7R","either","3","957","","","","","","","1","0","0","0.8064187158","","0.2","0.6","0.4","0.8","","","","","0.6154818033","0.8064187158","0.3781515597","0.7791444337","","","","","","","","74","J","1","","","92","main_expt",""
"","bandit","172","475078","0.0-133.0-0.0","29294253","wem/bandit_either_3","A107RJSS561Y7R","either","3","263","","","","","","","0","0","1","","0.7542368763","0.2","0.6","0.4","0.8","0.7381217307","0.7542368763","0.2858753042","0.8498372391","","","","","","","","","","","","74","J","1","","","93","main_expt",""
"","bandit","173","476907","0.0-134.0-0.0","29294253","wem/bandit_either_3","A107RJSS561Y7R","either","3","322","","","","","","","0","0","1","0.3914428564","","0.2","0.6","0.4","0.8","","","","","0.7776388333","0.6932487021","0.3914428564","0.8440610374","","","","","","","","75","K","2","","","94","main_expt",""
"","bandit","174","478438","0.0-135.0-0.0","29294253","wem/bandit_either_3","A107RJSS561Y7R","either","3","23","","","","","","","0","1","0","","0.8092418145","0.2","0.6","0.4","0.8","0.8299152283","0.6706070003","0.3800018616","0.8092418145","","","","","","","","","","","","76","L","3","","","95","main_expt",""
"","bandit","175","480634","0.0-136.0-0.0","29294253","wem/bandit_either_3","A107RJSS561Y7R","either","3","686","","","","","","","0","1","0","","0.8655172998","0.2","0.6","0.4","0.8","0.7697811485","0.6670251336","0.3078584031","0.8655172998","","","","","","","","","","","","76","L","3","","","96","main_expt",""
"","bandit","176","482737","0.0-137.0-0.0","29294253","wem/bandit_either_3","A107RJSS561Y7R","either","3","595","","","","","","","1","0","0","0.8735151232","","0.2","0.6","0.4","0.8","","","","","0.7487724405","0.7023758817","0.218486712","0.8735151232","","","","","","","","76","L","3","","","97","main_expt",""
"","bandit","177","484318","0.0-138.0-0.0","29294253","wem/bandit_either_3","A107RJSS561Y7R","either","3","75","","","","","","","0","1","0","","0.84409386","0.2","0.6","0.4","0.8","0.7450583294","0.7036518389","0.2037628256","0.84409386","","","","","","","","","","","","76","L","3","","","98","main_expt",""
"","bandit","178","485852","0.0-139.0-0.0","29294253","wem/bandit_either_3","A107RJSS561Y7R","either","3","28","","","","","","","1","0","0","0.8089648913","","0.2","0.6","0.4","0.8","","","","","0.7227120129","0.8401346726","0.2400196326","0.8089648913","","","","","","","","76","L","3","","","99","main_expt",""
"","bandit","179","487418","0.0-140.0-0.0","29294253","wem/bandit_either_3","A107RJSS561Y7R","either","3","59","","","","","","","1","0","0","0.7259557377","","0.2","0.6","0.4","0.8","","","","","0.5872141049","0.8640782416","0.3298222115","0.7259557377","","","","","","","","76","L","3","","","100","main_expt",""
"","bandit","180","489094","0.0-141.0-0.0","29294253","wem/bandit_either_3","A107RJSS561Y7R","either","3","169","","","","","","","1","0","0","0.6332869741","","0.2","0.6","0.4","0.8","","","","","0.6432213136","0.8232172207","0.3108047587","0.6332869741","","","","","","","","76","L","3","","","101","main_expt",""
"","bandit","181","490696","0.0-142.0-0.0","29294253","wem/bandit_either_3","A107RJSS561Y7R","either","3","97","","","","","","","0","1","0","","0.659443461","0.2","0.6","0.4","0.8","0.6009476408","0.8451901448","0.2869381514","0.659443461","","","","","","","","","","","","76","L","3","","","102","main_expt",""
"","bandit","182","492495","0.0-143.0-0.0","29294253","wem/bandit_either_3","A107RJSS561Y7R","either","3","292","","","","","","","0","0","1","","0.5959971703","0.2","0.6","0.4","0.8","0.6120105745","0.8792283932","0.246485708","0.5959971703","","","","","","","","","","","","76","L","3","","","103","main_expt",""
"","bandit","183","494129","0.0-144.0-0.0","29294253","wem/bandit_either_3","A107RJSS561Y7R","either","3","126","","","","","","","0","1","0","","0.6821098495","0.2","0.6","0.4","0.8","0.6821098495","0.8887181638","0.2175667678","0.5643630141","","","","","","","","","","","","72","H","0","img/none_selected.jpg","","104","main_expt",""
"","bandit","184","495780","0.0-145.0-0.0","29294253","wem/bandit_either_3","A107RJSS561Y7R","either","3","145","","","","","","","0","0","1","","0.7228510016","0.2","0.6","0.4","0.8","0.7228510016","0.8013578166","0.2645808036","0.5489079514","","","","","","","","","","","","72","H","0","img/none_selected.jpg","","105","main_expt",""
"","bandit","185","497482","0.0-146.0-0.0","29294253","wem/bandit_either_3","A107RJSS561Y7R","either","3","196","","","","","","","1","0","0","0.7307006529","","0.2","0.6","0.4","0.8","","","","","0.6639212405","0.7307006529","0.2652424516","0.4336033326","","","","","","","","74","J","1","","","106","main_expt",""
"","bandit","186","499178","0.0-147.0-0.0","29294253","wem/bandit_either_3","A107RJSS561Y7R","either","3","189","","","","","","","0","1","0","","0.7519500851","0.2","0.6","0.4","0.8","0.6237034742","0.7519500851","0.2481661544","0.4779201531","","","","","","","","","","","","74","J","1","","","107","main_expt",""
"","bandit","187","500773","0.0-148.0-0.0","29294253","wem/bandit_either_3","A107RJSS561Y7R","either","3","89","","","","","","","0","0","1","0.7457577851","","0.2","0.6","0.4","0.8","","","","","0.5847293191","0.7457577851","0.2361720859","0.5075294874","","","","","","","","74","J","1","","","108","main_expt",""
"","bandit","188","502414","0.0-149.0-0.0","29294253","wem/bandit_either_3","A107RJSS561Y7R","either","3","131","","","","","","","1","0","0","0.2799679389","","0.2","0.6","0.4","0.8","","","","","0.6260859175","0.77583868","0.2799679389","0.522842385","","","","","","","","75","K","2","","","109","main_expt",""
"","bandit","189","503975","0.0-150.0-0.0","29294253","wem/bandit_either_3","A107RJSS561Y7R","either","3","54","","","","","","","0","1","0","","0.3333098602","0.2","0.6","0.4","0.8","0.4788227383","0.7520827962","0.3333098602","0.419893696","","","","","","","","","","","","75","K","2","","","110","main_expt",""
"","bandit","190","505629","0.0-151.0-0.0","29294253","wem/bandit_either_3","A107RJSS561Y7R","either","3","144","","","","","","","0","0","1","0.3669732535","","0.2","0.6","0.4","0.8","","","","","0.6019778282","0.6512809768","0.3669732535","0.431092028","","","","","","","","75","K","2","","","111","main_expt",""
"","bandit","191","507330","0.0-152.0-0.0","29294253","wem/bandit_either_3","A107RJSS561Y7R","either","3","195","","","","","","","0","0","1","0.3590071368","","0.2","0.6","0.4","0.8","","","","","0.546445977","0.5891937939","0.389765336","0.3590071368","","","","","","","","76","L","3","","","112","main_expt",""
"","bandit","192","508900","0.0-153.0-0.0","29294253","wem/bandit_either_3","A107RJSS561Y7R","either","3","63","","","","","","","0","0","1","","0.6256092846","0.2","0.6","0.4","0.8","0.6256092846","0.6490525038","0.3191506652","0.4498419114","","","","","","","","","","","","72","H","0","img/none_selected.jpg","","113","main_expt",""
"","bandit","193","510530","0.0-154.0-0.0","29294253","wem/bandit_either_3","A107RJSS561Y7R","either","3","123","","","","","","","0","0","1","0.6283680234","","0.2","0.6","0.4","0.8","","","","","0.6577617598","0.6283680234","0.2090321438","0.4829831469","","","","","","","","74","J","1","","","114","main_expt",""
"","bandit","194","512136","0.0-155.0-0.0","29294253","wem/bandit_either_3","A107RJSS561Y7R","either","3","99","","","","","","","0","0","1","0.2094439124","","0.2","0.6","0.4","0.8","","","","","0.7140476354","0.6064224059","0.2094439124","0.4846695964","","","","","","","","75","K","2","","","115","main_expt",""
"","bandit","195","513676","0.0-156.0-0.0","29294253","wem/bandit_either_3","A107RJSS561Y7R","either","3","33","","","","","","","0","0","1","0.5396909338","","0.2","0.6","0.4","0.8","","","","","0.6589976567","0.545813367","0.2695181069","0.5396909338","","","","","","","","76","L","3","","","116","main_expt",""
"","bandit","196","515197","0.0-157.0-0.0","29294253","wem/bandit_either_3","A107RJSS561Y7R","either","3","13","","","","","","","0","1","0","","0.6937703341","0.2","0.6","0.4","0.8","0.6937703341","0.5179373022","0.3402036285","0.5378282835","","","","","","","","","","","","72","H","0","img/none_selected.jpg","","117","main_expt",""
"","bandit","197","516838","0.0-158.0-0.0","29294253","wem/bandit_either_3","A107RJSS561Y7R","either","3","135","","","","","","","0","1","0","","0.77114399","0.2","0.6","0.4","0.8","0.77114399","0.4014157923","0.3101634078","0.5729988564","","","","","","","","","","","","72","H","0","img/none_selected.jpg","","118","main_expt",""
"","bandit","198","518397","0.0-159.0-0.0","29294253","wem/bandit_either_3","A107RJSS561Y7R","either","3","50","","","","","","","0","0","1","","0.710000291","0.2","0.6","0.4","0.8","0.710000291","0.4360264599","0.3242193616","0.5630251564","","","","","","","","","","","","72","H","0","img/none_selected.jpg","","119","main_expt",""
"","bandit","199","519910","0.0-160.0-0.0","29294253","wem/bandit_either_3","A107RJSS561Y7R","either","3","6","","","","","","","0","1","0","","0.3297853269","0.2","0.6","0.4","0.8","0.6767982245","0.3297853269","0.3334277272","0.6482115929","","","","","","","","","","","","74","J","1","","","120","main_expt",""
"","bandit","200","521569","0.0-161.0-0.0","29294253","wem/bandit_either_3","A107RJSS561Y7R","either","3","152","","","","","","","0","0","1","","0.3767442019","0.2","0.6","0.4","0.8","0.7360115258","0.3767442019","0.4066521311","0.5688505083","","","","","","","","","","","","74","J","1","","","121","main_expt",""
"","bandit","201","523188","0.0-162.0-0.0","29294253","wem/bandit_either_3","A107RJSS561Y7R","either","3","113","","","","","","","1","0","0","0.5193034213","","0.2","0.6","0.4","0.8","","","","","0.7258716992","0.3589515546","0.5193034213","0.5349597204","","","","","","","","75","K","2","","","122","main_expt",""
"","bandit","202","525080","0.0-163.0-0.0","29294253","wem/bandit_either_3","A107RJSS561Y7R","either","3","385","","","","","","","0","0","1","","0.5594962391","0.2","0.6","0.4","0.8","0.7848203729","0.3461890545","0.5594962391","0.412887176","","","","","","","","","","","","75","K","2","","","123","main_expt",""
"","bandit","203","526674","0.0-164.0-0.0","29294253","wem/bandit_either_3","A107RJSS561Y7R","either","3","89","","","","","","","1","0","0","0.4137060999","","0.2","0.6","0.4","0.8","","","","","0.7673004895","0.2287340519","0.6876014299","0.4137060999","","","","","","","","76","L","3","","","124","main_expt",""
"","bandit","204","528324","0.0-165.0-0.0","29294253","wem/bandit_either_3","A107RJSS561Y7R","either","3","143","","","","","","","0","0","1","","0.3226696341","0.2","0.6","0.4","0.8","0.8020703208","0.2900718705","0.7354493796","0.3226696341","","","","","","","","","","","","76","L","3","","","125","main_expt",""
"","bandit","205","529919","0.0-166.0-0.0","29294253","wem/bandit_either_3","A107RJSS561Y7R","either","3","86","","","","","","","0","1","0","","0.8196031782","0.2","0.6","0.4","0.8","0.8196031782","0.2880997441","0.76840964","0.3904211026","","","","","","","","","","","","72","H","0","img/none_selected.jpg","","126","main_expt",""
"","bandit","206","531508","0.0-167.0-0.0","29294253","wem/bandit_either_3","A107RJSS561Y7R","either","3","83","","","","","","","0","0","1","0.7095492128","","0.2","0.6","0.4","0.8","","","","","0.7095492128","0.3451069126","0.7310750685","0.4227014292","","","","","","","","72","H","0","img/none_selected.jpg","","127","main_expt",""
"","bandit","207","533232","0.0-168.0-0.0","29294253","wem/bandit_either_3","A107RJSS561Y7R","either","3","215","","","","","","","0","0","1","","0.3129298861","0.2","0.6","0.4","0.8","0.711577854","0.3129298861","0.6582635175","0.543317668","","","","","","","","","","","","74","J","1","","","128","main_expt",""
"","bandit","208","534789","0.0-169.0-0.0","29294253","wem/bandit_either_3","A107RJSS561Y7R","either","3","50","","","","","","","1","0","0","0.7529887683","","0.2","0.6","0.4","0.8","","","","","0.7022761705","0.3507055597","0.7529887683","0.5906282681","","","","","","","","75","K","2","","","129","main_expt",""
"","bandit","209","536464","0.0-170.0-0.0","29294253","wem/bandit_either_3","A107RJSS561Y7R","either","3","167","","","","","","","1","0","0","0.7929301986","","0.2","0.6","0.4","0.8","","","","","0.7309419319","0.3753424236","0.7929301986","0.6636268631","","","","","","","","75","K","2","","","130","main_expt",""
"","bandit","210","538100","0.0-171.0-0.0","29294253","wem/bandit_either_3","A107RJSS561Y7R","either","3","130","","","","","","","0","0","1","","0.8149544693","0.2","0.6","0.4","0.8","0.6904825683","0.3473486375","0.8149544693","0.5686699027","","","","","","","","","","","","75","K","2","","","131","main_expt",""
"","bandit","211","539825","0.0-172.0-0.0","29294253","wem/bandit_either_3","A107RJSS561Y7R","either","3","219","","","","","","","0","1","0","","0.6564012045","0.2","0.6","0.4","0.8","0.7153166113","0.303679922","0.7626544417","0.6564012045","","","","","","","","","","","","76","L","3","","","132","main_expt",""
"","bandit","212","541376","0.0-173.0-0.0","29294253","wem/bandit_either_3","A107RJSS561Y7R","either","3","43","","","","","","","0","1","0","","0.5876654864","0.2","0.6","0.4","0.8","0.8135501627","0.3385565331","0.7584501248","0.5876654864","","","","","","","","","","","","76","L","3","","","133","main_expt",""
"","bandit","213","542993","0.0-174.0-0.0","29294253","wem/bandit_either_3","A107RJSS561Y7R","either","3","109","","","","","","","1","0","0","0.5299368298","","0.2","0.6","0.4","0.8","","","","","0.7707892239","0.3686406913","0.7905015291","0.5299368298","","","","","","","","76","L","3","","","134","main_expt",""
"","bandit","214","544650","0.0-175.0-0.0","29294253","wem/bandit_either_3","A107RJSS561Y7R","either","3","148","","","","","","","0","0","1","0.4547966061","","0.2","0.6","0.4","0.8","","","","","0.7689088841","0.3672202126","0.7515189777","0.4547966061","","","","","","","","76","L","3","","","135","main_expt",""
"","bandit","215","546185","0.0-176.0-0.0","29294253","wem/bandit_either_3","A107RJSS561Y7R","either","3","29","","","","","","","0","0","1","","0.6641324257","0.2","0.6","0.4","0.8","0.6641324257","0.4064769993","0.7293518859","0.5290841583","","","","","","","","","","","","72","H","0","img/none_selected.jpg","","136","main_expt",""
"","bandit","216","547788","0.0-177.0-0.0","29294253","wem/bandit_either_3","A107RJSS561Y7R","either","3","97","","","","","","","0","0","1","","0.3492503667","0.2","0.6","0.4","0.8","0.635388201","0.3492503667","0.7286216209","0.419904672","","","","","","","","","","","","74","J","1","","","137","main_expt",""
"","bandit","217","549299","0.0-178.0-0.0","29294253","wem/bandit_either_3","A107RJSS561Y7R","either","3","4","","","","","","","0","0","1","","0.7425921641","0.2","0.6","0.4","0.8","0.6889508363","0.3315752647","0.7425921641","0.4532768315","","","","","","","","","","","","75","K","2","","","138","main_expt",""
"","bandit","218","551001","0.0-179.0-0.0","29294253","wem/bandit_either_3","A107RJSS561Y7R","either","3","195","","","","","","","1","0","0","0.4194835996","","0.2","0.6","0.4","0.8","","","","","0.6481427694","0.3080831972","0.7356638012","0.4194835996","","","","","","","","76","L","3","","","139","main_expt",""
"","bandit","219","552506","0.0-180.0-0.0","29294253","wem/bandit_either_3","A107RJSS561Y7R","either","3","0","","","","","","","1","0","0","0.420008375","","0.2","0.6","0.4","0.8","","","","","0.6497449761","0.3254670704","0.7334346803","0.420008375","","","","","","","","76","L","3","","","140","main_expt",""
"","bandit","220","554016","0.0-181.0-0.0","29294253","wem/bandit_either_3","A107RJSS561Y7R","either","3","2","","","","","","","0","0","1","","0.3908595681","0.2","0.6","0.4","0.8","0.7328205829","0.3452870884","0.7737071977","0.3908595681","","","","","","","","","","","","76","L","3","","","141","main_expt",""
"","bandit","221","555698","0.0-182.0-0.0","29294253","wem/bandit_either_3","A107RJSS561Y7R","either","3","175","","","","","","","0","1","0","","0.6396752577","0.2","0.6","0.4","0.8","0.6396752577","0.2659846132","0.7912630164","0.3994278682","","","","","","","","","","","","72","H","0","img/none_selected.jpg","","142","main_expt",""
"","bandit","222","557433","0.0-183.0-0.0","29294253","wem/bandit_either_3","A107RJSS561Y7R","either","3","227","","","","","","","0","0","1","","0.5974809775","0.2","0.6","0.4","0.8","0.5974809775","0.2549781044","0.7709923268","0.3137486051","","","","","","","","","","","","72","H","0","img/none_selected.jpg","","143","main_expt",""
"","bandit","223","559108","0.0-184.0-0.0","29294253","wem/bandit_either_3","A107RJSS561Y7R","either","3","170","","","","","","","1","0","0","0.3603981418","","0.2","0.6","0.4","0.8","","","","","0.5953980303","0.3603981418","0.7492848764","0.3961992406","","","","","","","","74","J","1","","","144","main_expt",""
"","bandit","224","560725","0.0-185.0-0.0","29294253","wem/bandit_either_3","A107RJSS561Y7R","either","3","108","","","","","","","1","0","0","0.3682949958","","0.2","0.6","0.4","0.8","","","","","0.6215671736","0.3682949958","0.7343485297","0.3186856111","","","","","","","","74","J","1","","","145","main_expt",""
"","bandit","225","562408","0.0-186.0-0.0","29294253","wem/bandit_either_3","A107RJSS561Y7R","either","3","175","","","","","","","0","1","0","","0.5028772858","0.2","0.6","0.4","0.8","0.5766937592","0.5028772858","0.7701032705","0.2724247948","","","","","","","","","","","","74","J","1","","","146","main_expt",""
"","bandit","226","564044","0.0-187.0-0.0","29294253","wem/bandit_either_3","A107RJSS561Y7R","either","3","126","","","","","","","0","0","1","","0.4186890645","0.2","0.6","0.4","0.8","0.4600492943","0.4186890645","0.7521601774","0.2844288079","","","","","","","","","","","","74","J","1","","","147","main_expt",""
"","bandit","227","565579","0.0-188.0-0.0","29294253","wem/bandit_either_3","A107RJSS561Y7R","either","3","27","","","","","","","0","0","1","0.3928328601","","0.2","0.6","0.4","0.8","","","","","0.4575448178","0.3928328601","0.7762143641","0.3095389551","","","","","","","","74","J","1","","","148","main_expt",""
"","bandit","228","567157","0.0-189.0-0.0","29294253","wem/bandit_either_3","A107RJSS561Y7R","either","3","71","","","","","","","0","0","1","","0.716016993","0.2","0.6","0.4","0.8","0.3840278576","0.4220063763","0.716016993","0.2464654743","","","","","","","","","","","","75","K","2","","","149","main_expt",""
"","bandit","229","569027","0.0-190.0-0.0","29294253","wem/bandit_either_3","A107RJSS561Y7R","either","3","364","","","","","","","1","0","0","0.2088091358","","0.2","0.6","0.4","0.8","","","","","0.3004406684","0.3206822378","0.7182774931","0.2088091358","","","","","","","","76","L","3","","","150","main_expt",""
"","bandit","230","570711","0.0-191.0-0.0","29294253","wem/bandit_either_3","A107RJSS561Y7R","either","3","175","","","","","","","0","0","1","0.2670014618","","0.2","0.6","0.4","0.8","","","","","0.2769981479","0.3380172956","0.8028216805","0.2670014618","","","","","","","","76","L","3","","","151","main_expt",""
"","bandit","231","572617","0.0-192.0-0.0","29294253","wem/bandit_either_3","A107RJSS561Y7R","either","3","396","","","","","","","0","0","1","0.3100930243","","0.2","0.6","0.4","0.8","","","","","0.40565407","0.2461440624","0.8634692279","0.3100930243","","","","","","","","76","L","3","","","152","main_expt",""
"","bandit","232","574184","0.0-193.0-0.0","29294253","wem/bandit_either_3","A107RJSS561Y7R","either","3","59","","","","","","","0","0","1","","0.3829351634","0.2","0.6","0.4","0.8","0.3829351634","0.1852716423","0.7719190238","0.3796096158","","","","","","","","","","","","72","H","0","img/none_selected.jpg","","153","main_expt",""
"","bandit","233","575751","0.0-194.0-0.0","29294253","wem/bandit_either_3","A107RJSS561Y7R","either","3","62","","","","","","","1","0","0","0.1660439368","","0.2","0.6","0.4","0.8","","","","","0.4912137185","0.1660439368","0.8343429945","0.2265028128","","","","","","","","74","J","1","","","154","main_expt",""
"","bandit","234","577291","0.0-195.0-0.0","29294253","wem/bandit_either_3","A107RJSS561Y7R","either","3","35","","","","","","","0","0","1","0.2241607793","","0.2","0.6","0.4","0.8","","","","","0.5312535156","0.2241607793","0.7908731232","0.2135741777","","","","","","","","74","J","1","","","155","main_expt",""
"","bandit","235","579028","0.0-196.0-0.0","29294253","wem/bandit_either_3","A107RJSS561Y7R","either","3","228","","","","","","","0","1","0","","0.7848911391","0.2","0.6","0.4","0.8","0.5747898199","0.1566338899","0.7848911391","0.1338357519","","","","","","","","","","","","75","K","2","","","156","main_expt",""
"","bandit","236","580616","0.0-197.0-0.0","29294253","wem/bandit_either_3","A107RJSS561Y7R","either","3","76","","","","","","","0","0","1","","0.7467155263","0.2","0.6","0.4","0.8","0.5948125822","0.1839373886","0.7467155263","0.1344370697","","","","","","","","","","","","75","K","2","","","157","main_expt",""
"","bandit","237","582846","0.0-198.0-0.0","29294253","wem/bandit_either_3","A107RJSS561Y7R","either","3","723","","","","","","","0","0","1","0.1217930933","","0.2","0.6","0.4","0.8","","","","","0.6533804049","0.155802242","0.7413618202","0.1217930933","","","","","","","","76","L","3","","","158","main_expt",""
"","bandit","238","585073","0.0-199.0-0.0","29294253","wem/bandit_either_3","A107RJSS561Y7R","either","3","717","","","","","","","0","1","0","","0.5777198579","0.2","0.6","0.4","0.8","0.5777198579","0.2304237345","0.6882043704","0.08524485746","","","","","","","","","","","","72","H","0","img/none_selected.jpg","","159","main_expt",""
"","bandit","239","586755","0.0-200.0-0.0","29294253","wem/bandit_either_3","A107RJSS561Y7R","either","3","176","","","","","","","0","1","0","","0.6777741118","0.2","0.6","0.4","0.8","0.6777741118","0.2242026456","0.7253096401","0.07332219892","","","","","","","","","","","","72","H","0","img/none_selected.jpg","","160","main_expt",""
"","bandit","240","588388","0.0-201.0-0.0","29294253","wem/bandit_either_3","A107RJSS561Y7R","either","3","126","","","","","","","0","1","0","","0.6249074267","0.2","0.6","0.4","0.8","0.6249074267","0.2708915048","0.6989182833","0.1063489691","","","","","","","","","","","","72","H","0","img/none_selected.jpg","","161","main_expt",""
"","bandit","241","590443","0.0-202.0-0.0","29294253","wem/bandit_either_3","A107RJSS561Y7R","either","3","548","","","","","","","0","1","0","","0.6755041601","0.2","0.6","0.4","0.8","0.6755041601","0.2921592604","0.7679575172","0.09670310095","","","","","","","","","","","","72","H","0","img/none_selected.jpg","","162","main_expt",""
"","bandit","242","592162","0.0-203.0-0.0","29294253","wem/bandit_either_3","A107RJSS561Y7R","either","3","211","","","","","","","0","1","0","","0.6461818487","0.2","0.6","0.4","0.8","0.6461818487","0.2050535257","0.6877390752","0.1266359811","","","","","","","","","","","","72","H","0","img/none_selected.jpg","","163","main_expt",""
"","bandit","243","593779","0.0-204.0-0.0","29294253","wem/bandit_either_3","A107RJSS561Y7R","either","3","109","","","","","","","0","1","0","","0.76368027","0.2","0.6","0.4","0.8","0.76368027","0.1998759094","0.6957575266","0.1212611996","","","","","","","","","","","","72","H","0","img/none_selected.jpg","","164","main_expt",""
"","bandit","244","595423","0.0-205.0-0.0","29294253","wem/bandit_either_3","A107RJSS561Y7R","either","3","136","","","","","","","0","1","0","","0.8400099296","0.2","0.6","0.4","0.8","0.8400099296","0.1821974317","0.6760148625","0.1917887173","","","","","","","","","","","","72","H","0","img/none_selected.jpg","","165","main_expt",""
"","bandit","245","596959","0.0-206.0-0.0","29294253","wem/bandit_either_3","A107RJSS561Y7R","either","3","29","","","","","","","0","1","0","","0.8573275969","0.2","0.6","0.4","0.8","0.8573275969","0.2916844583","0.6463317238","0.1560613016","","","","","","","","","","","","72","H","0","img/none_selected.jpg","","166","main_expt",""
"","bandit","246","598626","0.0-207.0-0.0","29294253","wem/bandit_either_3","A107RJSS561Y7R","either","3","159","","","","","","","0","1","0","","0.7735369509","0.2","0.6","0.4","0.8","0.7735369509","0.3087465624","0.5613055562","0.2214887095","","","","","","","","","","","","72","H","0","img/none_selected.jpg","","167","main_expt",""
"","bandit","247","600424","0.0-208.0-0.0","29294253","wem/bandit_either_3","A107RJSS561Y7R","either","3","287","","","","","","","0","1","0","","0.8091314607","0.2","0.6","0.4","0.8","0.8091314607","0.3896626528","0.5586162784","0.3463453368","","","","","","","","","","","","72","H","0","img/none_selected.jpg","","168","main_expt",""
"","bandit","248","602020","0.0-209.0-0.0","29294253","wem/bandit_either_3","A107RJSS561Y7R","either","3","87","","","","","","","1","0","0","0.8364166478","","0.2","0.6","0.4","0.8","","","","","0.8364166478","0.4458805252","0.597448185","0.3222551453","","","","","","","","72","H","0","img/none_selected.jpg","","169","main_expt",""
"","bandit","249","603548","0.0-210.0-0.0","29294253","wem/bandit_either_3","A107RJSS561Y7R","either","3","20","","","","","","","0","1","0","","0.7867883415","0.2","0.6","0.4","0.8","0.7867883415","0.4844269655","0.5351242352","0.2556410415","","","","","","","","","","","","72","H","0","img/none_selected.jpg","","170","main_expt",""
"","bandit","250","605092","0.0-211.0-0.0","29294253","wem/bandit_either_3","A107RJSS561Y7R","either","3","37","","","","","","","0","1","0","","0.8728822524","0.2","0.6","0.4","0.8","0.8728822524","0.4858642724","0.4819966971","0.2248109201","","","","","","","","","","","","72","H","0","img/none_selected.jpg","","171","main_expt",""
"","bandit","251","606661","0.0-212.0-0.0","29294253","wem/bandit_either_3","A107RJSS561Y7R","either","3","61","","","","","","","0","1","0","","0.7804912391","0.2","0.6","0.4","0.8","0.7804912391","0.5060245996","0.4038669266","0.3468742366","","","","","","","","","","","","72","H","0","img/none_selected.jpg","","172","main_expt",""
"","bandit","252","608376","0.0-213.0-0.0","29294253","wem/bandit_either_3","A107RJSS561Y7R","either","3","204","","","","","","","0","1","0","","0.7728490534","0.2","0.6","0.4","0.8","0.7728490534","0.5413528159","0.3102533384","0.234408543","","","","","","","","","","","","72","H","0","img/none_selected.jpg","","173","main_expt",""
"","bandit","253","609926","0.0-214.0-0.0","29294253","wem/bandit_either_3","A107RJSS561Y7R","either","3","42","","","","","","","0","1","0","","0.814185781","0.2","0.6","0.4","0.8","0.814185781","0.6505326818","0.3818943333","0.1404050277","","","","","","","","","","","","72","H","0","img/none_selected.jpg","","174","main_expt",""
"","bandit","254","611773","0.0-215.0-0.0","29294253","wem/bandit_either_3","A107RJSS561Y7R","either","3","337","","","","","","","0","1","0","","0.8010682597","0.2","0.6","0.4","0.8","0.8010682597","0.6470977149","0.2893198216","0.1081611795","","","","","","","","","","","","72","H","0","img/none_selected.jpg","","175","main_expt",""
"","bandit","255","613445","0.0-216.0-0.0","29294253","wem/bandit_either_3","A107RJSS561Y7R","either","3","162","","","","","","","0","1","0","","0.7083228223","0.2","0.6","0.4","0.8","0.7083228223","0.6844229635","0.226416223","0.0730283124","","","","","","","","","","","","72","H","0","img/none_selected.jpg","","176","main_expt",""
"","bandit","256","615174","0.0-217.0-0.0","29294253","wem/bandit_either_3","A107RJSS561Y7R","either","3","222","","","","","","","0","0","1","","0.7408938443","0.2","0.6","0.4","0.8","0.7408938443","0.6883244284","0.2786676386","0.07044941978","","","","","","","","","","","","72","H","0","img/none_selected.jpg","","177","main_expt",""
"","bandit","257","616821","0.0-218.0-0.0","29294253","wem/bandit_either_3","A107RJSS561Y7R","either","3","138","","","","","","","0","0","1","","0.6098590842","0.2","0.6","0.4","0.8","0.6621187214","0.6098590842","0.2279078815","0.06886985111","","","","","","","","","","","","74","J","1","","","178","main_expt",""
"","bandit","258","618370","0.0-219.0-0.0","29294253","wem/bandit_either_3","A107RJSS561Y7R","either","3","41","","","","","","","0","0","1","","0.1690126781","0.2","0.6","0.4","0.8","0.6765487854","0.5924449164","0.1690126781","0.07254371148","","","","","","","","","","","","75","K","2","","","179","main_expt",""
"","bandit","259","620733","0.0-220.0-0.0","29294253","wem/bandit_either_3","A107RJSS561Y7R","either","3","854","","","","","","","0","0","1","0.055057054","","0.2","0.6","0.4","0.8","","","","","0.7276027883","0.4915111467","0.1356066944","0.055057054","","","","","","","","76","L","3","","","180","main_expt",""
"","bandit","260","622643","0.0-221.0-0.0","29294253","wem/bandit_either_3","A107RJSS561Y7R","either","3","401","","","","","","","1","0","0","0.7083410305","","0.2","0.6","0.4","0.8","","","","","0.7083410305","0.4713933083","0.1889441784","0.1187845962","","","","","","","","72","H","0","img/none_selected.jpg","","181","main_expt",""
"","bandit","261","624342","0.0-222.0-0.0","29294253","wem/bandit_either_3","A107RJSS561Y7R","either","3","191","","","","","","","0","1","0","","0.6489729838","0.2","0.6","0.4","0.8","0.6489729838","0.500114893","0.2163976064","0.1304227184","","","","","","","","","","","","72","H","0","img/none_selected.jpg","","182","main_expt",""
"","bandit","262","625871","0.0-223.0-0.0","29294253","wem/bandit_either_3","A107RJSS561Y7R","either","3","20","","","","","","","0","1","0","","0.6956751073","0.2","0.6","0.4","0.8","0.6956751073","0.4949273894","0.1902524086","0.1374638341","","","","","","","","","","","","72","H","0","img/none_selected.jpg","","183","main_expt",""
"","bandit","263","627640","0.0-224.0-0.0","29294253","wem/bandit_either_3","A107RJSS561Y7R","either","3","261","","","","","","","1","0","0","0.6066537109","","0.2","0.6","0.4","0.8","","","","","0.6066537109","0.4271361476","0.2265805791","0.1914365344","","","","","","","","72","H","0","img/none_selected.jpg","","184","main_expt",""
"","bandit","264","629370","0.0-225.0-0.0","29294253","wem/bandit_either_3","A107RJSS561Y7R","either","3","221","","","","","","","0","0","1","0.6337362372","","0.2","0.6","0.4","0.8","","","","","0.6337362372","0.4558255176","0.1843452782","0.1939872458","","","","","","","","72","H","0","img/none_selected.jpg","","185","main_expt",""
"","bandit","265","631081","0.0-226.0-0.0","29294253","wem/bandit_either_3","A107RJSS561Y7R","either","3","203","","","","","","","0","0","1","0.4031301461","","0.2","0.6","0.4","0.8","","","","","0.5908962551","0.4031301461","0.1898387663","0.2219937035","","","","","","","","74","J","1","","","186","main_expt",""
"","bandit","266","632779","0.0-227.0-0.0","29294253","wem/bandit_either_3","A107RJSS561Y7R","either","3","189","","","","","","","1","0","0","0.210498268","","0.2","0.6","0.4","0.8","","","","","0.7651761031","0.3993697366","0.210498268","0.2024523472","","","","","","","","75","K","2","","","187","main_expt",""
"","bandit","267","634406","0.0-228.0-0.0","29294253","wem/bandit_either_3","A107RJSS561Y7R","either","3","118","","","","","","","1","0","0","0.2368649008","","0.2","0.6","0.4","0.8","","","","","0.7928336054","0.4478687375","0.2368649008","0.1930401344","","","","","","","","75","K","2","","","188","main_expt",""
"","bandit","268","635921","0.0-229.0-0.0","29294253","wem/bandit_either_3","A107RJSS561Y7R","either","3","8","","","","","","","1","0","0","0.291591963","","0.2","0.6","0.4","0.8","","","","","0.8917358491","0.3699601256","0.291591963","0.3255404916","","","","","","","","75","K","2","","","189","main_expt",""
"","bandit","269","637611","0.0-230.0-0.0","29294253","wem/bandit_either_3","A107RJSS561Y7R","either","3","182","","","","","","","0","0","1","","0.4411779124","0.2","0.6","0.4","0.8","0.898448025","0.3723251068","0.4411779124","0.2364063212","","","","","","","","","","","","75","K","2","","","190","main_expt",""
"","bandit","270","639215","0.0-231.0-0.0","29294253","wem/bandit_either_3","A107RJSS561Y7R","either","3","95","","","","","","","0","0","1","0.2662767285","","0.2","0.6","0.4","0.8","","","","","0.9186708851","0.3309849287","0.3968704403","0.2662767285","","","","","","","","76","L","3","","","191","main_expt",""
"","bandit","271","640923","0.0-232.0-0.0","29294253","wem/bandit_either_3","A107RJSS561Y7R","either","3","196","","","","","","","0","0","1","0.2815174114","","0.2","0.6","0.4","0.8","","","","","0.9314477517","0.2865625263","0.4512817608","0.2815174114","","","","","","","","76","L","3","","","192","main_expt",""
"","bandit","272","642703","0.0-233.0-0.0","29294253","wem/bandit_either_3","A107RJSS561Y7R","either","3","272","","","","","","","1","0","0","0.3461293965","","0.2","0.6","0.4","0.8","","","","","0.9090465067","0.2862811746","0.4788006455","0.3461293965","","","","","","","","76","L","3","","","193","main_expt",""
"","bandit","273","644381","0.0-234.0-0.0","29294253","wem/bandit_either_3","A107RJSS561Y7R","either","3","169","","","","","","","1","0","0","0.3303735913","","0.2","0.6","0.4","0.8","","","","","0.8762249788","0.2785288642","0.4651889587","0.3303735913","","","","","","","","76","L","3","","","194","main_expt",""
"","bandit","274","645981","0.0-235.0-0.0","29294253","wem/bandit_either_3","A107RJSS561Y7R","either","3","89","","","","","","","0","0","1","0.3194565039","","0.2","0.6","0.4","0.8","","","","","0.8623185747","0.2283941808","0.4718629942","0.3194565039","","","","","","","","76","L","3","","","195","main_expt",""
"","bandit","275","647665","0.0-236.0-0.0","29294253","wem/bandit_either_3","A107RJSS561Y7R","either","3","172","","","","","","","1","0","0","0.7745977574","","0.2","0.6","0.4","0.8","","","","","0.7745977574","0.214282227","0.3825708332","0.4103944464","","","","","","","","72","H","0","img/none_selected.jpg","","196","main_expt",""
"","bandit","276","649221","0.0-237.0-0.0","29294253","wem/bandit_either_3","A107RJSS561Y7R","either","3","42","","","","","","","0","1","0","","0.7723069829","0.2","0.6","0.4","0.8","0.7723069829","0.1422959513","0.4530864699","0.4445726534","","","","","","","","","","","","72","H","0","img/none_selected.jpg","","197","main_expt",""
"","bandit","277","650796","0.0-238.0-0.0","29294253","wem/bandit_either_3","A107RJSS561Y7R","either","3","68","","","","","","","0","1","0","","0.7084082875","0.2","0.6","0.4","0.8","0.7084082875","0.1126324943","0.4337652667","0.4351718099","","","","","","","","","","","","72","H","0","img/none_selected.jpg","","198","main_expt",""
"","bandit","278","652427","0.0-239.0-0.0","29294253","wem/bandit_either_3","A107RJSS561Y7R","either","3","123","","","","","","","0","1","0","","0.7016883558","0.2","0.6","0.4","0.8","0.7016883558","0.1144166609","0.4138332966","0.4641294157","","","","","","","","","","","","72","H","0","img/none_selected.jpg","","199","main_expt",""
"","bandit","279","654074","0.0-240.0-0.0","29294253","wem/bandit_either_3","A107RJSS561Y7R","either","3","138","","","","","","","1","0","0","0.6504384346","","0.2","0.6","0.4","0.8","","","","","0.6504384346","0.1518003708","0.5005175686","0.4468687069","","","","","","","","72","H","0","img/none_selected.jpg","","200","main_expt",""
"","bandit","280","655782","0.0-241.0-0.0","29294253","wem/bandit_either_3","A107RJSS561Y7R","either","3","200","","","","","","","0","0","1","","0.7904945102","0.2","0.6","0.4","0.8","0.7904945102","0.1974433607","0.5122642399","0.5087435212","","","","","","","","","","","","72","H","0","img/none_selected.jpg","","201","main_expt",""
"","bandit","281","657346","0.0-242.0-0.0","29294253","wem/bandit_either_3","A107RJSS561Y7R","either","3","51","","","","","","","0","0","1","0.2000842809","","0.2","0.6","0.4","0.8","","","","","0.7039472437","0.2000842809","0.5414597976","0.4992132835","","","","","","","","74","J","1","","","202","main_expt",""
"","bandit","282","658857","0.0-243.0-0.0","29294253","wem/bandit_either_3","A107RJSS561Y7R","either","3","1","","","","","","","0","0","1","0.1715580826","","0.2","0.6","0.4","0.8","","","","","0.7478807213","0.1715580826","0.4993649945","0.4859842053","","","","","","","","74","J","1","","","203","main_expt",""
"","bandit","283","660388","0.0-244.0-0.0","29294253","wem/bandit_either_3","A107RJSS561Y7R","either","3","23","","","","","","","0","0","1","","0.4056752737","0.2","0.6","0.4","0.8","0.7346150791","0.3028604286","0.4056752737","0.6162755314","","","","","","","","","","","","75","K","2","","","204","main_expt",""
"","bandit","284","661912","0.0-245.0-0.0","29294253","wem/bandit_either_3","A107RJSS561Y7R","either","3","15","","","","","","","0","1","0","","0.6204906845","0.2","0.6","0.4","0.8","0.7240623961","0.3714949669","0.4174768156","0.6204906845","","","","","","","","","","","","76","L","3","","","205","main_expt",""
"","bandit","285","663625","0.0-246.0-0.0","29294253","wem/bandit_either_3","A107RJSS561Y7R","either","3","203","","","","","","","0","0","1","0.6390595606","","0.2","0.6","0.4","0.8","","","","","0.733657826","0.3034865557","0.4364097613","0.6390595606","","","","","","","","76","L","3","","","206","main_expt",""
"","bandit","286","665283","0.0-247.0-0.0","29294253","wem/bandit_either_3","A107RJSS561Y7R","either","3","149","","","","","","","0","1","0","","0.6797091947","0.2","0.6","0.4","0.8","0.6797091947","0.2688105372","0.4666062126","0.6022157482","","","","","","","","","","","","72","H","0","img/none_selected.jpg","","207","main_expt",""
"","bandit","287","666969","0.0-248.0-0.0","29294253","wem/bandit_either_3","A107RJSS561Y7R","either","3","172","","","","","","","0","0","1","","0.472157919","0.2","0.6","0.4","0.8","0.472157919","0.2240001326","0.4594719295","0.6598502583","","","","","","","","","","","","72","H","0","img/none_selected.jpg","","208","main_expt",""
"","bandit","288","668648","0.0-249.0-0.0","29294253","wem/bandit_either_3","A107RJSS561Y7R","either","3","171","","","","","","","1","0","0","0.3284172364","","0.2","0.6","0.4","0.8","","","","","0.4993955773","0.3284172364","0.5415101973","0.6329069529","","","","","","","","74","J","1","","","209","main_expt",""
"","bandit","289","670319","0.0-250.0-0.0","29294253","wem/bandit_either_3","A107RJSS561Y7R","either","3","159","","","","","","","1","0","0","0.3178667136","","0.2","0.6","0.4","0.8","","","","","0.3923888982","0.3178667136","0.5627952802","0.5418549626","","","","","","","","74","J","1","","","210","main_expt",""
"","bandit","290","671958","0.0-251.0-0.0","29294253","wem/bandit_either_3","A107RJSS561Y7R","either","3","129","","","","","","","1","0","0","0.278360526","","0.2","0.6","0.4","0.8","","","","","0.4183885941","0.278360526","0.5779033475","0.7265410197","","","","","","","","74","J","1","","","211","main_expt",""
"","bandit","291","673575","0.0-252.0-0.0","29294253","wem/bandit_either_3","A107RJSS561Y7R","either","3","110","","","","","","","0","0","1","","0.2720231684","0.2","0.6","0.4","0.8","0.5367383083","0.2720231684","0.6169713091","0.6550819281","","","","","","","","","","","","74","J","1","","","212","main_expt",""
"","bandit","292","675178","0.0-253.0-0.0","29294253","wem/bandit_either_3","A107RJSS561Y7R","either","3","94","","","","","","","1","0","0","0.5688165975","","0.2","0.6","0.4","0.8","","","","","0.5779451767","0.3445332441","0.5688165975","0.5812500281","","","","","","","","75","K","2","","","213","main_expt",""
"","bandit","293","676714","0.0-254.0-0.0","29294253","wem/bandit_either_3","A107RJSS561Y7R","either","3","27","","","","","","","1","0","0","0.5354690829","","0.2","0.6","0.4","0.8","","","","","0.5615700258","0.331154659","0.5354690829","0.6912727382","","","","","","","","75","K","2","","","214","main_expt",""
"","bandit","294","678352","0.0-255.0-0.0","29294253","wem/bandit_either_3","A107RJSS561Y7R","either","3","126","","","","","","","0","1","0","","0.4395706401","0.2","0.6","0.4","0.8","0.5361399643","0.3168016653","0.4395706401","0.695573978","","","","","","","","","","","","75","K","2","","","215","main_expt",""
"","bandit","295","679969","0.0-256.0-0.0","29294253","wem/bandit_either_3","A107RJSS561Y7R","either","3","107","","","","","","","0","0","1","0.4522294324","","0.2","0.6","0.4","0.8","","","","","0.620750855","0.2870858596","0.4522294324","0.6531454011","","","","","","","","75","K","2","","","216","main_expt",""
"","bandit","296","681599","0.0-257.0-0.0","29294253","wem/bandit_either_3","A107RJSS561Y7R","either","3","121","","","","","","","1","0","0","0.6459690495","","0.2","0.6","0.4","0.8","","","","","0.4812239037","0.2877345098","0.4141575353","0.6459690495","","","","","","","","76","L","3","","","217","main_expt",""
"","bandit","297","683160","0.0-258.0-0.0","29294253","wem/bandit_either_3","A107RJSS561Y7R","either","3","50","","","","","","","1","0","0","0.6679944541","","0.2","0.6","0.4","0.8","","","","","0.4028497994","0.3608492067","0.3009722504","0.6679944541","","","","","","","","76","L","3","","","218","main_expt",""
"","bandit","298","684836","0.0-259.0-0.0","29294253","wem/bandit_either_3","A107RJSS561Y7R","either","3","167","","","","","","","1","0","0","0.7159195147","","0.2","0.6","0.4","0.8","","","","","0.4441021312","0.4380407461","0.2706893249","0.7159195147","","","","","","","","76","L","3","","","219","main_expt",""
"","bandit","299","686347","0.0-260.0-0.0","29294253","wem/bandit_either_3","A107RJSS561Y7R","either","3","0","","","","","","","0","1","0","","0.6874484601","0.2","0.6","0.4","0.8","0.4867825248","0.4769938592","0.3821277721","0.6874484601","","","","","","","","","","","","76","L","3","","","220","main_expt",""
"","bandit","300","687916","0.0-261.0-0.0","29294253","wem/bandit_either_3","A107RJSS561Y7R","either","3","60","","","","","","","1","0","0","0.6528128226","","0.2","0.6","0.4","0.8","","","","","0.5428062785","0.4612627877","0.4534214389","0.6528128226","","","","","","","","76","L","3","","","221","main_expt",""
"","bandit","301","689519","0.0-262.0-0.0","29294253","wem/bandit_either_3","A107RJSS561Y7R","either","3","93","","","","","","","0","0","1","0.6836467719","","0.2","0.6","0.4","0.8","","","","","0.5993321864","0.4192901336","0.6049712458","0.6836467719","","","","","","","","76","L","3","","","222","main_expt",""
"","bandit","302","691220","0.0-263.0-0.0","29294253","wem/bandit_either_3","A107RJSS561Y7R","either","3","192","","","","","","","0","0","1","","0.4920604154","0.2","0.6","0.4","0.8","0.4920604154","0.5559965486","0.6389506418","0.7820879334","","","","","","","","","","","","72","H","0","img/none_selected.jpg","","223","main_expt",""
"","bandit","303","692773","0.0-264.0-0.0","29294253","wem/bandit_either_3","A107RJSS561Y7R","either","3","41","","","","","","","0","1","0","","0.6687933923","0.2","0.6","0.4","0.8","0.5344282052","0.6687933923","0.6677375732","0.763226653","","","","","","","","","","","","74","J","1","","","224","main_expt",""
"","bandit","304","694309","0.0-265.0-0.0","29294253","wem/bandit_either_3","A107RJSS561Y7R","either","3","24","","","","","","","0","1","0","","0.5954484576","0.2","0.6","0.4","0.8","0.5583452501","0.5954484576","0.7706853934","0.6931961842","","","","","","","","","","","","74","J","1","","","225","main_expt",""
"","bandit","305","695876","0.0-266.0-0.0","29294253","wem/bandit_either_3","A107RJSS561Y7R","either","3","58","","","","","","","0","1","0","","0.6152447968","0.2","0.6","0.4","0.8","0.5126042404","0.6152447968","0.7624197083","0.6633974694","","","","","","","","","","","","74","J","1","","","226","main_expt",""
"","bandit","306","697502","0.0-267.0-0.0","29294253","wem/bandit_either_3","A107RJSS561Y7R","either","3","120","","","","","","","0","1","0","","0.6597553912","0.2","0.6","0.4","0.8","0.5720595628","0.6597553912","0.7287840805","0.6567175756","","","","","","","","","","","","74","J","1","","","227","main_expt",""
"","bandit","307","699192","0.0-268.0-0.0","29294253","wem/bandit_either_3","A107RJSS561Y7R","either","3","179","","","","","","","0","1","0","","0.594895186","0.2","0.6","0.4","0.8","0.6134710885","0.594895186","0.7993891034","0.6052730858","","","","","","","","","","","","74","J","1","","","228","main_expt",""
"","bandit","308","700850","0.0-269.0-0.0","29294253","wem/bandit_either_3","A107RJSS561Y7R","either","3","149","","","","","","","1","0","0","0.5722559027","","0.2","0.6","0.4","0.8","","","","","0.5669106804","0.5722559027","0.8374027748","0.5548990383","","","","","","","","74","J","1","","","229","main_expt",""
"","bandit","309","702477","0.0-270.0-0.0","29294253","wem/bandit_either_3","A107RJSS561Y7R","either","3","116","","","","","","","0","1","0","","0.5409090622","0.2","0.6","0.4","0.8","0.6286782819","0.5409090622","0.8414873787","0.6017114108","","","","","","","","","","","","74","J","1","","","230","main_expt",""
"","bandit","310","704094","0.0-271.0-0.0","29294253","wem/bandit_either_3","A107RJSS561Y7R","either","3","109","","","","","","","0","0","1","0.518727512","","0.2","0.6","0.4","0.8","","","","","0.5594948871","0.518727512","0.8531648874","0.5525336349","","","","","","","","74","J","1","","","231","main_expt",""
"","bandit","311","705828","0.0-272.0-0.0","29294253","wem/bandit_either_3","A107RJSS561Y7R","either","3","226","","","","","","","0","0","1","0.5200298571","","0.2","0.6","0.4","0.8","","","","","0.5817998964","0.5200298571","0.8813812612","0.4493361955","","","","","","","","74","J","1","","","232","main_expt",""
"","bandit","312","707475","0.0-273.0-0.0","29294253","wem/bandit_either_3","A107RJSS561Y7R","either","3","138","","","","","","","0","1","0","","0.8916766345","0.2","0.6","0.4","0.8","0.5971875981","0.4564343731","0.8916766345","0.5280832246","","","","","","","","","","","","75","K","2","","","233","main_expt",""
"","bandit","313","709115","0.0-274.0-0.0","29294253","wem/bandit_either_3","A107RJSS561Y7R","either","3","132","","","","","","","1","0","0","0.842820862","","0.2","0.6","0.4","0.8","","","","","0.5227237997","0.4168065644","0.842820862","0.6814540918","","","","","","","","75","K","2","","","234","main_expt",""
"","bandit","314","710644","0.0-275.0-0.0","29294253","wem/bandit_either_3","A107RJSS561Y7R","either","3","20","","","","","","","0","1","0","","0.7856269381","0.2","0.6","0.4","0.8","0.6231997156","0.4340770274","0.7856269381","0.5518959403","","","","","","","","","","","","75","K","2","","","235","main_expt",""
"","bandit","315","712370","0.0-276.0-0.0","29294253","wem/bandit_either_3","A107RJSS561Y7R","either","3","215","","","","","","","0","1","0","","0.8092971262","0.2","0.6","0.4","0.8","0.558272317","0.4489205242","0.8092971262","0.4965619817","","","","","","","","","","","","75","K","2","","","236","main_expt",""
"","bandit","316","713959","0.0-277.0-0.0","29294253","wem/bandit_either_3","A107RJSS561Y7R","either","3","77","","","","","","","0","1","0","","0.8125536838","0.2","0.6","0.4","0.8","0.6118965497","0.4838648791","0.8125536838","0.4762879104","","","","","","","","","","","","75","K","2","","","237","main_expt",""
"","bandit","317","715518","0.0-278.0-0.0","29294253","wem/bandit_either_3","A107RJSS561Y7R","either","3","49","","","","","","","0","1","0","","0.8684257659","0.2","0.6","0.4","0.8","0.7415542647","0.4615645545","0.8684257659","0.4991976808","","","","","","","","","","","","75","K","2","","","238","main_expt",""
"","bandit","318","717043","0.0-279.0-0.0","29294253","wem/bandit_either_3","A107RJSS561Y7R","either","3","15","","","","","","","0","1","0","","0.8891050988","0.2","0.6","0.4","0.8","0.794517608","0.4263497721","0.8891050988","0.4627972202","","","","","","","","","","","","75","K","2","","","239","main_expt",""
"","bandit","319","718711","0.0-280.0-0.0","29294253","wem/bandit_either_3","A107RJSS561Y7R","either","3","159","","","","","","","0","1","0","","0.8983693474","0.2","0.6","0.4","0.8","0.7966429163","0.4372282776","0.8983693474","0.484486763","","","","","","","","","","","","75","K","2","","","240","main_expt",""
"","bandit","320","720429","0.0-281.0-0.0","29294253","wem/bandit_either_3","A107RJSS561Y7R","either","3","209","","","","","","","1","0","0","0.8608109038","","0.2","0.6","0.4","0.8","","","","","0.7827696357","0.5558093781","0.8608109038","0.3450886106","","","","","","","","75","K","2","","","241","main_expt",""
"","bandit","321","721952","0.0-282.0-0.0","29294253","wem/bandit_either_3","A107RJSS561Y7R","either","3","14","","","","","","","0","1","0","","0.8807376199","0.2","0.6","0.4","0.8","0.8077769827","0.654661817","0.8807376199","0.4066884652","","","","","","","","","","","","75","K","2","","","242","main_expt",""
"","bandit","322","723674","0.0-283.0-0.0","29294253","wem/bandit_either_3","A107RJSS561Y7R","either","3","212","","","","","","","0","1","0","","0.8782163565","0.2","0.6","0.4","0.8","0.7680675523","0.5869565726","0.8782163565","0.3574054959","","","","","","","","","","","","75","K","2","","","243","main_expt",""
"","bandit","323","725336","0.0-284.0-0.0","29294253","wem/bandit_either_3","A107RJSS561Y7R","either","3","151","","","","","","","0","1","0","","0.8691088863","0.2","0.6","0.4","0.8","0.6802465609","0.6282978891","0.8691088863","0.4200458239","","","","","","","","","","","","75","K","2","","","244","main_expt",""
"","bandit","324","727001","0.0-285.0-0.0","29294253","wem/bandit_either_3","A107RJSS561Y7R","either","3","155","","","","","","","0","1","0","","0.8516976639","0.2","0.6","0.4","0.8","0.6110509309","0.5918678021","0.8516976639","0.3587254574","","","","","","","","","","","","75","K","2","","","245","main_expt",""
