"consent","trial_type","trial_index","time_elapsed","internal_node_id","subjID","study","MID","cond","drift","rt","responses","key_press","expt_phase","like","value","connected","gems","bombs","no_reward","GemPrChosen","BombPrChosen","GainOverPainPr_0","GainOverPainPr_1","GainOverPainPr_2","GainOverPainPr_3","LosePr_0","LosePr_1","LosePr_2","LosePr_3","WinPr_0","WinPr_1","WinPr_2","WinPr_3","Q0","Q1","Q2","gender","age","ethnicity","target","respCharCode","respKey","respChoiceNum","respChoice","practice","trial_counter","trial_label","button_pressed"
"INL_behavioral_consent_30min_online.html","consent","0","22671","0.0-0.0","29368201","wem/bandit_either_3","A3KC26Z78FBOJT","either","5","","","","","","","","","","","","","","","","","","","","","","","","","","","","","","","","","","","","","","",""
"","survey-text","1","69980","0.0-1.0","29368201","wem/bandit_either_3","A3KC26Z78FBOJT","either","5","46304","{""Q0"":""A3KC26Z78FBOJT""}","","","","","","","","","","","","","","","","","","","","","","","","","","","","","","","","","","","","",""
"","text","2","93087","0.0-2.0","29368201","wem/bandit_either_3","A3KC26Z78FBOJT","either","5","22104","","32","","","","","","","","","","","","","","","","","","","","","","","","","","","","","","","","","","","",""
"","text","3","106396","0.0-3.0","29368201","wem/bandit_either_3","A3KC26Z78FBOJT","either","5","13309","","32","","","","","","","","","","","","","","","","","","","","","","","","","","","","","","","","","","","",""
"","text","4","144276","0.0-4.0","29368201","wem/bandit_either_3","A3KC26Z78FBOJT","either","5","37879","","32","","","","","","","","","","","","","","","","","","","","","","","","","","","","","","","","","","","",""
"","text","5","171954","0.0-5.0","29368201","wem/bandit_either_3","A3KC26Z78FBOJT","either","5","27676","","32","","","","","","","","","","","","","","","","","","","","","","","","","","","","","","","","","","","",""
"","text","6","196864","0.0-6.0","29368201","wem/bandit_either_3","A3KC26Z78FBOJT","either","5","24908","","32","","","","","","","","","","","","","","","","","","","","","","","","","","","","","","","","","","","",""
"","text","7","208462","0.0-7.0","29368201","wem/bandit_either_3","A3KC26Z78FBOJT","either","5","11598","","32","","","","","","","","","","","","","","","","","","","","","","","","","","","","","","","","","","","",""
"","text","8","214616","0.0-8.0","29368201","wem/bandit_either_3","A3KC26Z78FBOJT","either","5","6153","","32","","","","","","","","","","","","","","","","","","","","","","","","","","","","","","","","","","","",""
"","identification","9","227613","0.0-9.0-0.0","29368201","wem/bandit_either_3","A3KC26Z78FBOJT","either","5","12987","","","","5","5","6","","","","","","","","","","","","","","","","","","","","","","","","the village of Zur","","","","","","","",""
"","identification","10","234823","0.0-9.0-1.0","29368201","wem/bandit_either_3","A3KC26Z78FBOJT","either","5","6201","","","","0","0","0","","","","","","","","","","","","","","","","","","","","","","","","the village of Nyx","","","","","","","",""
"","text","11","244914","0.0-10.0","29368201","wem/bandit_either_3","A3KC26Z78FBOJT","either","5","9088","","32","","","","","","","","","","","","","","","","","","","","","","","","","","","","","","","","","","","",""
"","text","12","250088","0.0-11.0","29368201","wem/bandit_either_3","A3KC26Z78FBOJT","either","5","5174","","32","","","","","","","","","","","","","","","","","","","","","","","","","","","","","","","","","","","",""
"","text","13","252699","0.0-12.0","29368201","wem/bandit_either_3","A3KC26Z78FBOJT","either","5","2609","","32","","","","","","","","","","","","","","","","","","","","","","","","","","","","","","","","","","","",""
"","text","14","260933","0.0-13.0","29368201","wem/bandit_either_3","A3KC26Z78FBOJT","either","5","8232","","32","","","","","","","","","","","","","","","","","","","","","","","","","","","","","","","","","","","",""
"","bandit","15","264991","0.0-14.0-0.0","29368201","wem/bandit_either_3","A3KC26Z78FBOJT","either","5","2552","","","","","","","0","0","1","0","0","","","","","0","","","","0","","","","","","","","","","","74","J","0","img/none_selected_demo.jpg","true","0","",""
"","bandit","16","268096","0.0-15.0-0.0","29368201","wem/bandit_either_3","A3KC26Z78FBOJT","either","5","1599","","","","","","","0","0","1","0","0","","","","","0","","","","0","","","","","","","","","","","75","K","0","img/none_selected_demo.jpg","true","0","",""
"","text","17","281635","0.0-16.0","29368201","wem/bandit_either_3","A3KC26Z78FBOJT","either","5","13538","","32","","","","","","","","","","","","","","","","","","","","","","","","","","","","","","","","","","","",""
"","text","18","300324","0.0-17.0","29368201","wem/bandit_either_3","A3KC26Z78FBOJT","either","5","18687","","32","","","","","","","","","","","","","","","","","","","","","","","","","","","","","","","","","","","",""
"","text","19","317435","0.0-18.0","29368201","wem/bandit_either_3","A3KC26Z78FBOJT","either","5","17110","","32","","","","","","","","","","","","","","","","","","","","","","","","","","","","","","","","","","","",""
"","text","20","325973","0.0-19.0","29368201","wem/bandit_either_3","A3KC26Z78FBOJT","either","5","8537","","32","","","","","","","","","","","","","","","","","","","","","","","","","","","","","","","","","","","",""
"","bandit","21","328445","0.0-20.0-0.0","29368201","wem/bandit_either_3","A3KC26Z78FBOJT","either","5","966","","","","","","","0","0","1","0.8","","0.5","0.5","","","","","","","0.8","0.2","","","","","","","","","","74","J","0","img/none_selected_demo.jpg","true","0","80_20_practice",""
"","bandit","22","330764","0.0-20.0-1.0","29368201","wem/bandit_either_3","A3KC26Z78FBOJT","either","5","813","","","","","","","0","0","1","","0.8","0.5","0.5","","","0.8","0.2","","","","","","","","","","","","","","74","J","0","img/none_selected_demo.jpg","true","0","80_20_practice",""
"","bandit","23","332551","0.0-20.0-2.0","29368201","wem/bandit_either_3","A3KC26Z78FBOJT","either","5","281","","","","","","","0","0","1","","0.2","0.5","0.5","","","0.8","0.2","","","","","","","","","","","","","","75","K","1","","true","0","80_20_practice",""
"","bandit","24","334297","0.0-20.0-3.0","29368201","wem/bandit_either_3","A3KC26Z78FBOJT","either","5","239","","","","","","","0","0","1","0.2","","0.5","0.5","","","","","","","0.8","0.2","","","","","","","","","","75","K","1","","true","0","80_20_practice",""
"","bandit","25","335858","0.0-20.0-4.0","29368201","wem/bandit_either_3","A3KC26Z78FBOJT","either","5","57","","","","","","","0","0","1","","0.2","0.5","0.5","","","0.8","0.2","","","","","","","","","","","","","","75","K","1","","true","0","80_20_practice",""
"","bandit","26","337436","0.0-20.0-5.0","29368201","wem/bandit_either_3","A3KC26Z78FBOJT","either","5","71","","","","","","","0","1","0","","0.8","0.5","0.5","","","0.8","0.2","","","","","","","","","","","","","","74","J","0","img/none_selected_demo.jpg","true","0","80_20_practice",""
"","bandit","27","339289","0.0-20.0-6.0","29368201","wem/bandit_either_3","A3KC26Z78FBOJT","either","5","348","","","","","","","0","0","1","","0.2","0.5","0.5","","","0.8","0.2","","","","","","","","","","","","","","75","K","1","","true","0","80_20_practice",""
"","bandit","28","340934","0.0-20.0-7.0","29368201","wem/bandit_either_3","A3KC26Z78FBOJT","either","5","140","","","","","","","1","0","0","0.8","","0.5","0.5","","","","","","","0.8","0.2","","","","","","","","","","74","J","0","img/none_selected_demo.jpg","true","0","80_20_practice",""
"","bandit","29","342754","0.0-20.0-8.0","29368201","wem/bandit_either_3","A3KC26Z78FBOJT","either","5","315","","","","","","","0","1","0","","0.8","0.5","0.5","","","0.8","0.2","","","","","","","","","","","","","","74","J","0","img/none_selected_demo.jpg","true","0","80_20_practice",""
"","bandit","30","344521","0.0-20.0-9.0","29368201","wem/bandit_either_3","A3KC26Z78FBOJT","either","5","261","","","","","","","1","0","0","0.8","","0.5","0.5","","","","","","","0.8","0.2","","","","","","","","","","74","J","0","img/none_selected_demo.jpg","true","0","80_20_practice",""
"","bandit","31","346423","0.0-20.0-10.0","29368201","wem/bandit_either_3","A3KC26Z78FBOJT","either","5","396","","","","","","","0","0","1","0.8","","0.5","0.5","","","","","","","0.8","0.2","","","","","","","","","","74","J","0","img/none_selected_demo.jpg","true","0","80_20_practice",""
"","bandit","32","348087","0.0-20.0-11.0","29368201","wem/bandit_either_3","A3KC26Z78FBOJT","either","5","160","","","","","","","0","0","1","","0.2","0.5","0.5","","","0.8","0.2","","","","","","","","","","","","","","75","K","1","","true","0","80_20_practice",""
"","bandit","33","349807","0.0-20.0-12.0","29368201","wem/bandit_either_3","A3KC26Z78FBOJT","either","5","216","","","","","","","1","0","0","0.8","","0.5","0.5","","","","","","","0.8","0.2","","","","","","","","","","74","J","0","img/none_selected_demo.jpg","true","0","80_20_practice",""
"","bandit","34","351643","0.0-20.0-13.0","29368201","wem/bandit_either_3","A3KC26Z78FBOJT","either","5","331","","","","","","","1","0","0","0.8","","0.5","0.5","","","","","","","0.8","0.2","","","","","","","","","","74","J","0","img/none_selected_demo.jpg","true","0","80_20_practice",""
"","bandit","35","353376","0.0-20.0-14.0","29368201","wem/bandit_either_3","A3KC26Z78FBOJT","either","5","228","","","","","","","0","1","0","","0.8","0.5","0.5","","","0.8","0.2","","","","","","","","","","","","","","74","J","0","img/none_selected_demo.jpg","true","0","80_20_practice",""
"","bandit","36","355054","0.0-20.0-15.0","29368201","wem/bandit_either_3","A3KC26Z78FBOJT","either","5","171","","","","","","","1","0","0","0.8","","0.5","0.5","","","","","","","0.8","0.2","","","","","","","","","","74","J","0","img/none_selected_demo.jpg","true","0","80_20_practice",""
"","bandit","37","356807","0.0-20.0-16.0","29368201","wem/bandit_either_3","A3KC26Z78FBOJT","either","5","248","","","","","","","0","0","1","0.8","","0.5","0.5","","","","","","","0.8","0.2","","","","","","","","","","74","J","0","img/none_selected_demo.jpg","true","0","80_20_practice",""
"","bandit","38","358473","0.0-20.0-17.0","29368201","wem/bandit_either_3","A3KC26Z78FBOJT","either","5","160","","","","","","","0","0","1","","0.2","0.5","0.5","","","0.8","0.2","","","","","","","","","","","","","","75","K","1","","true","0","80_20_practice",""
"","bandit","39","360306","0.0-20.0-18.0","29368201","wem/bandit_either_3","A3KC26Z78FBOJT","either","5","327","","","","","","","0","1","0","","0.8","0.5","0.5","","","0.8","0.2","","","","","","","","","","","","","","74","J","0","img/none_selected_demo.jpg","true","0","80_20_practice",""
"","bandit","40","362557","0.0-20.0-19.0","29368201","wem/bandit_either_3","A3KC26Z78FBOJT","either","5","743","","","","","","","0","1","0","","0.8","0.5","0.5","","","0.8","0.2","","","","","","","","","","","","","","74","J","0","img/none_selected_demo.jpg","true","0","80_20_practice",""
"","text","41","367141","0.0-21.0","29368201","wem/bandit_either_3","A3KC26Z78FBOJT","either","5","4581","","32","","","","","","","","","","","","","","","","","","","","","","","","","","","","","","","","","","","",""
"","bandit","42","369881","0.0-22.0-0.0","29368201","wem/bandit_either_3","A3KC26Z78FBOJT","either","5","1234","","","","","","","1","0","0","1","0","","","","","0","1","","","1","0","","","","","","","","","","74","J","0","img/none_selected_demo.jpg","true","0","",""
"","text","43","376613","0.0-23.0","29368201","wem/bandit_either_3","A3KC26Z78FBOJT","either","5","6731","","32","","","","","","","","","","","","","","","","","","","","","","","","","","","","","","","","","","","",""
"","text","44","380708","0.0-24.0","29368201","wem/bandit_either_3","A3KC26Z78FBOJT","either","5","4094","","32","","","","","","","","","","","","","","","","","","","","","","","","","","","","","","","","","","","",""
"","text","45","383678","0.0-25.0","29368201","wem/bandit_either_3","A3KC26Z78FBOJT","either","5","2968","","32","","","","","","","","","","","","","","","","","","","","","","","","","","","","","","","","","","","",""
"","text","46","387313","0.0-26.0","29368201","wem/bandit_either_3","A3KC26Z78FBOJT","either","5","3635","","32","","","","","","","","","","","","","","","","","","","","","","","","","","","","","","","","","","","",""
"","text","47","409173","0.0-27.0","29368201","wem/bandit_either_3","A3KC26Z78FBOJT","either","5","21858","","32","","","","","","","","","","","","","","","","","","","","","","","","","","","","","","","","","","","",""
"","text","48","419175","0.0-28.0","29368201","wem/bandit_either_3","A3KC26Z78FBOJT","either","5","10001","","32","","","","","","","","","","","","","","","","","","","","","","","","","","","","","","","","","","","",""
"","text","49","428343","0.0-29.0","29368201","wem/bandit_either_3","A3KC26Z78FBOJT","either","5","9166","","32","","","","","","","","","","","","","","","","","","","","","","","","","","","","","","","","","","","",""
"","text","50","434174","0.0-30.0","29368201","wem/bandit_either_3","A3KC26Z78FBOJT","either","5","5829","","32","","","","","","","","","","","","","","","","","","","","","","","","","","","","","","","","","","","",""
"","text","51","444859","0.0-31.0","29368201","wem/bandit_either_3","A3KC26Z78FBOJT","either","5","10684","","32","","","","","","","","","","","","","","","","","","","","","","","","","","","","","","","","","","","",""
"","text","52","448448","0.0-32.0","29368201","wem/bandit_either_3","A3KC26Z78FBOJT","either","5","3587","","32","","","","","","","","","","","","","","","","","","","","","","","","","","","","","","","","","","","",""
"","text","53","454793","0.0-33.0","29368201","wem/bandit_either_3","A3KC26Z78FBOJT","either","5","6345","","32","","","","","","","","","","","","","","","","","","","","","","","","","","","","","","","","","","","",""
"","bandit","54","457618","0.0-34.0-0.0","29368201","wem/bandit_either_3","A3KC26Z78FBOJT","either","5","1314","","","","","","","0","1","0","","0.8","0.5","0.5","0.5","0.5","0.8","0.2","0.6","0.2","","","","","","","","","","","","72","H","0","img/none_selected.jpg","true","0","full_practice",""
"","bandit","55","459525","0.0-34.0-1.0","29368201","wem/bandit_either_3","A3KC26Z78FBOJT","either","5","403","","","","","","","0","0","1","","0.2","0.5","0.5","0.5","0.5","0.8","0.2","0.6","0.2","","","","","","","","","","","","74","J","1","","true","0","full_practice",""
"","bandit","56","461101","0.0-34.0-2.0","29368201","wem/bandit_either_3","A3KC26Z78FBOJT","either","5","70","","","","","","","1","0","0","0.6","","0.5","0.5","0.5","0.5","","","","","0.8","0.2","0.6","0.2","","","","","","","","75","K","2","","true","0","full_practice",""
"","bandit","57","462924","0.0-34.0-3.0","29368201","wem/bandit_either_3","A3KC26Z78FBOJT","either","5","317","","","","","","","0","0","1","0.2","","0.5","0.5","0.5","0.5","","","","","0.8","0.2","0.6","0.2","","","","","","","","76","L","3","","true","0","full_practice",""
"","bandit","58","464588","0.0-34.0-4.0","29368201","wem/bandit_either_3","A3KC26Z78FBOJT","either","5","159","","","","","","","0","1","0","","0.6","0.5","0.5","0.5","0.5","0.8","0.2","0.6","0.2","","","","","","","","","","","","75","K","2","","true","0","full_practice",""
"","bandit","59","466602","0.0-34.0-5.0","29368201","wem/bandit_either_3","A3KC26Z78FBOJT","either","5","508","","","","","","","1","0","0","0.8","","0.5","0.5","0.5","0.5","","","","","0.8","0.2","0.6","0.2","","","","","","","","72","H","0","img/none_selected.jpg","true","0","full_practice",""
"","bandit","60","468189","0.0-34.0-6.0","29368201","wem/bandit_either_3","A3KC26Z78FBOJT","either","5","83","","","","","","","0","1","0","","0.6","0.5","0.5","0.5","0.5","0.8","0.2","0.6","0.2","","","","","","","","","","","","75","K","2","","true","0","full_practice",""
"","bandit","61","469921","0.0-34.0-7.0","29368201","wem/bandit_either_3","A3KC26Z78FBOJT","either","5","226","","","","","","","0","0","1","","0.2","0.5","0.5","0.5","0.5","0.8","0.2","0.6","0.2","","","","","","","","","","","","74","J","1","","true","0","full_practice",""
"","bandit","62","471709","0.0-34.0-8.0","29368201","wem/bandit_either_3","A3KC26Z78FBOJT","either","5","284","","","","","","","0","0","1","","0.8","0.5","0.5","0.5","0.5","0.8","0.2","0.6","0.2","","","","","","","","","","","","72","H","0","img/none_selected.jpg","true","0","full_practice",""
"","bandit","63","474052","0.0-34.0-9.0","29368201","wem/bandit_either_3","A3KC26Z78FBOJT","either","5","835","","","","","","","1","0","0","0.6","","0.5","0.5","0.5","0.5","","","","","0.8","0.2","0.6","0.2","","","","","","","","75","K","2","","true","0","full_practice",""
"","bandit","64","475772","0.0-34.0-10.0","29368201","wem/bandit_either_3","A3KC26Z78FBOJT","either","5","215","","","","","","","0","1","0","","0.8","0.5","0.5","0.5","0.5","0.8","0.2","0.6","0.2","","","","","","","","","","","","72","H","0","img/none_selected.jpg","true","0","full_practice",""
"","bandit","65","477572","0.0-34.0-11.0","29368201","wem/bandit_either_3","A3KC26Z78FBOJT","either","5","294","","","","","","","0","0","1","","0.6","0.5","0.5","0.5","0.5","0.8","0.2","0.6","0.2","","","","","","","","","","","","75","K","2","","true","0","full_practice",""
"","bandit","66","479338","0.0-34.0-12.0","29368201","wem/bandit_either_3","A3KC26Z78FBOJT","either","5","261","","","","","","","1","0","0","0.8","","0.5","0.5","0.5","0.5","","","","","0.8","0.2","0.6","0.2","","","","","","","","72","H","0","img/none_selected.jpg","true","0","full_practice",""
"","bandit","67","481003","0.0-34.0-13.0","29368201","wem/bandit_either_3","A3KC26Z78FBOJT","either","5","158","","","","","","","1","0","0","0.8","","0.5","0.5","0.5","0.5","","","","","0.8","0.2","0.6","0.2","","","","","","","","72","H","0","img/none_selected.jpg","true","0","full_practice",""
"","bandit","68","482713","0.0-34.0-14.0","29368201","wem/bandit_either_3","A3KC26Z78FBOJT","either","5","203","","","","","","","0","1","0","","0.8","0.5","0.5","0.5","0.5","0.8","0.2","0.6","0.2","","","","","","","","","","","","72","H","0","img/none_selected.jpg","true","0","full_practice",""
"","bandit","69","484447","0.0-34.0-15.0","29368201","wem/bandit_either_3","A3KC26Z78FBOJT","either","5","227","","","","","","","0","1","0","","0.8","0.5","0.5","0.5","0.5","0.8","0.2","0.6","0.2","","","","","","","","","","","","72","H","0","img/none_selected.jpg","true","0","full_practice",""
"","bandit","70","486237","0.0-34.0-16.0","29368201","wem/bandit_either_3","A3KC26Z78FBOJT","either","5","281","","","","","","","0","0","1","0.8","","0.5","0.5","0.5","0.5","","","","","0.8","0.2","0.6","0.2","","","","","","","","72","H","0","img/none_selected.jpg","true","0","full_practice",""
"","bandit","71","487869","0.0-34.0-17.0","29368201","wem/bandit_either_3","A3KC26Z78FBOJT","either","5","123","","","","","","","0","1","0","","0.6","0.5","0.5","0.5","0.5","0.8","0.2","0.6","0.2","","","","","","","","","","","","75","K","2","","true","0","full_practice",""
"","bandit","72","489589","0.0-34.0-18.0","29368201","wem/bandit_either_3","A3KC26Z78FBOJT","either","5","215","","","","","","","0","0","1","","0.6","0.5","0.5","0.5","0.5","0.8","0.2","0.6","0.2","","","","","","","","","","","","75","K","2","","true","0","full_practice",""
"","bandit","73","491253","0.0-34.0-19.0","29368201","wem/bandit_either_3","A3KC26Z78FBOJT","either","5","158","","","","","","","0","0","1","","0.2","0.5","0.5","0.5","0.5","0.8","0.2","0.6","0.2","","","","","","","","","","","","76","L","3","","true","0","full_practice",""
"","text","74","494767","0.0-35.0","29368201","wem/bandit_either_3","A3KC26Z78FBOJT","either","5","3511","","32","","","","","","","","","","","","","","","","","","","","","","","","","","","","","","","","","","","",""
"","text","75","513466","0.0-36.0","29368201","wem/bandit_either_3","A3KC26Z78FBOJT","either","5","17696","","32","","","","","","","","","","","","","","","","","","","","","","","","","","","","","","","","","","","",""
"","text","76","860515","0.0-37.0","29368201","wem/bandit_either_3","A3KC26Z78FBOJT","either","5","347047","","32","","","","","","","","","","","","","","","","","","","","","","","","","","","","","","","","","","","",""
"","text","77","864125","0.0-38.0","29368201","wem/bandit_either_3","A3KC26Z78FBOJT","either","5","3608","","32","","","","","","","","","","","","","","","","","","","","","","","","","","","","","","","","","","","",""
"","text","78","870156","0.0-39.0","29368201","wem/bandit_either_3","A3KC26Z78FBOJT","either","5","6029","","32","","","","","","","","","","","","","","","","","","","","","","","","","","","","","","","","","","","",""
"","text","79","875444","0.0-40.0","29368201","wem/bandit_either_3","A3KC26Z78FBOJT","either","5","5285","","32","","","","","","","","","","","","","","","","","","","","","","","","","","","","","","","","","","","",""
"","bandit","80","878309","0.0-41.0-0.0","29368201","wem/bandit_either_3","A3KC26Z78FBOJT","either","5","1357","","","","","","","0","1","0","","0.32692793","0.4","0.2","0.6","0.8","0.32692793","0.4253928501","0.4909711759","0.6131215568","","","","","","","","","","","","72","H","0","img/none_selected.jpg","","1","main_expt",""
"","bandit","81","880162","0.0-42.0-0.0","29368201","wem/bandit_either_3","A3KC26Z78FBOJT","either","5","349","","","","","","","0","1","0","","0.5447097682","0.4","0.2","0.6","0.8","0.3068321923","0.5447097682","0.5514346198","0.6783759564","","","","","","","","","","","","74","J","1","","","2","main_expt",""
"","bandit","82","881908","0.0-43.0-0.0","29368201","wem/bandit_either_3","A3KC26Z78FBOJT","either","5","239","","","","","","","1","0","0","0.5966913043","","0.4","0.2","0.6","0.8","","","","","0.2871808385","0.5631376832","0.5966913043","0.6535049038","","","","","","","","75","K","2","","","3","main_expt",""
"","bandit","83","883787","0.0-44.0-0.0","29368201","wem/bandit_either_3","A3KC26Z78FBOJT","either","5","373","","","","","","","0","0","1","0.5433476707","","0.4","0.2","0.6","0.8","","","","","0.3062311279","0.5889355808","0.6236804691","0.5433476707","","","","","","","","76","L","3","","","4","main_expt",""
"","bandit","84","885567","0.0-45.0-0.0","29368201","wem/bandit_either_3","A3KC26Z78FBOJT","either","5","272","","","","","","","0","0","1","","0.2453374439","0.4","0.2","0.6","0.8","0.2453374439","0.6125363118","0.5844938386","0.4256320799","","","","","","","","","","","","72","H","0","img/none_selected.jpg","","5","main_expt",""
"","bandit","85","887343","0.0-46.0-0.0","29368201","wem/bandit_either_3","A3KC26Z78FBOJT","either","5","270","","","","","","","0","0","1","0.5204159956","","0.4","0.2","0.6","0.8","","","","","0.2258644136","0.5204159956","0.4929788692","0.4097031487","","","","","","","","74","J","1","","","6","main_expt",""
"","bandit","86","889132","0.0-47.0-0.0","29368201","wem/bandit_either_3","A3KC26Z78FBOJT","either","5","279","","","","","","","0","1","0","","0.3978044106","0.4","0.2","0.6","0.8","0.2251512132","0.5949894572","0.3978044106","0.4614862243","","","","","","","","","","","","75","K","2","","","7","main_expt",""
"","bandit","87","890932","0.0-48.0-0.0","29368201","wem/bandit_either_3","A3KC26Z78FBOJT","either","5","294","","","","","","","0","0","1","","0.5080346622","0.4","0.2","0.6","0.8","0.1597376121","0.7043393759","0.5080346622","0.4305419438","","","","","","","","","","","","75","K","2","","","8","main_expt",""
"","bandit","88","892718","0.0-49.0-0.0","29368201","wem/bandit_either_3","A3KC26Z78FBOJT","either","5","282","","","","","","","0","0","1","0.6000641755","","0.4","0.2","0.6","0.8","","","","","0.1395884133","0.6866437556","0.440708512","0.6000641755","","","","","","","","76","L","3","","","9","main_expt",""
"","bandit","89","895083","0.0-50.0-0.0","29368201","wem/bandit_either_3","A3KC26Z78FBOJT","either","5","858","","","","","","","0","0","1","0.1529628815","","0.4","0.2","0.6","0.8","","","","","0.1529628815","0.6743415364","0.4862198985","0.66675231","","","","","","","","72","H","0","img/none_selected.jpg","","10","main_expt",""
"","bandit","90","896681","0.0-51.0-0.0","29368201","wem/bandit_either_3","A3KC26Z78FBOJT","either","5","92","","","","","","","0","0","1","","0.6907290289","0.4","0.2","0.6","0.8","0.1918890603","0.6907290289","0.4942886423","0.538431352","","","","","","","","","","","","74","J","1","","","11","main_expt",""
"","bandit","91","898391","0.0-52.0-0.0","29368201","wem/bandit_either_3","A3KC26Z78FBOJT","either","5","204","","","","","","","0","0","1","","0.4999864232","0.4","0.2","0.6","0.8","0.1412308375","0.7254617755","0.4999864232","0.5683478731","","","","","","","","","","","","75","K","2","","","12","main_expt",""
"","bandit","92","900380","0.0-53.0-0.0","29368201","wem/bandit_either_3","A3KC26Z78FBOJT","either","5","484","","","","","","","0","0","1","","0.3945724157","0.4","0.2","0.6","0.8","0.1854965676","0.7533793381","0.3945724157","0.5870071372","","","","","","","","","","","","75","K","2","","","13","main_expt",""
"","bandit","93","902114","0.0-54.0-0.0","29368201","wem/bandit_either_3","A3KC26Z78FBOJT","either","5","228","","","","","","","0","1","0","","0.2200151947","0.4","0.2","0.6","0.8","0.2200151947","0.6909187676","0.458684297","0.3389967741","","","","","","","","","","","","72","H","0","img/none_selected.jpg","","14","main_expt",""
"","bandit","94","903778","0.0-55.0-0.0","29368201","wem/bandit_either_3","A3KC26Z78FBOJT","either","5","158","","","","","","","0","1","0","","0.7916820586","0.4","0.2","0.6","0.8","0.1497743902","0.7916820586","0.5338449271","0.2927381815","","","","","","","","","","","","74","J","1","","","15","main_expt",""
"","bandit","95","905545","0.0-56.0-0.0","29368201","wem/bandit_either_3","A3KC26Z78FBOJT","either","5","262","","","","","","","0","0","1","0.1767244745","","0.4","0.2","0.6","0.8","","","","","0.1767244745","0.7991661796","0.6821016448","0.2268478953","","","","","","","","72","H","0","img/none_selected.jpg","","16","main_expt",""
"","bandit","96","907289","0.0-57.0-0.0","29368201","wem/bandit_either_3","A3KC26Z78FBOJT","either","5","238","","","","","","","0","0","1","","0.7352739439","0.4","0.2","0.6","0.8","0.1953364786","0.7352739439","0.6963612506","0.2364877179","","","","","","","","","","","","74","J","1","","","17","main_expt",""
"","bandit","97","908988","0.0-58.0-0.0","29368201","wem/bandit_either_3","A3KC26Z78FBOJT","either","5","194","","","","","","","1","0","0","0.7035779666","","0.4","0.2","0.6","0.8","","","","","0.139355503","0.6911569498","0.7035779666","0.280777314","","","","","","","","75","K","2","","","18","main_expt",""
"","bandit","98","911037","0.0-59.0-0.0","29368201","wem/bandit_either_3","A3KC26Z78FBOJT","either","5","543","","","","","","","0","0","1","","0.6372159304","0.4","0.2","0.6","0.8","0.129677489","0.6372159304","0.677086514","0.3280428268","","","","","","","","","","","","74","J","1","","","19","main_expt",""
"","bandit","99","912803","0.0-60.0-0.0","29368201","wem/bandit_either_3","A3KC26Z78FBOJT","either","5","259","","","","","","","0","0","1","","0.1584506979","0.4","0.2","0.6","0.8","0.1584506979","0.5917564331","0.5211019236","0.213865824","","","","","","","","","","","","72","H","0","img/none_selected.jpg","","20","main_expt",""
"","bandit","100","914502","0.0-61.0-0.0","29368201","wem/bandit_either_3","A3KC26Z78FBOJT","either","5","192","","","","","","","1","0","0","0.6040081297","","0.4","0.2","0.6","0.8","","","","","0.1934985877","0.6351733259","0.6040081297","0.2755747612","","","","","","","","75","K","2","","","21","main_expt",""
"","bandit","101","916325","0.0-62.0-0.0","29368201","wem/bandit_either_3","A3KC26Z78FBOJT","either","5","314","","","","","","","1","0","0","0.3096891892","","0.4","0.2","0.6","0.8","","","","","0.1184813826","0.57448168","0.5276460007","0.3096891892","","","","","","","","76","L","3","","","22","main_expt",""
"","bandit","102","918046","0.0-63.0-0.0","29368201","wem/bandit_either_3","A3KC26Z78FBOJT","either","5","213","","","","","","","1","0","0","0.4373756081","","0.4","0.2","0.6","0.8","","","","","0.1387482349","0.532235281","0.4373756081","0.1855444332","","","","","","","","75","K","2","","","23","main_expt",""
"","bandit","103","919766","0.0-64.0-0.0","29368201","wem/bandit_either_3","A3KC26Z78FBOJT","either","5","215","","","","","","","0","0","1","","0.2026045625","0.4","0.2","0.6","0.8","0.1275075135","0.4695599312","0.4051577966","0.2026045625","","","","","","","","","","","","76","L","3","","","24","main_expt",""
"","bandit","104","921409","0.0-65.0-0.0","29368201","wem/bandit_either_3","A3KC26Z78FBOJT","either","5","137","","","","","","","0","0","1","0.3583026632","","0.4","0.2","0.6","0.8","","","","","0.1324238285","0.3710761786","0.3583026632","0.2610081957","","","","","","","","75","K","2","","","25","main_expt",""
"","bandit","105","923108","0.0-66.0-0.0","29368201","wem/bandit_either_3","A3KC26Z78FBOJT","either","5","192","","","","","","","0","0","1","0.2222282692","","0.4","0.2","0.6","0.8","","","","","0.2222282692","0.3104834237","0.4070676783","0.2068764453","","","","","","","","72","H","0","img/none_selected.jpg","","26","main_expt",""
"","bandit","106","924671","0.0-67.0-0.0","29368201","wem/bandit_either_3","A3KC26Z78FBOJT","either","5","56","","","","","","","0","0","1","","0.4250638914","0.4","0.2","0.6","0.8","0.2367528544","0.4250638914","0.3962805628","0.1387354037","","","","","","","","","","","","74","J","1","","","27","main_expt",""
"","bandit","107","926395","0.0-68.0-0.0","29368201","wem/bandit_either_3","A3KC26Z78FBOJT","either","5","216","","","","","","","0","0","1","","0.3381264529","0.4","0.2","0.6","0.8","0.1581712713","0.3738912408","0.3381264529","0.2065421522","","","","","","","","","","","","75","K","2","","","28","main_expt",""
"","bandit","108","928013","0.0-69.0-0.0","29368201","wem/bandit_either_3","A3KC26Z78FBOJT","either","5","111","","","","","","","0","0","1","0.2452437498","","0.4","0.2","0.6","0.8","","","","","0.2361440946","0.411092256","0.3405446746","0.2452437498","","","","","","","","76","L","3","","","29","main_expt",""
"","bandit","109","929700","0.0-70.0-0.0","29368201","wem/bandit_either_3","A3KC26Z78FBOJT","either","5","181","","","","","","","0","0","1","","0.3076129501","0.4","0.2","0.6","0.8","0.3051502752","0.306262239","0.3536414415","0.3076129501","","","","","","","","","","","","76","L","3","","","30","main_expt",""
"","bandit","110","931422","0.0-71.0-0.0","29368201","wem/bandit_either_3","A3KC26Z78FBOJT","either","5","216","","","","","","","0","0","1","","0.3201297868","0.4","0.2","0.6","0.8","0.3588845582","0.2846857217","0.3201297868","0.275744379","","","","","","","","","","","","75","K","2","","","31","main_expt",""
"","bandit","111","933052","0.0-72.0-0.0","29368201","wem/bandit_either_3","A3KC26Z78FBOJT","either","5","123","","","","","","","0","0","1","","0.260797537","0.4","0.2","0.6","0.8","0.3351264969","0.260797537","0.414050106","0.1582224348","","","","","","","","","","","","74","J","1","","","32","main_expt",""
"","bandit","112","934853","0.0-73.0-0.0","29368201","wem/bandit_either_3","A3KC26Z78FBOJT","either","5","295","","","","","","","0","0","1","","0.3369799553","0.4","0.2","0.6","0.8","0.3369799553","0.3108282978","0.4846208784","0.07234251762","","","","","","","","","","","","72","H","0","img/none_selected.jpg","","33","main_expt",""
"","bandit","113","936416","0.0-74.0-0.0","29368201","wem/bandit_either_3","A3KC26Z78FBOJT","either","5","56","","","","","","","0","0","1","","0.3040676539","0.4","0.2","0.6","0.8","0.3040676539","0.3996464291","0.4250330595","0.07244310326","","","","","","","","","","","","72","H","0","img/none_selected.jpg","","34","main_expt",""
"","bandit","114","937982","0.0-75.0-0.0","29368201","wem/bandit_either_3","A3KC26Z78FBOJT","either","5","58","","","","","","","0","0","1","","0.2974236485","0.4","0.2","0.6","0.8","0.2974236485","0.4368131495","0.499329675","0.07140094546","","","","","","","","","","","","72","H","0","img/none_selected.jpg","","35","main_expt",""
"","bandit","115","939655","0.0-76.0-0.0","29368201","wem/bandit_either_3","A3KC26Z78FBOJT","either","5","168","","","","","","","0","0","1","0.3396719642","","0.4","0.2","0.6","0.8","","","","","0.310238309","0.3396719642","0.3892953339","0.08624361683","","","","","","","","74","J","1","","","36","main_expt",""
"","bandit","116","941221","0.0-77.0-0.0","29368201","wem/bandit_either_3","A3KC26Z78FBOJT","either","5","58","","","","","","","0","0","1","0.4409026667","","0.4","0.2","0.6","0.8","","","","","0.2818719109","0.4409026667","0.3680424748","0.07543251018","","","","","","","","74","J","1","","","37","main_expt",""
"","bandit","117","942865","0.0-78.0-0.0","29368201","wem/bandit_either_3","A3KC26Z78FBOJT","either","5","137","","","","","","","1","0","0","0.4909804269","","0.4","0.2","0.6","0.8","","","","","0.2925765749","0.489392614","0.4909804269","0.1324785543","","","","","","","","75","K","2","","","38","main_expt",""
"","bandit","118","944643","0.0-79.0-0.0","29368201","wem/bandit_either_3","A3KC26Z78FBOJT","either","5","270","","","","","","","0","0","1","0.5165168671","","0.4","0.2","0.6","0.8","","","","","0.3033582507","0.4403114744","0.5165168671","0.1824024676","","","","","","","","75","K","2","","","39","main_expt",""
"","bandit","119","946227","0.0-80.0-0.0","29368201","wem/bandit_either_3","A3KC26Z78FBOJT","either","5","78","","","","","","","1","0","0","0.6036007873","","0.4","0.2","0.6","0.8","","","","","0.2371445562","0.343221944","0.6036007873","0.09861269436","","","","","","","","75","K","2","","","40","main_expt",""
"","bandit","120","947982","0.0-81.0-0.0","29368201","wem/bandit_either_3","A3KC26Z78FBOJT","either","5","250","","","","","","","0","0","1","0.6078828369","","0.4","0.2","0.6","0.8","","","","","0.2072661203","0.450343793","0.6078828369","0.1028082326","","","","","","","","75","K","2","","","41","main_expt",""
"","bandit","121","949591","0.0-82.0-0.0","29368201","wem/bandit_either_3","A3KC26Z78FBOJT","either","5","104","","","","","","","0","0","1","","0.5757077757","0.4","0.2","0.6","0.8","0.1850700716","0.4422822993","0.5757077757","0.1326350751","","","","","","","","","","","","75","K","2","","","42","main_expt",""
"","bandit","122","951270","0.0-83.0-0.0","29368201","wem/bandit_either_3","A3KC26Z78FBOJT","either","5","173","","","","","","","0","0","1","","0.1700345657","0.4","0.2","0.6","0.8","0.1700345657","0.4755437476","0.504524575","0.1591685393","","","","","","","","","","","","72","H","0","img/none_selected.jpg","","43","main_expt",""
"","bandit","123","952821","0.0-84.0-0.0","29368201","wem/bandit_either_3","A3KC26Z78FBOJT","either","5","45","","","","","","","0","1","0","","0.6211160782","0.4","0.2","0.6","0.8","0.150922449","0.6211160782","0.3354744533","0.1558361793","","","","","","","","","","","","74","J","1","","","44","main_expt",""
"","bandit","124","954554","0.0-85.0-0.0","29368201","wem/bandit_either_3","A3KC26Z78FBOJT","either","5","227","","","","","","","0","1","0","","0.2259933845","0.4","0.2","0.6","0.8","0.08792573626","0.5950963145","0.2259933845","0.08224127908","","","","","","","","","","","","75","K","2","","","45","main_expt",""
"","bandit","125","956194","0.0-86.0-0.0","29368201","wem/bandit_either_3","A3KC26Z78FBOJT","either","5","135","","","","","","","0","0","1","0.05681632526","","0.4","0.2","0.6","0.8","","","","","0.05210962111","0.600883672","0.1991815266","0.05681632526","","","","","","","","76","L","3","","","46","main_expt",""
"","bandit","126","957894","0.0-87.0-0.0","29368201","wem/bandit_either_3","A3KC26Z78FBOJT","either","5","194","","","","","","","0","0","1","","0.1658512007","0.4","0.2","0.6","0.8","0.1658512007","0.6018426621","0.1821259253","0.02046531905","","","","","","","","","","","","72","H","0","img/none_selected.jpg","","47","main_expt",""
"","bandit","127","959650","0.0-88.0-0.0","29368201","wem/bandit_either_3","A3KC26Z78FBOJT","either","5","249","","","","","","","1","0","0","0.6719149388","","0.4","0.2","0.6","0.8","","","","","0.2171730843","0.6719149388","0.1850219792","0.02793369594","","","","","","","","74","J","1","","","48","main_expt",""
"","bandit","128","961294","0.0-89.0-0.0","29368201","wem/bandit_either_3","A3KC26Z78FBOJT","either","5","138","","","","","","","0","0","1","0.2843491098","","0.4","0.2","0.6","0.8","","","","","0.2545874694","0.5824093935","0.2843491098","0.01520235592","","","","","","","","75","K","2","","","49","main_expt",""
"","bandit","129","962834","0.0-90.0-0.0","29368201","wem/bandit_either_3","A3KC26Z78FBOJT","either","5","33","","","","","","","0","0","1","","0.5697547833","0.4","0.2","0.6","0.8","0.1971443839","0.5697547833","0.2385085868","0.008868670712","","","","","","","","","","","","74","J","1","","","50","main_expt",""
"","bandit","130","964365","0.0-91.0-0.0","29368201","wem/bandit_either_3","A3KC26Z78FBOJT","either","5","23","","","","","","","0","0","1","","0.2762119933","0.4","0.2","0.6","0.8","0.1743954459","0.5875551098","0.2762119933","0.004668439046","","","","","","","","","","","","75","K","2","","","51","main_expt",""
"","bandit","131","965928","0.0-92.0-0.0","29368201","wem/bandit_either_3","A3KC26Z78FBOJT","either","5","57","","","","","","","0","1","0","","0.691822337","0.4","0.2","0.6","0.8","0.1007451992","0.691822337","0.2350807626","0.003090075005","","","","","","","","","","","","74","J","1","","","52","main_expt",""
"","bandit","132","968291","0.0-93.0-0.0","29368201","wem/bandit_either_3","A3KC26Z78FBOJT","either","5","856","","","","","","","1","0","0","0.7363191169","","0.4","0.2","0.6","0.8","","","","","0.1648918076","0.7363191169","0.2301492847","0.003474758773","","","","","","","","74","J","1","","","53","main_expt",""
"","bandit","133","969979","0.0-94.0-0.0","29368201","wem/bandit_either_3","A3KC26Z78FBOJT","either","5","179","","","","","","","0","0","1","","0.7639548597","0.4","0.2","0.6","0.8","0.1761014763","0.7639548597","0.2779325162","0.003279238457","","","","","","","","","","","","74","J","1","","","54","main_expt",""
"","bandit","134","971733","0.0-95.0-0.0","29368201","wem/bandit_either_3","A3KC26Z78FBOJT","either","5","246","","","","","","","0","0","1","0.1460392243","","0.4","0.2","0.6","0.8","","","","","0.1460392243","0.7264154962","0.2882189161","0.001847339967","","","","","","","","72","H","0","img/none_selected.jpg","","55","main_expt",""
"","bandit","135","973296","0.0-96.0-0.0","29368201","wem/bandit_either_3","A3KC26Z78FBOJT","either","5","56","","","","","","","0","0","1","0.001186331615","","0.4","0.2","0.6","0.8","","","","","0.1882527018","0.7511403137","0.2646822794","0.001186331615","","","","","","","","76","L","3","","","56","main_expt",""
"","bandit","136","974883","0.0-97.0-0.0","29368201","wem/bandit_either_3","A3KC26Z78FBOJT","either","5","80","","","","","","","0","0","1","","0.6292194553","0.4","0.2","0.6","0.8","0.1836596221","0.6292194553","0.3080117871","0.001917609755","","","","","","","","","","","","74","J","1","","","57","main_expt",""
"","bandit","137","976469","0.0-98.0-0.0","29368201","wem/bandit_either_3","A3KC26Z78FBOJT","either","5","80","","","","","","","0","1","0","","0.2609020091","0.4","0.2","0.6","0.8","0.2259562874","0.5622591622","0.2609020091","0.004115025419","","","","","","","","","","","","75","K","2","","","58","main_expt",""
"","bandit","138","978090","0.0-99.0-0.0","29368201","wem/bandit_either_3","A3KC26Z78FBOJT","either","5","114","","","","","","","0","0","1","","0.3014652953","0.4","0.2","0.6","0.8","0.1673227733","0.6394190939","0.3014652953","0.007083433589","","","","","","","","","","","","75","K","2","","","59","main_expt",""
"","bandit","139","979708","0.0-100.0-0.0","29368201","wem/bandit_either_3","A3KC26Z78FBOJT","either","5","112","","","","","","","0","1","0","","0.502148976","0.4","0.2","0.6","0.8","0.1404143731","0.502148976","0.2872544729","0.0100473459","","","","","","","","","","","","74","J","1","","","60","main_expt",""
"","bandit","140","981365","0.0-101.0-0.0","29368201","wem/bandit_either_3","A3KC26Z78FBOJT","either","5","149","","","","","","","0","0","1","0.2347068593","","0.4","0.2","0.6","0.8","","","","","0.1087230511","0.5541662771","0.2347068593","0.02288810402","","","","","","","","75","K","2","","","61","main_expt",""
"","bandit","141","982996","0.0-102.0-0.0","29368201","wem/bandit_either_3","A3KC26Z78FBOJT","either","5","124","","","","","","","0","1","0","","0.6016144889","0.4","0.2","0.6","0.8","0.1173770395","0.6016144889","0.1786743828","0.04890713094","","","","","","","","","","","","74","J","1","","","62","main_expt",""
"","bandit","142","984637","0.0-103.0-0.0","29368201","wem/bandit_either_3","A3KC26Z78FBOJT","either","5","135","","","","","","","0","1","0","","0.6306423252","0.4","0.2","0.6","0.8","0.1173961002","0.6306423252","0.1627017484","0.06015841579","","","","","","","","","","","","74","J","1","","","63","main_expt",""
"","bandit","143","986191","0.0-104.0-0.0","29368201","wem/bandit_either_3","A3KC26Z78FBOJT","either","5","46","","","","","","","0","1","0","","0.5963496952","0.4","0.2","0.6","0.8","0.1093057248","0.5963496952","0.2220220934","0.0697324588","","","","","","","","","","","","74","J","1","","","64","main_expt",""
"","bandit","144","987901","0.0-105.0-0.0","29368201","wem/bandit_either_3","A3KC26Z78FBOJT","either","5","203","","","","","","","1","0","0","0.5835424673","","0.4","0.2","0.6","0.8","","","","","0.1437581537","0.5835424673","0.1387290973","0.03955641554","","","","","","","","74","J","1","","","65","main_expt",""
"","bandit","145","989509","0.0-106.0-0.0","29368201","wem/bandit_either_3","A3KC26Z78FBOJT","either","5","100","","","","","","","1","0","0","0.5789137396","","0.4","0.2","0.6","0.8","","","","","0.1321246006","0.5789137396","0.1481952943","0.04104317144","","","","","","","","74","J","1","","","66","main_expt",""
"","bandit","146","991175","0.0-107.0-0.0","29368201","wem/bandit_either_3","A3KC26Z78FBOJT","either","5","159","","","","","","","0","1","0","","0.6503196648","0.4","0.2","0.6","0.8","0.1441415222","0.6503196648","0.1354395346","0.07749417123","","","","","","","","","","","","74","J","1","","","67","main_expt",""
"","bandit","147","992951","0.0-108.0-0.0","29368201","wem/bandit_either_3","A3KC26Z78FBOJT","either","5","270","","","","","","","0","1","0","","0.7295955131","0.4","0.2","0.6","0.8","0.1794787892","0.7295955131","0.09431815687","0.1606162296","","","","","","","","","","","","74","J","1","","","68","main_expt",""
"","bandit","148","994469","0.0-109.0-0.0","29368201","wem/bandit_either_3","A3KC26Z78FBOJT","either","5","13","","","","","","","1","0","0","0.7924649224","","0.4","0.2","0.6","0.8","","","","","0.2467892919","0.7924649224","0.09491494314","0.1458723802","","","","","","","","74","J","1","","","69","main_expt",""
"","bandit","149","996225","0.0-110.0-0.0","29368201","wem/bandit_either_3","A3KC26Z78FBOJT","either","5","251","","","","","","","0","0","1","","0.7104550926","0.4","0.2","0.6","0.8","0.2683381141","0.7104550926","0.144379617","0.09936082334","","","","","","","","","","","","74","J","1","","","70","main_expt",""
"","bandit","150","998071","0.0-111.0-0.0","29368201","wem/bandit_either_3","A3KC26Z78FBOJT","either","5","340","","","","","","","0","1","0","","0.6350436987","0.4","0.2","0.6","0.8","0.3513633517","0.6350436987","0.1522740794","0.08487306657","","","","","","","","","","","","74","J","1","","","71","main_expt",""
"","bandit","151","999635","0.0-112.0-0.0","29368201","wem/bandit_either_3","A3KC26Z78FBOJT","either","5","57","","","","","","","1","0","0","0.5987872161","","0.4","0.2","0.6","0.8","","","","","0.2914052368","0.5987872161","0.1668466162","0.08819471669","","","","","","","","74","J","1","","","72","main_expt",""
"","bandit","152","1001411","0.0-113.0-0.0","29368201","wem/bandit_either_3","A3KC26Z78FBOJT","either","5","270","","","","","","","0","0","1","","0.5985066563","0.4","0.2","0.6","0.8","0.2877488323","0.5985066563","0.1896474075","0.1283432424","","","","","","","","","","","","74","J","1","","","73","main_expt",""
"","bandit","153","1003157","0.0-114.0-0.0","29368201","wem/bandit_either_3","A3KC26Z78FBOJT","either","5","238","","","","","","","0","1","0","","0.6384302553","0.4","0.2","0.6","0.8","0.2562899571","0.6384302553","0.2374421278","0.09379917772","","","","","","","","","","","","74","J","1","","","74","main_expt",""
"","bandit","154","1004764","0.0-115.0-0.0","29368201","wem/bandit_either_3","A3KC26Z78FBOJT","either","5","102","","","","","","","0","0","1","","0.5658832615","0.4","0.2","0.6","0.8","0.2733605005","0.5658832615","0.2083661751","0.09049970266","","","","","","","","","","","","74","J","1","","","75","main_expt",""
"","bandit","155","1006351","0.0-116.0-0.0","29368201","wem/bandit_either_3","A3KC26Z78FBOJT","either","5","81","","","","","","","0","0","1","0.2438220339","","0.4","0.2","0.6","0.8","","","","","0.3937912108","0.6242699585","0.2438220339","0.08721668036","","","","","","","","75","K","2","","","76","main_expt",""
"","bandit","156","1007972","0.0-117.0-0.0","29368201","wem/bandit_either_3","A3KC26Z78FBOJT","either","5","114","","","","","","","0","0","1","0.2317864895","","0.4","0.2","0.6","0.8","","","","","0.2317864895","0.5744400186","0.2688374605","0.06435523183","","","","","","","","72","H","0","img/none_selected.jpg","","77","main_expt",""
"","bandit","157","1009548","0.0-118.0-0.0","29368201","wem/bandit_either_3","A3KC26Z78FBOJT","either","5","68","","","","","","","1","0","0","0.5888420407","","0.4","0.2","0.6","0.8","","","","","0.1809738678","0.5888420407","0.354885782","0.0482567949","","","","","","","","74","J","1","","","78","main_expt",""
"","bandit","158","1012168","0.0-119.0-0.0","29368201","wem/bandit_either_3","A3KC26Z78FBOJT","either","5","1114","","","","","","","0","1","0","","0.6367332082","0.4","0.2","0.6","0.8","0.1139783564","0.6367332082","0.3618930149","0.0437210955","","","","","","","","","","","","74","J","1","","","79","main_expt",""
"","bandit","159","1013742","0.0-120.0-0.0","29368201","wem/bandit_either_3","A3KC26Z78FBOJT","either","5","68","","","","","","","0","1","0","","0.6870764151","0.4","0.2","0.6","0.8","0.08785846653","0.6870764151","0.2656346555","0.02877808334","","","","","","","","","","","","74","J","1","","","80","main_expt",""
"","bandit","160","1015453","0.0-121.0-0.0","29368201","wem/bandit_either_3","A3KC26Z78FBOJT","either","5","205","","","","","","","0","1","0","","0.594282643","0.4","0.2","0.6","0.8","0.09113866108","0.594282643","0.4245431589","0.01921293631","","","","","","","","","","","","74","J","1","","","81","main_expt",""
"","bandit","161","1017231","0.0-122.0-0.0","29368201","wem/bandit_either_3","A3KC26Z78FBOJT","either","5","270","","","","","","","0","1","0","","0.6134463007","0.4","0.2","0.6","0.8","0.1055231707","0.6134463007","0.4469352605","0.04933803159","","","","","","","","","","","","74","J","1","","","82","main_expt",""
"","bandit","162","1018986","0.0-123.0-0.0","29368201","wem/bandit_either_3","A3KC26Z78FBOJT","either","5","247","","","","","","","0","1","0","","0.573719985","0.4","0.2","0.6","0.8","0.09865920741","0.573719985","0.4492602846","0.03134335394","","","","","","","","","","","","74","J","1","","","83","main_expt",""
"","bandit","163","1020729","0.0-124.0-0.0","29368201","wem/bandit_either_3","A3KC26Z78FBOJT","either","5","237","","","","","","","1","0","0","0.5666188995","","0.4","0.2","0.6","0.8","","","","","0.06745845416","0.5666188995","0.4800113203","0.08181594064","","","","","","","","74","J","1","","","84","main_expt",""
"","bandit","164","1022417","0.0-125.0-0.0","29368201","wem/bandit_either_3","A3KC26Z78FBOJT","either","5","181","","","","","","","0","1","0","","0.5161506384","0.4","0.2","0.6","0.8","0.05723787215","0.5161506384","0.53417275","0.09326949564","","","","","","","","","","","","74","J","1","","","85","main_expt",""
"","bandit","165","1024128","0.0-126.0-0.0","29368201","wem/bandit_either_3","A3KC26Z78FBOJT","either","5","203","","","","","","","0","0","1","0.4408304524","","0.4","0.2","0.6","0.8","","","","","0.04283717318","0.4408304524","0.4431594274","0.1365856799","","","","","","","","74","J","1","","","86","main_expt",""
"","bandit","166","1025724","0.0-127.0-0.0","29368201","wem/bandit_either_3","A3KC26Z78FBOJT","either","5","90","","","","","","","0","1","0","","0.4926691315","0.4","0.2","0.6","0.8","0.04801612347","0.4926691315","0.4135642243","0.1845868617","","","","","","","","","","","","74","J","1","","","87","main_expt",""
"","bandit","167","1027413","0.0-128.0-0.0","29368201","wem/bandit_either_3","A3KC26Z78FBOJT","either","5","182","","","","","","","0","0","1","","0.6047228172","0.4","0.2","0.6","0.8","0.1154775412","0.6047228172","0.4785462387","0.2304222619","","","","","","","","","","","","74","J","1","","","88","main_expt",""
"","bandit","168","1029122","0.0-129.0-0.0","29368201","wem/bandit_either_3","A3KC26Z78FBOJT","either","5","203","","","","","","","0","1","0","","0.5311406509","0.4","0.2","0.6","0.8","0.1308375778","0.5311406509","0.6395163219","0.1408060154","","","","","","","","","","","","74","J","1","","","89","main_expt",""
"","bandit","169","1030833","0.0-130.0-0.0","29368201","wem/bandit_either_3","A3KC26Z78FBOJT","either","5","204","","","","","","","0","0","1","","0.6262376813","0.4","0.2","0.6","0.8","0.07282967421","0.6262376813","0.6143207643","0.1870966622","","","","","","","","","","","","74","J","1","","","90","main_expt",""
"","bandit","170","1032532","0.0-131.0-0.0","29368201","wem/bandit_either_3","A3KC26Z78FBOJT","either","5","192","","","","","","","1","0","0","0.690423555","","0.4","0.2","0.6","0.8","","","","","0.07599207753","0.690423555","0.446485487","0.192698437","","","","","","","","74","J","1","","","91","main_expt",""
"","bandit","171","1034285","0.0-132.0-0.0","29368201","wem/bandit_either_3","A3KC26Z78FBOJT","either","5","248","","","","","","","0","1","0","","0.6517149298","0.4","0.2","0.6","0.8","0.04323911508","0.6517149298","0.5169677416","0.1683480261","","","","","","","","","","","","74","J","1","","","92","main_expt",""
"","bandit","172","1035827","0.0-133.0-0.0","29368201","wem/bandit_either_3","A3KC26Z78FBOJT","either","5","35","","","","","","","0","0","1","","0.5656193004","0.4","0.2","0.6","0.8","0.04253576945","0.5656193004","0.4242737166","0.1330499919","","","","","","","","","","","","74","J","1","","","93","main_expt",""
"","bandit","173","1037595","0.0-134.0-0.0","29368201","wem/bandit_either_3","A3KC26Z78FBOJT","either","5","260","","","","","","","1","0","0","0.3479993201","","0.4","0.2","0.6","0.8","","","","","0.04534385772","0.4344563295","0.3479993201","0.1880917327","","","","","","","","75","K","2","","","94","main_expt",""
"","bandit","174","1039294","0.0-135.0-0.0","29368201","wem/bandit_either_3","A3KC26Z78FBOJT","either","5","191","","","","","","","0","0","1","0.3701135783","","0.4","0.2","0.6","0.8","","","","","0.03318992591","0.5651083109","0.3701135783","0.1867575465","","","","","","","","75","K","2","","","95","main_expt",""
"","bandit","175","1041205","0.0-136.0-0.0","29368201","wem/bandit_either_3","A3KC26Z78FBOJT","either","5","405","","","","","","","0","0","1","","0.5348041914","0.4","0.2","0.6","0.8","0.03408771876","0.5348041914","0.3430407586","0.2231999883","","","","","","","","","","","","74","J","1","","","96","main_expt",""
"","bandit","176","1042938","0.0-137.0-0.0","29368201","wem/bandit_either_3","A3KC26Z78FBOJT","either","5","225","","","","","","","0","0","1","0.05013144164","","0.4","0.2","0.6","0.8","","","","","0.05013144164","0.5627844697","0.2876443713","0.2149045243","","","","","","","","72","H","0","img/none_selected.jpg","","97","main_expt",""
"","bandit","177","1044682","0.0-138.0-0.0","29368201","wem/bandit_either_3","A3KC26Z78FBOJT","either","5","236","","","","","","","0","0","1","0.1963416079","","0.4","0.2","0.6","0.8","","","","","0.03739082544","0.6177525637","0.3310412313","0.1963416079","","","","","","","","76","L","3","","","98","main_expt",""
"","bandit","178","1046606","0.0-139.0-0.0","29368201","wem/bandit_either_3","A3KC26Z78FBOJT","either","5","417","","","","","","","0","1","0","","0.7429557604","0.4","0.2","0.6","0.8","0.1018336486","0.7429557604","0.3893078888","0.1659387142","","","","","","","","","","","","74","J","1","","","99","main_expt",""
"","bandit","179","1048215","0.0-140.0-0.0","29368201","wem/bandit_either_3","A3KC26Z78FBOJT","either","5","102","","","","","","","0","1","0","","0.6717563967","0.4","0.2","0.6","0.8","0.1398961818","0.6717563967","0.4049224607","0.145948344","","","","","","","","","","","","74","J","1","","","100","main_expt",""
"","bandit","180","1049970","0.0-141.0-0.0","29368201","wem/bandit_either_3","A3KC26Z78FBOJT","either","5","248","","","","","","","0","0","1","","0.6929666651","0.4","0.2","0.6","0.8","0.1830356504","0.6929666651","0.3259939159","0.1366695263","","","","","","","","","","","","74","J","1","","","101","main_expt",""
"","bandit","181","1051546","0.0-142.0-0.0","29368201","wem/bandit_either_3","A3KC26Z78FBOJT","either","5","68","","","","","","","0","0","1","","0.3598161211","0.4","0.2","0.6","0.8","0.1396005595","0.6827494989","0.3598161211","0.1543059156","","","","","","","","","","","","75","K","2","","","102","main_expt",""
"","bandit","182","1053145","0.0-143.0-0.0","29368201","wem/bandit_either_3","A3KC26Z78FBOJT","either","5","90","","","","","","","0","1","0","","0.7315485361","0.4","0.2","0.6","0.8","0.0853830874","0.7315485361","0.3385951472","0.1484193465","","","","","","","","","","","","74","J","1","","","103","main_expt",""
"","bandit","183","1054763","0.0-144.0-0.0","29368201","wem/bandit_either_3","A3KC26Z78FBOJT","either","5","111","","","","","","","0","0","1","","0.6852971926","0.4","0.2","0.6","0.8","0.09317924201","0.6852971926","0.4881545817","0.1516288854","","","","","","","","","","","","74","J","1","","","104","main_expt",""
"","bandit","184","1056405","0.0-145.0-0.0","29368201","wem/bandit_either_3","A3KC26Z78FBOJT","either","5","134","","","","","","","0","0","1","","0.693594393","0.4","0.2","0.6","0.8","0.08203708102","0.693594393","0.4790883063","0.1283123627","","","","","","","","","","","","74","J","1","","","105","main_expt",""
"","bandit","185","1058082","0.0-146.0-0.0","29368201","wem/bandit_either_3","A3KC26Z78FBOJT","either","5","170","","","","","","","0","1","0","","0.6101065231","0.4","0.2","0.6","0.8","0.07160056992","0.6101065231","0.4354998123","0.2016068708","","","","","","","","","","","","74","J","1","","","106","main_expt",""
"","bandit","186","1059691","0.0-147.0-0.0","29368201","wem/bandit_either_3","A3KC26Z78FBOJT","either","5","101","","","","","","","0","0","1","","0.5549317608","0.4","0.2","0.6","0.8","0.09799112372","0.5549317608","0.4789065637","0.2344181992","","","","","","","","","","","","74","J","1","","","107","main_expt",""
"","bandit","187","1061242","0.0-148.0-0.0","29368201","wem/bandit_either_3","A3KC26Z78FBOJT","either","5","44","","","","","","","1","0","0","0.5753690117","","0.4","0.2","0.6","0.8","","","","","0.1101799882","0.5753690117","0.2921896665","0.2234564856","","","","","","","","74","J","1","","","108","main_expt",""
"","bandit","188","1062886","0.0-149.0-0.0","29368201","wem/bandit_either_3","A3KC26Z78FBOJT","either","5","137","","","","","","","0","1","0","","0.5748544728","0.4","0.2","0.6","0.8","0.07189968831","0.5748544728","0.3545905428","0.2494485671","","","","","","","","","","","","74","J","1","","","109","main_expt",""
"","bandit","189","1064449","0.0-150.0-0.0","29368201","wem/bandit_either_3","A3KC26Z78FBOJT","either","5","56","","","","","","","0","1","0","","0.6473038793","0.4","0.2","0.6","0.8","0.06101418375","0.6473038793","0.3110769573","0.2804015825","","","","","","","","","","","","74","J","1","","","110","main_expt",""
"","bandit","190","1066126","0.0-151.0-0.0","29368201","wem/bandit_either_3","A3KC26Z78FBOJT","either","5","170","","","","","","","0","1","0","","0.6296147118","0.4","0.2","0.6","0.8","0.1032726654","0.6296147118","0.3673577619","0.254644275","","","","","","","","","","","","74","J","1","","","111","main_expt",""
"","bandit","191","1067871","0.0-152.0-0.0","29368201","wem/bandit_either_3","A3KC26Z78FBOJT","either","5","238","","","","","","","0","0","1","","0.6174722021","0.4","0.2","0.6","0.8","0.1061240248","0.6174722021","0.3439961468","0.2686709136","","","","","","","","","","","","74","J","1","","","112","main_expt",""
"","bandit","192","1069446","0.0-153.0-0.0","29368201","wem/bandit_either_3","A3KC26Z78FBOJT","either","5","68","","","","","","","0","0","1","","0.3389202036","0.4","0.2","0.6","0.8","0.1150632514","0.7467975424","0.3389202036","0.3211503982","","","","","","","","","","","","75","K","2","","","113","main_expt",""
"","bandit","193","1071112","0.0-154.0-0.0","29368201","wem/bandit_either_3","A3KC26Z78FBOJT","either","5","157","","","","","","","0","0","1","","0.7797220863","0.4","0.2","0.6","0.8","0.1491479201","0.7797220863","0.3122185675","0.3067152309","","","","","","","","","","","","74","J","1","","","114","main_expt",""
"","bandit","194","1072798","0.0-155.0-0.0","29368201","wem/bandit_either_3","A3KC26Z78FBOJT","either","5","179","","","","","","","0","0","1","","0.08304421353","0.4","0.2","0.6","0.8","0.08304421353","0.8152411921","0.2431064996","0.3274584286","","","","","","","","","","","","72","H","0","img/none_selected.jpg","","115","main_expt",""
"","bandit","195","1074407","0.0-156.0-0.0","29368201","wem/bandit_either_3","A3KC26Z78FBOJT","either","5","102","","","","","","","0","1","0","","0.7362727539","0.4","0.2","0.6","0.8","0.1391191417","0.7362727539","0.2225404561","0.2491959293","","","","","","","","","","","","74","J","1","","","116","main_expt",""
"","bandit","196","1076050","0.0-157.0-0.0","29368201","wem/bandit_either_3","A3KC26Z78FBOJT","either","5","134","","","","","","","0","1","0","","0.7051771602","0.4","0.2","0.6","0.8","0.1689833708","0.7051771602","0.2891792411","0.1425156065","","","","","","","","","","","","74","J","1","","","117","main_expt",""
"","bandit","197","1077738","0.0-158.0-0.0","29368201","wem/bandit_either_3","A3KC26Z78FBOJT","either","5","179","","","","","","","0","1","0","","0.7099604309","0.4","0.2","0.6","0.8","0.1341186766","0.7099604309","0.3147139712","0.1550025764","","","","","","","","","","","","74","J","1","","","118","main_expt",""
"","bandit","198","1079322","0.0-159.0-0.0","29368201","wem/bandit_either_3","A3KC26Z78FBOJT","either","5","77","","","","","","","1","0","0","0.6633752461","","0.4","0.2","0.6","0.8","","","","","0.1211065448","0.6633752461","0.4890071061","0.1733664784","","","","","","","","74","J","1","","","119","main_expt",""
"","bandit","199","1080920","0.0-160.0-0.0","29368201","wem/bandit_either_3","A3KC26Z78FBOJT","either","5","91","","","","","","","0","1","0","","0.6748815414","0.4","0.2","0.6","0.8","0.1317257861","0.6748815414","0.5238994176","0.2091577514","","","","","","","","","","","","74","J","1","","","120","main_expt",""
"","bandit","200","1083384","0.0-161.0-0.0","29368201","wem/bandit_either_3","A3KC26Z78FBOJT","either","5","957","","","","","","","0","1","0","","0.694041989","0.4","0.2","0.6","0.8","0.08851148741","0.694041989","0.4821854017","0.2038206067","","","","","","","","","","","","74","J","1","","","121","main_expt",""
"","bandit","201","1085150","0.0-162.0-0.0","29368201","wem/bandit_either_3","A3KC26Z78FBOJT","either","5","260","","","","","","","0","1","0","","0.7808088803","0.4","0.2","0.6","0.8","0.1313095228","0.7808088803","0.5695824443","0.1646827865","","","","","","","","","","","","74","J","1","","","122","main_expt",""
"","bandit","202","1086963","0.0-163.0-0.0","29368201","wem/bandit_either_3","A3KC26Z78FBOJT","either","5","303","","","","","","","0","1","0","","0.7513243775","0.4","0.2","0.6","0.8","0.1990721176","0.7513243775","0.5884468641","0.08951947698","","","","","","","","","","","","74","J","1","","","123","main_expt",""
"","bandit","203","1088616","0.0-164.0-0.0","29368201","wem/bandit_either_3","A3KC26Z78FBOJT","either","5","147","","","","","","","0","1","0","","0.7095593687","0.4","0.2","0.6","0.8","0.3510587203","0.7095593687","0.6578864121","0.09676311751","","","","","","","","","","","","74","J","1","","","124","main_expt",""
"","bandit","204","1090203","0.0-165.0-0.0","29368201","wem/bandit_either_3","A3KC26Z78FBOJT","either","5","78","","","","","","","0","0","1","","0.6464373278","0.4","0.2","0.6","0.8","0.2829787335","0.6464373278","0.6610648035","0.08914634913","","","","","","","","","","","","74","J","1","","","125","main_expt",""
"","bandit","205","1091880","0.0-166.0-0.0","29368201","wem/bandit_either_3","A3KC26Z78FBOJT","either","5","168","","","","","","","0","1","0","","0.69855693","0.4","0.2","0.6","0.8","0.3253732313","0.69855693","0.6745370829","0.1104844084","","","","","","","","","","","","74","J","1","","","126","main_expt",""
"","bandit","206","1093489","0.0-167.0-0.0","29368201","wem/bandit_either_3","A3KC26Z78FBOJT","either","5","101","","","","","","","0","1","0","","0.6394960802","0.4","0.2","0.6","0.8","0.2969307539","0.6394960802","0.6357656308","0.1302598269","","","","","","","","","","","","74","J","1","","","127","main_expt",""
"","bandit","207","1095256","0.0-168.0-0.0","29368201","wem/bandit_either_3","A3KC26Z78FBOJT","either","5","258","","","","","","","0","1","0","","0.5912569563","0.4","0.2","0.6","0.8","0.3862322559","0.5912569563","0.6746479632","0.1739983423","","","","","","","","","","","","74","J","1","","","128","main_expt",""
"","bandit","208","1096942","0.0-169.0-0.0","29368201","wem/bandit_either_3","A3KC26Z78FBOJT","either","5","177","","","","","","","0","1","0","","0.6408154383","0.4","0.2","0.6","0.8","0.3399993615","0.6408154383","0.609360971","0.2144078185","","","","","","","","","","","","74","J","1","","","129","main_expt",""
"","bandit","209","1098707","0.0-170.0-0.0","29368201","wem/bandit_either_3","A3KC26Z78FBOJT","either","5","259","","","","","","","1","0","0","0.6160079471","","0.4","0.2","0.6","0.8","","","","","0.4343217783","0.6160079471","0.5791775941","0.2133227205","","","","","","","","74","J","1","","","130","main_expt",""
"","bandit","210","1100397","0.0-171.0-0.0","29368201","wem/bandit_either_3","A3KC26Z78FBOJT","either","5","182","","","","","","","0","0","1","","0.6639311205","0.4","0.2","0.6","0.8","0.4116870082","0.6639311205","0.6039133906","0.3009586135","","","","","","","","","","","","74","J","1","","","131","main_expt",""
"","bandit","211","1102027","0.0-172.0-0.0","29368201","wem/bandit_either_3","A3KC26Z78FBOJT","either","5","123","","","","","","","0","1","0","","0.5564977279","0.4","0.2","0.6","0.8","0.3235444519","0.7314418876","0.5564977279","0.3257006372","","","","","","","","","","","","75","K","2","","","132","main_expt",""
"","bandit","212","1103591","0.0-173.0-0.0","29368201","wem/bandit_either_3","A3KC26Z78FBOJT","either","5","55","","","","","","","1","0","0","0.5453182718","","0.4","0.2","0.6","0.8","","","","","0.4204005917","0.7343064015","0.5453182718","0.3286432436","","","","","","","","75","K","2","","","133","main_expt",""
"","bandit","213","1105345","0.0-174.0-0.0","29368201","wem/bandit_either_3","A3KC26Z78FBOJT","either","5","248","","","","","","","0","1","0","","0.5557967555","0.4","0.2","0.6","0.8","0.5326734174","0.6345074403","0.5557967555","0.3343575241","","","","","","","","","","","","75","K","2","","","134","main_expt",""
"","bandit","214","1107066","0.0-175.0-0.0","29368201","wem/bandit_either_3","A3KC26Z78FBOJT","either","5","214","","","","","","","0","1","0","","0.5719827955","0.4","0.2","0.6","0.8","0.6096825818","0.752921597","0.5719827955","0.2917270645","","","","","","","","","","","","75","K","2","","","135","main_expt",""
"","bandit","215","1108790","0.0-176.0-0.0","29368201","wem/bandit_either_3","A3KC26Z78FBOJT","either","5","216","","","","","","","1","0","0","0.4756276611","","0.4","0.2","0.6","0.8","","","","","0.6827328332","0.7642539739","0.4756276611","0.3972485531","","","","","","","","75","K","2","","","136","main_expt",""
"","bandit","216","1110532","0.0-177.0-0.0","29368201","wem/bandit_either_3","A3KC26Z78FBOJT","either","5","234","","","","","","","1","0","0","0.5078949877","","0.4","0.2","0.6","0.8","","","","","0.6604068036","0.7166238274","0.5078949877","0.4294090248","","","","","","","","75","K","2","","","137","main_expt",""
"","bandit","217","1112276","0.0-178.0-0.0","29368201","wem/bandit_either_3","A3KC26Z78FBOJT","either","5","237","","","","","","","0","0","1","","0.4938131475","0.4","0.2","0.6","0.8","0.653661868","0.713549589","0.4938131475","0.5009988565","","","","","","","","","","","","75","K","2","","","138","main_expt",""
"","bandit","218","1113908","0.0-179.0-0.0","29368201","wem/bandit_either_3","A3KC26Z78FBOJT","either","5","124","","","","","","","0","1","0","","0.6905374229","0.4","0.2","0.6","0.8","0.6169918179","0.6905374229","0.654612375","0.4993746949","","","","","","","","","","","","74","J","1","","","139","main_expt",""
"","bandit","219","1115518","0.0-180.0-0.0","29368201","wem/bandit_either_3","A3KC26Z78FBOJT","either","5","102","","","","","","","0","1","0","","0.6614813372","0.4","0.2","0.6","0.8","0.6657435074","0.6614813372","0.52663091","0.5448973659","","","","","","","","","","","","74","J","1","","","140","main_expt",""
"","bandit","220","1117161","0.0-181.0-0.0","29368201","wem/bandit_either_3","A3KC26Z78FBOJT","either","5","135","","","","","","","0","0","1","0.7024355817","","0.4","0.2","0.6","0.8","","","","","0.6349341703","0.7024355817","0.5976356642","0.4829720837","","","","","","","","74","J","1","","","141","main_expt",""
"","bandit","221","1118779","0.0-182.0-0.0","29368201","wem/bandit_either_3","A3KC26Z78FBOJT","either","5","109","","","","","","","0","1","0","","0.5956183516","0.4","0.2","0.6","0.8","0.6379356982","0.7185929435","0.5956183516","0.5402580016","","","","","","","","","","","","75","K","2","","","142","main_expt",""
"","bandit","222","1120354","0.0-183.0-0.0","29368201","wem/bandit_either_3","A3KC26Z78FBOJT","either","5","67","","","","","","","0","0","1","0.6432894639","","0.4","0.2","0.6","0.8","","","","","0.6022688156","0.6240660549","0.6432894639","0.5478015274","","","","","","","","75","K","2","","","143","main_expt",""
"","bandit","223","1121973","0.0-184.0-0.0","29368201","wem/bandit_either_3","A3KC26Z78FBOJT","either","5","113","","","","","","","0","0","1","0.5797935966","","0.4","0.2","0.6","0.8","","","","","0.5806731621","0.5797935966","0.6691106198","0.5189832842","","","","","","","","74","J","1","","","144","main_expt",""
"","bandit","224","1123696","0.0-185.0-0.0","29368201","wem/bandit_either_3","A3KC26Z78FBOJT","either","5","216","","","","","","","1","0","0","0.5512406412","","0.4","0.2","0.6","0.8","","","","","0.5512406412","0.520403766","0.677031803","0.4556604905","","","","","","","","72","H","0","img/none_selected.jpg","","145","main_expt",""
"","bandit","225","1125349","0.0-186.0-0.0","29368201","wem/bandit_either_3","A3KC26Z78FBOJT","either","5","146","","","","","","","0","1","0","","0.6055708535","0.4","0.2","0.6","0.8","0.6055708535","0.5330345992","0.6697886415","0.48011385","","","","","","","","","","","","72","H","0","img/none_selected.jpg","","146","main_expt",""
"","bandit","226","1127094","0.0-187.0-0.0","29368201","wem/bandit_either_3","A3KC26Z78FBOJT","either","5","237","","","","","","","0","1","0","","0.5711328773","0.4","0.2","0.6","0.8","0.5711328773","0.5692896821","0.7101623398","0.5363471167","","","","","","","","","","","","72","H","0","img/none_selected.jpg","","147","main_expt",""
"","bandit","227","1128747","0.0-188.0-0.0","29368201","wem/bandit_either_3","A3KC26Z78FBOJT","either","5","146","","","","","","","0","0","1","","0.4258462921","0.4","0.2","0.6","0.8","0.4258462921","0.4877368026","0.733230793","0.4929714004","","","","","","","","","","","","72","H","0","img/none_selected.jpg","","148","main_expt",""
"","bandit","228","1130367","0.0-189.0-0.0","29368201","wem/bandit_either_3","A3KC26Z78FBOJT","either","5","111","","","","","","","0","0","1","0.4356177925","","0.4","0.2","0.6","0.8","","","","","0.327967402","0.5936336812","0.7010449773","0.4356177925","","","","","","","","76","L","3","","","149","main_expt",""
"","bandit","229","1132021","0.0-190.0-0.0","29368201","wem/bandit_either_3","A3KC26Z78FBOJT","either","5","146","","","","","","","0","1","0","","0.7027445866","0.4","0.2","0.6","0.8","0.4343474627","0.7027445866","0.6668672445","0.4054894896","","","","","","","","","","","","74","J","1","","","150","main_expt",""
"","bandit","230","1133628","0.0-191.0-0.0","29368201","wem/bandit_either_3","A3KC26Z78FBOJT","either","5","101","","","","","","","0","0","1","0.5612636021","","0.4","0.2","0.6","0.8","","","","","0.5382828223","0.7690633033","0.5612636021","0.5283130311","","","","","","","","75","K","2","","","151","main_expt",""
"","bandit","231","1135261","0.0-192.0-0.0","29368201","wem/bandit_either_3","A3KC26Z78FBOJT","either","5","125","","","","","","","0","0","1","","0.5989969619","0.4","0.2","0.6","0.8","0.6572277468","0.5989969619","0.7032448324","0.6323123958","","","","","","","","","","","","74","J","1","","","152","main_expt",""
"","bandit","232","1136825","0.0-193.0-0.0","29368201","wem/bandit_either_3","A3KC26Z78FBOJT","either","5","56","","","","","","","1","0","0","0.668560183","","0.4","0.2","0.6","0.8","","","","","0.668560183","0.6126787421","0.6918543646","0.5847243132","","","","","","","","72","H","0","img/none_selected.jpg","","153","main_expt",""
"","bandit","233","1138625","0.0-194.0-0.0","29368201","wem/bandit_either_3","A3KC26Z78FBOJT","either","5","294","","","","","","","0","1","0","","0.6954524596","0.4","0.2","0.6","0.8","0.6954524596","0.5461115941","0.647195156","0.4285456013","","","","","","","","","","","","72","H","0","img/none_selected.jpg","","154","main_expt",""
"","bandit","234","1140458","0.0-195.0-0.0","29368201","wem/bandit_either_3","A3KC26Z78FBOJT","either","5","325","","","","","","","0","1","0","","0.5684527538","0.4","0.2","0.6","0.8","0.5684527538","0.5456348337","0.6135998722","0.4772645207","","","","","","","","","","","","72","H","0","img/none_selected.jpg","","155","main_expt",""
"","bandit","235","1142225","0.0-196.0-0.0","29368201","wem/bandit_either_3","A3KC26Z78FBOJT","either","5","259","","","","","","","1","0","0","0.6034375159","","0.4","0.2","0.6","0.8","","","","","0.6034375159","0.4782917504","0.5591033916","0.4982711843","","","","","","","","72","H","0","img/none_selected.jpg","","156","main_expt",""
"","bandit","236","1144239","0.0-197.0-0.0","29368201","wem/bandit_either_3","A3KC26Z78FBOJT","either","5","506","","","","","","","1","0","0","0.5835723018","","0.4","0.2","0.6","0.8","","","","","0.5835723018","0.4868537485","0.5090787948","0.5275183668","","","","","","","","72","H","0","img/none_selected.jpg","","157","main_expt",""
"","bandit","237","1146533","0.0-198.0-0.0","29368201","wem/bandit_either_3","A3KC26Z78FBOJT","either","5","787","","","","","","","0","0","1","0.5234712835","","0.4","0.2","0.6","0.8","","","","","0.5234712835","0.5361642224","0.6087372924","0.4489423754","","","","","","","","72","H","0","img/none_selected.jpg","","158","main_expt",""
"","bandit","238","1148334","0.0-199.0-0.0","29368201","wem/bandit_either_3","A3KC26Z78FBOJT","either","5","293","","","","","","","0","1","0","","0.4947944436","0.4","0.2","0.6","0.8","0.5636881177","0.4947944436","0.6064578463","0.4933275403","","","","","","","","","","","","74","J","1","","","159","main_expt",""
"","bandit","239","1150259","0.0-200.0-0.0","29368201","wem/bandit_either_3","A3KC26Z78FBOJT","either","5","418","","","","","","","0","0","1","","0.5106889885","0.4","0.2","0.6","0.8","0.4785340868","0.5106889885","0.6951258233","0.4521998099","","","","","","","","","","","","74","J","1","","","160","main_expt",""
"","bandit","240","1151991","0.0-201.0-0.0","29368201","wem/bandit_either_3","A3KC26Z78FBOJT","either","5","224","","","","","","","1","0","0","0.5038962889","","0.4","0.2","0.6","0.8","","","","","0.5038962889","0.4566704777","0.7129510734","0.5114636712","","","","","","","","72","H","0","img/none_selected.jpg","","161","main_expt",""
"","bandit","241","1153835","0.0-202.0-0.0","29368201","wem/bandit_either_3","A3KC26Z78FBOJT","either","5","338","","","","","","","0","0","1","0.4448395692","","0.4","0.2","0.6","0.8","","","","","0.4448395692","0.3259271754","0.7028034005","0.5242674757","","","","","","","","72","H","0","img/none_selected.jpg","","162","main_expt",""
"","bandit","242","1155411","0.0-203.0-0.0","29368201","wem/bandit_either_3","A3KC26Z78FBOJT","either","5","67","","","","","","","0","0","1","","0.6293758899","0.4","0.2","0.6","0.8","0.471982621","0.2806734392","0.6293758899","0.5687322637","","","","","","","","","","","","75","K","2","","","163","main_expt",""
"","bandit","243","1157044","0.0-204.0-0.0","29368201","wem/bandit_either_3","A3KC26Z78FBOJT","either","5","125","","","","","","","0","1","0","","0.6517066897","0.4","0.2","0.6","0.8","0.6517066897","0.2973163189","0.6813427096","0.5635146256","","","","","","","","","","","","72","H","0","img/none_selected.jpg","","164","main_expt",""
"","bandit","244","1158651","0.0-205.0-0.0","29368201","wem/bandit_either_3","A3KC26Z78FBOJT","either","5","98","","","","","","","1","0","0","0.6588968294","","0.4","0.2","0.6","0.8","","","","","0.6339143586","0.2872552927","0.7231406025","0.6588968294","","","","","","","","76","L","3","","","165","main_expt",""
"","bandit","245","1160307","0.0-206.0-0.0","29368201","wem/bandit_either_3","A3KC26Z78FBOJT","either","5","147","","","","","","","1","0","0","0.74872254","","0.4","0.2","0.6","0.8","","","","","0.6507743373","0.325395791","0.6274448994","0.74872254","","","","","","","","76","L","3","","","166","main_expt",""
"","bandit","246","1162127","0.0-207.0-0.0","29368201","wem/bandit_either_3","A3KC26Z78FBOJT","either","5","312","","","","","","","1","0","0","0.7741304825","","0.4","0.2","0.6","0.8","","","","","0.6753437353","0.3307719744","0.6778384319","0.7741304825","","","","","","","","76","L","3","","","167","main_expt",""
"","bandit","247","1163848","0.0-208.0-0.0","29368201","wem/bandit_either_3","A3KC26Z78FBOJT","either","5","214","","","","","","","0","1","0","","0.8873722237","0.4","0.2","0.6","0.8","0.6308788189","0.4033689778","0.6928942004","0.8873722237","","","","","","","","","","","","76","L","3","","","168","main_expt",""
"","bandit","248","1165581","0.0-209.0-0.0","29368201","wem/bandit_either_3","A3KC26Z78FBOJT","either","5","225","","","","","","","0","1","0","","0.8649989169","0.4","0.2","0.6","0.8","0.6289357746","0.4089274666","0.6181376835","0.8649989169","","","","","","","","","","","","76","L","3","","","169","main_expt",""
"","bandit","249","1167260","0.0-210.0-0.0","29368201","wem/bandit_either_3","A3KC26Z78FBOJT","either","5","169","","","","","","","1","0","0","0.8634323334","","0.4","0.2","0.6","0.8","","","","","0.6308829817","0.4033631647","0.6539136718","0.8634323334","","","","","","","","76","L","3","","","170","main_expt",""
"","bandit","250","1168789","0.0-211.0-0.0","29368201","wem/bandit_either_3","A3KC26Z78FBOJT","either","5","19","","","","","","","1","0","0","0.8050812792","","0.4","0.2","0.6","0.8","","","","","0.6008061885","0.3743415885","0.7935188527","0.8050812792","","","","","","","","76","L","3","","","171","main_expt",""
"","bandit","251","1170524","0.0-212.0-0.0","29368201","wem/bandit_either_3","A3KC26Z78FBOJT","either","5","224","","","","","","","0","1","0","","0.7635000848","0.4","0.2","0.6","0.8","0.6498855282","0.4145867416","0.7959482017","0.7635000848","","","","","","","","","","","","76","L","3","","","172","main_expt",""
"","bandit","252","1172298","0.0-213.0-0.0","29368201","wem/bandit_either_3","A3KC26Z78FBOJT","either","5","266","","","","","","","1","0","0","0.7793560846","","0.4","0.2","0.6","0.8","","","","","0.6361658802","0.4421490518","0.7720377381","0.7793560846","","","","","","","","76","L","3","","","173","main_expt",""
"","bandit","253","1174019","0.0-214.0-0.0","29368201","wem/bandit_either_3","A3KC26Z78FBOJT","either","5","214","","","","","","","1","0","0","0.7290013271","","0.4","0.2","0.6","0.8","","","","","0.5494915933","0.373112653","0.7751150559","0.7290013271","","","","","","","","76","L","3","","","174","main_expt",""
"","bandit","254","1175730","0.0-215.0-0.0","29368201","wem/bandit_either_3","A3KC26Z78FBOJT","either","5","204","","","","","","","0","0","1","0.8353873757","","0.4","0.2","0.6","0.8","","","","","0.6292002022","0.372221374","0.7699246652","0.8353873757","","","","","","","","76","L","3","","","175","main_expt",""
"","bandit","255","1177451","0.0-216.0-0.0","29368201","wem/bandit_either_3","A3KC26Z78FBOJT","either","5","212","","","","","","","0","0","1","","0.3594456443","0.4","0.2","0.6","0.8","0.4999600136","0.3594456443","0.8092821718","0.8589437223","","","","","","","","","","","","74","J","1","","","176","main_expt",""
"","bandit","256","1178992","0.0-217.0-0.0","29368201","wem/bandit_either_3","A3KC26Z78FBOJT","either","5","32","","","","","","","0","0","1","0.8824379228","","0.4","0.2","0.6","0.8","","","","","0.4500304274","0.3705823864","0.7728258073","0.8824379228","","","","","","","","76","L","3","","","177","main_expt",""
"","bandit","257","1180636","0.0-218.0-0.0","29368201","wem/bandit_either_3","A3KC26Z78FBOJT","either","5","136","","","","","","","1","0","0","0.8128952128","","0.4","0.2","0.6","0.8","","","","","0.4626099748","0.3042584581","0.8128952128","0.8862787626","","","","","","","","75","K","2","","","178","main_expt",""
"","bandit","258","1182367","0.0-219.0-0.0","29368201","wem/bandit_either_3","A3KC26Z78FBOJT","either","5","223","","","","","","","1","0","0","0.7878088044","","0.4","0.2","0.6","0.8","","","","","0.3074659707","0.3056645996","0.7878088044","0.8851661012","","","","","","","","75","K","2","","","179","main_expt",""
"","bandit","259","1184168","0.0-220.0-0.0","29368201","wem/bandit_either_3","A3KC26Z78FBOJT","either","5","292","","","","","","","0","0","1","0.7626215198","","0.4","0.2","0.6","0.8","","","","","0.2445312817","0.3124458775","0.7626215198","0.8623840347","","","","","","","","75","K","2","","","180","main_expt",""
"","bandit","260","1185968","0.0-221.0-0.0","29368201","wem/bandit_either_3","A3KC26Z78FBOJT","either","5","291","","","","","","","1","0","0","0.7059637017","","0.4","0.2","0.6","0.8","","","","","0.2284870313","0.2597333415","0.7059637017","0.8815853427","","","","","","","","75","K","2","","","181","main_expt",""
"","bandit","261","1187689","0.0-222.0-0.0","29368201","wem/bandit_either_3","A3KC26Z78FBOJT","either","5","214","","","","","","","1","0","0","0.6691747745","","0.4","0.2","0.6","0.8","","","","","0.2195648065","0.2117009826","0.6691747745","0.8955826305","","","","","","","","75","K","2","","","182","main_expt",""
"","bandit","262","1189454","0.0-223.0-0.0","29368201","wem/bandit_either_3","A3KC26Z78FBOJT","either","5","257","","","","","","","0","0","1","0.5523838876","","0.4","0.2","0.6","0.8","","","","","0.2327716204","0.2327762041","0.5523838876","0.9362873759","","","","","","","","75","K","2","","","183","main_expt",""
"","bandit","263","1191132","0.0-224.0-0.0","29368201","wem/bandit_either_3","A3KC26Z78FBOJT","either","5","170","","","","","","","0","0","1","","0.2750618684","0.4","0.2","0.6","0.8","0.3207903029","0.2750618684","0.5451875246","0.9484326647","","","","","","","","","","","","74","J","1","","","184","main_expt",""
"","bandit","264","1192720","0.0-225.0-0.0","29368201","wem/bandit_either_3","A3KC26Z78FBOJT","either","5","78","","","","","","","0","0","1","","0.3609723674","0.4","0.2","0.6","0.8","0.3609723674","0.2305846964","0.6090771744","0.9660783121","","","","","","","","","","","","72","H","0","img/none_selected.jpg","","185","main_expt",""
"","bandit","265","1194405","0.0-226.0-0.0","29368201","wem/bandit_either_3","A3KC26Z78FBOJT","either","5","178","","","","","","","1","0","0","0.9665376101","","0.4","0.2","0.6","0.8","","","","","0.4442397518","0.2597669424","0.5810996076","0.9665376101","","","","","","","","76","L","3","","","186","main_expt",""
"","bandit","266","1196060","0.0-227.0-0.0","29368201","wem/bandit_either_3","A3KC26Z78FBOJT","either","5","145","","","","","","","1","0","0","0.9644184371","","0.4","0.2","0.6","0.8","","","","","0.4478442549","0.2143742246","0.4445572548","0.9644184371","","","","","","","","76","L","3","","","187","main_expt",""
"","bandit","267","1198050","0.0-228.0-0.0","29368201","wem/bandit_either_3","A3KC26Z78FBOJT","either","5","483","","","","","","","1","0","0","0.9731237162","","0.4","0.2","0.6","0.8","","","","","0.4026396634","0.2294707647","0.4113554433","0.9731237162","","","","","","","","76","L","3","","","188","main_expt",""
"","bandit","268","1199660","0.0-229.0-0.0","29368201","wem/bandit_either_3","A3KC26Z78FBOJT","either","5","99","","","","","","","1","0","0","0.9787475226","","0.4","0.2","0.6","0.8","","","","","0.5072589837","0.2469430613","0.4053553249","0.9787475226","","","","","","","","76","L","3","","","189","main_expt",""
"","bandit","269","1202651","0.0-230.0-0.0","29368201","wem/bandit_either_3","A3KC26Z78FBOJT","either","5","1483","","","","","","","1","0","0","0.9847816181","","0.4","0.2","0.6","0.8","","","","","0.5234843415","0.2437728268","0.4927633492","0.9847816181","","","","","","","","76","L","3","","","190","main_expt",""
"","bandit","270","1204396","0.0-231.0-0.0","29368201","wem/bandit_either_3","A3KC26Z78FBOJT","either","5","235","","","","","","","1","0","0","0.9713064587","","0.4","0.2","0.6","0.8","","","","","0.5054414672","0.1655579887","0.428678546","0.9713064587","","","","","","","","76","L","3","","","191","main_expt",""
"","bandit","271","1206231","0.0-232.0-0.0","29368201","wem/bandit_either_3","A3KC26Z78FBOJT","either","5","327","","","","","","","1","0","0","0.9558555722","","0.4","0.2","0.6","0.8","","","","","0.7037613703","0.1501427492","0.3358015867","0.9558555722","","","","","","","","76","L","3","","","192","main_expt",""
"","bandit","272","1207964","0.0-233.0-0.0","29368201","wem/bandit_either_3","A3KC26Z78FBOJT","either","5","222","","","","","","","1","0","0","0.9443800135","","0.4","0.2","0.6","0.8","","","","","0.5980286963","0.2062706367","0.2816430679","0.9443800135","","","","","","","","76","L","3","","","193","main_expt",""
"","bandit","273","1210279","0.0-234.0-0.0","29368201","wem/bandit_either_3","A3KC26Z78FBOJT","either","5","807","","","","","","","0","1","0","","0.947825408","0.4","0.2","0.6","0.8","0.5607231578","0.2782937815","0.2951519504","0.947825408","","","","","","","","","","","","76","L","3","","","194","main_expt",""
"","bandit","274","1212306","0.0-235.0-0.0","29368201","wem/bandit_either_3","A3KC26Z78FBOJT","either","5","518","","","","","","","0","1","0","","0.9531013361","0.4","0.2","0.6","0.8","0.6222063369","0.2393938873","0.2482291913","0.9531013361","","","","","","","","","","","","76","L","3","","","195","main_expt",""
"","bandit","275","1214194","0.0-236.0-0.0","29368201","wem/bandit_either_3","A3KC26Z78FBOJT","either","5","379","","","","","","","1","0","0","0.9653581558","","0.4","0.2","0.6","0.8","","","","","0.7092042058","0.3385483064","0.2548661126","0.9653581558","","","","","","","","76","L","3","","","196","main_expt",""
"","bandit","276","1216006","0.0-237.0-0.0","29368201","wem/bandit_either_3","A3KC26Z78FBOJT","either","5","304","","","","","","","1","0","0","0.9774234012","","0.4","0.2","0.6","0.8","","","","","0.7397780251","0.3474357388","0.2789697966","0.9774234012","","","","","","","","76","L","3","","","197","main_expt",""
"","bandit","277","1217877","0.0-238.0-0.0","29368201","wem/bandit_either_3","A3KC26Z78FBOJT","either","5","360","","","","","","","0","1","0","","0.9866112083","0.4","0.2","0.6","0.8","0.6977166648","0.4511600961","0.2893473624","0.9866112083","","","","","","","","","","","","76","L","3","","","198","main_expt",""
"","bandit","278","1219675","0.0-239.0-0.0","29368201","wem/bandit_either_3","A3KC26Z78FBOJT","either","5","291","","","","","","","0","1","0","","0.9889390623","0.4","0.2","0.6","0.8","0.591703898","0.4387406867","0.2499124536","0.9889390623","","","","","","","","","","","","76","L","3","","","199","main_expt",""
"","bandit","279","1221363","0.0-240.0-0.0","29368201","wem/bandit_either_3","A3KC26Z78FBOJT","either","5","178","","","","","","","1","0","0","0.9894921125","","0.4","0.2","0.6","0.8","","","","","0.5107967375","0.4368135332","0.2643429758","0.9894921125","","","","","","","","76","L","3","","","200","main_expt",""
"","bandit","280","1223141","0.0-241.0-0.0","29368201","wem/bandit_either_3","A3KC26Z78FBOJT","either","5","267","","","","","","","1","0","0","0.989248002","","0.4","0.2","0.6","0.8","","","","","0.6528148869","0.3070084091","0.2382870841","0.989248002","","","","","","","","76","L","3","","","201","main_expt",""
"","bandit","281","1224951","0.0-242.0-0.0","29368201","wem/bandit_either_3","A3KC26Z78FBOJT","either","5","299","","","","","","","1","0","0","0.9957983392","","0.4","0.2","0.6","0.8","","","","","0.6892998309","0.3603585946","0.1604624283","0.9957983392","","","","","","","","76","L","3","","","202","main_expt",""
"","bandit","282","1226785","0.0-243.0-0.0","29368201","wem/bandit_either_3","A3KC26Z78FBOJT","either","5","326","","","","","","","1","0","0","0.9958893","","0.4","0.2","0.6","0.8","","","","","0.6989476798","0.260320329","0.1407610566","0.9958893","","","","","","","","76","L","3","","","203","main_expt",""
"","bandit","283","1228629","0.0-244.0-0.0","29368201","wem/bandit_either_3","A3KC26Z78FBOJT","either","5","337","","","","","","","0","1","0","","0.9955962674","0.4","0.2","0.6","0.8","0.772264117","0.2003029851","0.1343245238","0.9955962674","","","","","","","","","","","","76","L","3","","","204","main_expt",""
"","bandit","284","1231861","0.0-245.0-0.0","29368201","wem/bandit_either_3","A3KC26Z78FBOJT","either","5","1723","","","","","","","0","1","0","","0.9943432705","0.4","0.2","0.6","0.8","0.7366863645","0.1922312923","0.1715400642","0.9943432705","","","","","","","","","","","","76","L","3","","","205","main_expt",""
"","bandit","285","1233435","0.0-246.0-0.0","29368201","wem/bandit_either_3","A3KC26Z78FBOJT","either","5","67","","","","","","","0","1","0","","0.9982320458","0.4","0.2","0.6","0.8","0.7477287432","0.1936085521","0.117617648","0.9982320458","","","","","","","","","","","","76","L","3","","","206","main_expt",""
"","bandit","286","1235078","0.0-247.0-0.0","29368201","wem/bandit_either_3","A3KC26Z78FBOJT","either","5","133","","","","","","","0","1","0","","0.9976530308","0.4","0.2","0.6","0.8","0.8185776196","0.1821705986","0.1182717864","0.9976530308","","","","","","","","","","","","76","L","3","","","207","main_expt",""
"","bandit","287","1236819","0.0-248.0-0.0","29368201","wem/bandit_either_3","A3KC26Z78FBOJT","either","5","234","","","","","","","0","1","0","","0.9961811318","0.4","0.2","0.6","0.8","0.8161769506","0.1145050302","0.1445047472","0.9961811318","","","","","","","","","","","","76","L","3","","","208","main_expt",""
"","bandit","288","1238507","0.0-249.0-0.0","29368201","wem/bandit_either_3","A3KC26Z78FBOJT","either","5","180","","","","","","","0","1","0","","0.9977639941","0.4","0.2","0.6","0.8","0.8224464957","0.1206637037","0.1264159314","0.9977639941","","","","","","","","","","","","76","L","3","","","209","main_expt",""
"","bandit","289","1240769","0.0-250.0-0.0","29368201","wem/bandit_either_3","A3KC26Z78FBOJT","either","5","755","","","","","","","1","0","0","0.9953783407","","0.4","0.2","0.6","0.8","","","","","0.7392866018","0.1422927172","0.1208777168","0.9953783407","","","","","","","","76","L","3","","","210","main_expt",""
"","bandit","290","1242571","0.0-251.0-0.0","29368201","wem/bandit_either_3","A3KC26Z78FBOJT","either","5","293","","","","","","","1","0","0","0.9976351195","","0.4","0.2","0.6","0.8","","","","","0.7125411919","0.1811219169","0.1733448518","0.9976351195","","","","","","","","76","L","3","","","211","main_expt",""
"","bandit","291","1244339","0.0-252.0-0.0","29368201","wem/bandit_either_3","A3KC26Z78FBOJT","either","5","257","","","","","","","1","0","0","0.9983589292","","0.4","0.2","0.6","0.8","","","","","0.7191881067","0.1982527665","0.1085262221","0.9983589292","","","","","","","","76","L","3","","","212","main_expt",""
"","bandit","292","1246001","0.0-253.0-0.0","29368201","wem/bandit_either_3","A3KC26Z78FBOJT","either","5","154","","","","","","","1","0","0","0.9960427138","","0.4","0.2","0.6","0.8","","","","","0.7523845147","0.124448309","0.08145678985","0.9960427138","","","","","","","","76","L","3","","","213","main_expt",""
"","bandit","293","1247700","0.0-254.0-0.0","29368201","wem/bandit_either_3","A3KC26Z78FBOJT","either","5","190","","","","","","","0","1","0","","0.9924650588","0.4","0.2","0.6","0.8","0.7193420906","0.1036015692","0.05725631888","0.9924650588","","","","","","","","","","","","76","L","3","","","214","main_expt",""
"","bandit","294","1249421","0.0-255.0-0.0","29368201","wem/bandit_either_3","A3KC26Z78FBOJT","either","5","212","","","","","","","0","1","0","","0.9858211903","0.4","0.2","0.6","0.8","0.6784461291","0.14458031","0.04356988172","0.9858211903","","","","","","","","","","","","76","L","3","","","215","main_expt",""
"","bandit","295","1251176","0.0-256.0-0.0","29368201","wem/bandit_either_3","A3KC26Z78FBOJT","either","5","246","","","","","","","1","0","0","0.9915289077","","0.4","0.2","0.6","0.8","","","","","0.5658185063","0.2094876981","0.04316154837","0.9915289077","","","","","","","","76","L","3","","","216","main_expt",""
"","bandit","296","1252909","0.0-257.0-0.0","29368201","wem/bandit_either_3","A3KC26Z78FBOJT","either","5","224","","","","","","","1","0","0","0.9929544916","","0.4","0.2","0.6","0.8","","","","","0.4886301847","0.24936904","0.03453558383","0.9929544916","","","","","","","","76","L","3","","","217","main_expt",""
"","bandit","297","1254564","0.0-258.0-0.0","29368201","wem/bandit_either_3","A3KC26Z78FBOJT","either","5","145","","","","","","","0","1","0","","0.9741721496","0.4","0.2","0.6","0.8","0.5674985979","0.2006789107","0.03800932399","0.9741721496","","","","","","","","","","","","76","L","3","","","218","main_expt",""
"","bandit","298","1256273","0.0-259.0-0.0","29368201","wem/bandit_either_3","A3KC26Z78FBOJT","either","5","200","","","","","","","0","1","0","","0.9413517393","0.4","0.2","0.6","0.8","0.6088772151","0.2118480588","0.07914639327","0.9413517393","","","","","","","","","","","","76","L","3","","","219","main_expt",""
"","bandit","299","1257963","0.0-260.0-0.0","29368201","wem/bandit_either_3","A3KC26Z78FBOJT","either","5","181","","","","","","","1","0","0","0.9230346446","","0.4","0.2","0.6","0.8","","","","","0.5856238885","0.2159213458","0.07044987786","0.9230346446","","","","","","","","76","L","3","","","220","main_expt",""
"","bandit","300","1259793","0.0-261.0-0.0","29368201","wem/bandit_either_3","A3KC26Z78FBOJT","either","5","321","","","","","","","1","0","0","0.9216350241","","0.4","0.2","0.6","0.8","","","","","0.6601978635","0.2097338805","0.1351506501","0.9216350241","","","","","","","","76","L","3","","","221","main_expt",""
"","bandit","301","1261494","0.0-262.0-0.0","29368201","wem/bandit_either_3","A3KC26Z78FBOJT","either","5","192","","","","","","","1","0","0","0.9093406134","","0.4","0.2","0.6","0.8","","","","","0.6540659739","0.1468233299","0.2099108548","0.9093406134","","","","","","","","76","L","3","","","222","main_expt",""
"","bandit","302","1263327","0.0-263.0-0.0","29368201","wem/bandit_either_3","A3KC26Z78FBOJT","either","5","324","","","","","","","1","0","0","0.8361447498","","0.4","0.2","0.6","0.8","","","","","0.7010542315","0.1379540926","0.2971693323","0.8361447498","","","","","","","","76","L","3","","","223","main_expt",""
"","bandit","303","1265160","0.0-264.0-0.0","29368201","wem/bandit_either_3","A3KC26Z78FBOJT","either","5","326","","","","","","","0","0","1","0.8626161161","","0.4","0.2","0.6","0.8","","","","","0.7972730751","0.1943723139","0.2754671199","0.8626161161","","","","","","","","76","L","3","","","224","main_expt",""
"","bandit","304","1266746","0.0-265.0-0.0","29368201","wem/bandit_either_3","A3KC26Z78FBOJT","either","5","77","","","","","","","1","0","0","0.9176165053","","0.4","0.2","0.6","0.8","","","","","0.8726314772","0.2949344278","0.2483133052","0.9176165053","","","","","","","","76","L","3","","","225","main_expt",""
"","bandit","305","1268378","0.0-266.0-0.0","29368201","wem/bandit_either_3","A3KC26Z78FBOJT","either","5","123","","","","","","","1","0","0","0.9516545376","","0.4","0.2","0.6","0.8","","","","","0.8569150835","0.4040967375","0.2945032007","0.9516545376","","","","","","","","76","L","3","","","226","main_expt",""
"","bandit","306","1270067","0.0-267.0-0.0","29368201","wem/bandit_either_3","A3KC26Z78FBOJT","either","5","179","","","","","","","0","1","0","","0.9448551655","0.4","0.2","0.6","0.8","0.8773762417","0.4369809926","0.2544933329","0.9448551655","","","","","","","","","","","","76","L","3","","","227","main_expt",""
"","bandit","307","1271832","0.0-268.0-0.0","29368201","wem/bandit_either_3","A3KC26Z78FBOJT","either","5","255","","","","","","","0","1","0","","0.9298030406","0.4","0.2","0.6","0.8","0.8514828757","0.4228749262","0.22227057","0.9298030406","","","","","","","","","","","","76","L","3","","","228","main_expt",""
"","bandit","308","1273622","0.0-269.0-0.0","29368201","wem/bandit_either_3","A3KC26Z78FBOJT","either","5","282","","","","","","","0","0","1","0.9022116856","","0.4","0.2","0.6","0.8","","","","","0.893786405","0.4953143479","0.2319557967","0.9022116856","","","","","","","","76","L","3","","","229","main_expt",""
"","bandit","309","1275221","0.0-270.0-0.0","29368201","wem/bandit_either_3","A3KC26Z78FBOJT","either","5","89","","","","","","","0","1","0","","0.8934587516","0.4","0.2","0.6","0.8","0.9350514117","0.4752889979","0.3107577299","0.8934587516","","","","","","","","","","","","76","L","3","","","230","main_expt",""
"","bandit","310","1276861","0.0-271.0-0.0","29368201","wem/bandit_either_3","A3KC26Z78FBOJT","either","5","129","","","","","","","0","1","0","","0.8403693225","0.4","0.2","0.6","0.8","0.9139197991","0.4887049862","0.3046703461","0.8403693225","","","","","","","","","","","","76","L","3","","","231","main_expt",""
"","bandit","311","1278615","0.0-272.0-0.0","29368201","wem/bandit_either_3","A3KC26Z78FBOJT","either","5","247","","","","","","","1","0","0","0.7373772703","","0.4","0.2","0.6","0.8","","","","","0.8753904063","0.6065944358","0.4259459217","0.7373772703","","","","","","","","76","L","3","","","232","main_expt",""
"","bandit","312","1280349","0.0-273.0-0.0","29368201","wem/bandit_either_3","A3KC26Z78FBOJT","either","5","225","","","","","","","1","0","0","0.7275490615","","0.4","0.2","0.6","0.8","","","","","0.807664976","0.5320380184","0.3391655585","0.7275490615","","","","","","","","76","L","3","","","233","main_expt",""
"","bandit","313","1282059","0.0-274.0-0.0","29368201","wem/bandit_either_3","A3KC26Z78FBOJT","either","5","201","","","","","","","0","0","1","0.6910989812","","0.4","0.2","0.6","0.8","","","","","0.817303243","0.5845689413","0.3380141995","0.6910989812","","","","","","","","76","L","3","","","234","main_expt",""
"","bandit","314","1283715","0.0-275.0-0.0","29368201","wem/bandit_either_3","A3KC26Z78FBOJT","either","5","144","","","","","","","1","0","0","0.6506848601","","0.4","0.2","0.6","0.8","","","","","0.8320050337","0.4424117598","0.2949514339","0.6506848601","","","","","","","","76","L","3","","","235","main_expt",""
"","bandit","315","1285369","0.0-276.0-0.0","29368201","wem/bandit_either_3","A3KC26Z78FBOJT","either","5","144","","","","","","","0","0","1","0.589166471","","0.4","0.2","0.6","0.8","","","","","0.8539654836","0.4411324282","0.2575094814","0.589166471","","","","","","","","76","L","3","","","236","main_expt",""
"","bandit","316","1287177","0.0-277.0-0.0","29368201","wem/bandit_either_3","A3KC26Z78FBOJT","either","5","300","","","","","","","0","0","1","","0.5475273787","0.4","0.2","0.6","0.8","0.8151920012","0.5792865955","0.3298960346","0.5475273787","","","","","","","","","","","","76","L","3","","","237","main_expt",""
"","bandit","317","1288900","0.0-278.0-0.0","29368201","wem/bandit_either_3","A3KC26Z78FBOJT","either","5","214","","","","","","","0","0","1","","0.6435093149","0.4","0.2","0.6","0.8","0.8724257749","0.6435093149","0.3922637729","0.5644141111","","","","","","","","","","","","74","J","1","","","238","main_expt",""
"","bandit","318","1290485","0.0-279.0-0.0","29368201","wem/bandit_either_3","A3KC26Z78FBOJT","either","5","75","","","","","","","0","0","1","","0.3200188668","0.4","0.2","0.6","0.8","0.8232187668","0.571754567","0.3200188668","0.557522906","","","","","","","","","","","","75","K","2","","","239","main_expt",""
"","bandit","319","1292252","0.0-280.0-0.0","29368201","wem/bandit_either_3","A3KC26Z78FBOJT","either","5","259","","","","","","","0","0","1","","0.8306623225","0.4","0.2","0.6","0.8","0.8306623225","0.6642130709","0.3427015143","0.603497511","","","","","","","","","","","","72","H","0","img/none_selected.jpg","","240","main_expt",""
"","bandit","320","1293962","0.0-281.0-0.0","29368201","wem/bandit_either_3","A3KC26Z78FBOJT","either","5","199","","","","","","","0","0","1","","0.5998739494","0.4","0.2","0.6","0.8","0.7592816599","0.702894688","0.3027961335","0.5998739494","","","","","","","","","","","","76","L","3","","","241","main_expt",""
"","bandit","321","1295571","0.0-282.0-0.0","29368201","wem/bandit_either_3","A3KC26Z78FBOJT","either","5","101","","","","","","","0","1","0","","0.6468691102","0.4","0.2","0.6","0.8","0.8354326854","0.6468691102","0.2916945226","0.5674661637","","","","","","","","","","","","74","J","1","","","242","main_expt",""
"","bandit","322","1297201","0.0-283.0-0.0","29368201","wem/bandit_either_3","A3KC26Z78FBOJT","either","5","122","","","","","","","1","0","0","0.7073159297","","0.4","0.2","0.6","0.8","","","","","0.8387573723","0.7073159297","0.2703759756","0.620083209","","","","","","","","74","J","1","","","243","main_expt",""
"","bandit","323","1298923","0.0-284.0-0.0","29368201","wem/bandit_either_3","A3KC26Z78FBOJT","either","5","213","","","","","","","0","0","1","0.6719420595","","0.4","0.2","0.6","0.8","","","","","0.8683205951","0.6719420595","0.2055036404","0.7089992968","","","","","","","","74","J","1","","","244","main_expt",""
"","bandit","324","1300645","0.0-285.0-0.0","29368201","wem/bandit_either_3","A3KC26Z78FBOJT","either","5","213","","","","","","","0","0","1","0.2458168489","","0.4","0.2","0.6","0.8","","","","","0.7825192054","0.7396289485","0.2458168489","0.6816226354","","","","","","","","75","K","2","","","245","main_expt",""
"","bandit","325","1302254","0.0-286.0-0.0","29368201","wem/bandit_either_3","A3KC26Z78FBOJT","either","5","101","","","","","","","1","0","0","0.7198633651","","0.4","0.2","0.6","0.8","","","","","0.7198633651","0.7441215906","0.1926258913","0.7150612665","","","","","","","","72","H","0","img/none_selected.jpg","","246","main_expt",""
