"consent","trial_type","trial_index","time_elapsed","internal_node_id","subjID","study","MID","cond","drift","rt","responses","key_press","expt_phase","like","value","connected","gems","bombs","no_reward","GemPrChosen","BombPrChosen","GainOverPainPr_0","GainOverPainPr_1","GainOverPainPr_2","GainOverPainPr_3","LosePr_0","LosePr_1","LosePr_2","LosePr_3","WinPr_0","WinPr_1","WinPr_2","WinPr_3","Q0","Q1","Q2","gender","age","ethnicity","target","respCharCode","respKey","respChoiceNum","respChoice","practice","trial_counter","trial_label","button_pressed"
"INL_behavioral_consent_30min_online.html","consent","0","12414","0.0-0.0","32205008","wem/bandit_either_3","A2L772YDACSPHF","either","2","","","","","","","","","","","","","","","","","","","","","","","","","","","","","","","","","","","","","","",""
"","survey-text","1","19321","0.0-1.0","32205008","wem/bandit_either_3","A2L772YDACSPHF","either","2","5891","{""Q0"":""A2L772YDACSPHF""}","","","","","","","","","","","","","","","","","","","","","","","","","","","","","","","","","","","","",""
"","text","2","28822","0.0-2.0","32205008","wem/bandit_either_3","A2L772YDACSPHF","either","2","8495","","32","","","","","","","","","","","","","","","","","","","","","","","","","","","","","","","","","","","",""
"","text","3","34833","0.0-3.0","32205008","wem/bandit_either_3","A2L772YDACSPHF","either","2","6009","","32","","","","","","","","","","","","","","","","","","","","","","","","","","","","","","","","","","","",""
"","text","4","63469","0.0-4.0","32205008","wem/bandit_either_3","A2L772YDACSPHF","either","2","28635","","32","","","","","","","","","","","","","","","","","","","","","","","","","","","","","","","","","","","",""
"","text","5","75550","0.0-5.0","32205008","wem/bandit_either_3","A2L772YDACSPHF","either","2","12079","","32","","","","","","","","","","","","","","","","","","","","","","","","","","","","","","","","","","","",""
"","text","6","89269","0.0-6.0","32205008","wem/bandit_either_3","A2L772YDACSPHF","either","2","13718","","32","","","","","","","","","","","","","","","","","","","","","","","","","","","","","","","","","","","",""
"","text","7","96877","0.0-7.0","32205008","wem/bandit_either_3","A2L772YDACSPHF","either","2","7606","","32","","","","","","","","","","","","","","","","","","","","","","","","","","","","","","","","","","","",""
"","text","8","101030","0.0-8.0","32205008","wem/bandit_either_3","A2L772YDACSPHF","either","2","4151","","32","","","","","","","","","","","","","","","","","","","","","","","","","","","","","","","","","","","",""
"","identification","9","107965","0.0-9.0-0.0","32205008","wem/bandit_either_3","A2L772YDACSPHF","either","2","6910","","","","6","6","6","","","","","","","","","","","","","","","","","","","","","","","","the village of Zur","","","","","","","",""
"","identification","10","115491","0.0-9.0-1.0","32205008","wem/bandit_either_3","A2L772YDACSPHF","either","2","6500","","","","0","0","0","","","","","","","","","","","","","","","","","","","","","","","","the village of Nyx","","","","","","","",""
"","text","11","121986","0.0-10.0","32205008","wem/bandit_either_3","A2L772YDACSPHF","either","2","5490","","32","","","","","","","","","","","","","","","","","","","","","","","","","","","","","","","","","","","",""
"","text","12","126334","0.0-11.0","32205008","wem/bandit_either_3","A2L772YDACSPHF","either","2","4347","","32","","","","","","","","","","","","","","","","","","","","","","","","","","","","","","","","","","","",""
"","text","13","129839","0.0-12.0","32205008","wem/bandit_either_3","A2L772YDACSPHF","either","2","3503","","32","","","","","","","","","","","","","","","","","","","","","","","","","","","","","","","","","","","",""
"","text","14","132616","0.0-13.0","32205008","wem/bandit_either_3","A2L772YDACSPHF","either","2","2775","","32","","","","","","","","","","","","","","","","","","","","","","","","","","","","","","","","","","","",""
"","bandit","15","148225","0.0-14.0-0.0","32205008","wem/bandit_either_3","A2L772YDACSPHF","either","2","14097","","","","","","","0","0","1","0","0","","","","","0","","","","0","","","","","","","","","","","74","J","0","img/none_selected_demo.jpg","true","0","",""
"","bandit","16","152393","0.0-15.0-0.0","32205008","wem/bandit_either_3","A2L772YDACSPHF","either","2","2654","","","","","","","0","0","1","0","0","","","","","0","","","","0","","","","","","","","","","","75","K","0","img/none_selected_demo.jpg","true","0","",""
"","text","17","159830","0.0-16.0","32205008","wem/bandit_either_3","A2L772YDACSPHF","either","2","7435","","32","","","","","","","","","","","","","","","","","","","","","","","","","","","","","","","","","","","",""
"","text","18","168400","0.0-17.0","32205008","wem/bandit_either_3","A2L772YDACSPHF","either","2","8569","","32","","","","","","","","","","","","","","","","","","","","","","","","","","","","","","","","","","","",""
"","text","19","174946","0.0-18.0","32205008","wem/bandit_either_3","A2L772YDACSPHF","either","2","6544","","32","","","","","","","","","","","","","","","","","","","","","","","","","","","","","","","","","","","",""
"","text","20","179347","0.0-19.0","32205008","wem/bandit_either_3","A2L772YDACSPHF","either","2","4400","","32","","","","","","","","","","","","","","","","","","","","","","","","","","","","","","","","","","","",""
"","bandit","21","182625","0.0-20.0-0.0","32205008","wem/bandit_either_3","A2L772YDACSPHF","either","2","1766","","","","","","","0","0","1","0.2","","0.5","0.5","","","","","","","0.8","0.2","","","","","","","","","","75","K","1","","true","0","80_20_practice",""
"","bandit","22","185545","0.0-20.0-1.0","32205008","wem/bandit_either_3","A2L772YDACSPHF","either","2","1408","","","","","","","0","0","1","","0.2","0.5","0.5","","","0.8","0.2","","","","","","","","","","","","","","75","K","1","","true","0","80_20_practice",""
"","bandit","23","187844","0.0-20.0-2.0","32205008","wem/bandit_either_3","A2L772YDACSPHF","either","2","784","","","","","","","0","1","0","","0.8","0.5","0.5","","","0.8","0.2","","","","","","","","","","","","","","74","J","0","img/none_selected_demo.jpg","true","0","80_20_practice",""
"","bandit","24","190209","0.0-20.0-3.0","32205008","wem/bandit_either_3","A2L772YDACSPHF","either","2","852","","","","","","","0","1","0","","0.8","0.5","0.5","","","0.8","0.2","","","","","","","","","","","","","","74","J","0","img/none_selected_demo.jpg","true","0","80_20_practice",""
"","bandit","25","192734","0.0-20.0-4.0","32205008","wem/bandit_either_3","A2L772YDACSPHF","either","2","1013","","","","","","","0","1","0","","0.8","0.5","0.5","","","0.8","0.2","","","","","","","","","","","","","","74","J","0","img/none_selected_demo.jpg","true","0","80_20_practice",""
"","bandit","26","195785","0.0-20.0-5.0","32205008","wem/bandit_either_3","A2L772YDACSPHF","either","2","1538","","","","","","","0","1","0","","0.8","0.5","0.5","","","0.8","0.2","","","","","","","","","","","","","","74","J","0","img/none_selected_demo.jpg","true","0","80_20_practice",""
"","bandit","27","198212","0.0-20.0-6.0","32205008","wem/bandit_either_3","A2L772YDACSPHF","either","2","913","","","","","","","1","0","0","0.8","","0.5","0.5","","","","","","","0.8","0.2","","","","","","","","","","74","J","0","img/none_selected_demo.jpg","true","0","80_20_practice",""
"","bandit","28","200412","0.0-20.0-7.0","32205008","wem/bandit_either_3","A2L772YDACSPHF","either","2","684","","","","","","","0","0","1","","0.8","0.5","0.5","","","0.8","0.2","","","","","","","","","","","","","","74","J","0","img/none_selected_demo.jpg","true","0","80_20_practice",""
"","bandit","29","202568","0.0-20.0-8.0","32205008","wem/bandit_either_3","A2L772YDACSPHF","either","2","643","","","","","","","1","0","0","0.8","","0.5","0.5","","","","","","","0.8","0.2","","","","","","","","","","74","J","0","img/none_selected_demo.jpg","true","0","80_20_practice",""
"","bandit","30","204928","0.0-20.0-9.0","32205008","wem/bandit_either_3","A2L772YDACSPHF","either","2","849","","","","","","","0","0","1","","0.8","0.5","0.5","","","0.8","0.2","","","","","","","","","","","","","","74","J","0","img/none_selected_demo.jpg","true","0","80_20_practice",""
"","bandit","31","207011","0.0-20.0-10.0","32205008","wem/bandit_either_3","A2L772YDACSPHF","either","2","575","","","","","","","0","0","1","0.8","","0.5","0.5","","","","","","","0.8","0.2","","","","","","","","","","74","J","0","img/none_selected_demo.jpg","true","0","80_20_practice",""
"","bandit","32","209026","0.0-20.0-11.0","32205008","wem/bandit_either_3","A2L772YDACSPHF","either","2","502","","","","","","","0","0","1","0.2","","0.5","0.5","","","","","","","0.8","0.2","","","","","","","","","","75","K","1","","true","0","80_20_practice",""
"","bandit","33","211111","0.0-20.0-12.0","32205008","wem/bandit_either_3","A2L772YDACSPHF","either","2","573","","","","","","","0","0","1","0.2","","0.5","0.5","","","","","","","0.8","0.2","","","","","","","","","","75","K","1","","true","0","80_20_practice",""
"","bandit","34","213113","0.0-20.0-13.0","32205008","wem/bandit_either_3","A2L772YDACSPHF","either","2","490","","","","","","","0","0","1","","0.8","0.5","0.5","","","0.8","0.2","","","","","","","","","","","","","","74","J","0","img/none_selected_demo.jpg","true","0","80_20_practice",""
"","bandit","35","215099","0.0-20.0-14.0","32205008","wem/bandit_either_3","A2L772YDACSPHF","either","2","472","","","","","","","0","1","0","","0.8","0.5","0.5","","","0.8","0.2","","","","","","","","","","","","","","74","J","0","img/none_selected_demo.jpg","true","0","80_20_practice",""
"","bandit","36","217801","0.0-20.0-15.0","32205008","wem/bandit_either_3","A2L772YDACSPHF","either","2","1188","","","","","","","0","1","0","","0.8","0.5","0.5","","","0.8","0.2","","","","","","","","","","","","","","74","J","0","img/none_selected_demo.jpg","true","0","80_20_practice",""
"","bandit","37","219841","0.0-20.0-16.0","32205008","wem/bandit_either_3","A2L772YDACSPHF","either","2","527","","","","","","","1","0","0","0.8","","0.5","0.5","","","","","","","0.8","0.2","","","","","","","","","","74","J","0","img/none_selected_demo.jpg","true","0","80_20_practice",""
"","bandit","38","222140","0.0-20.0-17.0","32205008","wem/bandit_either_3","A2L772YDACSPHF","either","2","783","","","","","","","1","0","0","0.8","","0.5","0.5","","","","","","","0.8","0.2","","","","","","","","","","74","J","0","img/none_selected_demo.jpg","true","0","80_20_practice",""
"","bandit","39","223690","0.0-20.0-18.0","32205008","wem/bandit_either_3","A2L772YDACSPHF","either","2","35","","","","","","","0","1","0","","0.8","0.5","0.5","","","0.8","0.2","","","","","","","","","","","","","","74","J","0","img/none_selected_demo.jpg","true","0","80_20_practice",""
"","bandit","40","226041","0.0-20.0-19.0","32205008","wem/bandit_either_3","A2L772YDACSPHF","either","2","839","","","","","","","1","0","0","0.8","","0.5","0.5","","","","","","","0.8","0.2","","","","","","","","","","74","J","0","img/none_selected_demo.jpg","true","0","80_20_practice",""
"","text","41","246642","0.0-21.0","32205008","wem/bandit_either_3","A2L772YDACSPHF","either","2","20598","","32","","","","","","","","","","","","","","","","","","","","","","","","","","","","","","","","","","","",""
"","bandit","42","252924","0.0-22.0-0.0","32205008","wem/bandit_either_3","A2L772YDACSPHF","either","2","4767","","","","","","","1","0","0","1","0","","","","","0","1","","","1","0","","","","","","","","","","74","J","0","img/none_selected_demo.jpg","true","0","",""
"","text","43","261879","0.0-23.0","32205008","wem/bandit_either_3","A2L772YDACSPHF","either","2","8952","","32","","","","","","","","","","","","","","","","","","","","","","","","","","","","","","","","","","","",""
"","text","44","264767","0.0-24.0","32205008","wem/bandit_either_3","A2L772YDACSPHF","either","2","2885","","32","","","","","","","","","","","","","","","","","","","","","","","","","","","","","","","","","","","",""
"","text","45","267704","0.0-25.0","32205008","wem/bandit_either_3","A2L772YDACSPHF","either","2","2935","","32","","","","","","","","","","","","","","","","","","","","","","","","","","","","","","","","","","","",""
"","text","46","271323","0.0-26.0","32205008","wem/bandit_either_3","A2L772YDACSPHF","either","2","3618","","32","","","","","","","","","","","","","","","","","","","","","","","","","","","","","","","","","","","",""
"","text","47","314492","0.0-27.0","32205008","wem/bandit_either_3","A2L772YDACSPHF","either","2","43167","","32","","","","","","","","","","","","","","","","","","","","","","","","","","","","","","","","","","","",""
"","text","48","317659","0.0-28.0","32205008","wem/bandit_either_3","A2L772YDACSPHF","either","2","3165","","32","","","","","","","","","","","","","","","","","","","","","","","","","","","","","","","","","","","",""
"","text","49","322086","0.0-29.0","32205008","wem/bandit_either_3","A2L772YDACSPHF","either","2","4425","","32","","","","","","","","","","","","","","","","","","","","","","","","","","","","","","","","","","","",""
"","text","50","331350","0.0-30.0","32205008","wem/bandit_either_3","A2L772YDACSPHF","either","2","9263","","32","","","","","","","","","","","","","","","","","","","","","","","","","","","","","","","","","","","",""
"","text","51","334686","0.0-31.0","32205008","wem/bandit_either_3","A2L772YDACSPHF","either","2","3333","","32","","","","","","","","","","","","","","","","","","","","","","","","","","","","","","","","","","","",""
"","text","52","340465","0.0-32.0","32205008","wem/bandit_either_3","A2L772YDACSPHF","either","2","5776","","32","","","","","","","","","","","","","","","","","","","","","","","","","","","","","","","","","","","",""
"","text","53","348314","0.0-33.0","32205008","wem/bandit_either_3","A2L772YDACSPHF","either","2","7847","","32","","","","","","","","","","","","","","","","","","","","","","","","","","","","","","","","","","","",""
"","bandit","54","351660","0.0-34.0-0.0","32205008","wem/bandit_either_3","A2L772YDACSPHF","either","2","1835","","","","","","","0","0","1","","0.2","0.5","0.5","0.5","0.5","0.8","0.2","0.6","0.2","","","","","","","","","","","","74","J","1","","true","0","full_practice",""
"","bandit","55","354221","0.0-34.0-1.0","32205008","wem/bandit_either_3","A2L772YDACSPHF","either","2","1048","","","","","","","0","0","1","0.6","","0.5","0.5","0.5","0.5","","","","","0.8","0.2","0.6","0.2","","","","","","","","75","K","2","","true","0","full_practice",""
"","bandit","56","356188","0.0-34.0-2.0","32205008","wem/bandit_either_3","A2L772YDACSPHF","either","2","457","","","","","","","0","1","0","","0.2","0.5","0.5","0.5","0.5","0.8","0.2","0.6","0.2","","","","","","","","","","","","76","L","3","","true","0","full_practice",""
"","bandit","57","358319","0.0-34.0-3.0","32205008","wem/bandit_either_3","A2L772YDACSPHF","either","2","619","","","","","","","0","0","1","","0.2","0.5","0.5","0.5","0.5","0.8","0.2","0.6","0.2","","","","","","","","","","","","76","L","3","","true","0","full_practice",""
"","bandit","58","360316","0.0-34.0-4.0","32205008","wem/bandit_either_3","A2L772YDACSPHF","either","2","486","","","","","","","0","0","1","","0.2","0.5","0.5","0.5","0.5","0.8","0.2","0.6","0.2","","","","","","","","","","","","76","L","3","","true","0","full_practice",""
"","bandit","59","362195","0.0-34.0-5.0","32205008","wem/bandit_either_3","A2L772YDACSPHF","either","2","370","","","","","","","0","0","1","0.2","","0.5","0.5","0.5","0.5","","","","","0.8","0.2","0.6","0.2","","","","","","","","76","L","3","","true","0","full_practice",""
"","bandit","60","364670","0.0-34.0-6.0","32205008","wem/bandit_either_3","A2L772YDACSPHF","either","2","965","","","","","","","0","1","0","","0.8","0.5","0.5","0.5","0.5","0.8","0.2","0.6","0.2","","","","","","","","","","","","72","H","0","img/none_selected.jpg","true","0","full_practice",""
"","bandit","61","366739","0.0-34.0-7.0","32205008","wem/bandit_either_3","A2L772YDACSPHF","either","2","553","","","","","","","0","0","1","","0.8","0.5","0.5","0.5","0.5","0.8","0.2","0.6","0.2","","","","","","","","","","","","72","H","0","img/none_selected.jpg","true","0","full_practice",""
"","bandit","62","368592","0.0-34.0-8.0","32205008","wem/bandit_either_3","A2L772YDACSPHF","either","2","339","","","","","","","0","0","1","","0.8","0.5","0.5","0.5","0.5","0.8","0.2","0.6","0.2","","","","","","","","","","","","72","H","0","img/none_selected.jpg","true","0","full_practice",""
"","bandit","63","370944","0.0-34.0-9.0","32205008","wem/bandit_either_3","A2L772YDACSPHF","either","2","838","","","","","","","0","0","1","0.8","","0.5","0.5","0.5","0.5","","","","","0.8","0.2","0.6","0.2","","","","","","","","72","H","0","img/none_selected.jpg","true","0","full_practice",""
"","bandit","64","372870","0.0-34.0-10.0","32205008","wem/bandit_either_3","A2L772YDACSPHF","either","2","413","","","","","","","0","1","0","","0.2","0.5","0.5","0.5","0.5","0.8","0.2","0.6","0.2","","","","","","","","","","","","74","J","1","","true","0","full_practice",""
"","bandit","65","374782","0.0-34.0-11.0","32205008","wem/bandit_either_3","A2L772YDACSPHF","either","2","399","","","","","","","0","0","1","0.2","","0.5","0.5","0.5","0.5","","","","","0.8","0.2","0.6","0.2","","","","","","","","74","J","1","","true","0","full_practice",""
"","bandit","66","376438","0.0-34.0-12.0","32205008","wem/bandit_either_3","A2L772YDACSPHF","either","2","143","","","","","","","0","1","0","","0.2","0.5","0.5","0.5","0.5","0.8","0.2","0.6","0.2","","","","","","","","","","","","74","J","1","","true","0","full_practice",""
"","bandit","67","378660","0.0-34.0-13.0","32205008","wem/bandit_either_3","A2L772YDACSPHF","either","2","709","","","","","","","0","0","1","","0.2","0.5","0.5","0.5","0.5","0.8","0.2","0.6","0.2","","","","","","","","","","","","74","J","1","","true","0","full_practice",""
"","bandit","68","380284","0.0-34.0-14.0","32205008","wem/bandit_either_3","A2L772YDACSPHF","either","2","112","","","","","","","0","0","1","0.2","","0.5","0.5","0.5","0.5","","","","","0.8","0.2","0.6","0.2","","","","","","","","74","J","1","","true","0","full_practice",""
"","bandit","69","381870","0.0-34.0-15.0","32205008","wem/bandit_either_3","A2L772YDACSPHF","either","2","74","","","","","","","0","0","1","","0.2","0.5","0.5","0.5","0.5","0.8","0.2","0.6","0.2","","","","","","","","","","","","74","J","1","","true","0","full_practice",""
"","bandit","70","383536","0.0-34.0-16.0","32205008","wem/bandit_either_3","A2L772YDACSPHF","either","2","150","","","","","","","1","0","0","0.6","","0.5","0.5","0.5","0.5","","","","","0.8","0.2","0.6","0.2","","","","","","","","75","K","2","","true","0","full_practice",""
"","bandit","71","385167","0.0-34.0-17.0","32205008","wem/bandit_either_3","A2L772YDACSPHF","either","2","115","","","","","","","1","0","0","0.6","","0.5","0.5","0.5","0.5","","","","","0.8","0.2","0.6","0.2","","","","","","","","75","K","2","","true","0","full_practice",""
"","bandit","72","388046","0.0-34.0-18.0","32205008","wem/bandit_either_3","A2L772YDACSPHF","either","2","1367","","","","","","","1","0","0","0.6","","0.5","0.5","0.5","0.5","","","","","0.8","0.2","0.6","0.2","","","","","","","","75","K","2","","true","0","full_practice",""
"","bandit","73","389985","0.0-34.0-19.0","32205008","wem/bandit_either_3","A2L772YDACSPHF","either","2","422","","","","","","","0","0","1","0.6","","0.5","0.5","0.5","0.5","","","","","0.8","0.2","0.6","0.2","","","","","","","","75","K","2","","true","0","full_practice",""
"","text","74","395254","0.0-35.0","32205008","wem/bandit_either_3","A2L772YDACSPHF","either","2","5264","","32","","","","","","","","","","","","","","","","","","","","","","","","","","","","","","","","","","","",""
"","text","75","407492","0.0-36.0","32205008","wem/bandit_either_3","A2L772YDACSPHF","either","2","11230","","32","","","","","","","","","","","","","","","","","","","","","","","","","","","","","","","","","","","",""
"","text","76","416271","0.0-37.0","32205008","wem/bandit_either_3","A2L772YDACSPHF","either","2","8776","","32","","","","","","","","","","","","","","","","","","","","","","","","","","","","","","","","","","","",""
"","text","77","420241","0.0-38.0","32205008","wem/bandit_either_3","A2L772YDACSPHF","either","2","3967","","32","","","","","","","","","","","","","","","","","","","","","","","","","","","","","","","","","","","",""
"","text","78","424925","0.0-39.0","32205008","wem/bandit_either_3","A2L772YDACSPHF","either","2","4682","","32","","","","","","","","","","","","","","","","","","","","","","","","","","","","","","","","","","","",""
"","text","79","428553","0.0-40.0","32205008","wem/bandit_either_3","A2L772YDACSPHF","either","2","3627","","32","","","","","","","","","","","","","","","","","","","","","","","","","","","","","","","","","","","",""
"","bandit","80","431607","0.0-41.0-0.0","32205008","wem/bandit_either_3","A2L772YDACSPHF","either","2","1541","","","","","","","1","0","0","0.9925337928","","0.8","0.6","0.4","0.2","","","","","0.7961415707","0.9925337928","0.7092854079","0.4841938304","","","","","","","","74","J","1","","","1","main_expt",""
"","bandit","81","434823","0.0-42.0-0.0","32205008","wem/bandit_either_3","A2L772YDACSPHF","either","2","1704","","","","","","","1","0","0","0.9909612399","","0.8","0.6","0.4","0.2","","","","","0.7739630809","0.9909612399","0.7343230146","0.5300888233","","","","","","","","74","J","1","","","2","main_expt",""
"","bandit","82","438293","0.0-43.0-0.0","32205008","wem/bandit_either_3","A2L772YDACSPHF","either","2","1959","","","","","","","1","0","0","0.9875934203","","0.8","0.6","0.4","0.2","","","","","0.807852523","0.9875934203","0.7616266478","0.4747636274","","","","","","","","74","J","1","","","3","main_expt",""
"","bandit","83","441911","0.0-44.0-0.0","32205008","wem/bandit_either_3","A2L772YDACSPHF","either","2","2107","","","","","","","0","1","0","","0.9782241123","0.8","0.6","0.4","0.2","0.7922386472","0.9782241123","0.7555889459","0.4841015375","","","","","","","","","","","","74","J","1","","","4","main_expt",""
"","bandit","84","445510","0.0-45.0-0.0","32205008","wem/bandit_either_3","A2L772YDACSPHF","either","2","2086","","","","","","","1","0","0","0.9756627961","","0.8","0.6","0.4","0.2","","","","","0.865094385","0.9756627961","0.733520678","0.5545204825","","","","","","","","74","J","1","","","5","main_expt",""
"","bandit","85","449051","0.0-46.0-0.0","32205008","wem/bandit_either_3","A2L772YDACSPHF","either","2","2026","","","","","","","0","1","0","","0.967089612","0.8","0.6","0.4","0.2","0.800956518","0.967089612","0.6705264102","0.6032406034","","","","","","","","","","","","74","J","1","","","6","main_expt",""
"","bandit","86","452696","0.0-47.0-0.0","32205008","wem/bandit_either_3","A2L772YDACSPHF","either","2","2131","","","","","","","1","0","0","0.9581374084","","0.8","0.6","0.4","0.2","","","","","0.826484282","0.9581374084","0.6395389268","0.6629125932","","","","","","","","74","J","1","","","7","main_expt",""
"","bandit","87","456145","0.0-48.0-0.0","32205008","wem/bandit_either_3","A2L772YDACSPHF","either","2","1934","","","","","","","1","0","0","0.9470057872","","0.8","0.6","0.4","0.2","","","","","0.8721258401","0.9470057872","0.6463283336","0.6179372523","","","","","","","","74","J","1","","","8","main_expt",""
"","bandit","88","459837","0.0-49.0-0.0","32205008","wem/bandit_either_3","A2L772YDACSPHF","either","2","2177","","","","","","","0","1","0","","0.9776699295","0.8","0.6","0.4","0.2","0.9123847657","0.9776699295","0.5257156782","0.7126464358","","","","","","","","","","","","74","J","1","","","9","main_expt",""
"","bandit","89","463667","0.0-50.0-0.0","32205008","wem/bandit_either_3","A2L772YDACSPHF","either","2","2315","","","","","","","1","0","0","0.9728878591","","0.8","0.6","0.4","0.2","","","","","0.8996742502","0.9728878591","0.4763364632","0.7356985298","","","","","","","","74","J","1","","","10","main_expt",""
"","bandit","90","467788","0.0-51.0-0.0","32205008","wem/bandit_either_3","A2L772YDACSPHF","either","2","2609","","","","","","","1","0","0","0.9593139104","","0.8","0.6","0.4","0.2","","","","","0.9131723876","0.9593139104","0.4284616273","0.768711937","","","","","","","","74","J","1","","","11","main_expt",""
"","bandit","91","472160","0.0-52.0-0.0","32205008","wem/bandit_either_3","A2L772YDACSPHF","either","2","2861","","","","","","","0","1","0","","0.9498917819","0.8","0.6","0.4","0.2","0.8766857583","0.9498917819","0.3846657661","0.775032537","","","","","","","","","","","","74","J","1","","","12","main_expt",""
"","bandit","92","476381","0.0-53.0-0.0","32205008","wem/bandit_either_3","A2L772YDACSPHF","either","2","2708","","","","","","","1","0","0","0.9541602679","","0.8","0.6","0.4","0.2","","","","","0.8395211377","0.9541602679","0.4534267517","0.8005481332","","","","","","","","74","J","1","","","13","main_expt",""
"","bandit","93","480328","0.0-54.0-0.0","32205008","wem/bandit_either_3","A2L772YDACSPHF","either","2","2435","","","","","","","1","0","0","0.9457654821","","0.8","0.6","0.4","0.2","","","","","0.8716273459","0.9457654821","0.5781166702","0.8437703121","","","","","","","","74","J","1","","","14","main_expt",""
"","bandit","94","484294","0.0-55.0-0.0","32205008","wem/bandit_either_3","A2L772YDACSPHF","either","2","2455","","","","","","","1","0","0","0.961431504","","0.8","0.6","0.4","0.2","","","","","0.8884181174","0.961431504","0.6683268695","0.7878475566","","","","","","","","74","J","1","","","15","main_expt",""
"","bandit","95","487242","0.0-56.0-0.0","32205008","wem/bandit_either_3","A2L772YDACSPHF","either","2","1434","","","","","","","1","0","0","0.9614480804","","0.8","0.6","0.4","0.2","","","","","0.9144873871","0.9614480804","0.6948649322","0.7873795395","","","","","","","","74","J","1","","","16","main_expt",""
"","bandit","96","491108","0.0-57.0-0.0","32205008","wem/bandit_either_3","A2L772YDACSPHF","either","2","2349","","","","","","","0","1","0","","0.981184269","0.8","0.6","0.4","0.2","0.915766025","0.981184269","0.7674725463","0.8084550093","","","","","","","","","","","","74","J","1","","","17","main_expt",""
"","bandit","97","494420","0.0-58.0-0.0","32205008","wem/bandit_either_3","A2L772YDACSPHF","either","2","1797","","","","","","","0","1","0","","0.9861919244","0.8","0.6","0.4","0.2","0.9357816117","0.9861919244","0.7706733977","0.8436933745","","","","","","","","","","","","74","J","1","","","18","main_expt",""
"","bandit","98","500315","0.0-59.0-0.0","32205008","wem/bandit_either_3","A2L772YDACSPHF","either","2","4382","","","","","","","1","0","0","0.986789567","","0.8","0.6","0.4","0.2","","","","","0.9482019282","0.986789567","0.7396491891","0.8059530903","","","","","","","","74","J","1","","","19","main_expt",""
"","bandit","99","504767","0.0-60.0-0.0","32205008","wem/bandit_either_3","A2L772YDACSPHF","either","2","2935","","","","","","","0","1","0","","0.986183881","0.8","0.6","0.4","0.2","0.9433726768","0.986183881","0.6712916173","0.7839513496","","","","","","","","","","","","74","J","1","","","20","main_expt",""
"","bandit","100","509022","0.0-61.0-0.0","32205008","wem/bandit_either_3","A2L772YDACSPHF","either","2","2737","","","","","","","1","0","0","0.9887099493","","0.8","0.6","0.4","0.2","","","","","0.9488284628","0.9887099493","0.6728887443","0.7841815244","","","","","","","","74","J","1","","","21","main_expt",""
"","bandit","101","513666","0.0-62.0-0.0","32205008","wem/bandit_either_3","A2L772YDACSPHF","either","2","3132","","","","","","","1","0","0","0.992558567","","0.8","0.6","0.4","0.2","","","","","0.9500515088","0.992558567","0.7838502077","0.8256278583","","","","","","","","74","J","1","","","22","main_expt",""
"","bandit","102","518264","0.0-63.0-0.0","32205008","wem/bandit_either_3","A2L772YDACSPHF","either","2","3082","","","","","","","1","0","0","0.9906074595","","0.8","0.6","0.4","0.2","","","","","0.9645760881","0.9906074595","0.8711917965","0.7043778873","","","","","","","","74","J","1","","","23","main_expt",""
"","bandit","103","522623","0.0-64.0-0.0","32205008","wem/bandit_either_3","A2L772YDACSPHF","either","2","2847","","","","","","","0","0","1","","0.9828703082","0.8","0.6","0.4","0.2","0.946785539","0.9828703082","0.861124964","0.7662705475","","","","","","","","","","","","74","J","1","","","24","main_expt",""
"","bandit","104","527923","0.0-65.0-0.0","32205008","wem/bandit_either_3","A2L772YDACSPHF","either","2","3783","","","","","","","0","1","0","","0.984618899","0.8","0.6","0.4","0.2","0.9229473608","0.984618899","0.8551403996","0.6915147264","","","","","","","","","","","","74","J","1","","","25","main_expt",""
"","bandit","105","533839","0.0-66.0-0.0","32205008","wem/bandit_either_3","A2L772YDACSPHF","either","2","4400","","","","","","","0","1","0","","0.9780938917","0.8","0.6","0.4","0.2","0.8729820127","0.9780938917","0.8959771014","0.6844606422","","","","","","","","","","","","74","J","1","","","26","main_expt",""
"","bandit","106","539986","0.0-67.0-0.0","32205008","wem/bandit_either_3","A2L772YDACSPHF","either","2","4633","","","","","","","1","0","0","0.9634866904","","0.8","0.6","0.4","0.2","","","","","0.859067388","0.9634866904","0.8786292531","0.7953701942","","","","","","","","74","J","1","","","27","main_expt",""
"","bandit","107","546848","0.0-68.0-0.0","32205008","wem/bandit_either_3","A2L772YDACSPHF","either","2","5346","","","","","","","1","0","0","0.946494378","","0.8","0.6","0.4","0.2","","","","","0.836267867","0.946494378","0.8920593834","0.622657036","","","","","","","","74","J","1","","","28","main_expt",""
"","bandit","108","552635","0.0-69.0-0.0","32205008","wem/bandit_either_3","A2L772YDACSPHF","either","2","4274","","","","","","","1","0","0","0.9338647731","","0.8","0.6","0.4","0.2","","","","","0.7158546556","0.9338647731","0.8234517222","0.5757463716","","","","","","","","74","J","1","","","29","main_expt",""
"","bandit","109","557238","0.0-70.0-0.0","32205008","wem/bandit_either_3","A2L772YDACSPHF","either","2","3087","","","","","","","1","0","0","0.9354801528","","0.8","0.6","0.4","0.2","","","","","0.7262950886","0.9354801528","0.7963444676","0.6048158844","","","","","","","","74","J","1","","","30","main_expt",""
"","bandit","110","562260","0.0-71.0-0.0","32205008","wem/bandit_either_3","A2L772YDACSPHF","either","2","3508","","","","","","","0","0","1","0.9323861487","","0.8","0.6","0.4","0.2","","","","","0.7049485024","0.9323861487","0.6847131082","0.4831208743","","","","","","","","74","J","1","","","31","main_expt",""
"","bandit","111","564454","0.0-72.0-0.0","32205008","wem/bandit_either_3","A2L772YDACSPHF","either","2","679","","","","","","","1","0","0","0.9159531952","","0.8","0.6","0.4","0.2","","","","","0.6294605358","0.9159531952","0.7745616343","0.4413454117","","","","","","","","74","J","1","","","32","main_expt",""
"","bandit","112","568663","0.0-73.0-0.0","32205008","wem/bandit_either_3","A2L772YDACSPHF","either","2","2692","","","","","","","1","0","0","0.9501333659","","0.8","0.6","0.4","0.2","","","","","0.7097184707","0.9501333659","0.8111568365","0.589686364","","","","","","","","74","J","1","","","33","main_expt",""
"","bandit","113","572436","0.0-74.0-0.0","32205008","wem/bandit_either_3","A2L772YDACSPHF","either","2","2257","","","","","","","1","0","0","0.9485118263","","0.8","0.6","0.4","0.2","","","","","0.6324728327","0.9485118263","0.7291364049","0.5789977489","","","","","","","","74","J","1","","","34","main_expt",""
"","bandit","114","575896","0.0-75.0-0.0","32205008","wem/bandit_either_3","A2L772YDACSPHF","either","2","1946","","","","","","","0","1","0","","0.959491173","0.8","0.6","0.4","0.2","0.6809104991","0.959491173","0.7920219322","0.5605822786","","","","","","","","","","","","74","J","1","","","35","main_expt",""
"","bandit","115","578804","0.0-76.0-0.0","32205008","wem/bandit_either_3","A2L772YDACSPHF","either","2","1396","","","","","","","0","1","0","","0.9523687656","0.8","0.6","0.4","0.2","0.5745256001","0.9523687656","0.7889809596","0.3330948712","","","","","","","","","","","","74","J","1","","","36","main_expt",""
"","bandit","116","585660","0.0-77.0-0.0","32205008","wem/bandit_either_3","A2L772YDACSPHF","either","2","5340","","","","","","","0","1","0","","0.9504344127","0.8","0.6","0.4","0.2","0.6249275122","0.9504344127","0.8060385269","0.2430176499","","","","","","","","","","","","74","J","1","","","37","main_expt",""
"","bandit","117","590803","0.0-78.0-0.0","32205008","wem/bandit_either_3","A2L772YDACSPHF","either","2","3628","","","","","","","0","1","0","","0.9321408283","0.8","0.6","0.4","0.2","0.5582777804","0.9321408283","0.7188782676","0.3106083343","","","","","","","","","","","","74","J","1","","","38","main_expt",""
"","bandit","118","595429","0.0-79.0-0.0","32205008","wem/bandit_either_3","A2L772YDACSPHF","either","2","3112","","","","","","","1","0","0","0.9135525369","","0.8","0.6","0.4","0.2","","","","","0.6619895395","0.9135525369","0.7387945131","0.3239447463","","","","","","","","74","J","1","","","39","main_expt",""
"","bandit","119","599882","0.0-80.0-0.0","32205008","wem/bandit_either_3","A2L772YDACSPHF","either","2","2939","","","","","","","1","0","0","0.8840916364","","0.8","0.6","0.4","0.2","","","","","0.6522152691","0.8840916364","0.7478035428","0.2946631509","","","","","","","","74","J","1","","","40","main_expt",""
"","bandit","120","603499","0.0-81.0-0.0","32205008","wem/bandit_either_3","A2L772YDACSPHF","either","2","2104","","","","","","","1","0","0","0.8747037504","","0.8","0.6","0.4","0.2","","","","","0.6714070371","0.8747037504","0.7802386085","0.193597671","","","","","","","","74","J","1","","","41","main_expt",""
"","bandit","121","607846","0.0-82.0-0.0","32205008","wem/bandit_either_3","A2L772YDACSPHF","either","2","2832","","","","","","","1","0","0","0.826315498","","0.8","0.6","0.4","0.2","","","","","0.6390104416","0.826315498","0.7994277013","0.1834529884","","","","","","","","74","J","1","","","42","main_expt",""
"","bandit","122","611225","0.0-83.0-0.0","32205008","wem/bandit_either_3","A2L772YDACSPHF","either","2","1866","","","","","","","0","1","0","","0.7681371561","0.8","0.6","0.4","0.2","0.6318841448","0.7681371561","0.8718069658","0.1558663495","","","","","","","","","","","","74","J","1","","","43","main_expt",""
"","bandit","123","615085","0.0-84.0-0.0","32205008","wem/bandit_either_3","A2L772YDACSPHF","either","2","2347","","","","","","","1","0","0","0.7584360225","","0.8","0.6","0.4","0.2","","","","","0.5708139437","0.7584360225","0.7725207311","0.1573065196","","","","","","","","74","J","1","","","44","main_expt",""
"","bandit","124","618888","0.0-85.0-0.0","32205008","wem/bandit_either_3","A2L772YDACSPHF","either","2","2283","","","","","","","0","1","0","","0.816959585","0.8","0.6","0.4","0.2","0.5703812278","0.816959585","0.8399140445","0.1743203636","","","","","","","","","","","","74","J","1","","","45","main_expt",""
"","bandit","125","621976","0.0-86.0-0.0","32205008","wem/bandit_either_3","A2L772YDACSPHF","either","2","1575","","","","","","","0","1","0","","0.7571269921","0.8","0.6","0.4","0.2","0.4520700595","0.7571269921","0.7830678696","0.1234040722","","","","","","","","","","","","74","J","1","","","46","main_expt",""
"","bandit","126","624382","0.0-87.0-0.0","32205008","wem/bandit_either_3","A2L772YDACSPHF","either","2","887","","","","","","","1","0","0","0.7086567283","","0.8","0.6","0.4","0.2","","","","","0.4953600952","0.7086567283","0.8255209912","0.1592846429","","","","","","","","74","J","1","","","47","main_expt",""
"","bandit","127","627427","0.0-88.0-0.0","32205008","wem/bandit_either_3","A2L772YDACSPHF","either","2","1531","","","","","","","1","0","0","0.6428227569","","0.8","0.6","0.4","0.2","","","","","0.4912921637","0.6428227569","0.7728754614","0.1880090658","","","","","","","","74","J","1","","","48","main_expt",""
"","bandit","128","630869","0.0-89.0-0.0","32205008","wem/bandit_either_3","A2L772YDACSPHF","either","2","1925","","","","","","","1","0","0","0.7004196772","","0.8","0.6","0.4","0.2","","","","","0.4694413912","0.7004196772","0.8607162984","0.3190576765","","","","","","","","74","J","1","","","49","main_expt",""
"","bandit","129","634329","0.0-90.0-0.0","32205008","wem/bandit_either_3","A2L772YDACSPHF","either","2","1947","","","","","","","0","1","0","","0.6418514465","0.8","0.6","0.4","0.2","0.5835687148","0.6418514465","0.8526113732","0.277770718","","","","","","","","","","","","74","J","1","","","50","main_expt",""
"","bandit","130","636993","0.0-91.0-0.0","32205008","wem/bandit_either_3","A2L772YDACSPHF","either","2","1152","","","","","","","1","0","0","0.6322169777","","0.8","0.6","0.4","0.2","","","","","0.581499138","0.6322169777","0.8630835666","0.3304163056","","","","","","","","74","J","1","","","51","main_expt",""
"","bandit","131","640378","0.0-92.0-0.0","32205008","wem/bandit_either_3","A2L772YDACSPHF","either","2","1869","","","","","","","0","1","0","","0.6160259873","0.8","0.6","0.4","0.2","0.6521379128","0.6160259873","0.8689990829","0.3074301744","","","","","","","","","","","","74","J","1","","","52","main_expt",""
"","bandit","132","644957","0.0-93.0-0.0","32205008","wem/bandit_either_3","A2L772YDACSPHF","either","2","3068","","","","","","","1","0","0","0.6635838846","","0.8","0.6","0.4","0.2","","","","","0.5743957808","0.6635838846","0.8829627288","0.3292402402","","","","","","","","74","J","1","","","53","main_expt",""
"","bandit","133","649431","0.0-94.0-0.0","32205008","wem/bandit_either_3","A2L772YDACSPHF","either","2","2955","","","","","","","1","0","0","0.7334380463","","0.8","0.6","0.4","0.2","","","","","0.4765250731","0.7334380463","0.8577096669","0.3701383524","","","","","","","","74","J","1","","","54","main_expt",""
"","bandit","134","654617","0.0-95.0-0.0","32205008","wem/bandit_either_3","A2L772YDACSPHF","either","2","3674","","","","","","","1","0","0","0.6625049704","","0.8","0.6","0.4","0.2","","","","","0.472038817","0.6625049704","0.7951355038","0.4023440482","","","","","","","","74","J","1","","","55","main_expt",""
"","bandit","135","659211","0.0-96.0-0.0","32205008","wem/bandit_either_3","A2L772YDACSPHF","either","2","3077","","","","","","","1","0","0","0.6244126183","","0.8","0.6","0.4","0.2","","","","","0.6060805283","0.6244126183","0.7832403428","0.3320470731","","","","","","","","74","J","1","","","56","main_expt",""
"","bandit","136","663539","0.0-97.0-0.0","32205008","wem/bandit_either_3","A2L772YDACSPHF","either","2","2813","","","","","","","1","0","0","0.693445159","","0.8","0.6","0.4","0.2","","","","","0.5733746242","0.693445159","0.7165346004","0.3398704556","","","","","","","","74","J","1","","","57","main_expt",""
"","bandit","137","669397","0.0-98.0-0.0","32205008","wem/bandit_either_3","A2L772YDACSPHF","either","2","4343","","","","","","","0","1","0","","0.6603141298","0.8","0.6","0.4","0.2","0.5268086549","0.6603141298","0.7840704931","0.3171476707","","","","","","","","","","","","74","J","1","","","58","main_expt",""
"","bandit","138","673222","0.0-99.0-0.0","32205008","wem/bandit_either_3","A2L772YDACSPHF","either","2","2310","","","","","","","0","1","0","","0.6435133917","0.8","0.6","0.4","0.2","0.5298916697","0.6435133917","0.7166558068","0.1868584885","","","","","","","","","","","","74","J","1","","","59","main_expt",""
"","bandit","139","676409","0.0-100.0-0.0","32205008","wem/bandit_either_3","A2L772YDACSPHF","either","2","1670","","","","","","","1","0","0","0.6720075741","","0.8","0.6","0.4","0.2","","","","","0.5547432704","0.6720075741","0.6505055492","0.2163153633","","","","","","","","74","J","1","","","60","main_expt",""
"","bandit","140","679108","0.0-101.0-0.0","32205008","wem/bandit_either_3","A2L772YDACSPHF","either","2","1188","","","","","","","0","1","0","","0.6703611074","0.8","0.6","0.4","0.2","0.5407031957","0.6703611074","0.6465946667","0.2086512551","","","","","","","","","","","","74","J","1","","","61","main_expt",""
"","bandit","141","681872","0.0-102.0-0.0","32205008","wem/bandit_either_3","A2L772YDACSPHF","either","2","1247","","","","","","","0","0","1","0.64477312","","0.8","0.6","0.4","0.2","","","","","0.6993449034","0.64477312","0.709990362","0.2250062338","","","","","","","","74","J","1","","","62","main_expt",""
"","bandit","142","684188","0.0-103.0-0.0","32205008","wem/bandit_either_3","A2L772YDACSPHF","either","2","799","","","","","","","0","1","0","","0.509049177","0.8","0.6","0.4","0.2","0.6342967703","0.509049177","0.7542168012","0.2739380208","","","","","","","","","","","","74","J","1","","","63","main_expt",""
"","bandit","143","687200","0.0-104.0-0.0","32205008","wem/bandit_either_3","A2L772YDACSPHF","either","2","1497","","","","","","","1","0","0","0.5535424332","","0.8","0.6","0.4","0.2","","","","","0.5961490325","0.5535424332","0.7660604158","0.3449536465","","","","","","","","74","J","1","","","64","main_expt",""
"","bandit","144","690184","0.0-105.0-0.0","32205008","wem/bandit_either_3","A2L772YDACSPHF","either","2","1470","","","","","","","1","0","0","0.6608621899","","0.8","0.6","0.4","0.2","","","","","0.5771190674","0.6608621899","0.7572602099","0.34640195","","","","","","","","74","J","1","","","65","main_expt",""
"","bandit","145","692805","0.0-106.0-0.0","32205008","wem/bandit_either_3","A2L772YDACSPHF","either","2","1107","","","","","","","0","0","1","0.6535341977","","0.8","0.6","0.4","0.2","","","","","0.4765921407","0.6535341977","0.686926195","0.5266288285","","","","","","","","74","J","1","","","66","main_expt",""
"","bandit","146","695537","0.0-107.0-0.0","32205008","wem/bandit_either_3","A2L772YDACSPHF","either","2","1217","","","","","","","1","0","0","0.6592628399","","0.8","0.6","0.4","0.2","","","","","0.5714361875","0.6592628399","0.7334195653","0.5588671697","","","","","","","","74","J","1","","","67","main_expt",""
"","bandit","147","698503","0.0-108.0-0.0","32205008","wem/bandit_either_3","A2L772YDACSPHF","either","2","1452","","","","","","","0","0","1","","0.6735013879","0.8","0.6","0.4","0.2","0.6231829193","0.6735013879","0.6114245881","0.6097536784","","","","","","","","","","","","74","J","1","","","68","main_expt",""
"","bandit","148","701672","0.0-109.0-0.0","32205008","wem/bandit_either_3","A2L772YDACSPHF","either","2","1652","","","","","","","1","0","0","0.7209687993","","0.8","0.6","0.4","0.2","","","","","0.5130256365","0.7209687993","0.6460921668","0.533457584","","","","","","","","74","J","1","","","69","main_expt",""
"","bandit","149","704233","0.0-110.0-0.0","32205008","wem/bandit_either_3","A2L772YDACSPHF","either","2","1046","","","","","","","0","1","0","","0.690528825","0.8","0.6","0.4","0.2","0.5167166","0.690528825","0.6700702736","0.4124750721","","","","","","","","","","","","74","J","1","","","70","main_expt",""
"","bandit","150","706656","0.0-111.0-0.0","32205008","wem/bandit_either_3","A2L772YDACSPHF","either","2","908","","","","","","","0","1","0","","0.6453310316","0.8","0.6","0.4","0.2","0.6448170737","0.6453310316","0.6388012411","0.4486526525","","","","","","","","","","","","74","J","1","","","71","main_expt",""
"","bandit","151","709904","0.0-112.0-0.0","32205008","wem/bandit_either_3","A2L772YDACSPHF","either","2","1734","","","","","","","0","1","0","","0.8140348339","0.8","0.6","0.4","0.2","0.5640434706","0.8140348339","0.6046900378","0.4313602212","","","","","","","","","","","","74","J","1","","","72","main_expt",""
"","bandit","152","712551","0.0-113.0-0.0","32205008","wem/bandit_either_3","A2L772YDACSPHF","either","2","1133","","","","","","","1","0","0","0.820931829","","0.8","0.6","0.4","0.2","","","","","0.6296110197","0.820931829","0.6062428704","0.3639072561","","","","","","","","74","J","1","","","73","main_expt",""
"","bandit","153","714966","0.0-114.0-0.0","32205008","wem/bandit_either_3","A2L772YDACSPHF","either","2","902","","","","","","","1","0","0","0.8096233945","","0.8","0.6","0.4","0.2","","","","","0.6730210969","0.8096233945","0.6237194739","0.2882181569","","","","","","","","74","J","1","","","74","main_expt",""
"","bandit","154","717396","0.0-115.0-0.0","32205008","wem/bandit_either_3","A2L772YDACSPHF","either","2","912","","","","","","","0","1","0","","0.7615001707","0.8","0.6","0.4","0.2","0.5720403827","0.7615001707","0.5971007372","0.3561187133","","","","","","","","","","","","74","J","1","","","75","main_expt",""
"","bandit","155","720045","0.0-116.0-0.0","32205008","wem/bandit_either_3","A2L772YDACSPHF","either","2","1137","","","","","","","1","0","0","0.8147365981","","0.8","0.6","0.4","0.2","","","","","0.6303512149","0.8147365981","0.5810032438","0.4480894403","","","","","","","","74","J","1","","","76","main_expt",""
"","bandit","156","723383","0.0-117.0-0.0","32205008","wem/bandit_either_3","A2L772YDACSPHF","either","2","1823","","","","","","","1","0","0","0.8926338818","","0.8","0.6","0.4","0.2","","","","","0.5531797874","0.8926338818","0.5792233978","0.3220850356","","","","","","","","74","J","1","","","77","main_expt",""
"","bandit","157","726451","0.0-118.0-0.0","32205008","wem/bandit_either_3","A2L772YDACSPHF","either","2","1550","","","","","","","0","1","0","","0.8669072201","0.8","0.6","0.4","0.2","0.5449672882","0.8669072201","0.692511921","0.3281133775","","","","","","","","","","","","74","J","1","","","78","main_expt",""
"","bandit","158","729310","0.0-119.0-0.0","32205008","wem/bandit_either_3","A2L772YDACSPHF","either","2","1345","","","","","","","0","1","0","","0.9114006046","0.8","0.6","0.4","0.2","0.4484013318","0.9114006046","0.7019625083","0.3814329202","","","","","","","","","","","","74","J","1","","","79","main_expt",""
"","bandit","159","731887","0.0-120.0-0.0","32205008","wem/bandit_either_3","A2L772YDACSPHF","either","2","1064","","","","","","","0","0","1","0.9268398106","","0.8","0.6","0.4","0.2","","","","","0.5041425745","0.9268398106","0.6785675641","0.3512572076","","","","","","","","74","J","1","","","80","main_expt",""
"","bandit","160","734001","0.0-121.0-0.0","32205008","wem/bandit_either_3","A2L772YDACSPHF","either","2","597","","","","","","","0","1","0","","0.9582858862","0.8","0.6","0.4","0.2","0.3462078978","0.9582858862","0.7101061672","0.3624285329","","","","","","","","","","","","74","J","1","","","81","main_expt",""
"","bandit","161","736659","0.0-122.0-0.0","32205008","wem/bandit_either_3","A2L772YDACSPHF","either","2","1142","","","","","","","0","1","0","","0.9590071975","0.8","0.6","0.4","0.2","0.3226795418","0.9590071975","0.7217376576","0.3111883408","","","","","","","","","","","","74","J","1","","","82","main_expt",""
"","bandit","162","739393","0.0-123.0-0.0","32205008","wem/bandit_either_3","A2L772YDACSPHF","either","2","1218","","","","","","","0","1","0","","0.9379973093","0.8","0.6","0.4","0.2","0.3023868023","0.9379973093","0.6437777395","0.243162563","","","","","","","","","","","","74","J","1","","","83","main_expt",""
"","bandit","163","742002","0.0-124.0-0.0","32205008","wem/bandit_either_3","A2L772YDACSPHF","either","2","1093","","","","","","","1","0","0","0.9411979228","","0.8","0.6","0.4","0.2","","","","","0.4040419094","0.9411979228","0.6533183273","0.347146949","","","","","","","","74","J","1","","","84","main_expt",""
"","bandit","164","744467","0.0-125.0-0.0","32205008","wem/bandit_either_3","A2L772YDACSPHF","either","2","947","","","","","","","0","0","1","0.9441700551","","0.8","0.6","0.4","0.2","","","","","0.4716136817","0.9441700551","0.7469548387","0.4416309426","","","","","","","","74","J","1","","","85","main_expt",""
"","bandit","165","747050","0.0-126.0-0.0","32205008","wem/bandit_either_3","A2L772YDACSPHF","either","2","1065","","","","","","","0","1","0","","0.9323605113","0.8","0.6","0.4","0.2","0.4455883603","0.9323605113","0.7366570046","0.4523797492","","","","","","","","","","","","74","J","1","","","86","main_expt",""
"","bandit","166","749825","0.0-127.0-0.0","32205008","wem/bandit_either_3","A2L772YDACSPHF","either","2","1259","","","","","","","0","1","0","","0.8871332711","0.8","0.6","0.4","0.2","0.5952575165","0.8871332711","0.7142428019","0.4621103264","","","","","","","","","","","","74","J","1","","","87","main_expt",""
"","bandit","167","752437","0.0-128.0-0.0","32205008","wem/bandit_either_3","A2L772YDACSPHF","either","2","1093","","","","","","","1","0","0","0.8520973281","","0.8","0.6","0.4","0.2","","","","","0.5333825583","0.8520973281","0.7057172343","0.3800084876","","","","","","","","74","J","1","","","88","main_expt",""
"","bandit","168","755264","0.0-129.0-0.0","32205008","wem/bandit_either_3","A2L772YDACSPHF","either","2","1312","","","","","","","1","0","0","0.7882210871","","0.8","0.6","0.4","0.2","","","","","0.4583166828","0.7882210871","0.7289934888","0.2354372355","","","","","","","","74","J","1","","","89","main_expt",""
"","bandit","169","758255","0.0-130.0-0.0","32205008","wem/bandit_either_3","A2L772YDACSPHF","either","2","1476","","","","","","","1","0","0","0.720110267","","0.8","0.6","0.4","0.2","","","","","0.4782349553","0.720110267","0.7475354559","0.2978482647","","","","","","","","74","J","1","","","90","main_expt",""
"","bandit","170","761086","0.0-131.0-0.0","32205008","wem/bandit_either_3","A2L772YDACSPHF","either","2","1319","","","","","","","0","0","1","","0.7390342074","0.8","0.6","0.4","0.2","0.464138054","0.7390342074","0.6316706059","0.3723871884","","","","","","","","","","","","74","J","1","","","91","main_expt",""
"","bandit","171","763623","0.0-132.0-0.0","32205008","wem/bandit_either_3","A2L772YDACSPHF","either","2","1021","","","","","","","1","0","0","0.8135224625","","0.8","0.6","0.4","0.2","","","","","0.5084128334","0.8135224625","0.6957908828","0.5400298203","","","","","","","","74","J","1","","","92","main_expt",""
"","bandit","172","766897","0.0-133.0-0.0","32205008","wem/bandit_either_3","A2L772YDACSPHF","either","2","1758","","","","","","","1","0","0","0.7814404678","","0.8","0.6","0.4","0.2","","","","","0.5211356389","0.7814404678","0.6812665662","0.5134744583","","","","","","","","74","J","1","","","93","main_expt",""
"","bandit","173","769800","0.0-134.0-0.0","32205008","wem/bandit_either_3","A2L772YDACSPHF","either","2","1387","","","","","","","0","1","0","","0.7672416568","0.8","0.6","0.4","0.2","0.4554037602","0.7672416568","0.6412933588","0.4101580275","","","","","","","","","","","","74","J","1","","","94","main_expt",""
"","bandit","174","772511","0.0-135.0-0.0","32205008","wem/bandit_either_3","A2L772YDACSPHF","either","2","1197","","","","","","","1","0","0","0.7573973965","","0.8","0.6","0.4","0.2","","","","","0.4195046205","0.7573973965","0.5696630174","0.2995167601","","","","","","","","74","J","1","","","95","main_expt",""
"","bandit","175","775127","0.0-136.0-0.0","32205008","wem/bandit_either_3","A2L772YDACSPHF","either","2","1099","","","","","","","1","0","0","0.8177369732","","0.8","0.6","0.4","0.2","","","","","0.3638478563","0.8177369732","0.6076398096","0.2934894425","","","","","","","","74","J","1","","","96","main_expt",""
"","bandit","176","777776","0.0-137.0-0.0","32205008","wem/bandit_either_3","A2L772YDACSPHF","either","2","1134","","","","","","","1","0","0","0.8124666872","","0.8","0.6","0.4","0.2","","","","","0.2839735208","0.8124666872","0.5551612935","0.2802715202","","","","","","","","74","J","1","","","97","main_expt",""
"","bandit","177","780318","0.0-138.0-0.0","32205008","wem/bandit_either_3","A2L772YDACSPHF","either","2","1030","","","","","","","1","0","0","0.881496875","","0.8","0.6","0.4","0.2","","","","","0.2109275999","0.881496875","0.6354974245","0.2703087955","","","","","","","","74","J","1","","","98","main_expt",""
"","bandit","178","782936","0.0-139.0-0.0","32205008","wem/bandit_either_3","A2L772YDACSPHF","either","2","1102","","","","","","","1","0","0","0.8785981907","","0.8","0.6","0.4","0.2","","","","","0.1531506719","0.8785981907","0.5945745664","0.3027543159","","","","","","","","74","J","1","","","99","main_expt",""
"","bandit","179","785438","0.0-140.0-0.0","32205008","wem/bandit_either_3","A2L772YDACSPHF","either","2","988","","","","","","","0","1","0","","0.8494581726","0.8","0.6","0.4","0.2","0.1262108991","0.8494581726","0.5679097985","0.3645318829","","","","","","","","","","","","74","J","1","","","100","main_expt",""
"","bandit","180","788370","0.0-141.0-0.0","32205008","wem/bandit_either_3","A2L772YDACSPHF","either","2","1416","","","","","","","1","0","0","0.7754784616","","0.8","0.6","0.4","0.2","","","","","0.1340220502","0.7754784616","0.6430580454","0.4315832637","","","","","","","","74","J","1","","","101","main_expt",""
"","bandit","181","794390","0.0-142.0-0.0","32205008","wem/bandit_either_3","A2L772YDACSPHF","either","2","4506","","","","","","","1","0","0","0.7626736499","","0.8","0.6","0.4","0.2","","","","","0.2167126086","0.7626736499","0.6340200926","0.3608531129","","","","","","","","74","J","1","","","102","main_expt",""
"","bandit","182","798418","0.0-143.0-0.0","32205008","wem/bandit_either_3","A2L772YDACSPHF","either","2","2511","","","","","","","0","0","1","0.7329996306","","0.8","0.6","0.4","0.2","","","","","0.2796352144","0.7329996306","0.6377668076","0.3688981903","","","","","","","","74","J","1","","","103","main_expt",""
"","bandit","183","801164","0.0-144.0-0.0","32205008","wem/bandit_either_3","A2L772YDACSPHF","either","2","1229","","","","","","","1","0","0","0.7467689404","","0.8","0.6","0.4","0.2","","","","","0.3556406549","0.7467689404","0.6578341575","0.3758155051","","","","","","","","74","J","1","","","104","main_expt",""
"","bandit","184","804763","0.0-145.0-0.0","32205008","wem/bandit_either_3","A2L772YDACSPHF","either","2","2085","","","","","","","1","0","0","0.737018723","","0.8","0.6","0.4","0.2","","","","","0.3233911601","0.737018723","0.6727034752","0.4508947075","","","","","","","","74","J","1","","","105","main_expt",""
"","bandit","185","808171","0.0-146.0-0.0","32205008","wem/bandit_either_3","A2L772YDACSPHF","either","2","1889","","","","","","","1","0","0","0.655194185","","0.8","0.6","0.4","0.2","","","","","0.2024631506","0.655194185","0.6386482702","0.4132181144","","","","","","","","74","J","1","","","106","main_expt",""
"","bandit","186","813449","0.0-147.0-0.0","32205008","wem/bandit_either_3","A2L772YDACSPHF","either","2","3758","","","","","","","0","0","1","","0.7122819559","0.8","0.6","0.4","0.2","0.2290393164","0.7122819559","0.6788938686","0.4393512677","","","","","","","","","","","","74","J","1","","","107","main_expt",""
"","bandit","187","816582","0.0-148.0-0.0","32205008","wem/bandit_either_3","A2L772YDACSPHF","either","2","1617","","","","","","","1","0","0","0.7326995505","","0.8","0.6","0.4","0.2","","","","","0.2217712157","0.7326995505","0.7076498576","0.4964319729","","","","","","","","74","J","1","","","108","main_expt",""
"","bandit","188","819289","0.0-149.0-0.0","32205008","wem/bandit_either_3","A2L772YDACSPHF","either","2","1187","","","","","","","0","0","1","","0.7165499475","0.8","0.6","0.4","0.2","0.1566860935","0.7165499475","0.6932550908","0.4790921069","","","","","","","","","","","","74","J","1","","","109","main_expt",""
"","bandit","189","821545","0.0-150.0-0.0","32205008","wem/bandit_either_3","A2L772YDACSPHF","either","2","737","","","","","","","0","0","1","0.6058017554","","0.8","0.6","0.4","0.2","","","","","0.1083987113","0.6058017554","0.7436061547","0.5856434505","","","","","","","","74","J","1","","","110","main_expt",""
"","bandit","190","824245","0.0-151.0-0.0","32205008","wem/bandit_either_3","A2L772YDACSPHF","either","2","1184","","","","","","","0","0","1","0.5476823758","","0.8","0.6","0.4","0.2","","","","","0.217828795","0.5476823758","0.657194241","0.6444230696","","","","","","","","74","J","1","","","111","main_expt",""
"","bandit","191","828349","0.0-152.0-0.0","32205008","wem/bandit_either_3","A2L772YDACSPHF","either","2","2588","","","","","","","1","0","0","0.6317228327","","0.8","0.6","0.4","0.2","","","","","0.2212119155","0.5688313193","0.6317228327","0.603417252","","","","","","","","75","K","2","","","112","main_expt",""
"","bandit","192","832146","0.0-153.0-0.0","32205008","wem/bandit_either_3","A2L772YDACSPHF","either","2","2281","","","","","","","0","1","0","","0.4985892417","0.8","0.6","0.4","0.2","0.2374112476","0.50852785","0.4985892417","0.420613871","","","","","","","","","","","","75","K","2","","","113","main_expt",""
"","bandit","193","834904","0.0-154.0-0.0","32205008","wem/bandit_either_3","A2L772YDACSPHF","either","2","1247","","","","","","","0","1","0","","0.579071345","0.8","0.6","0.4","0.2","0.2703699348","0.5711084253","0.579071345","0.2851569533","","","","","","","","","","","","75","K","2","","","114","main_expt",""
"","bandit","194","837509","0.0-155.0-0.0","32205008","wem/bandit_either_3","A2L772YDACSPHF","either","2","1088","","","","","","","0","0","1","","0.4595939904","0.8","0.6","0.4","0.2","0.1928485376","0.4177754351","0.4595939904","0.3166589884","","","","","","","","","","","","75","K","2","","","115","main_expt",""
"","bandit","195","840075","0.0-156.0-0.0","32205008","wem/bandit_either_3","A2L772YDACSPHF","either","2","1051","","","","","","","0","0","1","0.3744567546","","0.8","0.6","0.4","0.2","","","","","0.136356343","0.387840809","0.3744567546","0.3928451607","","","","","","","","75","K","2","","","116","main_expt",""
"","bandit","196","842653","0.0-157.0-0.0","32205008","wem/bandit_either_3","A2L772YDACSPHF","either","2","1060","","","","","","","0","0","1","","0.302145019","0.8","0.6","0.4","0.2","0.2193113504","0.4456731606","0.302145019","0.560845346","","","","","","","","","","","","75","K","2","","","117","main_expt",""
"","bandit","197","845363","0.0-158.0-0.0","32205008","wem/bandit_either_3","A2L772YDACSPHF","either","2","1196","","","","","","","0","0","1","","0.3522466686","0.8","0.6","0.4","0.2","0.2686792008","0.3045880574","0.3522466686","0.5536818424","","","","","","","","","","","","75","K","2","","","118","main_expt",""
"","bandit","198","848492","0.0-159.0-0.0","32205008","wem/bandit_either_3","A2L772YDACSPHF","either","2","1609","","","","","","","0","1","0","","0.3994134075","0.8","0.6","0.4","0.2","0.2668270476","0.3994134075","0.4425542362","0.3617659687","","","","","","","","","","","","74","J","1","","","119","main_expt",""
"","bandit","199","851165","0.0-160.0-0.0","32205008","wem/bandit_either_3","A2L772YDACSPHF","either","2","1157","","","","","","","0","1","0","","0.351449483","0.8","0.6","0.4","0.2","0.3723992114","0.351449483","0.3377532805","0.3454740543","","","","","","","","","","","","74","J","1","","","120","main_expt",""
"","bandit","200","853966","0.0-161.0-0.0","32205008","wem/bandit_either_3","A2L772YDACSPHF","either","2","1283","","","","","","","0","0","1","","0.3641911367","0.8","0.6","0.4","0.2","0.4001238515","0.3641911367","0.2929504356","0.2798257893","","","","","","","","","","","","74","J","1","","","121","main_expt",""
"","bandit","201","856547","0.0-162.0-0.0","32205008","wem/bandit_either_3","A2L772YDACSPHF","either","2","1065","","","","","","","0","0","1","","0.2673706252","0.8","0.6","0.4","0.2","0.4090120715","0.2673706252","0.2504028886","0.2261540995","","","","","","","","","","","","74","J","1","","","122","main_expt",""
"","bandit","202","859417","0.0-163.0-0.0","32205008","wem/bandit_either_3","A2L772YDACSPHF","either","2","1359","","","","","","","0","0","1","0.4746108064","","0.8","0.6","0.4","0.2","","","","","0.4746108064","0.3455372181","0.2414849785","0.2766663047","","","","","","","","72","H","0","img/none_selected.jpg","","123","main_expt",""
"","bandit","203","862018","0.0-164.0-0.0","32205008","wem/bandit_either_3","A2L772YDACSPHF","either","2","1086","","","","","","","0","1","0","","0.453231646","0.8","0.6","0.4","0.2","0.453231646","0.3524137631","0.1791255979","0.3126864395","","","","","","","","","","","","72","H","0","img/none_selected.jpg","","124","main_expt",""
"","bandit","204","864677","0.0-165.0-0.0","32205008","wem/bandit_either_3","A2L772YDACSPHF","either","2","1142","","","","","","","1","0","0","0.4888945922","","0.8","0.6","0.4","0.2","","","","","0.4888945922","0.3680881866","0.1952456852","0.2772507379","","","","","","","","72","H","0","img/none_selected.jpg","","125","main_expt",""
"","bandit","205","867074","0.0-166.0-0.0","32205008","wem/bandit_either_3","A2L772YDACSPHF","either","2","881","","","","","","","0","0","1","0.396932523","","0.8","0.6","0.4","0.2","","","","","0.396932523","0.2884444508","0.2614303707","0.2441417391","","","","","","","","72","H","0","img/none_selected.jpg","","126","main_expt",""
"","bandit","206","869622","0.0-167.0-0.0","32205008","wem/bandit_either_3","A2L772YDACSPHF","either","2","1029","","","","","","","1","0","0","0.4026562496","","0.8","0.6","0.4","0.2","","","","","0.4026562496","0.2931854252","0.267511235","0.2304038214","","","","","","","","72","H","0","img/none_selected.jpg","","127","main_expt",""
"","bandit","207","872119","0.0-168.0-0.0","32205008","wem/bandit_either_3","A2L772YDACSPHF","either","2","977","","","","","","","1","0","0","0.3072143153","","0.8","0.6","0.4","0.2","","","","","0.3072143153","0.3115494401","0.2582460394","0.2463692943","","","","","","","","72","H","0","img/none_selected.jpg","","128","main_expt",""
"","bandit","208","874406","0.0-169.0-0.0","32205008","wem/bandit_either_3","A2L772YDACSPHF","either","2","769","","","","","","","0","0","1","0.3024431642","","0.8","0.6","0.4","0.2","","","","","0.3024431642","0.287093163","0.249100023","0.262841392","","","","","","","","72","H","0","img/none_selected.jpg","","129","main_expt",""
"","bandit","209","876472","0.0-170.0-0.0","32205008","wem/bandit_either_3","A2L772YDACSPHF","either","2","552","","","","","","","1","0","0","0.383823705","","0.8","0.6","0.4","0.2","","","","","0.383823705","0.242368994","0.2014680341","0.3044503748","","","","","","","","72","H","0","img/none_selected.jpg","","130","main_expt",""
"","bandit","210","878884","0.0-171.0-0.0","32205008","wem/bandit_either_3","A2L772YDACSPHF","either","2","894","","","","","","","1","0","0","0.5448185218","","0.8","0.6","0.4","0.2","","","","","0.5448185218","0.3141093292","0.2514612397","0.2231782293","","","","","","","","72","H","0","img/none_selected.jpg","","131","main_expt",""
"","bandit","211","881037","0.0-172.0-0.0","32205008","wem/bandit_either_3","A2L772YDACSPHF","either","2","636","","","","","","","1","0","0","0.5741986762","","0.8","0.6","0.4","0.2","","","","","0.5741986762","0.3186943837","0.1719215191","0.265126842","","","","","","","","72","H","0","img/none_selected.jpg","","132","main_expt",""
"","bandit","212","883250","0.0-173.0-0.0","32205008","wem/bandit_either_3","A2L772YDACSPHF","either","2","692","","","","","","","0","0","1","0.54298015","","0.8","0.6","0.4","0.2","","","","","0.54298015","0.3218599317","0.151851594","0.1996467811","","","","","","","","72","H","0","img/none_selected.jpg","","133","main_expt",""
"","bandit","213","885313","0.0-174.0-0.0","32205008","wem/bandit_either_3","A2L772YDACSPHF","either","2","547","","","","","","","1","0","0","0.5504084981","","0.8","0.6","0.4","0.2","","","","","0.5504084981","0.3372263261","0.1693242304","0.1900899503","","","","","","","","72","H","0","img/none_selected.jpg","","134","main_expt",""
"","bandit","214","887635","0.0-175.0-0.0","32205008","wem/bandit_either_3","A2L772YDACSPHF","either","2","805","","","","","","","0","0","1","0.4874659601","","0.8","0.6","0.4","0.2","","","","","0.4874659601","0.3515125386","0.1541174352","0.172295534","","","","","","","","72","H","0","img/none_selected.jpg","","135","main_expt",""
"","bandit","215","889748","0.0-176.0-0.0","32205008","wem/bandit_either_3","A2L772YDACSPHF","either","2","597","","","","","","","0","0","1","0.3677382912","","0.8","0.6","0.4","0.2","","","","","0.3677382912","0.2312583875","0.1374012581","0.1171098277","","","","","","","","72","H","0","img/none_selected.jpg","","136","main_expt",""
"","bandit","216","892175","0.0-177.0-0.0","32205008","wem/bandit_either_3","A2L772YDACSPHF","either","2","908","","","","","","","0","0","1","0.2944012193","","0.8","0.6","0.4","0.2","","","","","0.2944012193","0.3496768842","0.2889288236","0.1390909791","","","","","","","","72","H","0","img/none_selected.jpg","","137","main_expt",""
"","bandit","217","894491","0.0-178.0-0.0","32205008","wem/bandit_either_3","A2L772YDACSPHF","either","2","799","","","","","","","0","0","1","","0.1209370274","0.8","0.6","0.4","0.2","0.3020033879","0.4217982028","0.2177367931","0.1209370274","","","","","","","","","","","","76","L","3","","","138","main_expt",""
"","bandit","218","896571","0.0-179.0-0.0","32205008","wem/bandit_either_3","A2L772YDACSPHF","either","2","564","","","","","","","0","0","1","","0.1441291996","0.8","0.6","0.4","0.2","0.2908104057","0.5123523738","0.1704259453","0.1441291996","","","","","","","","","","","","76","L","3","","","139","main_expt",""
"","bandit","219","898846","0.0-180.0-0.0","32205008","wem/bandit_either_3","A2L772YDACSPHF","either","2","758","","","","","","","0","0","1","","0.1380406349","0.8","0.6","0.4","0.2","0.2738290205","0.3892042576","0.1827322183","0.1380406349","","","","","","","","","","","","76","L","3","","","140","main_expt",""
"","bandit","220","900990","0.0-181.0-0.0","32205008","wem/bandit_either_3","A2L772YDACSPHF","either","2","626","","","","","","","0","0","1","","0.2030288612","0.8","0.6","0.4","0.2","0.3865798498","0.4680147771","0.2030288612","0.1312769784","","","","","","","","","","","","75","K","2","","","141","main_expt",""
"","bandit","221","903336","0.0-182.0-0.0","32205008","wem/bandit_either_3","A2L772YDACSPHF","either","2","833","","","","","","","0","0","1","0.1760536641","","0.8","0.6","0.4","0.2","","","","","0.3507917403","0.3970866904","0.1760536641","0.1880730553","","","","","","","","75","K","2","","","142","main_expt",""
"","bandit","222","905874","0.0-183.0-0.0","32205008","wem/bandit_either_3","A2L772YDACSPHF","either","2","1023","","","","","","","0","0","1","0.3609481858","","0.8","0.6","0.4","0.2","","","","","0.2787839286","0.3609481858","0.1428921374","0.1798266991","","","","","","","","74","J","1","","","143","main_expt",""
"","bandit","223","908004","0.0-184.0-0.0","32205008","wem/bandit_either_3","A2L772YDACSPHF","either","2","614","","","","","","","1","0","0","0.3701270871","","0.8","0.6","0.4","0.2","","","","","0.2106619402","0.3701270871","0.1260474704","0.1881666754","","","","","","","","74","J","1","","","144","main_expt",""
"","bandit","224","910333","0.0-185.0-0.0","32205008","wem/bandit_either_3","A2L772YDACSPHF","either","2","811","","","","","","","0","1","0","","0.3110645609","0.8","0.6","0.4","0.2","0.3211677341","0.3110645609","0.151337539","0.1683386122","","","","","","","","","","","","74","J","1","","","145","main_expt",""
"","bandit","225","912974","0.0-186.0-0.0","32205008","wem/bandit_either_3","A2L772YDACSPHF","either","2","1122","","","","","","","0","0","1","0.356964637","","0.8","0.6","0.4","0.2","","","","","0.4417580917","0.356964637","0.1600114734","0.2609121533","","","","","","","","74","J","1","","","146","main_expt",""
"","bandit","226","915853","0.0-187.0-0.0","32205008","wem/bandit_either_3","A2L772YDACSPHF","either","2","1360","","","","","","","1","0","0","0.5143633813","","0.8","0.6","0.4","0.2","","","","","0.278611551","0.5143633813","0.1262446547","0.280259565","","","","","","","","74","J","1","","","147","main_expt",""
"","bandit","227","919528","0.0-188.0-0.0","32205008","wem/bandit_either_3","A2L772YDACSPHF","either","2","2157","","","","","","","1","0","0","0.5086187798","","0.8","0.6","0.4","0.2","","","","","0.2811332351","0.5086187798","0.1030311585","0.2972918914","","","","","","","","74","J","1","","","148","main_expt",""
"","bandit","228","922570","0.0-189.0-0.0","32205008","wem/bandit_either_3","A2L772YDACSPHF","either","2","1521","","","","","","","0","1","0","","0.4676315778","0.8","0.6","0.4","0.2","0.2606345315","0.4676315778","0.123834606","0.3284309668","","","","","","","","","","","","74","J","1","","","149","main_expt",""
"","bandit","229","925449","0.0-190.0-0.0","32205008","wem/bandit_either_3","A2L772YDACSPHF","either","2","1360","","","","","","","0","0","1","0.4737351686","","0.8","0.6","0.4","0.2","","","","","0.260677327","0.4737351686","0.06566206942","0.3186890608","","","","","","","","74","J","1","","","150","main_expt",""
"","bandit","230","927703","0.0-191.0-0.0","32205008","wem/bandit_either_3","A2L772YDACSPHF","either","2","736","","","","","","","0","0","1","0.5387476985","","0.8","0.6","0.4","0.2","","","","","0.2579624968","0.5387476985","0.06342121736","0.3331747037","","","","","","","","74","J","1","","","151","main_expt",""
"","bandit","231","929541","0.0-192.0-0.0","32205008","wem/bandit_either_3","A2L772YDACSPHF","either","2","324","","","","","","","0","0","1","","0.5065138565","0.8","0.6","0.4","0.2","0.2536911072","0.5065138565","0.1162046696","0.364096089","","","","","","","","","","","","74","J","1","","","152","main_expt",""
"","bandit","232","931492","0.0-193.0-0.0","32205008","wem/bandit_either_3","A2L772YDACSPHF","either","2","436","","","","","","","0","1","0","","0.1388943584","0.8","0.6","0.4","0.2","0.1427943183","0.5190676077","0.1388943584","0.3189440566","","","","","","","","","","","","75","K","2","","","153","main_expt",""
"","bandit","233","934476","0.0-194.0-0.0","32205008","wem/bandit_either_3","A2L772YDACSPHF","either","2","1468","","","","","","","0","0","1","","0.1188489222","0.8","0.6","0.4","0.2","0.08934943386","0.4944482457","0.1188489222","0.486858514","","","","","","","","","","","","75","K","2","","","154","main_expt",""
"","bandit","234","936705","0.0-195.0-0.0","32205008","wem/bandit_either_3","A2L772YDACSPHF","either","2","711","","","","","","","1","0","0","0.1255079792","","0.8","0.6","0.4","0.2","","","","","0.1048919666","0.4987902374","0.1255079792","0.398958755","","","","","","","","75","K","2","","","155","main_expt",""
"","bandit","235","939618","0.0-196.0-0.0","32205008","wem/bandit_either_3","A2L772YDACSPHF","either","2","1392","","","","","","","0","0","1","0.1705129017","","0.8","0.6","0.4","0.2","","","","","0.1348874752","0.4151199053","0.1705129017","0.3508932217","","","","","","","","75","K","2","","","156","main_expt",""
"","bandit","236","942999","0.0-197.0-0.0","32205008","wem/bandit_either_3","A2L772YDACSPHF","either","2","1861","","","","","","","0","1","0","","0.1197456909","0.8","0.6","0.4","0.2","0.1197456909","0.4215128153","0.1892203872","0.3736640956","","","","","","","","","","","","72","H","0","img/none_selected.jpg","","157","main_expt",""
"","bandit","237","946046","0.0-198.0-0.0","32205008","wem/bandit_either_3","A2L772YDACSPHF","either","2","1529","","","","","","","0","0","1","0.1343935597","","0.8","0.6","0.4","0.2","","","","","0.1343935597","0.3666899102","0.1589595026","0.3215678611","","","","","","","","72","H","0","img/none_selected.jpg","","158","main_expt",""
"","bandit","238","949190","0.0-199.0-0.0","32205008","wem/bandit_either_3","A2L772YDACSPHF","either","2","1628","","","","","","","0","0","1","0.2732838962","","0.8","0.6","0.4","0.2","","","","","0.04604274909","0.3906786657","0.1426383857","0.2732838962","","","","","","","","76","L","3","","","159","main_expt",""
"","bandit","239","951386","0.0-200.0-0.0","32205008","wem/bandit_either_3","A2L772YDACSPHF","either","2","676","","","","","","","0","0","1","","0.2747613825","0.8","0.6","0.4","0.2","0.08927965808","0.4769972016","0.2747613825","0.2323229575","","","","","","","","","","","","75","K","2","","","160","main_expt",""
"","bandit","240","954428","0.0-201.0-0.0","32205008","wem/bandit_either_3","A2L772YDACSPHF","either","2","1527","","","","","","","0","0","1","0.4405879513","","0.8","0.6","0.4","0.2","","","","","0.1038156196","0.4405879513","0.2046882866","0.399022808","","","","","","","","74","J","1","","","161","main_expt",""
"","bandit","241","957103","0.0-202.0-0.0","32205008","wem/bandit_either_3","A2L772YDACSPHF","either","2","1155","","","","","","","0","0","1","","0.44055992","0.8","0.6","0.4","0.2","0.1470739062","0.44055992","0.1715152701","0.4967313539","","","","","","","","","","","","74","J","1","","","162","main_expt",""
"","bandit","242","959025","0.0-203.0-0.0","32205008","wem/bandit_either_3","A2L772YDACSPHF","either","2","401","","","","","","","1","0","0","0.3434222481","","0.8","0.6","0.4","0.2","","","","","0.1214264794","0.3434222481","0.2396687428","0.5245029489","","","","","","","","74","J","1","","","163","main_expt",""
"","bandit","243","962787","0.0-204.0-0.0","32205008","wem/bandit_either_3","A2L772YDACSPHF","either","2","2245","","","","","","","1","0","0","0.3862652833","","0.8","0.6","0.4","0.2","","","","","0.1563758897","0.3862652833","0.3359744524","0.5808119749","","","","","","","","74","J","1","","","164","main_expt",""
"","bandit","244","965712","0.0-205.0-0.0","32205008","wem/bandit_either_3","A2L772YDACSPHF","either","2","1411","","","","","","","1","0","0","0.4270444342","","0.8","0.6","0.4","0.2","","","","","0.1311500467","0.4270444342","0.4940159592","0.6473032069","","","","","","","","74","J","1","","","165","main_expt",""
"","bandit","245","968226","0.0-206.0-0.0","32205008","wem/bandit_either_3","A2L772YDACSPHF","either","2","997","","","","","","","0","0","1","0.5073102058","","0.8","0.6","0.4","0.2","","","","","0.1419689761","0.5073102058","0.5922229292","0.6790689848","","","","","","","","74","J","1","","","166","main_expt",""
"","bandit","246","970043","0.0-207.0-0.0","32205008","wem/bandit_either_3","A2L772YDACSPHF","either","2","300","","","","","","","0","0","1","0.5562626425","","0.8","0.6","0.4","0.2","","","","","0.150246256","0.5417092253","0.5562626425","0.5959653185","","","","","","","","75","K","2","","","167","main_expt",""
"","bandit","247","972045","0.0-208.0-0.0","32205008","wem/bandit_either_3","A2L772YDACSPHF","either","2","483","","","","","","","0","0","1","0.6489587791","","0.8","0.6","0.4","0.2","","","","","0.2070971521","0.6505471885","0.6489587791","0.361841396","","","","","","","","75","K","2","","","168","main_expt",""
"","bandit","248","973780","0.0-209.0-0.0","32205008","wem/bandit_either_3","A2L772YDACSPHF","either","2","216","","","","","","","0","0","1","","0.5652428614","0.8","0.6","0.4","0.2","0.2564452127","0.6226729341","0.5652428614","0.2594844845","","","","","","","","","","","","75","K","2","","","169","main_expt",""
"","bandit","249","975355","0.0-210.0-0.0","32205008","wem/bandit_either_3","A2L772YDACSPHF","either","2","58","","","","","","","0","0","1","","0.1987556041","0.8","0.6","0.4","0.2","0.2845729388","0.7574543886","0.5344749526","0.1987556041","","","","","","","","","","","","76","L","3","","","170","main_expt",""
"","bandit","250","978478","0.0-211.0-0.0","32205008","wem/bandit_either_3","A2L772YDACSPHF","either","2","1603","","","","","","","0","0","1","","0.1583585206","0.8","0.6","0.4","0.2","0.2360657399","0.774201251","0.6364900983","0.1583585206","","","","","","","","","","","","76","L","3","","","171","main_expt",""
"","bandit","251","980573","0.0-212.0-0.0","32205008","wem/bandit_either_3","A2L772YDACSPHF","either","2","574","","","","","","","0","0","1","","0.1494938987","0.8","0.6","0.4","0.2","0.3453554921","0.7739789177","0.5516193693","0.1494938987","","","","","","","","","","","","76","L","3","","","172","main_expt",""
"","bandit","252","983534","0.0-213.0-0.0","32205008","wem/bandit_either_3","A2L772YDACSPHF","either","2","1440","","","","","","","0","0","1","0.2909261263","","0.8","0.6","0.4","0.2","","","","","0.2909261263","0.7146420849","0.5081608063","0.1996494969","","","","","","","","72","H","0","img/none_selected.jpg","","173","main_expt",""
"","bandit","253","985772","0.0-214.0-0.0","32205008","wem/bandit_either_3","A2L772YDACSPHF","either","2","720","","","","","","","0","0","1","","0.3807546558","0.8","0.6","0.4","0.2","0.3807546558","0.683245412","0.5247340446","0.2200767262","","","","","","","","","","","","72","H","0","img/none_selected.jpg","","174","main_expt",""
"","bandit","254","987713","0.0-215.0-0.0","32205008","wem/bandit_either_3","A2L772YDACSPHF","either","2","425","","","","","","","0","0","1","0.3889518003","","0.8","0.6","0.4","0.2","","","","","0.3889518003","0.7163731774","0.5823110366","0.1929710708","","","","","","","","72","H","0","img/none_selected.jpg","","175","main_expt",""
"","bandit","255","989710","0.0-216.0-0.0","32205008","wem/bandit_either_3","A2L772YDACSPHF","either","2","476","","","","","","","0","0","1","","0.3662842853","0.8","0.6","0.4","0.2","0.3662842853","0.6676116703","0.7693722391","0.1756556012","","","","","","","","","","","","72","H","0","img/none_selected.jpg","","176","main_expt",""
"","bandit","256","991666","0.0-217.0-0.0","32205008","wem/bandit_either_3","A2L772YDACSPHF","either","2","441","","","","","","","0","0","1","0.3102656016","","0.8","0.6","0.4","0.2","","","","","0.3102656016","0.711116056","0.8048595062","0.2404611203","","","","","","","","72","H","0","img/none_selected.jpg","","177","main_expt",""
"","bandit","257","993675","0.0-218.0-0.0","32205008","wem/bandit_either_3","A2L772YDACSPHF","either","2","490","","","","","","","0","0","1","0.6541247318","","0.8","0.6","0.4","0.2","","","","","0.3272385177","0.6541247318","0.8147320782","0.1651874793","","","","","","","","74","J","1","","","178","main_expt",""
"","bandit","258","995596","0.0-219.0-0.0","32205008","wem/bandit_either_3","A2L772YDACSPHF","either","2","403","","","","","","","1","0","0","0.600925469","","0.8","0.6","0.4","0.2","","","","","0.3185807274","0.600925469","0.7755432213","0.1297692321","","","","","","","","74","J","1","","","179","main_expt",""
"","bandit","259","998146","0.0-220.0-0.0","32205008","wem/bandit_either_3","A2L772YDACSPHF","either","2","1035","","","","","","","1","0","0","0.6321701674","","0.8","0.6","0.4","0.2","","","","","0.3896265469","0.6321701674","0.7309951384","0.1311169289","","","","","","","","74","J","1","","","180","main_expt",""
"","bandit","260","1000415","0.0-221.0-0.0","32205008","wem/bandit_either_3","A2L772YDACSPHF","either","2","756","","","","","","","0","0","1","","0.7040606398","0.8","0.6","0.4","0.2","0.4381139349","0.7040606398","0.8068071681","0.2184653543","","","","","","","","","","","","74","J","1","","","181","main_expt",""
"","bandit","261","1002527","0.0-222.0-0.0","32205008","wem/bandit_either_3","A2L772YDACSPHF","either","2","591","","","","","","","0","0","1","","0.6551517927","0.8","0.6","0.4","0.2","0.4339703771","0.6551517927","0.8096694819","0.156745214","","","","","","","","","","","","74","J","1","","","182","main_expt",""
"","bandit","262","1004573","0.0-223.0-0.0","32205008","wem/bandit_either_3","A2L772YDACSPHF","either","2","525","","","","","","","0","0","1","0.7709035389","","0.8","0.6","0.4","0.2","","","","","0.5270594011","0.7709035389","0.8522040983","0.07710569088","","","","","","","","74","J","1","","","183","main_expt",""
"","bandit","263","1006702","0.0-224.0-0.0","32205008","wem/bandit_either_3","A2L772YDACSPHF","either","2","609","","","","","","","0","1","0","","0.8636776132","0.8","0.6","0.4","0.2","0.4791569234","0.7869666122","0.8636776132","0.07901501252","","","","","","","","","","","","75","K","2","","","184","main_expt",""
"","bandit","264","1009290","0.0-225.0-0.0","32205008","wem/bandit_either_3","A2L772YDACSPHF","either","2","1073","","","","","","","1","0","0","0.8605951951","","0.8","0.6","0.4","0.2","","","","","0.464074867","0.804571828","0.8605951951","0.05695362571","","","","","","","","75","K","2","","","185","main_expt",""
"","bandit","265","1011325","0.0-226.0-0.0","32205008","wem/bandit_either_3","A2L772YDACSPHF","either","2","514","","","","","","","1","0","0","0.8578427848","","0.8","0.6","0.4","0.2","","","","","0.4654947356","0.7866627628","0.8578427848","0.03796608352","","","","","","","","75","K","2","","","186","main_expt",""
"","bandit","266","1014660","0.0-227.0-0.0","32205008","wem/bandit_either_3","A2L772YDACSPHF","either","2","1815","","","","","","","0","1","0","","0.8253306036","0.8","0.6","0.4","0.2","0.4338668179","0.8006736442","0.8253306036","0.05986429342","","","","","","","","","","","","75","K","2","","","187","main_expt",""
"","bandit","267","1018955","0.0-228.0-0.0","32205008","wem/bandit_either_3","A2L772YDACSPHF","either","2","2778","","","","","","","1","0","0","0.8118593573","","0.8","0.6","0.4","0.2","","","","","0.4679469354","0.7687627789","0.8118593573","0.05827831728","","","","","","","","75","K","2","","","188","main_expt",""
"","bandit","268","1022459","0.0-229.0-0.0","32205008","wem/bandit_either_3","A2L772YDACSPHF","either","2","1990","","","","","","","0","1","0","","0.8319104568","0.8","0.6","0.4","0.2","0.4645116859","0.7009429779","0.8319104568","0.06499387038","","","","","","","","","","","","75","K","2","","","189","main_expt",""
"","bandit","269","1024889","0.0-230.0-0.0","32205008","wem/bandit_either_3","A2L772YDACSPHF","either","2","912","","","","","","","0","1","0","","0.8949986836","0.8","0.6","0.4","0.2","0.4260553166","0.7531121838","0.8949986836","0.0878029059","","","","","","","","","","","","75","K","2","","","190","main_expt",""
"","bandit","270","1027523","0.0-231.0-0.0","32205008","wem/bandit_either_3","A2L772YDACSPHF","either","2","1114","","","","","","","1","0","0","0.9258368343","","0.8","0.6","0.4","0.2","","","","","0.5323747461","0.6174616994","0.9258368343","0.1101088583","","","","","","","","75","K","2","","","191","main_expt",""
"","bandit","271","1029678","0.0-232.0-0.0","32205008","wem/bandit_either_3","A2L772YDACSPHF","either","2","638","","","","","","","0","1","0","","0.9221438833","0.8","0.6","0.4","0.2","0.6013900654","0.6331996982","0.9221438833","0.1559643099","","","","","","","","","","","","75","K","2","","","192","main_expt",""
"","bandit","272","1033549","0.0-233.0-0.0","32205008","wem/bandit_either_3","A2L772YDACSPHF","either","2","2353","","","","","","","0","0","1","","0.878376231","0.8","0.6","0.4","0.2","0.5332063066","0.5596167322","0.878376231","0.1348882638","","","","","","","","","","","","75","K","2","","","193","main_expt",""
"","bandit","273","1037496","0.0-234.0-0.0","32205008","wem/bandit_either_3","A2L772YDACSPHF","either","2","2431","","","","","","","0","1","0","","0.7914694382","0.8","0.6","0.4","0.2","0.5499496643","0.5887018809","0.7914694382","0.243093686","","","","","","","","","","","","75","K","2","","","194","main_expt",""
"","bandit","274","1042646","0.0-235.0-0.0","32205008","wem/bandit_either_3","A2L772YDACSPHF","either","2","3634","","","","","","","0","1","0","","0.7843027812","0.8","0.6","0.4","0.2","0.4170732774","0.561552955","0.7843027812","0.2792315856","","","","","","","","","","","","75","K","2","","","195","main_expt",""
"","bandit","275","1047515","0.0-236.0-0.0","32205008","wem/bandit_either_3","A2L772YDACSPHF","either","2","3352","","","","","","","0","1","0","","0.7888241066","0.8","0.6","0.4","0.2","0.4050854298","0.6199522587","0.7888241066","0.2075419965","","","","","","","","","","","","75","K","2","","","196","main_expt",""
"","bandit","276","1050906","0.0-237.0-0.0","32205008","wem/bandit_either_3","A2L772YDACSPHF","either","2","1874","","","","","","","1","0","0","0.8145025162","","0.8","0.6","0.4","0.2","","","","","0.4522405917","0.6886125155","0.8145025162","0.1899284635","","","","","","","","75","K","2","","","197","main_expt",""
"","bandit","277","1054148","0.0-238.0-0.0","32205008","wem/bandit_either_3","A2L772YDACSPHF","either","2","1722","","","","","","","0","1","0","","0.8795467387","0.8","0.6","0.4","0.2","0.4547961131","0.6468609917","0.8795467387","0.1632143895","","","","","","","","","","","","75","K","2","","","198","main_expt",""
"","bandit","278","1056516","0.0-239.0-0.0","32205008","wem/bandit_either_3","A2L772YDACSPHF","either","2","848","","","","","","","0","1","0","","0.8716255916","0.8","0.6","0.4","0.2","0.456709553","0.7134983028","0.8716255916","0.1580048483","","","","","","","","","","","","75","K","2","","","199","main_expt",""
"","bandit","279","1060473","0.0-240.0-0.0","32205008","wem/bandit_either_3","A2L772YDACSPHF","either","2","2441","","","","","","","1","0","0","0.8596876402","","0.8","0.6","0.4","0.2","","","","","0.4197111003","0.6545285445","0.8596876402","0.1815025648","","","","","","","","75","K","2","","","200","main_expt",""
"","bandit","280","1063010","0.0-241.0-0.0","32205008","wem/bandit_either_3","A2L772YDACSPHF","either","2","1018","","","","","","","1","0","0","0.8714244785","","0.8","0.6","0.4","0.2","","","","","0.4468864226","0.6827561938","0.8714244785","0.1453003075","","","","","","","","75","K","2","","","201","main_expt",""
"","bandit","281","1065274","0.0-242.0-0.0","32205008","wem/bandit_either_3","A2L772YDACSPHF","either","2","745","","","","","","","0","1","0","","0.8679491409","0.8","0.6","0.4","0.2","0.3852152277","0.6590680519","0.8679491409","0.1061510446","","","","","","","","","","","","75","K","2","","","202","main_expt",""
"","bandit","282","1067499","0.0-243.0-0.0","32205008","wem/bandit_either_3","A2L772YDACSPHF","either","2","707","","","","","","","0","1","0","","0.8421855008","0.8","0.6","0.4","0.2","0.3481501846","0.67998256","0.8421855008","0.09667757311","","","","","","","","","","","","75","K","2","","","203","main_expt",""
"","bandit","283","1069669","0.0-244.0-0.0","32205008","wem/bandit_either_3","A2L772YDACSPHF","either","2","649","","","","","","","1","0","0","0.8741547355","","0.8","0.6","0.4","0.2","","","","","0.3688904748","0.7157802034","0.8741547355","0.109576977","","","","","","","","75","K","2","","","204","main_expt",""
"","bandit","284","1071671","0.0-245.0-0.0","32205008","wem/bandit_either_3","A2L772YDACSPHF","either","2","485","","","","","","","0","0","1","","0.8589537271","0.8","0.6","0.4","0.2","0.4196025605","0.6750594522","0.8589537271","0.1370524017","","","","","","","","","","","","75","K","2","","","205","main_expt",""
"","bandit","285","1074059","0.0-246.0-0.0","32205008","wem/bandit_either_3","A2L772YDACSPHF","either","2","869","","","","","","","0","1","0","","0.8009191088","0.8","0.6","0.4","0.2","0.3558717694","0.7170784861","0.8009191088","0.1005848846","","","","","","","","","","","","75","K","2","","","206","main_expt",""
"","bandit","286","1076355","0.0-247.0-0.0","32205008","wem/bandit_either_3","A2L772YDACSPHF","either","2","777","","","","","","","0","0","1","","0.8146279372","0.8","0.6","0.4","0.2","0.3978287694","0.6886550294","0.8146279372","0.1100528349","","","","","","","","","","","","75","K","2","","","207","main_expt",""
"","bandit","287","1078933","0.0-248.0-0.0","32205008","wem/bandit_either_3","A2L772YDACSPHF","either","2","1057","","","","","","","1","0","0","0.7498886323","","0.8","0.6","0.4","0.2","","","","","0.3647175361","0.7340041914","0.7498886323","0.1165568201","","","","","","","","75","K","2","","","208","main_expt",""
"","bandit","288","1081723","0.0-249.0-0.0","32205008","wem/bandit_either_3","A2L772YDACSPHF","either","2","1271","","","","","","","0","1","0","","0.781298432","0.8","0.6","0.4","0.2","0.2942091963","0.7108339061","0.781298432","0.1607141963","","","","","","","","","","","","75","K","2","","","209","main_expt",""
"","bandit","289","1084546","0.0-250.0-0.0","32205008","wem/bandit_either_3","A2L772YDACSPHF","either","2","1305","","","","","","","0","1","0","","0.8374694261","0.8","0.6","0.4","0.2","0.3228874634","0.7322658343","0.8374694261","0.2005879304","","","","","","","","","","","","75","K","2","","","210","main_expt",""
"","bandit","290","1087068","0.0-251.0-0.0","32205008","wem/bandit_either_3","A2L772YDACSPHF","either","2","1003","","","","","","","0","1","0","","0.7461264045","0.8","0.6","0.4","0.2","0.3300931135","0.6220956771","0.7461264045","0.1999716741","","","","","","","","","","","","75","K","2","","","211","main_expt",""
"","bandit","291","1089413","0.0-252.0-0.0","32205008","wem/bandit_either_3","A2L772YDACSPHF","either","2","825","","","","","","","0","1","0","","0.7267359419","0.8","0.6","0.4","0.2","0.4044608811","0.5400145011","0.7267359419","0.2135957141","","","","","","","","","","","","75","K","2","","","212","main_expt",""
"","bandit","292","1091826","0.0-253.0-0.0","32205008","wem/bandit_either_3","A2L772YDACSPHF","either","2","895","","","","","","","0","0","1","","0.6529835343","0.8","0.6","0.4","0.2","0.4916994921","0.5419994818","0.6529835343","0.2041793084","","","","","","","","","","","","75","K","2","","","213","main_expt",""
"","bandit","293","1094067","0.0-254.0-0.0","32205008","wem/bandit_either_3","A2L772YDACSPHF","either","2","725","","","","","","","1","0","0","0.5734554779","","0.8","0.6","0.4","0.2","","","","","0.5387088508","0.6195319152","0.5734554779","0.2563089198","","","","","","","","75","K","2","","","214","main_expt",""
"","bandit","294","1097108","0.0-255.0-0.0","32205008","wem/bandit_either_3","A2L772YDACSPHF","either","2","1523","","","","","","","1","0","0","0.7056003711","","0.8","0.6","0.4","0.2","","","","","0.567041903","0.7405966814","0.7056003711","0.2870699064","","","","","","","","75","K","2","","","215","main_expt",""
"","bandit","295","1099483","0.0-256.0-0.0","32205008","wem/bandit_either_3","A2L772YDACSPHF","either","2","858","","","","","","","0","1","0","","0.7717913507","0.8","0.6","0.4","0.2","0.539749723","0.8005734678","0.7717913507","0.2715554895","","","","","","","","","","","","75","K","2","","","216","main_expt",""
"","bandit","296","1102443","0.0-257.0-0.0","32205008","wem/bandit_either_3","A2L772YDACSPHF","either","2","1443","","","","","","","0","1","0","","0.834894728","0.8","0.6","0.4","0.2","0.3803352486","0.8392159132","0.834894728","0.2027777883","","","","","","","","","","","","75","K","2","","","217","main_expt",""
"","bandit","297","1105026","0.0-258.0-0.0","32205008","wem/bandit_either_3","A2L772YDACSPHF","either","2","1064","","","","","","","0","1","0","","0.868580258","0.8","0.6","0.4","0.2","0.3236333655","0.7445585264","0.868580258","0.2169787163","","","","","","","","","","","","75","K","2","","","218","main_expt",""
"","bandit","298","1107557","0.0-259.0-0.0","32205008","wem/bandit_either_3","A2L772YDACSPHF","either","2","1010","","","","","","","0","1","0","","0.8236231074","0.8","0.6","0.4","0.2","0.2612589469","0.7174829008","0.8236231074","0.2292932202","","","","","","","","","","","","75","K","2","","","219","main_expt",""
"","bandit","299","1110361","0.0-260.0-0.0","32205008","wem/bandit_either_3","A2L772YDACSPHF","either","2","1288","","","","","","","0","1","0","","0.7719294443","0.8","0.6","0.4","0.2","0.2228319794","0.6601767392","0.7719294443","0.2829053382","","","","","","","","","","","","75","K","2","","","220","main_expt",""
"","bandit","300","1113908","0.0-261.0-0.0","32205008","wem/bandit_either_3","A2L772YDACSPHF","either","2","2029","","","","","","","0","0","1","0.7609360252","","0.8","0.6","0.4","0.2","","","","","0.2204856404","0.703996204","0.7609360252","0.2691731019","","","","","","","","75","K","2","","","221","main_expt",""
"","bandit","301","1116363","0.0-262.0-0.0","32205008","wem/bandit_either_3","A2L772YDACSPHF","either","2","938","","","","","","","0","0","1","0.7319851961","","0.8","0.6","0.4","0.2","","","","","0.2269951902","0.6188024556","0.7319851961","0.1974112065","","","","","","","","75","K","2","","","222","main_expt",""
"","bandit","302","1118645","0.0-263.0-0.0","32205008","wem/bandit_either_3","A2L772YDACSPHF","either","2","763","","","","","","","0","0","1","","0.6994646324","0.8","0.6","0.4","0.2","0.3417830843","0.5695888615","0.6994646324","0.08486155027","","","","","","","","","","","","75","K","2","","","223","main_expt",""
"","bandit","303","1121437","0.0-264.0-0.0","32205008","wem/bandit_either_3","A2L772YDACSPHF","either","2","1272","","","","","","","0","0","1","0.6817307813","","0.8","0.6","0.4","0.2","","","","","0.4057490183","0.6590173842","0.6817307813","0.1930609847","","","","","","","","75","K","2","","","224","main_expt",""
"","bandit","304","1123950","0.0-265.0-0.0","32205008","wem/bandit_either_3","A2L772YDACSPHF","either","2","993","","","","","","","0","1","0","","0.6779124893","0.8","0.6","0.4","0.2","0.4266979185","0.6779124893","0.67394888","0.2026087193","","","","","","","","","","","","74","J","1","","","225","main_expt",""
"","bandit","305","1126679","0.0-266.0-0.0","32205008","wem/bandit_either_3","A2L772YDACSPHF","either","2","1211","","","","","","","0","0","1","","0.6433757785","0.8","0.6","0.4","0.2","0.4723095555","0.6433757785","0.6520670614","0.1295559036","","","","","","","","","","","","74","J","1","","","226","main_expt",""
"","bandit","306","1129117","0.0-267.0-0.0","32205008","wem/bandit_either_3","A2L772YDACSPHF","either","2","917","","","","","","","0","1","0","","0.6050090536","0.8","0.6","0.4","0.2","0.4396274322","0.6050090536","0.6598054912","0.1014701128","","","","","","","","","","","","74","J","1","","","227","main_expt",""
"","bandit","307","1131880","0.0-268.0-0.0","32205008","wem/bandit_either_3","A2L772YDACSPHF","either","2","1246","","","","","","","0","0","1","","0.5614220587","0.8","0.6","0.4","0.2","0.4581465293","0.5614220587","0.7313296172","0.1374428951","","","","","","","","","","","","74","J","1","","","228","main_expt",""
"","bandit","308","1134163","0.0-269.0-0.0","32205008","wem/bandit_either_3","A2L772YDACSPHF","either","2","766","","","","","","","0","0","1","0.536938762","","0.8","0.6","0.4","0.2","","","","","0.3635076811","0.536938762","0.5771612872","0.2147377822","","","","","","","","74","J","1","","","229","main_expt",""
"","bandit","309","1137599","0.0-270.0-0.0","32205008","wem/bandit_either_3","A2L772YDACSPHF","either","2","1919","","","","","","","0","1","0","","0.4691369301","0.8","0.6","0.4","0.2","0.4109812081","0.4691369301","0.6474737632","0.2128984172","","","","","","","","","","","","74","J","1","","","230","main_expt",""
"","bandit","310","1141156","0.0-271.0-0.0","32205008","wem/bandit_either_3","A2L772YDACSPHF","either","2","2037","","","","","","","0","0","1","0.3801843724","","0.8","0.6","0.4","0.2","","","","","0.3769467169","0.3801843724","0.77083729","0.2566260117","","","","","","","","74","J","1","","","231","main_expt",""
"","bandit","311","1144488","0.0-272.0-0.0","32205008","wem/bandit_either_3","A2L772YDACSPHF","either","2","1811","","","","","","","0","1","0","","0.7372448464","0.8","0.6","0.4","0.2","0.4489681289","0.4401380948","0.7372448464","0.307190163","","","","","","","","","","","","75","K","2","","","232","main_expt",""
"","bandit","312","1147240","0.0-273.0-0.0","32205008","wem/bandit_either_3","A2L772YDACSPHF","either","2","1233","","","","","","","1","0","0","0.8061851957","","0.8","0.6","0.4","0.2","","","","","0.5191563331","0.4589823784","0.8061851957","0.3235632008","","","","","","","","75","K","2","","","233","main_expt",""
"","bandit","313","1150009","0.0-274.0-0.0","32205008","wem/bandit_either_3","A2L772YDACSPHF","either","2","1248","","","","","","","0","1","0","","0.7628128465","0.8","0.6","0.4","0.2","0.5635532962","0.412850409","0.7628128465","0.2229472669","","","","","","","","","","","","75","K","2","","","234","main_expt",""
"","bandit","314","1152965","0.0-275.0-0.0","32205008","wem/bandit_either_3","A2L772YDACSPHF","either","2","1441","","","","","","","0","1","0","","0.7139354314","0.8","0.6","0.4","0.2","0.6059211115","0.3071086281","0.7139354314","0.3245092944","","","","","","","","","","","","75","K","2","","","235","main_expt",""
"","bandit","315","1155471","0.0-276.0-0.0","32205008","wem/bandit_either_3","A2L772YDACSPHF","either","2","992","","","","","","","0","1","0","","0.8459685894","0.8","0.6","0.4","0.2","0.5767319418","0.3088172556","0.8459685894","0.3817813951","","","","","","","","","","","","75","K","2","","","236","main_expt",""
"","bandit","316","1158409","0.0-277.0-0.0","32205008","wem/bandit_either_3","A2L772YDACSPHF","either","2","1419","","","","","","","0","1","0","","0.8258062243","0.8","0.6","0.4","0.2","0.6195352853","0.2725525041","0.8258062243","0.5108794425","","","","","","","","","","","","75","K","2","","","237","main_expt",""
"","bandit","317","1161932","0.0-278.0-0.0","32205008","wem/bandit_either_3","A2L772YDACSPHF","either","2","2007","","","","","","","1","0","0","0.7390020401","","0.8","0.6","0.4","0.2","","","","","0.7504070514","0.2929581335","0.7390020401","0.545868674","","","","","","","","75","K","2","","","238","main_expt",""
"","bandit","318","1166307","0.0-279.0-0.0","32205008","wem/bandit_either_3","A2L772YDACSPHF","either","2","2861","","","","","","","0","0","1","0.7159327665","","0.8","0.6","0.4","0.2","","","","","0.7863609923","0.3009301418","0.7159327665","0.5696008367","","","","","","","","75","K","2","","","239","main_expt",""
"","bandit","319","1168379","0.0-280.0-0.0","32205008","wem/bandit_either_3","A2L772YDACSPHF","either","2","549","","","","","","","0","0","1","0.1757133805","","0.8","0.6","0.4","0.2","","","","","0.7472107855","0.1757133805","0.7704913736","0.7175907516","","","","","","","","74","J","1","","","240","main_expt",""
"","bandit","320","1170658","0.0-281.0-0.0","32205008","wem/bandit_either_3","A2L772YDACSPHF","either","2","759","","","","","","","0","0","1","","0.1490953818","0.8","0.6","0.4","0.2","0.7633099306","0.1490953818","0.7832900934","0.8333566257","","","","","","","","","","","","74","J","1","","","241","main_expt",""
"","bandit","321","1174878","0.0-282.0-0.0","32205008","wem/bandit_either_3","A2L772YDACSPHF","either","2","2702","","","","","","","1","0","0","0.746364214","","0.8","0.6","0.4","0.2","","","","","0.8192624891","0.1187436938","0.746364214","0.8661582331","","","","","","","","75","K","2","","","242","main_expt",""
"","bandit","322","1180880","0.0-283.0-0.0","32205008","wem/bandit_either_3","A2L772YDACSPHF","either","2","4484","","","","","","","0","1","0","","0.7014576998","0.8","0.6","0.4","0.2","0.7500708258","0.07814629235","0.7014576998","0.8970489214","","","","","","","","","","","","75","K","2","","","243","main_expt",""
"","bandit","323","1185466","0.0-284.0-0.0","32205008","wem/bandit_either_3","A2L772YDACSPHF","either","2","3066","","","","","","","1","0","0","0.6810302351","","0.8","0.6","0.4","0.2","","","","","0.7656319196","0.06497313331","0.6810302351","0.8760308497","","","","","","","","75","K","2","","","244","main_expt",""
"","bandit","324","1188531","0.0-285.0-0.0","32205008","wem/bandit_either_3","A2L772YDACSPHF","either","2","1545","","","","","","","1","0","0","0.5349569219","","0.8","0.6","0.4","0.2","","","","","0.7726297554","0.1053527342","0.5349569219","0.9080051643","","","","","","","","75","K","2","","","245","main_expt",""
"","bandit","325","1192113","0.0-286.0-0.0","32205008","wem/bandit_either_3","A2L772YDACSPHF","either","2","2063","","","","","","","1","0","0","0.4945526892","","0.8","0.6","0.4","0.2","","","","","0.8033922047","0.1410713538","0.4945526892","0.8951486804","","","","","","","","75","K","2","","","246","main_expt",""
"","bandit","326","1194570","0.0-287.0-0.0","32205008","wem/bandit_either_3","A2L772YDACSPHF","either","2","938","","","","","","","0","1","0","","0.5460387822","0.8","0.6","0.4","0.2","0.7526368735","0.09435183819","0.5460387822","0.9334174588","","","","","","","","","","","","75","K","2","","","247","main_expt",""
