"consent","trial_type","trial_index","time_elapsed","internal_node_id","subjID","study","MID","cond","drift","rt","responses","key_press","expt_phase","like","value","connected","gems","bombs","no_reward","GemPrChosen","BombPrChosen","GainOverPainPr_0","GainOverPainPr_1","GainOverPainPr_2","GainOverPainPr_3","LosePr_0","LosePr_1","LosePr_2","LosePr_3","WinPr_0","WinPr_1","WinPr_2","WinPr_3","Q0","Q1","Q2","gender","age","ethnicity","target","respCharCode","respKey","respChoiceNum","respChoice","practice","trial_counter","trial_label","button_pressed"
"INL_behavioral_consent_30min_online.html","consent","0","8331","0.0-0.0","33983287","wem/bandit_either_3","A1VW8Y7XCV3DRW","either","6","","","","","","","","","","","","","","","","","","","","","","","","","","","","","","","","","","","","","","",""
"","survey-text","1","18686","0.0-1.0","33983287","wem/bandit_either_3","A1VW8Y7XCV3DRW","either","6","9347","{""Q0"":""A1VW8Y7XCV3DRW""}","","","","","","","","","","","","","","","","","","","","","","","","","","","","","","","","","","","","",""
"","text","2","29679","0.0-2.0","33983287","wem/bandit_either_3","A1VW8Y7XCV3DRW","either","6","9990","","32","","","","","","","","","","","","","","","","","","","","","","","","","","","","","","","","","","","",""
"","text","3","34768","0.0-3.0","33983287","wem/bandit_either_3","A1VW8Y7XCV3DRW","either","6","5089","","32","","","","","","","","","","","","","","","","","","","","","","","","","","","","","","","","","","","",""
"","text","4","47051","0.0-4.0","33983287","wem/bandit_either_3","A1VW8Y7XCV3DRW","either","6","12283","","32","","","","","","","","","","","","","","","","","","","","","","","","","","","","","","","","","","","",""
"","text","5","52485","0.0-5.0","33983287","wem/bandit_either_3","A1VW8Y7XCV3DRW","either","6","5432","","32","","","","","","","","","","","","","","","","","","","","","","","","","","","","","","","","","","","",""
"","text","6","55482","0.0-6.0","33983287","wem/bandit_either_3","A1VW8Y7XCV3DRW","either","6","2995","","32","","","","","","","","","","","","","","","","","","","","","","","","","","","","","","","","","","","",""
"","text","7","57995","0.0-7.0","33983287","wem/bandit_either_3","A1VW8Y7XCV3DRW","either","6","2512","","32","","","","","","","","","","","","","","","","","","","","","","","","","","","","","","","","","","","",""
"","text","8","59853","0.0-8.0","33983287","wem/bandit_either_3","A1VW8Y7XCV3DRW","either","6","1856","","32","","","","","","","","","","","","","","","","","","","","","","","","","","","","","","","","","","","",""
"","identification","9","68731","0.0-9.0-0.0","33983287","wem/bandit_either_3","A1VW8Y7XCV3DRW","either","6","8866","","","","4","5","4","","","","","","","","","","","","","","","","","","","","","","","","the village of Zur","","","","","","","",""
"","identification","10","77139","0.0-9.0-1.0","33983287","wem/bandit_either_3","A1VW8Y7XCV3DRW","either","6","7395","","","","3","4","3","","","","","","","","","","","","","","","","","","","","","","","","the village of Nyx","","","","","","","",""
"","text","11","85023","0.0-10.0","33983287","wem/bandit_either_3","A1VW8Y7XCV3DRW","either","6","6881","","32","","","","","","","","","","","","","","","","","","","","","","","","","","","","","","","","","","","",""
"","text","12","89824","0.0-11.0","33983287","wem/bandit_either_3","A1VW8Y7XCV3DRW","either","6","4799","","32","","","","","","","","","","","","","","","","","","","","","","","","","","","","","","","","","","","",""
"","text","13","91811","0.0-12.0","33983287","wem/bandit_either_3","A1VW8Y7XCV3DRW","either","6","1986","","32","","","","","","","","","","","","","","","","","","","","","","","","","","","","","","","","","","","",""
"","text","14","96402","0.0-13.0","33983287","wem/bandit_either_3","A1VW8Y7XCV3DRW","either","6","4591","","32","","","","","","","","","","","","","","","","","","","","","","","","","","","","","","","","","","","",""
"","bandit","15","99577","0.0-14.0-0.0","33983287","wem/bandit_either_3","A1VW8Y7XCV3DRW","either","6","1666","","","","","","","0","0","1","0","0","","","","","0","","","","0","","","","","","","","","","","74","J","0","img/none_selected_demo.jpg","true","0","",""
"","bandit","16","102147","0.0-15.0-0.0","33983287","wem/bandit_either_3","A1VW8Y7XCV3DRW","either","6","1065","","","","","","","0","0","1","0","0","","","","","0","","","","0","","","","","","","","","","","75","K","0","img/none_selected_demo.jpg","true","0","",""
"","text","17","105797","0.0-16.0","33983287","wem/bandit_either_3","A1VW8Y7XCV3DRW","either","6","3649","","32","","","","","","","","","","","","","","","","","","","","","","","","","","","","","","","","","","","",""
"","text","18","115921","0.0-17.0","33983287","wem/bandit_either_3","A1VW8Y7XCV3DRW","either","6","10123","","32","","","","","","","","","","","","","","","","","","","","","","","","","","","","","","","","","","","",""
"","text","19","139187","0.0-18.0","33983287","wem/bandit_either_3","A1VW8Y7XCV3DRW","either","6","23264","","32","","","","","","","","","","","","","","","","","","","","","","","","","","","","","","","","","","","",""
"","text","20","146361","0.0-19.0","33983287","wem/bandit_either_3","A1VW8Y7XCV3DRW","either","6","7173","","32","","","","","","","","","","","","","","","","","","","","","","","","","","","","","","","","","","","",""
"","bandit","21","148827","0.0-20.0-0.0","33983287","wem/bandit_either_3","A1VW8Y7XCV3DRW","either","6","960","","","","","","","1","0","0","0.8","","0.5","0.5","","","","","","","0.8","0.2","","","","","","","","","","74","J","0","img/none_selected_demo.jpg","true","0","80_20_practice",""
"","bandit","22","151070","0.0-20.0-1.0","33983287","wem/bandit_either_3","A1VW8Y7XCV3DRW","either","6","738","","","","","","","0","0","1","0.2","","0.5","0.5","","","","","","","0.8","0.2","","","","","","","","","","75","K","1","","true","0","80_20_practice",""
"","bandit","23","152932","0.0-20.0-2.0","33983287","wem/bandit_either_3","A1VW8Y7XCV3DRW","either","6","358","","","","","","","1","0","0","0.8","","0.5","0.5","","","","","","","0.8","0.2","","","","","","","","","","74","J","0","img/none_selected_demo.jpg","true","0","80_20_practice",""
"","bandit","24","155468","0.0-20.0-3.0","33983287","wem/bandit_either_3","A1VW8Y7XCV3DRW","either","6","1031","","","","","","","0","0","1","","0.8","0.5","0.5","","","0.8","0.2","","","","","","","","","","","","","","74","J","0","img/none_selected_demo.jpg","true","0","80_20_practice",""
"","bandit","25","157596","0.0-20.0-4.0","33983287","wem/bandit_either_3","A1VW8Y7XCV3DRW","either","6","621","","","","","","","0","1","0","","0.8","0.5","0.5","","","0.8","0.2","","","","","","","","","","","","","","74","J","0","img/none_selected_demo.jpg","true","0","80_20_practice",""
"","bandit","26","159867","0.0-20.0-5.0","33983287","wem/bandit_either_3","A1VW8Y7XCV3DRW","either","6","768","","","","","","","0","0","1","","0.2","0.5","0.5","","","0.8","0.2","","","","","","","","","","","","","","75","K","1","","true","0","80_20_practice",""
"","bandit","27","161732","0.0-20.0-6.0","33983287","wem/bandit_either_3","A1VW8Y7XCV3DRW","either","6","361","","","","","","","0","0","1","","0.2","0.5","0.5","","","0.8","0.2","","","","","","","","","","","","","","75","K","1","","true","0","80_20_practice",""
"","bandit","28","163548","0.0-20.0-7.0","33983287","wem/bandit_either_3","A1VW8Y7XCV3DRW","either","6","309","","","","","","","1","0","0","0.8","","0.5","0.5","","","","","","","0.8","0.2","","","","","","","","","","74","J","0","img/none_selected_demo.jpg","true","0","80_20_practice",""
"","bandit","29","165591","0.0-20.0-8.0","33983287","wem/bandit_either_3","A1VW8Y7XCV3DRW","either","6","539","","","","","","","0","1","0","","0.8","0.5","0.5","","","0.8","0.2","","","","","","","","","","","","","","74","J","0","img/none_selected_demo.jpg","true","0","80_20_practice",""
"","bandit","30","167650","0.0-20.0-9.0","33983287","wem/bandit_either_3","A1VW8Y7XCV3DRW","either","6","553","","","","","","","1","0","0","0.8","","0.5","0.5","","","","","","","0.8","0.2","","","","","","","","","","74","J","0","img/none_selected_demo.jpg","true","0","80_20_practice",""
"","bandit","31","169521","0.0-20.0-10.0","33983287","wem/bandit_either_3","A1VW8Y7XCV3DRW","either","6","367","","","","","","","0","1","0","","0.8","0.5","0.5","","","0.8","0.2","","","","","","","","","","","","","","74","J","0","img/none_selected_demo.jpg","true","0","80_20_practice",""
"","bandit","32","171607","0.0-20.0-11.0","33983287","wem/bandit_either_3","A1VW8Y7XCV3DRW","either","6","582","","","","","","","1","0","0","0.2","","0.5","0.5","","","","","","","0.8","0.2","","","","","","","","","","75","K","1","","true","0","80_20_practice",""
"","bandit","33","173797","0.0-20.0-12.0","33983287","wem/bandit_either_3","A1VW8Y7XCV3DRW","either","6","686","","","","","","","1","0","0","0.2","","0.5","0.5","","","","","","","0.8","0.2","","","","","","","","","","75","K","1","","true","0","80_20_practice",""
"","bandit","34","175791","0.0-20.0-13.0","33983287","wem/bandit_either_3","A1VW8Y7XCV3DRW","either","6","489","","","","","","","0","0","1","0.2","","0.5","0.5","","","","","","","0.8","0.2","","","","","","","","","","75","K","1","","true","0","80_20_practice",""
"","bandit","35","177776","0.0-20.0-14.0","33983287","wem/bandit_either_3","A1VW8Y7XCV3DRW","either","6","480","","","","","","","1","0","0","0.2","","0.5","0.5","","","","","","","0.8","0.2","","","","","","","","","","75","K","1","","true","0","80_20_practice",""
"","bandit","36","179697","0.0-20.0-15.0","33983287","wem/bandit_either_3","A1VW8Y7XCV3DRW","either","6","375","","","","","","","0","0","1","0.2","","0.5","0.5","","","","","","","0.8","0.2","","","","","","","","","","75","K","1","","true","0","80_20_practice",""
"","bandit","37","181634","0.0-20.0-16.0","33983287","wem/bandit_either_3","A1VW8Y7XCV3DRW","either","6","431","","","","","","","0","0","1","0.2","","0.5","0.5","","","","","","","0.8","0.2","","","","","","","","","","75","K","1","","true","0","80_20_practice",""
"","bandit","38","183520","0.0-20.0-17.0","33983287","wem/bandit_either_3","A1VW8Y7XCV3DRW","either","6","380","","","","","","","0","0","1","","0.2","0.5","0.5","","","0.8","0.2","","","","","","","","","","","","","","75","K","1","","true","0","80_20_practice",""
"","bandit","39","185116","0.0-20.0-18.0","33983287","wem/bandit_either_3","A1VW8Y7XCV3DRW","either","6","90","","","","","","","0","0","1","0.8","","0.5","0.5","","","","","","","0.8","0.2","","","","","","","","","","74","J","0","img/none_selected_demo.jpg","true","0","80_20_practice",""
"","bandit","40","186885","0.0-20.0-19.0","33983287","wem/bandit_either_3","A1VW8Y7XCV3DRW","either","6","263","","","","","","","1","0","0","0.8","","0.5","0.5","","","","","","","0.8","0.2","","","","","","","","","","74","J","0","img/none_selected_demo.jpg","true","0","80_20_practice",""
"","text","41","190902","0.0-21.0","33983287","wem/bandit_either_3","A1VW8Y7XCV3DRW","either","6","4016","","32","","","","","","","","","","","","","","","","","","","","","","","","","","","","","","","","","","","",""
"","bandit","42","193599","0.0-22.0-0.0","33983287","wem/bandit_either_3","A1VW8Y7XCV3DRW","either","6","1192","","","","","","","1","0","0","1","0","","","","","0","1","","","1","0","","","","","","","","","","74","J","0","img/none_selected_demo.jpg","true","0","",""
"","text","43","196890","0.0-23.0","33983287","wem/bandit_either_3","A1VW8Y7XCV3DRW","either","6","3289","","32","","","","","","","","","","","","","","","","","","","","","","","","","","","","","","","","","","","",""
"","text","44","199789","0.0-24.0","33983287","wem/bandit_either_3","A1VW8Y7XCV3DRW","either","6","2898","","32","","","","","","","","","","","","","","","","","","","","","","","","","","","","","","","","","","","",""
"","text","45","201688","0.0-25.0","33983287","wem/bandit_either_3","A1VW8Y7XCV3DRW","either","6","1898","","32","","","","","","","","","","","","","","","","","","","","","","","","","","","","","","","","","","","",""
"","text","46","204595","0.0-26.0","33983287","wem/bandit_either_3","A1VW8Y7XCV3DRW","either","6","2905","","32","","","","","","","","","","","","","","","","","","","","","","","","","","","","","","","","","","","",""
"","text","47","213520","0.0-27.0","33983287","wem/bandit_either_3","A1VW8Y7XCV3DRW","either","6","8923","","32","","","","","","","","","","","","","","","","","","","","","","","","","","","","","","","","","","","",""
"","text","48","215745","0.0-28.0","33983287","wem/bandit_either_3","A1VW8Y7XCV3DRW","either","6","2224","","32","","","","","","","","","","","","","","","","","","","","","","","","","","","","","","","","","","","",""
"","text","49","220561","0.0-29.0","33983287","wem/bandit_either_3","A1VW8Y7XCV3DRW","either","6","4815","","32","","","","","","","","","","","","","","","","","","","","","","","","","","","","","","","","","","","",""
"","text","50","226817","0.0-30.0","33983287","wem/bandit_either_3","A1VW8Y7XCV3DRW","either","6","6255","","32","","","","","","","","","","","","","","","","","","","","","","","","","","","","","","","","","","","",""
"","text","51","230920","0.0-31.0","33983287","wem/bandit_either_3","A1VW8Y7XCV3DRW","either","6","4102","","32","","","","","","","","","","","","","","","","","","","","","","","","","","","","","","","","","","","",""
"","text","52","232810","0.0-32.0","33983287","wem/bandit_either_3","A1VW8Y7XCV3DRW","either","6","1889","","32","","","","","","","","","","","","","","","","","","","","","","","","","","","","","","","","","","","",""
"","text","53","236351","0.0-33.0","33983287","wem/bandit_either_3","A1VW8Y7XCV3DRW","either","6","3538","","32","","","","","","","","","","","","","","","","","","","","","","","","","","","","","","","","","","","",""
"","bandit","54","238796","0.0-34.0-0.0","33983287","wem/bandit_either_3","A1VW8Y7XCV3DRW","either","6","940","","","","","","","0","1","0","","0.8","0.5","0.5","0.5","0.5","0.8","0.2","0.6","0.2","","","","","","","","","","","","72","H","0","img/none_selected.jpg","true","0","full_practice",""
"","bandit","55","240672","0.0-34.0-1.0","33983287","wem/bandit_either_3","A1VW8Y7XCV3DRW","either","6","372","","","","","","","0","0","1","0.2","","0.5","0.5","0.5","0.5","","","","","0.8","0.2","0.6","0.2","","","","","","","","74","J","1","","true","0","full_practice",""
"","bandit","56","242562","0.0-34.0-2.0","33983287","wem/bandit_either_3","A1VW8Y7XCV3DRW","either","6","384","","","","","","","0","0","1","","0.2","0.5","0.5","0.5","0.5","0.8","0.2","0.6","0.2","","","","","","","","","","","","76","L","3","","true","0","full_practice",""
"","bandit","57","244363","0.0-34.0-3.0","33983287","wem/bandit_either_3","A1VW8Y7XCV3DRW","either","6","295","","","","","","","0","0","1","0.2","","0.5","0.5","0.5","0.5","","","","","0.8","0.2","0.6","0.2","","","","","","","","76","L","3","","true","0","full_practice",""
"","bandit","58","246163","0.0-34.0-4.0","33983287","wem/bandit_either_3","A1VW8Y7XCV3DRW","either","6","294","","","","","","","1","0","0","0.6","","0.5","0.5","0.5","0.5","","","","","0.8","0.2","0.6","0.2","","","","","","","","75","K","2","","true","0","full_practice",""
"","bandit","59","247969","0.0-34.0-5.0","33983287","wem/bandit_either_3","A1VW8Y7XCV3DRW","either","6","300","","","","","","","0","0","1","0.6","","0.5","0.5","0.5","0.5","","","","","0.8","0.2","0.6","0.2","","","","","","","","75","K","2","","true","0","full_practice",""
"","bandit","60","249781","0.0-34.0-6.0","33983287","wem/bandit_either_3","A1VW8Y7XCV3DRW","either","6","306","","","","","","","1","0","0","0.6","","0.5","0.5","0.5","0.5","","","","","0.8","0.2","0.6","0.2","","","","","","","","75","K","2","","true","0","full_practice",""
"","bandit","61","251675","0.0-34.0-7.0","33983287","wem/bandit_either_3","A1VW8Y7XCV3DRW","either","6","388","","","","","","","0","0","1","","0.6","0.5","0.5","0.5","0.5","0.8","0.2","0.6","0.2","","","","","","","","","","","","75","K","2","","true","0","full_practice",""
"","bandit","62","253563","0.0-34.0-8.0","33983287","wem/bandit_either_3","A1VW8Y7XCV3DRW","either","6","350","","","","","","","1","0","0","0.6","","0.5","0.5","0.5","0.5","","","","","0.8","0.2","0.6","0.2","","","","","","","","75","K","2","","true","0","full_practice",""
"","bandit","63","255339","0.0-34.0-9.0","33983287","wem/bandit_either_3","A1VW8Y7XCV3DRW","either","6","269","","","","","","","1","0","0","0.2","","0.5","0.5","0.5","0.5","","","","","0.8","0.2","0.6","0.2","","","","","","","","74","J","1","","true","0","full_practice",""
"","bandit","64","257168","0.0-34.0-10.0","33983287","wem/bandit_either_3","A1VW8Y7XCV3DRW","either","6","323","","","","","","","0","0","1","0.2","","0.5","0.5","0.5","0.5","","","","","0.8","0.2","0.6","0.2","","","","","","","","74","J","1","","true","0","full_practice",""
"","bandit","65","258981","0.0-34.0-11.0","33983287","wem/bandit_either_3","A1VW8Y7XCV3DRW","either","6","308","","","","","","","1","0","0","0.8","","0.5","0.5","0.5","0.5","","","","","0.8","0.2","0.6","0.2","","","","","","","","72","H","0","img/none_selected.jpg","true","0","full_practice",""
"","bandit","66","260836","0.0-34.0-12.0","33983287","wem/bandit_either_3","A1VW8Y7XCV3DRW","either","6","351","","","","","","","1","0","0","0.8","","0.5","0.5","0.5","0.5","","","","","0.8","0.2","0.6","0.2","","","","","","","","72","H","0","img/none_selected.jpg","true","0","full_practice",""
"","bandit","67","262959","0.0-34.0-13.0","33983287","wem/bandit_either_3","A1VW8Y7XCV3DRW","either","6","616","","","","","","","0","1","0","","0.8","0.5","0.5","0.5","0.5","0.8","0.2","0.6","0.2","","","","","","","","","","","","72","H","0","img/none_selected.jpg","true","0","full_practice",""
"","bandit","68","264838","0.0-34.0-14.0","33983287","wem/bandit_either_3","A1VW8Y7XCV3DRW","either","6","374","","","","","","","0","0","1","","0.2","0.5","0.5","0.5","0.5","0.8","0.2","0.6","0.2","","","","","","","","","","","","74","J","1","","true","0","full_practice",""
"","bandit","69","266722","0.0-34.0-15.0","33983287","wem/bandit_either_3","A1VW8Y7XCV3DRW","either","6","380","","","","","","","0","0","1","","0.6","0.5","0.5","0.5","0.5","0.8","0.2","0.6","0.2","","","","","","","","","","","","75","K","2","","true","0","full_practice",""
"","bandit","70","268597","0.0-34.0-16.0","33983287","wem/bandit_either_3","A1VW8Y7XCV3DRW","either","6","366","","","","","","","0","1","0","","0.6","0.5","0.5","0.5","0.5","0.8","0.2","0.6","0.2","","","","","","","","","","","","75","K","2","","true","0","full_practice",""
"","bandit","71","270528","0.0-34.0-17.0","33983287","wem/bandit_either_3","A1VW8Y7XCV3DRW","either","6","426","","","","","","","0","0","1","","0.2","0.5","0.5","0.5","0.5","0.8","0.2","0.6","0.2","","","","","","","","","","","","74","J","1","","true","0","full_practice",""
"","bandit","72","272323","0.0-34.0-18.0","33983287","wem/bandit_either_3","A1VW8Y7XCV3DRW","either","6","290","","","","","","","0","0","1","","0.2","0.5","0.5","0.5","0.5","0.8","0.2","0.6","0.2","","","","","","","","","","","","74","J","1","","true","0","full_practice",""
"","bandit","73","274116","0.0-34.0-19.0","33983287","wem/bandit_either_3","A1VW8Y7XCV3DRW","either","6","289","","","","","","","0","0","1","","0.2","0.5","0.5","0.5","0.5","0.8","0.2","0.6","0.2","","","","","","","","","","","","74","J","1","","true","0","full_practice",""
"","text","74","276461","0.0-35.0","33983287","wem/bandit_either_3","A1VW8Y7XCV3DRW","either","6","2340","","32","","","","","","","","","","","","","","","","","","","","","","","","","","","","","","","","","","","",""
"","text","75","289391","0.0-36.0","33983287","wem/bandit_either_3","A1VW8Y7XCV3DRW","either","6","11927","","32","","","","","","","","","","","","","","","","","","","","","","","","","","","","","","","","","","","",""
"","text","76","300899","0.0-37.0","33983287","wem/bandit_either_3","A1VW8Y7XCV3DRW","either","6","11505","","32","","","","","","","","","","","","","","","","","","","","","","","","","","","","","","","","","","","",""
"","text","77","306921","0.0-38.0","33983287","wem/bandit_either_3","A1VW8Y7XCV3DRW","either","6","6019","","32","","","","","","","","","","","","","","","","","","","","","","","","","","","","","","","","","","","",""
"","text","78","314125","0.0-39.0","33983287","wem/bandit_either_3","A1VW8Y7XCV3DRW","either","6","7202","","32","","","","","","","","","","","","","","","","","","","","","","","","","","","","","","","","","","","",""
"","text","79","320057","0.0-40.0","33983287","wem/bandit_either_3","A1VW8Y7XCV3DRW","either","6","5931","","32","","","","","","","","","","","","","","","","","","","","","","","","","","","","","","","","","","","",""
"","bandit","80","322514","0.0-41.0-0.0","33983287","wem/bandit_either_3","A1VW8Y7XCV3DRW","either","6","951","","","","","","","0","0","1","0.3049938501","","0.2","0.4","0.6","0.8","","","","","0.7197236342","0.3049938501","0.2309914537","0.1947351938","","","","","","","","74","J","1","","","1","main_expt",""
"","bandit","81","324528","0.0-42.0-0.0","33983287","wem/bandit_either_3","A1VW8Y7XCV3DRW","either","6","472","","","","","","","0","0","1","0.2351366282","","0.2","0.4","0.6","0.8","","","","","0.7453792406","0.3105507028","0.2351366282","0.1865171684","","","","","","","","75","K","2","","","2","main_expt",""
"","bandit","82","326374","0.0-43.0-0.0","33983287","wem/bandit_either_3","A1VW8Y7XCV3DRW","either","6","340","","","","","","","0","0","1","","0.1578482069","0.2","0.4","0.6","0.8","0.7422746785","0.347932066","0.3338792953","0.1578482069","","","","","","","","","","","","76","L","3","","","3","main_expt",""
"","bandit","83","328180","0.0-44.0-0.0","33983287","wem/bandit_either_3","A1VW8Y7XCV3DRW","either","6","300","","","","","","","1","0","0","0.8152876082","","0.2","0.4","0.6","0.8","","","","","0.8152876082","0.294099503","0.2578124611","0.1733557992","","","","","","","","72","H","0","img/none_selected.jpg","","4","main_expt",""
"","bandit","84","331116","0.0-45.0-0.0","33983287","wem/bandit_either_3","A1VW8Y7XCV3DRW","either","6","1432","","","","","","","0","1","0","","0.8494846052","0.2","0.4","0.6","0.8","0.8494846052","0.256228135","0.152782507","0.1275681293","","","","","","","","","","","","72","H","0","img/none_selected.jpg","","5","main_expt",""
"","bandit","85","333729","0.0-46.0-0.0","33983287","wem/bandit_either_3","A1VW8Y7XCV3DRW","either","6","1107","","","","","","","0","1","0","","0.8036792828","0.2","0.4","0.6","0.8","0.8036792828","0.3142053347","0.200224935","0.1776351543","","","","","","","","","","","","72","H","0","img/none_selected.jpg","","6","main_expt",""
"","bandit","86","335597","0.0-47.0-0.0","33983287","wem/bandit_either_3","A1VW8Y7XCV3DRW","either","6","363","","","","","","","0","0","1","","0.2382568898","0.2","0.4","0.6","0.8","0.8659664865","0.2382568898","0.2200442108","0.1412615145","","","","","","","","","","","","74","J","1","","","7","main_expt",""
"","bandit","87","337241","0.0-48.0-0.0","33983287","wem/bandit_either_3","A1VW8Y7XCV3DRW","either","6","140","","","","","","","0","1","0","","0.8475436228","0.2","0.4","0.6","0.8","0.8475436228","0.220471749","0.1516915951","0.1508054742","","","","","","","","","","","","72","H","0","img/none_selected.jpg","","8","main_expt",""
"","bandit","88","339183","0.0-49.0-0.0","33983287","wem/bandit_either_3","A1VW8Y7XCV3DRW","either","6","435","","","","","","","0","0","1","0.1468829212","","0.2","0.4","0.6","0.8","","","","","0.8034999265","0.2842820234","0.1468829212","0.1882404854","","","","","","","","75","K","2","","","9","main_expt",""
"","bandit","89","341024","0.0-50.0-0.0","33983287","wem/bandit_either_3","A1VW8Y7XCV3DRW","either","6","335","","","","","","","0","0","1","","0.1507643719","0.2","0.4","0.6","0.8","0.7148412232","0.3392415315","0.1507643719","0.1731305678","","","","","","","","","","","","75","K","2","","","10","main_expt",""
"","bandit","90","342816","0.0-51.0-0.0","33983287","wem/bandit_either_3","A1VW8Y7XCV3DRW","either","6","286","","","","","","","0","1","0","","0.7213030285","0.2","0.4","0.6","0.8","0.7213030285","0.4470346709","0.18301","0.2475279461","","","","","","","","","","","","72","H","0","img/none_selected.jpg","","11","main_expt",""
"","bandit","91","344623","0.0-52.0-0.0","33983287","wem/bandit_either_3","A1VW8Y7XCV3DRW","either","6","299","","","","","","","1","0","0","0.7396148754","","0.2","0.4","0.6","0.8","","","","","0.7396148754","0.5143820195","0.209562337","0.2068792089","","","","","","","","72","H","0","img/none_selected.jpg","","12","main_expt",""
"","bandit","92","346426","0.0-53.0-0.0","33983287","wem/bandit_either_3","A1VW8Y7XCV3DRW","either","6","297","","","","","","","0","0","1","","0.6870781676","0.2","0.4","0.6","0.8","0.6870781676","0.4934308908","0.2133897639","0.1594062408","","","","","","","","","","","","72","H","0","img/none_selected.jpg","","13","main_expt",""
"","bandit","93","348236","0.0-54.0-0.0","33983287","wem/bandit_either_3","A1VW8Y7XCV3DRW","either","6","301","","","","","","","1","0","0","0.6561171826","","0.2","0.4","0.6","0.8","","","","","0.6561171826","0.5884397519","0.1865122749","0.1808320347","","","","","","","","72","H","0","img/none_selected.jpg","","14","main_expt",""
"","bandit","94","350094","0.0-55.0-0.0","33983287","wem/bandit_either_3","A1VW8Y7XCV3DRW","either","6","354","","","","","","","0","1","0","","0.6255101569","0.2","0.4","0.6","0.8","0.6255101569","0.425765204","0.3169691733","0.2401125286","","","","","","","","","","","","72","H","0","img/none_selected.jpg","","15","main_expt",""
"","bandit","95","351946","0.0-56.0-0.0","33983287","wem/bandit_either_3","A1VW8Y7XCV3DRW","either","6","346","","","","","","","0","1","0","","0.6101220295","0.2","0.4","0.6","0.8","0.6101220295","0.4458974369","0.3927767979","0.1823220599","","","","","","","","","","","","72","H","0","img/none_selected.jpg","","16","main_expt",""
"","bandit","96","353766","0.0-57.0-0.0","33983287","wem/bandit_either_3","A1VW8Y7XCV3DRW","either","6","315","","","","","","","0","0","1","0.6233337625","","0.2","0.4","0.6","0.8","","","","","0.6233337625","0.4907358526","0.2882183284","0.2076179308","","","","","","","","72","H","0","img/none_selected.jpg","","17","main_expt",""
"","bandit","97","355820","0.0-58.0-0.0","33983287","wem/bandit_either_3","A1VW8Y7XCV3DRW","either","6","547","","","","","","","0","0","1","0.3212622409","","0.2","0.4","0.6","0.8","","","","","0.598865074","0.4895096529","0.3212622409","0.2310064443","","","","","","","","75","K","2","","","18","main_expt",""
"","bandit","98","357637","0.0-59.0-0.0","33983287","wem/bandit_either_3","A1VW8Y7XCV3DRW","either","6","311","","","","","","","0","0","1","0.3678238944","","0.2","0.4","0.6","0.8","","","","","0.6318918302","0.5437378015","0.3678238944","0.1919199612","","","","","","","","75","K","2","","","19","main_expt",""
"","bandit","99","359273","0.0-60.0-0.0","33983287","wem/bandit_either_3","A1VW8Y7XCV3DRW","either","6","125","","","","","","","0","0","1","0.2150176637","","0.2","0.4","0.6","0.8","","","","","0.5667690756","0.543071052","0.4357360734","0.2150176637","","","","","","","","76","L","3","","","20","main_expt",""
"","bandit","100","361095","0.0-61.0-0.0","33983287","wem/bandit_either_3","A1VW8Y7XCV3DRW","either","6","314","","","","","","","0","0","1","0.5457928974","","0.2","0.4","0.6","0.8","","","","","0.6364396753","0.5457928974","0.4486518506","0.2980309021","","","","","","","","74","J","1","","","21","main_expt",""
"","bandit","101","364644","0.0-62.0-0.0","33983287","wem/bandit_either_3","A1VW8Y7XCV3DRW","either","6","2044","","","","","","","0","1","0","","0.4531799458","0.2","0.4","0.6","0.8","0.5563436533","0.4531799458","0.5145372488","0.3238742104","","","","","","","","","","","","74","J","1","","","22","main_expt",""
"","bandit","102","366545","0.0-63.0-0.0","33983287","wem/bandit_either_3","A1VW8Y7XCV3DRW","either","6","395","","","","","","","0","0","1","0.4321579995","","0.2","0.4","0.6","0.8","","","","","0.4555064456","0.4321579995","0.6324996067","0.4158928209","","","","","","","","74","J","1","","","23","main_expt",""
"","bandit","103","368177","0.0-64.0-0.0","33983287","wem/bandit_either_3","A1VW8Y7XCV3DRW","either","6","126","","","","","","","0","0","1","","0.4398961724","0.2","0.4","0.6","0.8","0.4398961724","0.3892872195","0.6665025749","0.2798670784","","","","","","","","","","","","72","H","0","img/none_selected.jpg","","24","main_expt",""
"","bandit","104","370039","0.0-65.0-0.0","33983287","wem/bandit_either_3","A1VW8Y7XCV3DRW","either","6","356","","","","","","","0","0","1","","0.3810464824","0.2","0.4","0.6","0.8","0.3810464824","0.4322880781","0.5316582614","0.3932164435","","","","","","","","","","","","72","H","0","img/none_selected.jpg","","25","main_expt",""
"","bandit","105","371622","0.0-66.0-0.0","33983287","wem/bandit_either_3","A1VW8Y7XCV3DRW","either","6","78","","","","","","","0","0","1","","0.451695138","0.2","0.4","0.6","0.8","0.451695138","0.4560392573","0.4282094451","0.3243459504","","","","","","","","","","","","72","H","0","img/none_selected.jpg","","26","main_expt",""
"","bandit","106","373589","0.0-67.0-0.0","33983287","wem/bandit_either_3","A1VW8Y7XCV3DRW","either","6","462","","","","","","","1","0","0","0.4423729324","","0.2","0.4","0.6","0.8","","","","","0.4423729324","0.5372901799","0.4711380508","0.4266302179","","","","","","","","72","H","0","img/none_selected.jpg","","27","main_expt",""
"","bandit","107","375450","0.0-68.0-0.0","33983287","wem/bandit_either_3","A1VW8Y7XCV3DRW","either","6","353","","","","","","","0","0","1","","0.4221124674","0.2","0.4","0.6","0.8","0.4221124674","0.6619872032","0.4539290932","0.4206607535","","","","","","","","","","","","72","H","0","img/none_selected.jpg","","28","main_expt",""
"","bandit","108","380024","0.0-69.0-0.0","33983287","wem/bandit_either_3","A1VW8Y7XCV3DRW","either","6","3068","","","","","","","0","0","1","","0.489207998","0.2","0.4","0.6","0.8","0.489207998","0.5939885142","0.4378511583","0.440099583","","","","","","","","","","","","72","H","0","img/none_selected.jpg","","29","main_expt",""
"","bandit","109","381880","0.0-70.0-0.0","33983287","wem/bandit_either_3","A1VW8Y7XCV3DRW","either","6","339","","","","","","","0","1","0","","0.5602145404","0.2","0.4","0.6","0.8","0.4406356357","0.5602145404","0.3425428874","0.3982168329","","","","","","","","","","","","74","J","1","","","30","main_expt",""
"","bandit","110","383710","0.0-71.0-0.0","33983287","wem/bandit_either_3","A1VW8Y7XCV3DRW","either","6","325","","","","","","","0","0","1","","0.5376870091","0.2","0.4","0.6","0.8","0.484130952","0.5376870091","0.2354865125","0.3573437221","","","","","","","","","","","","74","J","1","","","31","main_expt",""
"","bandit","111","385948","0.0-72.0-0.0","33983287","wem/bandit_either_3","A1VW8Y7XCV3DRW","either","6","732","","","","","","","0","1","0","","0.6346195819","0.2","0.4","0.6","0.8","0.432294219","0.6346195819","0.2552437171","0.3712986889","","","","","","","","","","","","74","J","1","","","32","main_expt",""
"","bandit","112","387777","0.0-73.0-0.0","33983287","wem/bandit_either_3","A1VW8Y7XCV3DRW","either","6","324","","","","","","","0","1","0","","0.7540961955","0.2","0.4","0.6","0.8","0.4821309474","0.7540961955","0.2470382599","0.45096985","","","","","","","","","","","","74","J","1","","","33","main_expt",""
"","bandit","113","389795","0.0-74.0-0.0","33983287","wem/bandit_either_3","A1VW8Y7XCV3DRW","either","6","511","","","","","","","1","0","0","0.699797925","","0.2","0.4","0.6","0.8","","","","","0.4702474349","0.699797925","0.2951894024","0.5559331637","","","","","","","","74","J","1","","","34","main_expt",""
"","bandit","114","391684","0.0-75.0-0.0","33983287","wem/bandit_either_3","A1VW8Y7XCV3DRW","either","6","384","","","","","","","0","0","1","0.7410295452","","0.2","0.4","0.6","0.8","","","","","0.5363697359","0.7410295452","0.2596626779","0.7354386419","","","","","","","","74","J","1","","","35","main_expt",""
"","bandit","115","393264","0.0-76.0-0.0","33983287","wem/bandit_either_3","A1VW8Y7XCV3DRW","either","6","73","","","","","","","0","1","0","","0.7332281969","0.2","0.4","0.6","0.8","0.602250539","0.7332281969","0.3164764808","0.6934166837","","","","","","","","","","","","74","J","1","","","36","main_expt",""
"","bandit","116","395392","0.0-77.0-0.0","33983287","wem/bandit_either_3","A1VW8Y7XCV3DRW","either","6","621","","","","","","","0","1","0","","0.736713329","0.2","0.4","0.6","0.8","0.5337433964","0.736713329","0.3672962009","0.6311869688","","","","","","","","","","","","74","J","1","","","37","main_expt",""
"","bandit","117","397663","0.0-78.0-0.0","33983287","wem/bandit_either_3","A1VW8Y7XCV3DRW","either","6","752","","","","","","","1","0","0","0.6860808007","","0.2","0.4","0.6","0.8","","","","","0.5970413872","0.6860808007","0.4056598401","0.6583504975","","","","","","","","74","J","1","","","38","main_expt",""
"","bandit","118","400101","0.0-79.0-0.0","33983287","wem/bandit_either_3","A1VW8Y7XCV3DRW","either","6","932","","","","","","","0","1","0","","0.7498761973","0.2","0.4","0.6","0.8","0.6529448079","0.7498761973","0.4236995386","0.5861321806","","","","","","","","","","","","74","J","1","","","39","main_expt",""
"","bandit","119","402322","0.0-80.0-0.0","33983287","wem/bandit_either_3","A1VW8Y7XCV3DRW","either","6","713","","","","","","","0","0","1","0.7043283504","","0.2","0.4","0.6","0.8","","","","","0.6612991154","0.7043283504","0.4365163158","0.4892836735","","","","","","","","74","J","1","","","40","main_expt",""
"","bandit","120","404236","0.0-81.0-0.0","33983287","wem/bandit_either_3","A1VW8Y7XCV3DRW","either","6","408","","","","","","","0","1","0","","0.6469690382","0.2","0.4","0.6","0.8","0.7390431107","0.6469690382","0.4854269132","0.3479900608","","","","","","","","","","","","74","J","1","","","41","main_expt",""
"","bandit","121","407246","0.0-82.0-0.0","33983287","wem/bandit_either_3","A1VW8Y7XCV3DRW","either","6","1504","","","","","","","0","0","1","","0.6388905256","0.2","0.4","0.6","0.8","0.7609423287","0.6388905256","0.4753587859","0.376709287","","","","","","","","","","","","74","J","1","","","42","main_expt",""
"","bandit","122","409135","0.0-83.0-0.0","33983287","wem/bandit_either_3","A1VW8Y7XCV3DRW","either","6","383","","","","","","","0","1","0","","0.6383372244","0.2","0.4","0.6","0.8","0.8039673949","0.6383372244","0.452202747","0.4319300722","","","","","","","","","","","","74","J","1","","","43","main_expt",""
"","bandit","123","410953","0.0-84.0-0.0","33983287","wem/bandit_either_3","A1VW8Y7XCV3DRW","either","6","311","","","","","","","0","0","1","","0.6247854939","0.2","0.4","0.6","0.8","0.8216753652","0.6247854939","0.5522191005","0.4458636389","","","","","","","","","","","","74","J","1","","","44","main_expt",""
"","bandit","124","413081","0.0-85.0-0.0","33983287","wem/bandit_either_3","A1VW8Y7XCV3DRW","either","6","622","","","","","","","0","0","1","","0.6341880498","0.2","0.4","0.6","0.8","0.7636866317","0.6341880498","0.4878962787","0.4323480181","","","","","","","","","","","","74","J","1","","","45","main_expt",""
"","bandit","125","414809","0.0-86.0-0.0","33983287","wem/bandit_either_3","A1VW8Y7XCV3DRW","either","6","222","","","","","","","1","0","0","0.487595293","","0.2","0.4","0.6","0.8","","","","","0.8203755575","0.5081310512","0.487595293","0.4348202433","","","","","","","","75","K","2","","","46","main_expt",""
"","bandit","126","416725","0.0-87.0-0.0","33983287","wem/bandit_either_3","A1VW8Y7XCV3DRW","either","6","407","","","","","","","0","0","1","","0.444754188","0.2","0.4","0.6","0.8","0.8706375764","0.4202927251","0.444754188","0.3430847618","","","","","","","","","","","","75","K","2","","","47","main_expt",""
"","bandit","127","418793","0.0-88.0-0.0","33983287","wem/bandit_either_3","A1VW8Y7XCV3DRW","either","6","563","","","","","","","0","0","1","","0.5044276746","0.2","0.4","0.6","0.8","0.8019506245","0.4767868938","0.5044276746","0.2601977795","","","","","","","","","","","","75","K","2","","","48","main_expt",""
"","bandit","128","420668","0.0-89.0-0.0","33983287","wem/bandit_either_3","A1VW8Y7XCV3DRW","either","6","368","","","","","","","0","0","1","","0.3766714482","0.2","0.4","0.6","0.8","0.7331224435","0.3749468019","0.3766714482","0.2368144698","","","","","","","","","","","","75","K","2","","","49","main_expt",""
"","bandit","129","422498","0.0-90.0-0.0","33983287","wem/bandit_either_3","A1VW8Y7XCV3DRW","either","6","325","","","","","","","1","0","0","0.7908344101","","0.2","0.4","0.6","0.8","","","","","0.7908344101","0.3532902347","0.406992786","0.2484527115","","","","","","","","72","H","0","img/none_selected.jpg","","50","main_expt",""
"","bandit","130","424572","0.0-91.0-0.0","33983287","wem/bandit_either_3","A1VW8Y7XCV3DRW","either","6","557","","","","","","","0","1","0","","0.7922828235","0.2","0.4","0.6","0.8","0.7922828235","0.2413466802","0.3854505747","0.230268934","","","","","","","","","","","","72","H","0","img/none_selected.jpg","","51","main_expt",""
"","bandit","131","426618","0.0-92.0-0.0","33983287","wem/bandit_either_3","A1VW8Y7XCV3DRW","either","6","539","","","","","","","0","0","1","","0.7485378942","0.2","0.4","0.6","0.8","0.7485378942","0.2673723166","0.3956915145","0.3429002399","","","","","","","","","","","","72","H","0","img/none_selected.jpg","","52","main_expt",""
"","bandit","132","428696","0.0-93.0-0.0","33983287","wem/bandit_either_3","A1VW8Y7XCV3DRW","either","6","571","","","","","","","0","1","0","","0.6603794952","0.2","0.4","0.6","0.8","0.6603794952","0.2806035608","0.3062348001","0.2871029552","","","","","","","","","","","","72","H","0","img/none_selected.jpg","","53","main_expt",""
"","bandit","133","430596","0.0-94.0-0.0","33983287","wem/bandit_either_3","A1VW8Y7XCV3DRW","either","6","393","","","","","","","1","0","0","0.6931449795","","0.2","0.4","0.6","0.8","","","","","0.6931449795","0.2544312064","0.2996500993","0.2594444468","","","","","","","","72","H","0","img/none_selected.jpg","","54","main_expt",""
"","bandit","134","433544","0.0-95.0-0.0","33983287","wem/bandit_either_3","A1VW8Y7XCV3DRW","either","6","1443","","","","","","","0","1","0","","0.7553272845","0.2","0.4","0.6","0.8","0.7553272845","0.3362815808","0.2518247787","0.3333749245","","","","","","","","","","","","72","H","0","img/none_selected.jpg","","55","main_expt",""
"","bandit","135","435587","0.0-96.0-0.0","33983287","wem/bandit_either_3","A1VW8Y7XCV3DRW","either","6","537","","","","","","","0","0","1","","0.7231548626","0.2","0.4","0.6","0.8","0.7231548626","0.3798256012","0.3014763065","0.3049104067","","","","","","","","","","","","72","H","0","img/none_selected.jpg","","56","main_expt",""
"","bandit","136","437456","0.0-97.0-0.0","33983287","wem/bandit_either_3","A1VW8Y7XCV3DRW","either","6","362","","","","","","","0","0","1","","0.7485901337","0.2","0.4","0.6","0.8","0.7485901337","0.3989549393","0.2730843718","0.3623273811","","","","","","","","","","","","72","H","0","img/none_selected.jpg","","57","main_expt",""
"","bandit","137","439664","0.0-98.0-0.0","33983287","wem/bandit_either_3","A1VW8Y7XCV3DRW","either","6","702","","","","","","","0","1","0","","0.797082508","0.2","0.4","0.6","0.8","0.797082508","0.3373398956","0.367239041","0.3621169042","","","","","","","","","","","","72","H","0","img/none_selected.jpg","","58","main_expt",""
"","bandit","138","441591","0.0-99.0-0.0","33983287","wem/bandit_either_3","A1VW8Y7XCV3DRW","either","6","422","","","","","","","0","1","0","","0.7466963627","0.2","0.4","0.6","0.8","0.7466963627","0.3381045731","0.4005220403","0.3672848169","","","","","","","","","","","","72","H","0","img/none_selected.jpg","","59","main_expt",""
"","bandit","139","443552","0.0-100.0-0.0","33983287","wem/bandit_either_3","A1VW8Y7XCV3DRW","either","6","454","","","","","","","0","0","1","","0.6359615323","0.2","0.4","0.6","0.8","0.6359615323","0.4838111383","0.4863912708","0.5123874715","","","","","","","","","","","","72","H","0","img/none_selected.jpg","","60","main_expt",""
"","bandit","140","445459","0.0-101.0-0.0","33983287","wem/bandit_either_3","A1VW8Y7XCV3DRW","either","6","399","","","","","","","0","0","1","0.5220595343","","0.2","0.4","0.6","0.8","","","","","0.7125939799","0.4290776342","0.5220595343","0.5218319631","","","","","","","","75","K","2","","","61","main_expt",""
"","bandit","141","447131","0.0-102.0-0.0","33983287","wem/bandit_either_3","A1VW8Y7XCV3DRW","either","6","164","","","","","","","0","1","0","","0.4387439774","0.2","0.4","0.6","0.8","0.5978650666","0.4387439774","0.5447889898","0.6482151027","","","","","","","","","","","","74","J","1","","","62","main_expt",""
"","bandit","142","449048","0.0-103.0-0.0","33983287","wem/bandit_either_3","A1VW8Y7XCV3DRW","either","6","411","","","","","","","0","0","1","0.3670418014","","0.2","0.4","0.6","0.8","","","","","0.5166338879","0.3670418014","0.5517390004","0.6966290852","","","","","","","","74","J","1","","","63","main_expt",""
"","bandit","143","451016","0.0-104.0-0.0","33983287","wem/bandit_either_3","A1VW8Y7XCV3DRW","either","6","460","","","","","","","0","0","1","","0.3470393933","0.2","0.4","0.6","0.8","0.4901650138","0.3470393933","0.6576188384","0.6497033777","","","","","","","","","","","","74","J","1","","","64","main_expt",""
"","bandit","144","455652","0.0-105.0-0.0","33983287","wem/bandit_either_3","A1VW8Y7XCV3DRW","either","6","3130","","","","","","","0","1","0","","0.3361574661","0.2","0.4","0.6","0.8","0.459365688","0.3361574661","0.5156176703","0.6925184903","","","","","","","","","","","","74","J","1","","","65","main_expt",""
"","bandit","145","457971","0.0-106.0-0.0","33983287","wem/bandit_either_3","A1VW8Y7XCV3DRW","either","6","813","","","","","","","0","0","1","","0.34308242","0.2","0.4","0.6","0.8","0.4666104807","0.34308242","0.3851410914","0.8298767513","","","","","","","","","","","","74","J","1","","","66","main_expt",""
"","bandit","146","460546","0.0-107.0-0.0","33983287","wem/bandit_either_3","A1VW8Y7XCV3DRW","either","6","1068","","","","","","","0","1","0","","0.3730603492","0.2","0.4","0.6","0.8","0.5547259005","0.3730603492","0.3925250542","0.8506596021","","","","","","","","","","","","74","J","1","","","67","main_expt",""
"","bandit","147","462737","0.0-108.0-0.0","33983287","wem/bandit_either_3","A1VW8Y7XCV3DRW","either","6","686","","","","","","","0","1","0","","0.4089949532","0.2","0.4","0.6","0.8","0.6038719492","0.4089949532","0.3884113518","0.8536910832","","","","","","","","","","","","74","J","1","","","68","main_expt",""
"","bandit","148","464699","0.0-109.0-0.0","33983287","wem/bandit_either_3","A1VW8Y7XCV3DRW","either","6","455","","","","","","","0","0","1","0.3749002533","","0.2","0.4","0.6","0.8","","","","","0.6148283845","0.3749002533","0.3434478979","0.8642538991","","","","","","","","74","J","1","","","69","main_expt",""
"","bandit","149","466667","0.0-110.0-0.0","33983287","wem/bandit_either_3","A1VW8Y7XCV3DRW","either","6","461","","","","","","","1","0","0","0.8073802352","","0.2","0.4","0.6","0.8","","","","","0.6683283761","0.4133869845","0.4426642051","0.8073802352","","","","","","","","76","L","3","","","70","main_expt",""
"","bandit","150","468779","0.0-111.0-0.0","33983287","wem/bandit_either_3","A1VW8Y7XCV3DRW","either","6","606","","","","","","","0","0","1","0.8059201048","","0.2","0.4","0.6","0.8","","","","","0.738459761","0.3302164541","0.4518046004","0.8059201048","","","","","","","","76","L","3","","","71","main_expt",""
"","bandit","151","471276","0.0-112.0-0.0","33983287","wem/bandit_either_3","A1VW8Y7XCV3DRW","either","6","991","","","","","","","0","0","1","0.8262275011","","0.2","0.4","0.6","0.8","","","","","0.6525166508","0.2570952275","0.4903223245","0.8262275011","","","","","","","","76","L","3","","","72","main_expt",""
"","bandit","152","474131","0.0-113.0-0.0","33983287","wem/bandit_either_3","A1VW8Y7XCV3DRW","either","6","1314","","","","","","","0","1","0","","0.7334390718","0.2","0.4","0.6","0.8","0.5715134512","0.2042885023","0.5296083002","0.7334390718","","","","","","","","","","","","76","L","3","","","73","main_expt",""
"","bandit","153","476886","0.0-114.0-0.0","33983287","wem/bandit_either_3","A1VW8Y7XCV3DRW","either","6","1248","","","","","","","1","0","0","0.7490977197","","0.2","0.4","0.6","0.8","","","","","0.6228045854","0.2152837516","0.4883026933","0.7490977197","","","","","","","","76","L","3","","","74","main_expt",""
"","bandit","154","479101","0.0-115.0-0.0","33983287","wem/bandit_either_3","A1VW8Y7XCV3DRW","either","6","708","","","","","","","1","0","0","0.7554087461","","0.2","0.4","0.6","0.8","","","","","0.613630376","0.2044775694","0.4914171484","0.7554087461","","","","","","","","76","L","3","","","75","main_expt",""
"","bandit","155","481017","0.0-116.0-0.0","33983287","wem/bandit_either_3","A1VW8Y7XCV3DRW","either","6","409","","","","","","","1","0","0","0.804443878","","0.2","0.4","0.6","0.8","","","","","0.7047266053","0.2247613499","0.6059218973","0.804443878","","","","","","","","76","L","3","","","76","main_expt",""
"","bandit","156","482811","0.0-117.0-0.0","33983287","wem/bandit_either_3","A1VW8Y7XCV3DRW","either","6","288","","","","","","","1","0","0","0.6656620098","","0.2","0.4","0.6","0.8","","","","","0.6910360943","0.2266335256","0.553792366","0.6656620098","","","","","","","","76","L","3","","","77","main_expt",""
"","bandit","157","484875","0.0-118.0-0.0","33983287","wem/bandit_either_3","A1VW8Y7XCV3DRW","either","6","555","","","","","","","0","0","1","0.5898140708","","0.2","0.4","0.6","0.8","","","","","0.5515992215","0.1659731505","0.6884193839","0.5898140708","","","","","","","","76","L","3","","","78","main_expt",""
"","bandit","158","486833","0.0-119.0-0.0","33983287","wem/bandit_either_3","A1VW8Y7XCV3DRW","either","6","452","","","","","","","1","0","0","0.613215191","","0.2","0.4","0.6","0.8","","","","","0.6448399581","0.2343921172","0.7214277645","0.613215191","","","","","","","","76","L","3","","","79","main_expt",""
"","bandit","159","489185","0.0-120.0-0.0","33983287","wem/bandit_either_3","A1VW8Y7XCV3DRW","either","6","844","","","","","","","0","0","1","","0.4605925783","0.2","0.4","0.6","0.8","0.739479497","0.2164054515","0.7328142644","0.4605925783","","","","","","","","","","","","76","L","3","","","80","main_expt",""
"","bandit","160","491451","0.0-121.0-0.0","33983287","wem/bandit_either_3","A1VW8Y7XCV3DRW","either","6","761","","","","","","","0","0","1","0.5390789087","","0.2","0.4","0.6","0.8","","","","","0.6956071838","0.1361232007","0.7101675561","0.5390789087","","","","","","","","76","L","3","","","81","main_expt",""
"","bandit","161","494161","0.0-122.0-0.0","33983287","wem/bandit_either_3","A1VW8Y7XCV3DRW","either","6","1204","","","","","","","0","0","1","0.621290364","","0.2","0.4","0.6","0.8","","","","","0.5886517937","0.2275447725","0.6984384541","0.621290364","","","","","","","","76","L","3","","","82","main_expt",""
"","bandit","162","496009","0.0-123.0-0.0","33983287","wem/bandit_either_3","A1VW8Y7XCV3DRW","either","6","342","","","","","","","0","1","0","","0.4764182235","0.2","0.4","0.6","0.8","0.4764182235","0.1900607051","0.7447883659","0.6359424421","","","","","","","","","","","","72","H","0","img/none_selected.jpg","","83","main_expt",""
"","bandit","163","497633","0.0-124.0-0.0","33983287","wem/bandit_either_3","A1VW8Y7XCV3DRW","either","6","117","","","","","","","0","0","1","","0.5149027494","0.2","0.4","0.6","0.8","0.5149027494","0.1306868958","0.6900592863","0.6133664729","","","","","","","","","","","","72","H","0","img/none_selected.jpg","","84","main_expt",""
"","bandit","164","499753","0.0-125.0-0.0","33983287","wem/bandit_either_3","A1VW8Y7XCV3DRW","either","6","610","","","","","","","0","1","0","","0.4908067213","0.2","0.4","0.6","0.8","0.4908067213","0.1683201849","0.7010597455","0.7815463305","","","","","","","","","","","","72","H","0","img/none_selected.jpg","","85","main_expt",""
"","bandit","165","501933","0.0-126.0-0.0","33983287","wem/bandit_either_3","A1VW8Y7XCV3DRW","either","6","669","","","","","","","0","1","0","","0.4139472458","0.2","0.4","0.6","0.8","0.4139472458","0.1290314955","0.6171062652","0.7355789231","","","","","","","","","","","","72","H","0","img/none_selected.jpg","","86","main_expt",""
"","bandit","166","504593","0.0-127.0-0.0","33983287","wem/bandit_either_3","A1VW8Y7XCV3DRW","either","6","1154","","","","","","","0","0","1","","0.4253818619","0.2","0.4","0.6","0.8","0.4253818619","0.2297537383","0.5629375242","0.7267399876","","","","","","","","","","","","72","H","0","img/none_selected.jpg","","87","main_expt",""
"","bandit","167","507080","0.0-128.0-0.0","33983287","wem/bandit_either_3","A1VW8Y7XCV3DRW","either","6","980","","","","","","","0","0","1","0.4448862761","","0.2","0.4","0.6","0.8","","","","","0.4448862761","0.1878263516","0.6434443074","0.7703195612","","","","","","","","72","H","0","img/none_selected.jpg","","88","main_expt",""
"","bandit","168","508976","0.0-129.0-0.0","33983287","wem/bandit_either_3","A1VW8Y7XCV3DRW","either","6","387","","","","","","","0","0","1","0.1896964823","","0.2","0.4","0.6","0.8","","","","","0.4295642349","0.1896964823","0.7296698787","0.81872988","","","","","","","","74","J","1","","","89","main_expt",""
"","bandit","169","511247","0.0-130.0-0.0","33983287","wem/bandit_either_3","A1VW8Y7XCV3DRW","either","6","760","","","","","","","0","0","1","","0.1614970172","0.2","0.4","0.6","0.8","0.3655203192","0.1614970172","0.7042864347","0.8032570632","","","","","","","","","","","","74","J","1","","","90","main_expt",""
"","bandit","170","513169","0.0-131.0-0.0","33983287","wem/bandit_either_3","A1VW8Y7XCV3DRW","either","6","416","","","","","","","0","1","0","","0.8257352781","0.2","0.4","0.6","0.8","0.402428746","0.2107705911","0.7606559624","0.8257352781","","","","","","","","","","","","76","L","3","","","91","main_expt",""
"","bandit","171","515237","0.0-132.0-0.0","33983287","wem/bandit_either_3","A1VW8Y7XCV3DRW","either","6","561","","","","","","","1","0","0","0.7762210657","","0.2","0.4","0.6","0.8","","","","","0.452733603","0.1317951273","0.8466818248","0.7762210657","","","","","","","","76","L","3","","","92","main_expt",""
"","bandit","172","517415","0.0-133.0-0.0","33983287","wem/bandit_either_3","A1VW8Y7XCV3DRW","either","6","671","","","","","","","1","0","0","0.8293629201","","0.2","0.4","0.6","0.8","","","","","0.5416456901","0.09268613222","0.8181600593","0.8293629201","","","","","","","","76","L","3","","","93","main_expt",""
"","bandit","173","520660","0.0-134.0-0.0","33983287","wem/bandit_either_3","A1VW8Y7XCV3DRW","either","6","1739","","","","","","","0","1","0","","0.7849393417","0.2","0.4","0.6","0.8","0.5246039132","0.06418168538","0.7259749053","0.7849393417","","","","","","","","","","","","76","L","3","","","94","main_expt",""
"","bandit","174","522872","0.0-135.0-0.0","33983287","wem/bandit_either_3","A1VW8Y7XCV3DRW","either","6","706","","","","","","","0","1","0","","0.7850226125","0.2","0.4","0.6","0.8","0.606801291","0.100072779","0.6538641892","0.7850226125","","","","","","","","","","","","76","L","3","","","95","main_expt",""
"","bandit","175","525024","0.0-136.0-0.0","33983287","wem/bandit_either_3","A1VW8Y7XCV3DRW","either","6","643","","","","","","","0","0","1","","0.8013150942","0.2","0.4","0.6","0.8","0.7175242067","0.09628221604","0.6384360591","0.8013150942","","","","","","","","","","","","76","L","3","","","96","main_expt",""
"","bandit","176","527216","0.0-137.0-0.0","33983287","wem/bandit_either_3","A1VW8Y7XCV3DRW","either","6","685","","","","","","","0","0","1","0.70340399","","0.2","0.4","0.6","0.8","","","","","0.7706560561","0.1335622201","0.6836118029","0.70340399","","","","","","","","76","L","3","","","97","main_expt",""
"","bandit","177","529896","0.0-138.0-0.0","33983287","wem/bandit_either_3","A1VW8Y7XCV3DRW","either","6","1173","","","","","","","0","1","0","","0.7562517051","0.2","0.4","0.6","0.8","0.7234704616","0.167202632","0.659457158","0.7562517051","","","","","","","","","","","","76","L","3","","","98","main_expt",""
"","bandit","178","532937","0.0-139.0-0.0","33983287","wem/bandit_either_3","A1VW8Y7XCV3DRW","either","6","1536","","","","","","","0","0","1","0.6514659141","","0.2","0.4","0.6","0.8","","","","","0.6582042781","0.1216125457","0.7726162223","0.6514659141","","","","","","","","76","L","3","","","99","main_expt",""
"","bandit","179","535133","0.0-140.0-0.0","33983287","wem/bandit_either_3","A1VW8Y7XCV3DRW","either","6","691","","","","","","","1","0","0","0.6530973887","","0.2","0.4","0.6","0.8","","","","","0.6530973887","0.1163239148","0.8446518706","0.7112237606","","","","","","","","72","H","0","img/none_selected.jpg","","100","main_expt",""
"","bandit","180","537166","0.0-141.0-0.0","33983287","wem/bandit_either_3","A1VW8Y7XCV3DRW","either","6","526","","","","","","","0","0","1","","0.6690961394","0.2","0.4","0.6","0.8","0.6690961394","0.1037928869","0.8784151442","0.6865981462","","","","","","","","","","","","72","H","0","img/none_selected.jpg","","101","main_expt",""
"","bandit","181","539210","0.0-142.0-0.0","33983287","wem/bandit_either_3","A1VW8Y7XCV3DRW","either","6","535","","","","","","","0","1","0","","0.6268844929","0.2","0.4","0.6","0.8","0.6268844929","0.0991068806","0.8781202538","0.6663704066","","","","","","","","","","","","72","H","0","img/none_selected.jpg","","102","main_expt",""
"","bandit","182","541659","0.0-143.0-0.0","33983287","wem/bandit_either_3","A1VW8Y7XCV3DRW","either","6","941","","","","","","","0","1","0","","0.6657789595","0.2","0.4","0.6","0.8","0.6657789595","0.1226752409","0.8123732176","0.6006744832","","","","","","","","","","","","72","H","0","img/none_selected.jpg","","103","main_expt",""
"","bandit","183","544332","0.0-144.0-0.0","33983287","wem/bandit_either_3","A1VW8Y7XCV3DRW","either","6","1162","","","","","","","0","1","0","","0.6951589836","0.2","0.4","0.6","0.8","0.6951589836","0.1552466415","0.8461937008","0.518723913","","","","","","","","","","","","72","H","0","img/none_selected.jpg","","104","main_expt",""
"","bandit","184","546536","0.0-145.0-0.0","33983287","wem/bandit_either_3","A1VW8Y7XCV3DRW","either","6","698","","","","","","","0","0","1","","0.6382729445","0.2","0.4","0.6","0.8","0.6382729445","0.1702138509","0.8664825842","0.5343999165","","","","","","","","","","","","72","H","0","img/none_selected.jpg","","105","main_expt",""
"","bandit","185","548966","0.0-146.0-0.0","33983287","wem/bandit_either_3","A1VW8Y7XCV3DRW","either","6","925","","","","","","","0","0","1","","0.7139624249","0.2","0.4","0.6","0.8","0.7139624249","0.2021425125","0.8703997655","0.4959998489","","","","","","","","","","","","72","H","0","img/none_selected.jpg","","106","main_expt",""
"","bandit","186","550908","0.0-147.0-0.0","33983287","wem/bandit_either_3","A1VW8Y7XCV3DRW","either","6","435","","","","","","","0","0","1","0.5052663648","","0.2","0.4","0.6","0.8","","","","","0.7718136471","0.2196373816","0.8964314806","0.5052663648","","","","","","","","76","L","3","","","107","main_expt",""
"","bandit","187","553157","0.0-148.0-0.0","33983287","wem/bandit_either_3","A1VW8Y7XCV3DRW","either","6","742","","","","","","","0","1","0","","0.9080126319","0.2","0.4","0.6","0.8","0.8818715302","0.2393661099","0.9080126319","0.4859582203","","","","","","","","","","","","75","K","2","","","108","main_expt",""
"","bandit","188","555484","0.0-149.0-0.0","33983287","wem/bandit_either_3","A1VW8Y7XCV3DRW","either","6","759","","","","","","","1","0","0","0.8880845243","","0.2","0.4","0.6","0.8","","","","","0.8757741924","0.2516352594","0.8880845243","0.523617738","","","","","","","","75","K","2","","","109","main_expt",""
"","bandit","189","559271","0.0-150.0-0.0","33983287","wem/bandit_either_3","A1VW8Y7XCV3DRW","either","6","2279","","","","","","","0","0","1","0.899251136","","0.2","0.4","0.6","0.8","","","","","0.8657151097","0.2424291788","0.899251136","0.5492010791","","","","","","","","75","K","2","","","110","main_expt",""
"","bandit","190","561424","0.0-151.0-0.0","33983287","wem/bandit_either_3","A1VW8Y7XCV3DRW","either","6","646","","","","","","","1","0","0","0.9019514556","","0.2","0.4","0.6","0.8","","","","","0.8457624762","0.2033086481","0.9019514556","0.5467154696","","","","","","","","75","K","2","","","111","main_expt",""
"","bandit","191","564131","0.0-152.0-0.0","33983287","wem/bandit_either_3","A1VW8Y7XCV3DRW","either","6","1201","","","","","","","0","1","0","","0.9315537639","0.2","0.4","0.6","0.8","0.8756116827","0.208613213","0.9315537639","0.5396215981","","","","","","","","","","","","75","K","2","","","112","main_expt",""
"","bandit","192","566026","0.0-153.0-0.0","33983287","wem/bandit_either_3","A1VW8Y7XCV3DRW","either","6","384","","","","","","","0","1","0","","0.9254394702","0.2","0.4","0.6","0.8","0.8773181328","0.2743958833","0.9254394702","0.5542875214","","","","","","","","","","","","75","K","2","","","113","main_expt",""
"","bandit","193","568135","0.0-154.0-0.0","33983287","wem/bandit_either_3","A1VW8Y7XCV3DRW","either","6","600","","","","","","","1","0","0","0.9394904604","","0.2","0.4","0.6","0.8","","","","","0.8842236373","0.2657329006","0.9394904604","0.6411428718","","","","","","","","75","K","2","","","114","main_expt",""
"","bandit","194","570456","0.0-155.0-0.0","33983287","wem/bandit_either_3","A1VW8Y7XCV3DRW","either","6","812","","","","","","","0","1","0","","0.9533355239","0.2","0.4","0.6","0.8","0.8499121835","0.3234316928","0.9533355239","0.7261400339","","","","","","","","","","","","75","K","2","","","115","main_expt",""
"","bandit","195","572356","0.0-156.0-0.0","33983287","wem/bandit_either_3","A1VW8Y7XCV3DRW","either","6","392","","","","","","","1","0","0","0.960842596","","0.2","0.4","0.6","0.8","","","","","0.7890056153","0.3625587123","0.960842596","0.7395407697","","","","","","","","75","K","2","","","116","main_expt",""
"","bandit","196","574796","0.0-157.0-0.0","33983287","wem/bandit_either_3","A1VW8Y7XCV3DRW","either","6","932","","","","","","","1","0","0","0.937733065","","0.2","0.4","0.6","0.8","","","","","0.7709890197","0.4946904956","0.937733065","0.8231731708","","","","","","","","75","K","2","","","117","main_expt",""
"","bandit","197","576799","0.0-158.0-0.0","33983287","wem/bandit_either_3","A1VW8Y7XCV3DRW","either","6","496","","","","","","","1","0","0","0.9561499645","","0.2","0.4","0.6","0.8","","","","","0.7459937787","0.6246330079","0.9561499645","0.8278750807","","","","","","","","75","K","2","","","118","main_expt",""
"","bandit","198","578828","0.0-159.0-0.0","33983287","wem/bandit_either_3","A1VW8Y7XCV3DRW","either","6","522","","","","","","","1","0","0","0.9595118281","","0.2","0.4","0.6","0.8","","","","","0.716881491","0.5818097722","0.9595118281","0.8715827524","","","","","","","","75","K","2","","","119","main_expt",""
"","bandit","199","580844","0.0-160.0-0.0","33983287","wem/bandit_either_3","A1VW8Y7XCV3DRW","either","6","508","","","","","","","1","0","0","0.9548463758","","0.2","0.4","0.6","0.8","","","","","0.6595649419","0.5990025551","0.9548463758","0.8522670476","","","","","","","","75","K","2","","","120","main_expt",""
"","bandit","200","583117","0.0-161.0-0.0","33983287","wem/bandit_either_3","A1VW8Y7XCV3DRW","either","6","765","","","","","","","1","0","0","0.958085665","","0.2","0.4","0.6","0.8","","","","","0.6576447048","0.6534424477","0.958085665","0.8266542562","","","","","","","","75","K","2","","","121","main_expt",""
"","bandit","201","584962","0.0-162.0-0.0","33983287","wem/bandit_either_3","A1VW8Y7XCV3DRW","either","6","337","","","","","","","0","1","0","","0.9630601427","0.2","0.4","0.6","0.8","0.6391957719","0.5952731017","0.9630601427","0.81688531","","","","","","","","","","","","75","K","2","","","122","main_expt",""
"","bandit","202","586786","0.0-163.0-0.0","33983287","wem/bandit_either_3","A1VW8Y7XCV3DRW","either","6","317","","","","","","","0","1","0","","0.9790283764","0.2","0.4","0.6","0.8","0.5873908865","0.6469086187","0.9790283764","0.8307363081","","","","","","","","","","","","75","K","2","","","123","main_expt",""
"","bandit","203","588780","0.0-164.0-0.0","33983287","wem/bandit_either_3","A1VW8Y7XCV3DRW","either","6","486","","","","","","","0","1","0","","0.9718765302","0.2","0.4","0.6","0.8","0.6592760984","0.6911454426","0.9718765302","0.6943824695","","","","","","","","","","","","75","K","2","","","124","main_expt",""
"","bandit","204","590751","0.0-165.0-0.0","33983287","wem/bandit_either_3","A1VW8Y7XCV3DRW","either","6","466","","","","","","","0","1","0","","0.9845173964","0.2","0.4","0.6","0.8","0.6012083746","0.750572215","0.9845173964","0.7137568944","","","","","","","","","","","","75","K","2","","","125","main_expt",""
"","bandit","205","593690","0.0-166.0-0.0","33983287","wem/bandit_either_3","A1VW8Y7XCV3DRW","either","6","1430","","","","","","","1","0","0","0.9804670004","","0.2","0.4","0.6","0.8","","","","","0.6043440275","0.8108432581","0.9804670004","0.6878742658","","","","","","","","75","K","2","","","126","main_expt",""
"","bandit","206","595822","0.0-167.0-0.0","33983287","wem/bandit_either_3","A1VW8Y7XCV3DRW","either","6","623","","","","","","","1","0","0","0.9792667249","","0.2","0.4","0.6","0.8","","","","","0.5043142332","0.8338196277","0.9792667249","0.6175454059","","","","","","","","75","K","2","","","127","main_expt",""
"","bandit","207","598725","0.0-168.0-0.0","33983287","wem/bandit_either_3","A1VW8Y7XCV3DRW","either","6","1396","","","","","","","1","0","0","0.9853815399","","0.2","0.4","0.6","0.8","","","","","0.5778209799","0.8624128669","0.9853815399","0.5556505876","","","","","","","","75","K","2","","","128","main_expt",""
"","bandit","208","602034","0.0-169.0-0.0","33983287","wem/bandit_either_3","A1VW8Y7XCV3DRW","either","6","1800","","","","","","","1","0","0","0.9838319732","","0.2","0.4","0.6","0.8","","","","","0.5806273004","0.9026068167","0.9838319732","0.5948532478","","","","","","","","75","K","2","","","129","main_expt",""
"","bandit","209","604301","0.0-170.0-0.0","33983287","wem/bandit_either_3","A1VW8Y7XCV3DRW","either","6","758","","","","","","","0","1","0","","0.9798768453","0.2","0.4","0.6","0.8","0.4152233618","0.8983636673","0.9798768453","0.6646968067","","","","","","","","","","","","75","K","2","","","130","main_expt",""
"","bandit","210","606376","0.0-171.0-0.0","33983287","wem/bandit_either_3","A1VW8Y7XCV3DRW","either","6","567","","","","","","","0","1","0","","0.9628017066","0.2","0.4","0.6","0.8","0.4527057242","0.888478962","0.9628017066","0.6676177377","","","","","","","","","","","","75","K","2","","","131","main_expt",""
"","bandit","211","608951","0.0-172.0-0.0","33983287","wem/bandit_either_3","A1VW8Y7XCV3DRW","either","6","1067","","","","","","","1","0","0","0.9723970119","","0.2","0.4","0.6","0.8","","","","","0.5185753891","0.8470567254","0.9723970119","0.7638630926","","","","","","","","75","K","2","","","132","main_expt",""
"","bandit","212","612102","0.0-173.0-0.0","33983287","wem/bandit_either_3","A1VW8Y7XCV3DRW","either","6","1644","","","","","","","1","0","0","0.9754432393","","0.2","0.4","0.6","0.8","","","","","0.4567386081","0.8852081265","0.9754432393","0.726350598","","","","","","","","75","K","2","","","133","main_expt",""
"","bandit","213","615848","0.0-174.0-0.0","33983287","wem/bandit_either_3","A1VW8Y7XCV3DRW","either","6","2235","","","","","","","1","0","0","0.9635376407","","0.2","0.4","0.6","0.8","","","","","0.4494056808","0.8317422298","0.9635376407","0.7638059904","","","","","","","","75","K","2","","","134","main_expt",""
"","bandit","214","620094","0.0-175.0-0.0","33983287","wem/bandit_either_3","A1VW8Y7XCV3DRW","either","6","2738","","","","","","","1","0","0","0.9304273523","","0.2","0.4","0.6","0.8","","","","","0.4608562393","0.8121858422","0.9304273523","0.7337835984","","","","","","","","75","K","2","","","135","main_expt",""
"","bandit","215","622158","0.0-176.0-0.0","33983287","wem/bandit_either_3","A1VW8Y7XCV3DRW","either","6","551","","","","","","","1","0","0","0.9295592062","","0.2","0.4","0.6","0.8","","","","","0.6684020244","0.8473276522","0.9295592062","0.7869055623","","","","","","","","75","K","2","","","136","main_expt",""
"","bandit","216","624306","0.0-177.0-0.0","33983287","wem/bandit_either_3","A1VW8Y7XCV3DRW","either","6","640","","","","","","","1","0","0","0.9343332129","","0.2","0.4","0.6","0.8","","","","","0.614137061","0.8251243182","0.9343332129","0.8033651193","","","","","","","","75","K","2","","","137","main_expt",""
"","bandit","217","626390","0.0-178.0-0.0","33983287","wem/bandit_either_3","A1VW8Y7XCV3DRW","either","6","572","","","","","","","1","0","0","0.9325781127","","0.2","0.4","0.6","0.8","","","","","0.711021659","0.7892590299","0.9325781127","0.7620089345","","","","","","","","75","K","2","","","138","main_expt",""
"","bandit","218","628690","0.0-179.0-0.0","33983287","wem/bandit_either_3","A1VW8Y7XCV3DRW","either","6","788","","","","","","","1","0","0","0.9687763229","","0.2","0.4","0.6","0.8","","","","","0.5731932267","0.753698647","0.9687763229","0.8098853196","","","","","","","","75","K","2","","","139","main_expt",""
"","bandit","219","630250","0.0-180.0-0.0","33983287","wem/bandit_either_3","A1VW8Y7XCV3DRW","either","6","53","","","","","","","0","1","0","","0.9520204639","0.2","0.4","0.6","0.8","0.6553783698","0.7281837229","0.9520204639","0.8737133651","","","","","","","","","","","","75","K","2","","","140","main_expt",""
"","bandit","220","632276","0.0-181.0-0.0","33983287","wem/bandit_either_3","A1VW8Y7XCV3DRW","either","6","518","","","","","","","1","0","0","0.9615613541","","0.2","0.4","0.6","0.8","","","","","0.5665224918","0.7913145473","0.9615613541","0.8464817719","","","","","","","","75","K","2","","","141","main_expt",""
"","bandit","221","634266","0.0-182.0-0.0","33983287","wem/bandit_either_3","A1VW8Y7XCV3DRW","either","6","484","","","","","","","1","0","0","0.9438722422","","0.2","0.4","0.6","0.8","","","","","0.5230460729","0.7498898283","0.9438722422","0.8457688645","","","","","","","","75","K","2","","","142","main_expt",""
"","bandit","222","637356","0.0-183.0-0.0","33983287","wem/bandit_either_3","A1VW8Y7XCV3DRW","either","6","1584","","","","","","","0","1","0","","0.9419241064","0.2","0.4","0.6","0.8","0.5401897842","0.723110339","0.9419241064","0.8801682128","","","","","","","","","","","","75","K","2","","","143","main_expt",""
"","bandit","223","640963","0.0-184.0-0.0","33983287","wem/bandit_either_3","A1VW8Y7XCV3DRW","either","6","2100","","","","","","","0","1","0","","0.9383966058","0.2","0.4","0.6","0.8","0.5495292383","0.7697142539","0.9383966058","0.7806105972","","","","","","","","","","","","75","K","2","","","144","main_expt",""
"","bandit","224","643639","0.0-185.0-0.0","33983287","wem/bandit_either_3","A1VW8Y7XCV3DRW","either","6","1168","","","","","","","1","0","0","0.9442204223","","0.2","0.4","0.6","0.8","","","","","0.4718854897","0.8279494337","0.9442204223","0.7384744451","","","","","","","","75","K","2","","","145","main_expt",""
"","bandit","225","647270","0.0-186.0-0.0","33983287","wem/bandit_either_3","A1VW8Y7XCV3DRW","either","6","2123","","","","","","","0","1","0","","0.9461270134","0.2","0.4","0.6","0.8","0.3790577705","0.747104877","0.9461270134","0.7078417075","","","","","","","","","","","","75","K","2","","","146","main_expt",""
"","bandit","226","650020","0.0-187.0-0.0","33983287","wem/bandit_either_3","A1VW8Y7XCV3DRW","either","6","1239","","","","","","","1","0","0","0.9677113618","","0.2","0.4","0.6","0.8","","","","","0.3671333747","0.7635883185","0.9677113618","0.7671729372","","","","","","","","75","K","2","","","147","main_expt",""
"","bandit","227","652073","0.0-188.0-0.0","33983287","wem/bandit_either_3","A1VW8Y7XCV3DRW","either","6","546","","","","","","","0","1","0","","0.9603287673","0.2","0.4","0.6","0.8","0.4462771912","0.6650729927","0.9603287673","0.7515071201","","","","","","","","","","","","75","K","2","","","148","main_expt",""
"","bandit","228","654466","0.0-189.0-0.0","33983287","wem/bandit_either_3","A1VW8Y7XCV3DRW","either","6","884","","","","","","","0","1","0","","0.9256305183","0.2","0.4","0.6","0.8","0.3929125452","0.594527628","0.9256305183","0.7582160768","","","","","","","","","","","","75","K","2","","","149","main_expt",""
"","bandit","229","657082","0.0-190.0-0.0","33983287","wem/bandit_either_3","A1VW8Y7XCV3DRW","either","6","1111","","","","","","","0","1","0","","0.9222609783","0.2","0.4","0.6","0.8","0.3825194633","0.5101412162","0.9222609783","0.6843302658","","","","","","","","","","","","75","K","2","","","150","main_expt",""
"","bandit","230","660347","0.0-191.0-0.0","33983287","wem/bandit_either_3","A1VW8Y7XCV3DRW","either","6","1757","","","","","","","0","1","0","","0.9522131909","0.2","0.4","0.6","0.8","0.3889652011","0.5755011036","0.9522131909","0.4980827124","","","","","","","","","","","","75","K","2","","","151","main_expt",""
"","bandit","231","662536","0.0-192.0-0.0","33983287","wem/bandit_either_3","A1VW8Y7XCV3DRW","either","6","682","","","","","","","0","1","0","","0.9351777179","0.2","0.4","0.6","0.8","0.372169082","0.5415628766","0.9351777179","0.5418861514","","","","","","","","","","","","75","K","2","","","152","main_expt",""
"","bandit","232","664862","0.0-193.0-0.0","33983287","wem/bandit_either_3","A1VW8Y7XCV3DRW","either","6","819","","","","","","","0","1","0","","0.9526549669","0.2","0.4","0.6","0.8","0.4275919172","0.6392888902","0.9526549669","0.6424708626","","","","","","","","","","","","75","K","2","","","153","main_expt",""
"","bandit","233","667333","0.0-194.0-0.0","33983287","wem/bandit_either_3","A1VW8Y7XCV3DRW","either","6","963","","","","","","","1","0","0","0.944677936","","0.2","0.4","0.6","0.8","","","","","0.3978897223","0.6798835142","0.944677936","0.6200403258","","","","","","","","75","K","2","","","154","main_expt",""
"","bandit","234","669427","0.0-195.0-0.0","33983287","wem/bandit_either_3","A1VW8Y7XCV3DRW","either","6","586","","","","","","","1","0","0","0.9443948233","","0.2","0.4","0.6","0.8","","","","","0.4922143253","0.7376683638","0.9443948233","0.5087788092","","","","","","","","75","K","2","","","155","main_expt",""
"","bandit","235","671982","0.0-196.0-0.0","33983287","wem/bandit_either_3","A1VW8Y7XCV3DRW","either","6","1047","","","","","","","1","0","0","0.9312029685","","0.2","0.4","0.6","0.8","","","","","0.5060601407","0.7740838489","0.9312029685","0.4397360723","","","","","","","","75","K","2","","","156","main_expt",""
"","bandit","236","674459","0.0-197.0-0.0","33983287","wem/bandit_either_3","A1VW8Y7XCV3DRW","either","6","971","","","","","","","1","0","0","0.9009413449","","0.2","0.4","0.6","0.8","","","","","0.56460533","0.7526352547","0.9009413449","0.4529934193","","","","","","","","75","K","2","","","157","main_expt",""
"","bandit","237","676685","0.0-198.0-0.0","33983287","wem/bandit_either_3","A1VW8Y7XCV3DRW","either","6","720","","","","","","","0","0","1","","0.8799225656","0.2","0.4","0.6","0.8","0.5551408743","0.807066173","0.8799225656","0.522014142","","","","","","","","","","","","75","K","2","","","158","main_expt",""
"","bandit","238","678659","0.0-199.0-0.0","33983287","wem/bandit_either_3","A1VW8Y7XCV3DRW","either","6","466","","","","","","","1","0","0","0.9103166083","","0.2","0.4","0.6","0.8","","","","","0.6362487126","0.8348587906","0.9103166083","0.447178695","","","","","","","","75","K","2","","","159","main_expt",""
"","bandit","239","680822","0.0-200.0-0.0","33983287","wem/bandit_either_3","A1VW8Y7XCV3DRW","either","6","657","","","","","","","1","0","0","0.9575168601","","0.2","0.4","0.6","0.8","","","","","0.5818198138","0.8054329593","0.9575168601","0.4293784973","","","","","","","","75","K","2","","","160","main_expt",""
"","bandit","240","683062","0.0-201.0-0.0","33983287","wem/bandit_either_3","A1VW8Y7XCV3DRW","either","6","731","","","","","","","0","1","0","","0.9323430526","0.2","0.4","0.6","0.8","0.5079421761","0.8263011938","0.9323430526","0.4263694152","","","","","","","","","","","","75","K","2","","","161","main_expt",""
"","bandit","241","685518","0.0-202.0-0.0","33983287","wem/bandit_either_3","A1VW8Y7XCV3DRW","either","6","947","","","","","","","1","0","0","0.8731035433","","0.2","0.4","0.6","0.8","","","","","0.3944353318","0.8468561623","0.8731035433","0.4394756583","","","","","","","","75","K","2","","","162","main_expt",""
"","bandit","242","687595","0.0-203.0-0.0","33983287","wem/bandit_either_3","A1VW8Y7XCV3DRW","either","6","560","","","","","","","0","1","0","","0.860239847","0.2","0.4","0.6","0.8","0.4560534757","0.866861138","0.860239847","0.4632532181","","","","","","","","","","","","75","K","2","","","163","main_expt",""
"","bandit","243","689670","0.0-204.0-0.0","33983287","wem/bandit_either_3","A1VW8Y7XCV3DRW","either","6","567","","","","","","","0","1","0","","0.8327160304","0.2","0.4","0.6","0.8","0.4338988853","0.8621839131","0.8327160304","0.469091439","","","","","","","","","","","","75","K","2","","","164","main_expt",""
"","bandit","244","691918","0.0-205.0-0.0","33983287","wem/bandit_either_3","A1VW8Y7XCV3DRW","either","6","737","","","","","","","1","0","0","0.8780399083","","0.2","0.4","0.6","0.8","","","","","0.3640020004","0.8368369455","0.8780399083","0.4691854483","","","","","","","","75","K","2","","","165","main_expt",""
"","bandit","245","694215","0.0-206.0-0.0","33983287","wem/bandit_either_3","A1VW8Y7XCV3DRW","either","6","791","","","","","","","0","1","0","","0.8659509199","0.2","0.4","0.6","0.8","0.4433911144","0.8543831227","0.8659509199","0.424594696","","","","","","","","","","","","75","K","2","","","166","main_expt",""
"","bandit","246","696314","0.0-207.0-0.0","33983287","wem/bandit_either_3","A1VW8Y7XCV3DRW","either","6","591","","","","","","","1","0","0","0.8458676595","","0.2","0.4","0.6","0.8","","","","","0.4852122499","0.8444257961","0.8458676595","0.4691217736","","","","","","","","75","K","2","","","167","main_expt",""
"","bandit","247","698575","0.0-208.0-0.0","33983287","wem/bandit_either_3","A1VW8Y7XCV3DRW","either","6","751","","","","","","","0","0","1","0.7368025647","","0.2","0.4","0.6","0.8","","","","","0.4829488348","0.8895061166","0.7368025647","0.4605946041","","","","","","","","75","K","2","","","168","main_expt",""
"","bandit","248","700680","0.0-209.0-0.0","33983287","wem/bandit_either_3","A1VW8Y7XCV3DRW","either","6","598","","","","","","","0","0","1","0.6811301937","","0.2","0.4","0.6","0.8","","","","","0.467087579","0.8980662015","0.6811301937","0.4302520818","","","","","","","","75","K","2","","","169","main_expt",""
"","bandit","249","702679","0.0-210.0-0.0","33983287","wem/bandit_either_3","A1VW8Y7XCV3DRW","either","6","492","","","","","","","1","0","0","0.6781719117","","0.2","0.4","0.6","0.8","","","","","0.3575164989","0.9399190154","0.6781719117","0.3846086554","","","","","","","","75","K","2","","","170","main_expt",""
"","bandit","250","705124","0.0-211.0-0.0","33983287","wem/bandit_either_3","A1VW8Y7XCV3DRW","either","6","937","","","","","","","0","0","1","0.5779776893","","0.2","0.4","0.6","0.8","","","","","0.3433755155","0.9199626721","0.5779776893","0.4938912128","","","","","","","","75","K","2","","","171","main_expt",""
"","bandit","251","707223","0.0-212.0-0.0","33983287","wem/bandit_either_3","A1VW8Y7XCV3DRW","either","6","592","","","","","","","0","0","1","0.5461867433","","0.2","0.4","0.6","0.8","","","","","0.2921203137","0.8885959212","0.5461867433","0.5409242696","","","","","","","","75","K","2","","","172","main_expt",""
"","bandit","252","709265","0.0-213.0-0.0","33983287","wem/bandit_either_3","A1VW8Y7XCV3DRW","either","6","533","","","","","","","0","0","1","0.4899310385","","0.2","0.4","0.6","0.8","","","","","0.3237382503","0.8502068985","0.5898781272","0.4899310385","","","","","","","","76","L","3","","","173","main_expt",""
"","bandit","253","711166","0.0-214.0-0.0","33983287","wem/bandit_either_3","A1VW8Y7XCV3DRW","either","6","395","","","","","","","0","0","1","0.4464532747","","0.2","0.4","0.6","0.8","","","","","0.2935635685","0.9054067092","0.5990225055","0.4464532747","","","","","","","","76","L","3","","","174","main_expt",""
"","bandit","254","712946","0.0-215.0-0.0","33983287","wem/bandit_either_3","A1VW8Y7XCV3DRW","either","6","271","","","","","","","1","0","0","0.9096893241","","0.2","0.4","0.6","0.8","","","","","0.2797951809","0.9096893241","0.6129624105","0.4363040476","","","","","","","","74","J","1","","","175","main_expt",""
"","bandit","255","714785","0.0-216.0-0.0","33983287","wem/bandit_either_3","A1VW8Y7XCV3DRW","either","6","331","","","","","","","0","1","0","","0.9081003197","0.2","0.4","0.6","0.8","0.2067270565","0.9081003197","0.5434192492","0.4198776974","","","","","","","","","","","","74","J","1","","","176","main_expt",""
"","bandit","256","716918","0.0-217.0-0.0","33983287","wem/bandit_either_3","A1VW8Y7XCV3DRW","either","6","625","","","","","","","0","1","0","","0.8417535431","0.2","0.4","0.6","0.8","0.19266164","0.8417535431","0.5893108522","0.4001478854","","","","","","","","","","","","74","J","1","","","177","main_expt",""
"","bandit","257","718880","0.0-218.0-0.0","33983287","wem/bandit_either_3","A1VW8Y7XCV3DRW","either","6","454","","","","","","","1","0","0","0.8045518304","","0.2","0.4","0.6","0.8","","","","","0.1393448617","0.8045518304","0.4862463398","0.3015477047","","","","","","","","74","J","1","","","178","main_expt",""
"","bandit","258","720736","0.0-219.0-0.0","33983287","wem/bandit_either_3","A1VW8Y7XCV3DRW","either","6","345","","","","","","","1","0","0","0.8250115846","","0.2","0.4","0.6","0.8","","","","","0.1149816072","0.8250115846","0.4227787996","0.2700131006","","","","","","","","74","J","1","","","179","main_expt",""
"","bandit","259","722657","0.0-220.0-0.0","33983287","wem/bandit_either_3","A1VW8Y7XCV3DRW","either","6","405","","","","","","","0","1","0","","0.7418096358","0.2","0.4","0.6","0.8","0.1231561222","0.7418096358","0.3583368423","0.3473069","","","","","","","","","","","","74","J","1","","","180","main_expt",""
"","bandit","260","724802","0.0-221.0-0.0","33983287","wem/bandit_either_3","A1VW8Y7XCV3DRW","either","6","630","","","","","","","0","1","0","","0.7180260456","0.2","0.4","0.6","0.8","0.1134989143","0.7180260456","0.3820052134","0.3478804011","","","","","","","","","","","","74","J","1","","","181","main_expt",""
"","bandit","261","727222","0.0-222.0-0.0","33983287","wem/bandit_either_3","A1VW8Y7XCV3DRW","either","6","909","","","","","","","0","1","0","","0.6777378447","0.2","0.4","0.6","0.8","0.07317944644","0.6777378447","0.437769555","0.3304981007","","","","","","","","","","","","74","J","1","","","182","main_expt",""
"","bandit","262","729250","0.0-223.0-0.0","33983287","wem/bandit_either_3","A1VW8Y7XCV3DRW","either","6","521","","","","","","","0","1","0","","0.6331465848","0.2","0.4","0.6","0.8","0.05085611098","0.6331465848","0.3951330089","0.2578466268","","","","","","","","","","","","74","J","1","","","183","main_expt",""
"","bandit","263","731661","0.0-224.0-0.0","33983287","wem/bandit_either_3","A1VW8Y7XCV3DRW","either","6","904","","","","","","","0","1","0","","0.6578519513","0.2","0.4","0.6","0.8","0.07152820202","0.6578519513","0.4062376343","0.3550464129","","","","","","","","","","","","74","J","1","","","184","main_expt",""
"","bandit","264","733656","0.0-225.0-0.0","33983287","wem/bandit_either_3","A1VW8Y7XCV3DRW","either","6","438","","","","","","","0","1","0","","0.7160298793","0.2","0.4","0.6","0.8","0.08814522307","0.7160298793","0.4035727276","0.2993299556","","","","","","","","","","","","74","J","1","","","185","main_expt",""
"","bandit","265","738029","0.0-226.0-0.0","33983287","wem/bandit_either_3","A1VW8Y7XCV3DRW","either","6","2865","","","","","","","0","1","0","","0.7081703269","0.2","0.4","0.6","0.8","0.0931487442","0.7081703269","0.4595565904","0.3985972224","","","","","","","","","","","","74","J","1","","","186","main_expt",""
"","bandit","266","740712","0.0-227.0-0.0","33983287","wem/bandit_either_3","A1VW8Y7XCV3DRW","either","6","1174","","","","","","","1","0","0","0.7670757258","","0.2","0.4","0.6","0.8","","","","","0.05847154344","0.7670757258","0.4956959756","0.4563810555","","","","","","","","74","J","1","","","187","main_expt",""
"","bandit","267","743054","0.0-228.0-0.0","33983287","wem/bandit_either_3","A1VW8Y7XCV3DRW","either","6","831","","","","","","","0","1","0","","0.7986884496","0.2","0.4","0.6","0.8","0.05005107021","0.7986884496","0.4295585103","0.4621092719","","","","","","","","","","","","74","J","1","","","188","main_expt",""
"","bandit","268","745501","0.0-229.0-0.0","33983287","wem/bandit_either_3","A1VW8Y7XCV3DRW","either","6","917","","","","","","","0","0","1","0.8113194514","","0.2","0.4","0.6","0.8","","","","","0.05158958255","0.8113194514","0.4121259827","0.4214675273","","","","","","","","74","J","1","","","189","main_expt",""
"","bandit","269","749476","0.0-230.0-0.0","33983287","wem/bandit_either_3","A1VW8Y7XCV3DRW","either","6","2467","","","","","","","0","0","1","","0.8311477635","0.2","0.4","0.6","0.8","0.0530996007","0.8311477635","0.40505342","0.4445162903","","","","","","","","","","","","74","J","1","","","190","main_expt",""
"","bandit","270","753516","0.0-231.0-0.0","33983287","wem/bandit_either_3","A1VW8Y7XCV3DRW","either","6","2532","","","","","","","0","1","0","","0.7941336253","0.2","0.4","0.6","0.8","0.05342003941","0.7941336253","0.3671493273","0.4077799102","","","","","","","","","","","","74","J","1","","","191","main_expt",""
"","bandit","271","756049","0.0-232.0-0.0","33983287","wem/bandit_either_3","A1VW8Y7XCV3DRW","either","6","1024","","","","","","","0","0","1","","0.841847859","0.2","0.4","0.6","0.8","0.05264216412","0.841847859","0.3367263454","0.413117206","","","","","","","","","","","","74","J","1","","","192","main_expt",""
"","bandit","272","759073","0.0-233.0-0.0","33983287","wem/bandit_either_3","A1VW8Y7XCV3DRW","either","6","1517","","","","","","","1","0","0","0.865127625","","0.2","0.4","0.6","0.8","","","","","0.07418965368","0.865127625","0.2587514209","0.374663265","","","","","","","","74","J","1","","","193","main_expt",""
"","bandit","273","762804","0.0-234.0-0.0","33983287","wem/bandit_either_3","A1VW8Y7XCV3DRW","either","6","2222","","","","","","","0","0","1","","0.8369883383","0.2","0.4","0.6","0.8","0.1148515542","0.8369883383","0.2123696513","0.2792309937","","","","","","","","","","","","74","J","1","","","194","main_expt",""
"","bandit","274","764937","0.0-235.0-0.0","33983287","wem/bandit_either_3","A1VW8Y7XCV3DRW","either","6","624","","","","","","","0","0","1","0.8226177272","","0.2","0.4","0.6","0.8","","","","","0.1102075851","0.8226177272","0.2551117677","0.3090424304","","","","","","","","74","J","1","","","195","main_expt",""
"","bandit","275","767298","0.0-236.0-0.0","33983287","wem/bandit_either_3","A1VW8Y7XCV3DRW","either","6","853","","","","","","","0","0","1","0.09307195637","","0.2","0.4","0.6","0.8","","","","","0.09307195637","0.8759919892","0.2948177706","0.2254203465","","","","","","","","72","H","0","img/none_selected.jpg","","196","main_expt",""
"","bandit","276","769356","0.0-237.0-0.0","33983287","wem/bandit_either_3","A1VW8Y7XCV3DRW","either","6","550","","","","","","","0","0","1","","0.08341332984","0.2","0.4","0.6","0.8","0.08341332984","0.9413038234","0.2864074111","0.2104085952","","","","","","","","","","","","72","H","0","img/none_selected.jpg","","197","main_expt",""
"","bandit","277","771274","0.0-238.0-0.0","33983287","wem/bandit_either_3","A1VW8Y7XCV3DRW","either","6","411","","","","","","","1","0","0","0.3044962429","","0.2","0.4","0.6","0.8","","","","","0.06206278739","0.9384937307","0.3044962429","0.1686499416","","","","","","","","75","K","2","","","198","main_expt",""
"","bandit","278","773200","0.0-239.0-0.0","33983287","wem/bandit_either_3","A1VW8Y7XCV3DRW","either","6","419","","","","","","","0","0","1","0.2804127106","","0.2","0.4","0.6","0.8","","","","","0.1015706687","0.927250614","0.2804127106","0.1696058054","","","","","","","","75","K","2","","","199","main_expt",""
"","bandit","279","776289","0.0-240.0-0.0","33983287","wem/bandit_either_3","A1VW8Y7XCV3DRW","either","6","1581","","","","","","","0","0","1","","0.3151112274","0.2","0.4","0.6","0.8","0.07348353789","0.8840406778","0.3151112274","0.1940139532","","","","","","","","","","","","75","K","2","","","200","main_expt",""
"","bandit","280","778383","0.0-241.0-0.0","33983287","wem/bandit_either_3","A1VW8Y7XCV3DRW","either","6","584","","","","","","","0","1","0","","0.8866639954","0.2","0.4","0.6","0.8","0.09218994405","0.8866639954","0.3124471347","0.2384341862","","","","","","","","","","","","74","J","1","","","201","main_expt",""
"","bandit","281","780273","0.0-242.0-0.0","33983287","wem/bandit_either_3","A1VW8Y7XCV3DRW","either","6","380","","","","","","","0","0","1","","0.8188103646","0.2","0.4","0.6","0.8","0.1662378481","0.8188103646","0.3418115628","0.2069173963","","","","","","","","","","","","74","J","1","","","202","main_expt",""
"","bandit","282","782279","0.0-243.0-0.0","33983287","wem/bandit_either_3","A1VW8Y7XCV3DRW","either","6","499","","","","","","","0","1","0","","0.8026106274","0.2","0.4","0.6","0.8","0.1808123801","0.8026106274","0.2676578736","0.2502389624","","","","","","","","","","","","74","J","1","","","203","main_expt",""
"","bandit","283","784232","0.0-244.0-0.0","33983287","wem/bandit_either_3","A1VW8Y7XCV3DRW","either","6","441","","","","","","","1","0","0","0.6613987003","","0.2","0.4","0.6","0.8","","","","","0.2011980288","0.6613987003","0.2513587973","0.2226806","","","","","","","","74","J","1","","","204","main_expt",""
"","bandit","284","787755","0.0-245.0-0.0","33983287","wem/bandit_either_3","A1VW8Y7XCV3DRW","either","6","2009","","","","","","","0","1","0","","0.7402115251","0.2","0.4","0.6","0.8","0.1877492959","0.7402115251","0.2733703365","0.2327973494","","","","","","","","","","","","74","J","1","","","205","main_expt",""
"","bandit","285","790251","0.0-246.0-0.0","33983287","wem/bandit_either_3","A1VW8Y7XCV3DRW","either","6","987","","","","","","","1","0","0","0.6792505986","","0.2","0.4","0.6","0.8","","","","","0.1891298069","0.6792505986","0.3212331514","0.3134624789","","","","","","","","74","J","1","","","206","main_expt",""
"","bandit","286","795071","0.0-247.0-0.0","33983287","wem/bandit_either_3","A1VW8Y7XCV3DRW","either","6","3312","","","","","","","1","0","0","0.6510378203","","0.2","0.4","0.6","0.8","","","","","0.2092890992","0.6510378203","0.3381772831","0.3808856429","","","","","","","","74","J","1","","","207","main_expt",""
"","bandit","287","797701","0.0-248.0-0.0","33983287","wem/bandit_either_3","A1VW8Y7XCV3DRW","either","6","1120","","","","","","","0","0","1","","0.5971377862","0.2","0.4","0.6","0.8","0.2563161799","0.5971377862","0.2370260631","0.318509643","","","","","","","","","","","","74","J","1","","","208","main_expt",""
"","bandit","288","799697","0.0-249.0-0.0","33983287","wem/bandit_either_3","A1VW8Y7XCV3DRW","either","6","484","","","","","","","0","0","1","","0.6040603887","0.2","0.4","0.6","0.8","0.2643940457","0.6040603887","0.2157004535","0.2932847295","","","","","","","","","","","","74","J","1","","","209","main_expt",""
"","bandit","289","801595","0.0-250.0-0.0","33983287","wem/bandit_either_3","A1VW8Y7XCV3DRW","either","6","383","","","","","","","0","0","1","0.2655169153","","0.2","0.4","0.6","0.8","","","","","0.2710870001","0.7794442159","0.2655169153","0.2230023122","","","","","","","","75","K","2","","","210","main_expt",""
"","bandit","290","803881","0.0-251.0-0.0","33983287","wem/bandit_either_3","A1VW8Y7XCV3DRW","either","6","776","","","","","","","0","0","1","0.1899351836","","0.2","0.4","0.6","0.8","","","","","0.2056380183","0.8397026392","0.2359505063","0.1899351836","","","","","","","","76","L","3","","","211","main_expt",""
"","bandit","291","805703","0.0-252.0-0.0","33983287","wem/bandit_either_3","A1VW8Y7XCV3DRW","either","6","311","","","","","","","0","0","1","0.2593929449","","0.2","0.4","0.6","0.8","","","","","0.2487045614","0.7883870126","0.2431981852","0.2593929449","","","","","","","","76","L","3","","","212","main_expt",""
"","bandit","292","809421","0.0-253.0-0.0","33983287","wem/bandit_either_3","A1VW8Y7XCV3DRW","either","6","2209","","","","","","","0","0","1","","0.3520378668","0.2","0.4","0.6","0.8","0.3520378668","0.7160446845","0.3385658967","0.2304425673","","","","","","","","","","","","72","H","0","img/none_selected.jpg","","213","main_expt",""
"","bandit","293","811347","0.0-254.0-0.0","33983287","wem/bandit_either_3","A1VW8Y7XCV3DRW","either","6","417","","","","","","","0","1","0","","0.3455661114","0.2","0.4","0.6","0.8","0.3455661114","0.7501162241","0.445002088","0.2849244028","","","","","","","","","","","","72","H","0","img/none_selected.jpg","","214","main_expt",""
"","bandit","294","814069","0.0-255.0-0.0","33983287","wem/bandit_either_3","A1VW8Y7XCV3DRW","either","6","1214","","","","","","","0","0","1","","0.3290646698","0.2","0.4","0.6","0.8","0.3290646698","0.7574589115","0.4340580748","0.3184819088","","","","","","","","","","","","72","H","0","img/none_selected.jpg","","215","main_expt",""
"","bandit","295","816563","0.0-256.0-0.0","33983287","wem/bandit_either_3","A1VW8Y7XCV3DRW","either","6","979","","","","","","","0","1","0","","0.2737258078","0.2","0.4","0.6","0.8","0.2737258078","0.7376674805","0.3996931216","0.2989728513","","","","","","","","","","","","72","H","0","img/none_selected.jpg","","216","main_expt",""
"","bandit","296","818524","0.0-257.0-0.0","33983287","wem/bandit_either_3","A1VW8Y7XCV3DRW","either","6","454","","","","","","","0","0","1","","0.2401291484","0.2","0.4","0.6","0.8","0.2401291484","0.67262171","0.453570069","0.5538830624","","","","","","","","","","","","72","H","0","img/none_selected.jpg","","217","main_expt",""
"","bandit","297","820472","0.0-258.0-0.0","33983287","wem/bandit_either_3","A1VW8Y7XCV3DRW","either","6","441","","","","","","","0","0","1","","0.2395298113","0.2","0.4","0.6","0.8","0.2395298113","0.6309662891","0.3566620654","0.5331458927","","","","","","","","","","","","72","H","0","img/none_selected.jpg","","218","main_expt",""
"","bandit","298","822451","0.0-259.0-0.0","33983287","wem/bandit_either_3","A1VW8Y7XCV3DRW","either","6","471","","","","","","","0","0","1","","0.2333127667","0.2","0.4","0.6","0.8","0.2333127667","0.610488243","0.3114207129","0.409279481","","","","","","","","","","","","72","H","0","img/none_selected.jpg","","219","main_expt",""
"","bandit","299","824598","0.0-260.0-0.0","33983287","wem/bandit_either_3","A1VW8Y7XCV3DRW","either","6","621","","","","","","","0","0","1","","0.348491043","0.2","0.4","0.6","0.8","0.2097963002","0.6741838821","0.348491043","0.3910907299","","","","","","","","","","","","75","K","2","","","220","main_expt",""
"","bandit","300","826357","0.0-261.0-0.0","33983287","wem/bandit_either_3","A1VW8Y7XCV3DRW","either","6","251","","","","","","","0","1","0","","0.6938787555","0.2","0.4","0.6","0.8","0.1761429423","0.6938787555","0.325682353","0.37386253","","","","","","","","","","","","74","J","1","","","221","main_expt",""
"","bandit","301","828249","0.0-262.0-0.0","33983287","wem/bandit_either_3","A1VW8Y7XCV3DRW","either","6","384","","","","","","","0","1","0","","0.622086605","0.2","0.4","0.6","0.8","0.1770547834","0.622086605","0.3582518194","0.5460784034","","","","","","","","","","","","74","J","1","","","222","main_expt",""
"","bandit","302","830493","0.0-263.0-0.0","33983287","wem/bandit_either_3","A1VW8Y7XCV3DRW","either","6","734","","","","","","","0","0","1","0.6190419158","","0.2","0.4","0.6","0.8","","","","","0.1494166006","0.6190419158","0.3596631187","0.5484594206","","","","","","","","74","J","1","","","223","main_expt",""
"","bandit","303","832737","0.0-264.0-0.0","33983287","wem/bandit_either_3","A1VW8Y7XCV3DRW","either","6","733","","","","","","","0","1","0","","0.6525227655","0.2","0.4","0.6","0.8","0.1444184755","0.6525227655","0.4757784632","0.5156266917","","","","","","","","","","","","74","J","1","","","224","main_expt",""
"","bandit","304","837694","0.0-265.0-0.0","33983287","wem/bandit_either_3","A1VW8Y7XCV3DRW","either","6","3449","","","","","","","1","0","0","0.5739960468","","0.2","0.4","0.6","0.8","","","","","0.2381889698","0.5739960468","0.5384710229","0.5120039273","","","","","","","","74","J","1","","","225","main_expt",""
"","bandit","305","839648","0.0-266.0-0.0","33983287","wem/bandit_either_3","A1VW8Y7XCV3DRW","either","6","445","","","","","","","0","1","0","","0.6038380469","0.2","0.4","0.6","0.8","0.1429230379","0.6038380469","0.5308581489","0.5568413113","","","","","","","","","","","","74","J","1","","","226","main_expt",""
"","bandit","306","842090","0.0-267.0-0.0","33983287","wem/bandit_either_3","A1VW8Y7XCV3DRW","either","6","926","","","","","","","0","0","1","","0.5203417309","0.2","0.4","0.6","0.8","0.124100867","0.5203417309","0.488482713","0.5277183188","","","","","","","","","","","","74","J","1","","","227","main_expt",""
"","bandit","307","844642","0.0-268.0-0.0","33983287","wem/bandit_either_3","A1VW8Y7XCV3DRW","either","6","1040","","","","","","","0","0","1","","0.4263922038","0.2","0.4","0.6","0.8","0.1762219884","0.4263922038","0.4406219513","0.5041270258","","","","","","","","","","","","74","J","1","","","228","main_expt",""
"","bandit","308","846645","0.0-269.0-0.0","33983287","wem/bandit_either_3","A1VW8Y7XCV3DRW","either","6","489","","","","","","","0","0","1","0.3475105047","","0.2","0.4","0.6","0.8","","","","","0.1910325121","0.3475105047","0.4892119921","0.4541369304","","","","","","","","74","J","1","","","229","main_expt",""
"","bandit","309","848399","0.0-270.0-0.0","33983287","wem/bandit_either_3","A1VW8Y7XCV3DRW","either","6","245","","","","","","","0","0","1","0.5129573662","","0.2","0.4","0.6","0.8","","","","","0.2571549068","0.3353007417","0.5129573662","0.4504381994","","","","","","","","75","K","2","","","230","main_expt",""
"","bandit","310","850747","0.0-271.0-0.0","33983287","wem/bandit_either_3","A1VW8Y7XCV3DRW","either","6","840","","","","","","","0","1","0","","0.4698668598","0.2","0.4","0.6","0.8","0.1781345747","0.2870546929","0.4382888871","0.4698668598","","","","","","","","","","","","76","L","3","","","231","main_expt",""
"","bandit","311","852997","0.0-272.0-0.0","33983287","wem/bandit_either_3","A1VW8Y7XCV3DRW","either","6","741","","","","","","","1","0","0","0.5460008395","","0.2","0.4","0.6","0.8","","","","","0.1748933913","0.3092655517","0.42174841","0.5460008395","","","","","","","","76","L","3","","","232","main_expt",""
"","bandit","312","855487","0.0-273.0-0.0","33983287","wem/bandit_either_3","A1VW8Y7XCV3DRW","either","6","982","","","","","","","1","0","0","0.5345299581","","0.2","0.4","0.6","0.8","","","","","0.2196371411","0.4231157335","0.4297142637","0.5345299581","","","","","","","","76","L","3","","","233","main_expt",""
"","bandit","313","857766","0.0-274.0-0.0","33983287","wem/bandit_either_3","A1VW8Y7XCV3DRW","either","6","772","","","","","","","0","0","1","","0.508060833","0.2","0.4","0.6","0.8","0.2052749597","0.5525929145","0.3016140143","0.508060833","","","","","","","","","","","","76","L","3","","","234","main_expt",""
"","bandit","314","860097","0.0-275.0-0.0","33983287","wem/bandit_either_3","A1VW8Y7XCV3DRW","either","6","823","","","","","","","0","0","1","0.4956589368","","0.2","0.4","0.6","0.8","","","","","0.3158924645","0.7239072418","0.2735586703","0.4956589368","","","","","","","","76","L","3","","","235","main_expt",""
"","bandit","315","862561","0.0-276.0-0.0","33983287","wem/bandit_either_3","A1VW8Y7XCV3DRW","either","6","955","","","","","","","1","0","0","0.5514737959","","0.2","0.4","0.6","0.8","","","","","0.3668106878","0.8076920848","0.2536827631","0.5514737959","","","","","","","","76","L","3","","","236","main_expt",""
"","bandit","316","864485","0.0-277.0-0.0","33983287","wem/bandit_either_3","A1VW8Y7XCV3DRW","either","6","415","","","","","","","0","0","1","","0.5183580196","0.2","0.4","0.6","0.8","0.3866395083","0.7703095863","0.2478783488","0.5183580196","","","","","","","","","","","","76","L","3","","","237","main_expt",""
"","bandit","317","866513","0.0-278.0-0.0","33983287","wem/bandit_either_3","A1VW8Y7XCV3DRW","either","6","521","","","","","","","0","0","1","0.4108821033","","0.2","0.4","0.6","0.8","","","","","0.4108821033","0.6485929649","0.1688186905","0.5320509842","","","","","","","","72","H","0","img/none_selected.jpg","","238","main_expt",""
"","bandit","318","868486","0.0-279.0-0.0","33983287","wem/bandit_either_3","A1VW8Y7XCV3DRW","either","6","463","","","","","","","0","1","0","","0.4384900471","0.2","0.4","0.6","0.8","0.4384900471","0.7028133827","0.1232648298","0.46832295","","","","","","","","","","","","72","H","0","img/none_selected.jpg","","239","main_expt",""
"","bandit","319","870889","0.0-280.0-0.0","33983287","wem/bandit_either_3","A1VW8Y7XCV3DRW","either","6","895","","","","","","","0","0","1","","0.4246438665","0.2","0.4","0.6","0.8","0.4246438665","0.6620055833","0.1720424997","0.5024711131","","","","","","","","","","","","72","H","0","img/none_selected.jpg","","240","main_expt",""
"","bandit","320","872822","0.0-281.0-0.0","33983287","wem/bandit_either_3","A1VW8Y7XCV3DRW","either","6","424","","","","","","","0","1","0","","0.3783755671","0.2","0.4","0.6","0.8","0.3783755671","0.6925250702","0.1045812876","0.6092933485","","","","","","","","","","","","72","H","0","img/none_selected.jpg","","241","main_expt",""
"","bandit","321","875276","0.0-282.0-0.0","33983287","wem/bandit_either_3","A1VW8Y7XCV3DRW","either","6","946","","","","","","","0","0","1","","0.3619864671","0.2","0.4","0.6","0.8","0.3619864671","0.7076428944","0.08136382084","0.5812412386","","","","","","","","","","","","72","H","0","img/none_selected.jpg","","242","main_expt",""
"","bandit","322","877249","0.0-283.0-0.0","33983287","wem/bandit_either_3","A1VW8Y7XCV3DRW","either","6","463","","","","","","","1","0","0","0.4143237557","","0.2","0.4","0.6","0.8","","","","","0.4143237557","0.6671697692","0.08711917736","0.5582769518","","","","","","","","72","H","0","img/none_selected.jpg","","243","main_expt",""
"","bandit","323","879230","0.0-284.0-0.0","33983287","wem/bandit_either_3","A1VW8Y7XCV3DRW","either","6","472","","","","","","","0","1","0","","0.3883911391","0.2","0.4","0.6","0.8","0.3883911391","0.6829807443","0.07033008343","0.5728611736","","","","","","","","","","","","72","H","0","img/none_selected.jpg","","244","main_expt",""
"","bandit","324","881458","0.0-285.0-0.0","33983287","wem/bandit_either_3","A1VW8Y7XCV3DRW","either","6","718","","","","","","","0","0","1","0.3724790504","","0.2","0.4","0.6","0.8","","","","","0.3724790504","0.6068076256","0.04273118291","0.4821733131","","","","","","","","72","H","0","img/none_selected.jpg","","245","main_expt",""
