"consent","trial_type","trial_index","time_elapsed","internal_node_id","subjID","study","MID","cond","drift","rt","responses","key_press","expt_phase","like","value","connected","gems","bombs","no_reward","GemPrChosen","BombPrChosen","GainOverPainPr_0","GainOverPainPr_1","GainOverPainPr_2","GainOverPainPr_3","LosePr_0","LosePr_1","LosePr_2","LosePr_3","WinPr_0","WinPr_1","WinPr_2","WinPr_3","Q0","Q1","Q2","gender","age","ethnicity","target","respCharCode","respKey","respChoiceNum","respChoice","practice","trial_counter","trial_label","button_pressed"
"INL_behavioral_consent_30min_online.html","consent","0","8271","0.0-0.0","34543444","wem/bandit_either_3","A3D2U4QF7821ZW","either","8","","","","","","","","","","","","","","","","","","","","","","","","","","","","","","","","","","","","","","",""
"","survey-text","1","17939","0.0-1.0","34543444","wem/bandit_either_3","A3D2U4QF7821ZW","either","8","8664","{""Q0"":""A3D2U4QF7821ZW""}","","","","","","","","","","","","","","","","","","","","","","","","","","","","","","","","","","","","",""
"","text","2","82839","0.0-2.0","34543444","wem/bandit_either_3","A3D2U4QF7821ZW","either","8","63899","","32","","","","","","","","","","","","","","","","","","","","","","","","","","","","","","","","","","","",""
"","text","3","86878","0.0-3.0","34543444","wem/bandit_either_3","A3D2U4QF7821ZW","either","8","4037","","32","","","","","","","","","","","","","","","","","","","","","","","","","","","","","","","","","","","",""
"","text","4","129347","0.0-4.0","34543444","wem/bandit_either_3","A3D2U4QF7821ZW","either","8","42468","","32","","","","","","","","","","","","","","","","","","","","","","","","","","","","","","","","","","","",""
"","text","5","214585","0.0-5.0","34543444","wem/bandit_either_3","A3D2U4QF7821ZW","either","8","85238","","32","","","","","","","","","","","","","","","","","","","","","","","","","","","","","","","","","","","",""
"","text","6","241026","0.0-6.0","34543444","wem/bandit_either_3","A3D2U4QF7821ZW","either","8","26439","","32","","","","","","","","","","","","","","","","","","","","","","","","","","","","","","","","","","","",""
"","text","7","251425","0.0-7.0","34543444","wem/bandit_either_3","A3D2U4QF7821ZW","either","8","10399","","32","","","","","","","","","","","","","","","","","","","","","","","","","","","","","","","","","","","",""
"","text","8","256732","0.0-8.0","34543444","wem/bandit_either_3","A3D2U4QF7821ZW","either","8","5306","","32","","","","","","","","","","","","","","","","","","","","","","","","","","","","","","","","","","","",""
"","identification","9","267805","0.0-9.0-0.0","34543444","wem/bandit_either_3","A3D2U4QF7821ZW","either","8","11066","","","","3","3","2","","","","","","","","","","","","","","","","","","","","","","","","the village of Zur","","","","","","","",""
"","identification","10","271690","0.0-9.0-1.0","34543444","wem/bandit_either_3","A3D2U4QF7821ZW","either","8","2878","","","","3","3","2","","","","","","","","","","","","","","","","","","","","","","","","the village of Nyx","","","","","","","",""
"","text","11","277419","0.0-10.0","34543444","wem/bandit_either_3","A3D2U4QF7821ZW","either","8","4726","","32","","","","","","","","","","","","","","","","","","","","","","","","","","","","","","","","","","","",""
"","text","12","280413","0.0-11.0","34543444","wem/bandit_either_3","A3D2U4QF7821ZW","either","8","2994","","32","","","","","","","","","","","","","","","","","","","","","","","","","","","","","","","","","","","",""
"","text","13","282334","0.0-12.0","34543444","wem/bandit_either_3","A3D2U4QF7821ZW","either","8","1920","","32","","","","","","","","","","","","","","","","","","","","","","","","","","","","","","","","","","","",""
"","text","14","286558","0.0-13.0","34543444","wem/bandit_either_3","A3D2U4QF7821ZW","either","8","4224","","32","","","","","","","","","","","","","","","","","","","","","","","","","","","","","","","","","","","",""
"","bandit","15","292309","0.0-14.0-0.0","34543444","wem/bandit_either_3","A3D2U4QF7821ZW","either","8","4245","","","","","","","0","0","1","0","0","","","","","0","","","","0","","","","","","","","","","","74","J","0","img/none_selected_demo.jpg","true","0","",""
"","bandit","16","296099","0.0-15.0-0.0","34543444","wem/bandit_either_3","A3D2U4QF7821ZW","either","8","2287","","","","","","","0","0","1","0","0","","","","","0","","","","0","","","","","","","","","","","75","K","0","img/none_selected_demo.jpg","true","0","",""
"","text","17","320974","0.0-16.0","34543444","wem/bandit_either_3","A3D2U4QF7821ZW","either","8","24873","","32","","","","","","","","","","","","","","","","","","","","","","","","","","","","","","","","","","","",""
"","text","18","367318","0.0-17.0","34543444","wem/bandit_either_3","A3D2U4QF7821ZW","either","8","46343","","32","","","","","","","","","","","","","","","","","","","","","","","","","","","","","","","","","","","",""
"","text","19","374350","0.0-18.0","34543444","wem/bandit_either_3","A3D2U4QF7821ZW","either","8","7031","","32","","","","","","","","","","","","","","","","","","","","","","","","","","","","","","","","","","","",""
"","text","20","377539","0.0-19.0","34543444","wem/bandit_either_3","A3D2U4QF7821ZW","either","8","3188","","32","","","","","","","","","","","","","","","","","","","","","","","","","","","","","","","","","","","",""
"","bandit","21","381204","0.0-20.0-0.0","34543444","wem/bandit_either_3","A3D2U4QF7821ZW","either","8","2154","","","","","","","1","0","0","0.8","","0.5","0.5","","","","","","","0.8","0.2","","","","","","","","","","74","J","0","img/none_selected_demo.jpg","true","0","80_20_practice",""
"","bandit","22","383312","0.0-20.0-1.0","34543444","wem/bandit_either_3","A3D2U4QF7821ZW","either","8","601","","","","","","","0","0","1","","0.2","0.5","0.5","","","0.8","0.2","","","","","","","","","","","","","","75","K","1","","true","0","80_20_practice",""
"","bandit","23","385198","0.0-20.0-2.0","34543444","wem/bandit_either_3","A3D2U4QF7821ZW","either","8","380","","","","","","","1","0","0","0.8","","0.5","0.5","","","","","","","0.8","0.2","","","","","","","","","","74","J","0","img/none_selected_demo.jpg","true","0","80_20_practice",""
"","bandit","24","387003","0.0-20.0-3.0","34543444","wem/bandit_either_3","A3D2U4QF7821ZW","either","8","302","","","","","","","1","0","0","0.8","","0.5","0.5","","","","","","","0.8","0.2","","","","","","","","","","74","J","0","img/none_selected_demo.jpg","true","0","80_20_practice",""
"","bandit","25","388837","0.0-20.0-4.0","34543444","wem/bandit_either_3","A3D2U4QF7821ZW","either","8","329","","","","","","","0","0","1","0.8","","0.5","0.5","","","","","","","0.8","0.2","","","","","","","","","","74","J","0","img/none_selected_demo.jpg","true","0","80_20_practice",""
"","bandit","26","390665","0.0-20.0-5.0","34543444","wem/bandit_either_3","A3D2U4QF7821ZW","either","8","316","","","","","","","0","1","0","","0.8","0.5","0.5","","","0.8","0.2","","","","","","","","","","","","","","74","J","0","img/none_selected_demo.jpg","true","0","80_20_practice",""
"","bandit","27","392577","0.0-20.0-6.0","34543444","wem/bandit_either_3","A3D2U4QF7821ZW","either","8","386","","","","","","","1","0","0","0.8","","0.5","0.5","","","","","","","0.8","0.2","","","","","","","","","","74","J","0","img/none_selected_demo.jpg","true","0","80_20_practice",""
"","bandit","28","394423","0.0-20.0-7.0","34543444","wem/bandit_either_3","A3D2U4QF7821ZW","either","8","332","","","","","","","0","1","0","","0.8","0.5","0.5","","","0.8","0.2","","","","","","","","","","","","","","74","J","0","img/none_selected_demo.jpg","true","0","80_20_practice",""
"","bandit","29","396331","0.0-20.0-8.0","34543444","wem/bandit_either_3","A3D2U4QF7821ZW","either","8","405","","","","","","","0","0","1","0.8","","0.5","0.5","","","","","","","0.8","0.2","","","","","","","","","","74","J","0","img/none_selected_demo.jpg","true","0","80_20_practice",""
"","bandit","30","398212","0.0-20.0-9.0","34543444","wem/bandit_either_3","A3D2U4QF7821ZW","either","8","377","","","","","","","0","1","0","","0.2","0.5","0.5","","","0.8","0.2","","","","","","","","","","","","","","75","K","1","","true","0","80_20_practice",""
"","bandit","31","400041","0.0-20.0-10.0","34543444","wem/bandit_either_3","A3D2U4QF7821ZW","either","8","312","","","","","","","0","0","1","0.2","","0.5","0.5","","","","","","","0.8","0.2","","","","","","","","","","75","K","1","","true","0","80_20_practice",""
"","bandit","32","401854","0.0-20.0-11.0","34543444","wem/bandit_either_3","A3D2U4QF7821ZW","either","8","304","","","","","","","0","0","1","","0.8","0.5","0.5","","","0.8","0.2","","","","","","","","","","","","","","74","J","0","img/none_selected_demo.jpg","true","0","80_20_practice",""
"","bandit","33","403789","0.0-20.0-12.0","34543444","wem/bandit_either_3","A3D2U4QF7821ZW","either","8","430","","","","","","","0","0","1","","0.8","0.5","0.5","","","0.8","0.2","","","","","","","","","","","","","","74","J","0","img/none_selected_demo.jpg","true","0","80_20_practice",""
"","bandit","34","405623","0.0-20.0-13.0","34543444","wem/bandit_either_3","A3D2U4QF7821ZW","either","8","328","","","","","","","0","0","1","","0.2","0.5","0.5","","","0.8","0.2","","","","","","","","","","","","","","75","K","1","","true","0","80_20_practice",""
"","bandit","35","407399","0.0-20.0-14.0","34543444","wem/bandit_either_3","A3D2U4QF7821ZW","either","8","269","","","","","","","0","0","1","","0.2","0.5","0.5","","","0.8","0.2","","","","","","","","","","","","","","75","K","1","","true","0","80_20_practice",""
"","bandit","36","408981","0.0-20.0-15.0","34543444","wem/bandit_either_3","A3D2U4QF7821ZW","either","8","77","","","","","","","0","0","1","","0.2","0.5","0.5","","","0.8","0.2","","","","","","","","","","","","","","75","K","1","","true","0","80_20_practice",""
"","bandit","37","410853","0.0-20.0-16.0","34543444","wem/bandit_either_3","A3D2U4QF7821ZW","either","8","368","","","","","","","0","1","0","","0.8","0.5","0.5","","","0.8","0.2","","","","","","","","","","","","","","74","J","0","img/none_selected_demo.jpg","true","0","80_20_practice",""
"","bandit","38","416668","0.0-20.0-17.0","34543444","wem/bandit_either_3","A3D2U4QF7821ZW","either","8","4311","","","","","","","0","0","1","","0.2","0.5","0.5","","","0.8","0.2","","","","","","","","","","","","","","75","K","1","","true","0","80_20_practice",""
"","bandit","39","418335","0.0-20.0-18.0","34543444","wem/bandit_either_3","A3D2U4QF7821ZW","either","8","145","","","","","","","0","0","1","0.8","","0.5","0.5","","","","","","","0.8","0.2","","","","","","","","","","74","J","0","img/none_selected_demo.jpg","true","0","80_20_practice",""
"","bandit","40","420190","0.0-20.0-19.0","34543444","wem/bandit_either_3","A3D2U4QF7821ZW","either","8","350","","","","","","","0","1","0","","0.8","0.5","0.5","","","0.8","0.2","","","","","","","","","","","","","","74","J","0","img/none_selected_demo.jpg","true","0","80_20_practice",""
"","text","41","436478","0.0-21.0","34543444","wem/bandit_either_3","A3D2U4QF7821ZW","either","8","16287","","32","","","","","","","","","","","","","","","","","","","","","","","","","","","","","","","","","","","",""
"","bandit","42","439455","0.0-22.0-0.0","34543444","wem/bandit_either_3","A3D2U4QF7821ZW","either","8","1463","","","","","","","1","0","0","1","0","","","","","0","1","","","1","0","","","","","","","","","","74","J","0","img/none_selected_demo.jpg","true","0","",""
"","text","43","445763","0.0-23.0","34543444","wem/bandit_either_3","A3D2U4QF7821ZW","either","8","6306","","74","","","","","","","","","","","","","","","","","","","","","","","","","","","","","","","","","","","",""
"","text","44","453646","0.0-24.0","34543444","wem/bandit_either_3","A3D2U4QF7821ZW","either","8","7881","","32","","","","","","","","","","","","","","","","","","","","","","","","","","","","","","","","","","","",""
"","text","45","456002","0.0-25.0","34543444","wem/bandit_either_3","A3D2U4QF7821ZW","either","8","2355","","32","","","","","","","","","","","","","","","","","","","","","","","","","","","","","","","","","","","",""
"","text","46","459174","0.0-26.0","34543444","wem/bandit_either_3","A3D2U4QF7821ZW","either","8","3171","","32","","","","","","","","","","","","","","","","","","","","","","","","","","","","","","","","","","","",""
"","text","47","482586","0.0-27.0","34543444","wem/bandit_either_3","A3D2U4QF7821ZW","either","8","23411","","32","","","","","","","","","","","","","","","","","","","","","","","","","","","","","","","","","","","",""
"","text","48","489845","0.0-28.0","34543444","wem/bandit_either_3","A3D2U4QF7821ZW","either","8","7258","","32","","","","","","","","","","","","","","","","","","","","","","","","","","","","","","","","","","","",""
"","text","49","494954","0.0-29.0","34543444","wem/bandit_either_3","A3D2U4QF7821ZW","either","8","5108","","32","","","","","","","","","","","","","","","","","","","","","","","","","","","","","","","","","","","",""
"","text","50","500916","0.0-30.0","34543444","wem/bandit_either_3","A3D2U4QF7821ZW","either","8","5961","","32","","","","","","","","","","","","","","","","","","","","","","","","","","","","","","","","","","","",""
"","text","51","504045","0.0-31.0","34543444","wem/bandit_either_3","A3D2U4QF7821ZW","either","8","3126","","32","","","","","","","","","","","","","","","","","","","","","","","","","","","","","","","","","","","",""
"","text","52","505795","0.0-32.0","34543444","wem/bandit_either_3","A3D2U4QF7821ZW","either","8","1749","","32","","","","","","","","","","","","","","","","","","","","","","","","","","","","","","","","","","","",""
"","text","53","507669","0.0-33.0","34543444","wem/bandit_either_3","A3D2U4QF7821ZW","either","8","1872","","32","","","","","","","","","","","","","","","","","","","","","","","","","","","","","","","","","","","",""
"","bandit","54","509819","0.0-34.0-0.0","34543444","wem/bandit_either_3","A3D2U4QF7821ZW","either","8","646","","","","","","","1","0","0","0.8","","0.5","0.5","0.5","0.5","","","","","0.8","0.2","0.6","0.2","","","","","","","","72","H","0","img/none_selected.jpg","true","0","full_practice",""
"","bandit","55","511546","0.0-34.0-1.0","34543444","wem/bandit_either_3","A3D2U4QF7821ZW","either","8","224","","","","","","","1","0","0","0.8","","0.5","0.5","0.5","0.5","","","","","0.8","0.2","0.6","0.2","","","","","","","","72","H","0","img/none_selected.jpg","true","0","full_practice",""
"","bandit","56","513387","0.0-34.0-2.0","34543444","wem/bandit_either_3","A3D2U4QF7821ZW","either","8","336","","","","","","","1","0","0","0.8","","0.5","0.5","0.5","0.5","","","","","0.8","0.2","0.6","0.2","","","","","","","","72","H","0","img/none_selected.jpg","true","0","full_practice",""
"","bandit","57","515187","0.0-34.0-3.0","34543444","wem/bandit_either_3","A3D2U4QF7821ZW","either","8","296","","","","","","","0","1","0","","0.8","0.5","0.5","0.5","0.5","0.8","0.2","0.6","0.2","","","","","","","","","","","","72","H","0","img/none_selected.jpg","true","0","full_practice",""
"","bandit","58","517561","0.0-34.0-4.0","34543444","wem/bandit_either_3","A3D2U4QF7821ZW","either","8","869","","","","","","","1","0","0","0.8","","0.5","0.5","0.5","0.5","","","","","0.8","0.2","0.6","0.2","","","","","","","","72","H","0","img/none_selected.jpg","true","0","full_practice",""
"","bandit","59","519411","0.0-34.0-5.0","34543444","wem/bandit_either_3","A3D2U4QF7821ZW","either","8","346","","","","","","","0","0","1","","0.8","0.5","0.5","0.5","0.5","0.8","0.2","0.6","0.2","","","","","","","","","","","","72","H","0","img/none_selected.jpg","true","0","full_practice",""
"","bandit","60","521179","0.0-34.0-6.0","34543444","wem/bandit_either_3","A3D2U4QF7821ZW","either","8","264","","","","","","","0","0","1","","0.8","0.5","0.5","0.5","0.5","0.8","0.2","0.6","0.2","","","","","","","","","","","","72","H","0","img/none_selected.jpg","true","0","full_practice",""
"","bandit","61","522882","0.0-34.0-7.0","34543444","wem/bandit_either_3","A3D2U4QF7821ZW","either","8","200","","","","","","","0","0","1","0.2","","0.5","0.5","0.5","0.5","","","","","0.8","0.2","0.6","0.2","","","","","","","","74","J","1","","true","0","full_practice",""
"","bandit","62","524708","0.0-34.0-8.0","34543444","wem/bandit_either_3","A3D2U4QF7821ZW","either","8","320","","","","","","","0","1","0","","0.2","0.5","0.5","0.5","0.5","0.8","0.2","0.6","0.2","","","","","","","","","","","","74","J","1","","true","0","full_practice",""
"","bandit","63","526507","0.0-34.0-9.0","34543444","wem/bandit_either_3","A3D2U4QF7821ZW","either","8","294","","","","","","","0","0","1","0.2","","0.5","0.5","0.5","0.5","","","","","0.8","0.2","0.6","0.2","","","","","","","","74","J","1","","true","0","full_practice",""
"","bandit","64","528104","0.0-34.0-10.0","34543444","wem/bandit_either_3","A3D2U4QF7821ZW","either","8","93","","","","","","","0","0","1","","0.6","0.5","0.5","0.5","0.5","0.8","0.2","0.6","0.2","","","","","","","","","","","","75","K","2","","true","0","full_practice",""
"","bandit","65","529892","0.0-34.0-11.0","34543444","wem/bandit_either_3","A3D2U4QF7821ZW","either","8","283","","","","","","","0","0","1","0.2","","0.5","0.5","0.5","0.5","","","","","0.8","0.2","0.6","0.2","","","","","","","","76","L","3","","true","0","full_practice",""
"","bandit","66","531514","0.0-34.0-12.0","34543444","wem/bandit_either_3","A3D2U4QF7821ZW","either","8","119","","","","","","","1","0","0","0.6","","0.5","0.5","0.5","0.5","","","","","0.8","0.2","0.6","0.2","","","","","","","","75","K","2","","true","0","full_practice",""
"","bandit","67","533283","0.0-34.0-13.0","34543444","wem/bandit_either_3","A3D2U4QF7821ZW","either","8","264","","","","","","","1","0","0","0.6","","0.5","0.5","0.5","0.5","","","","","0.8","0.2","0.6","0.2","","","","","","","","75","K","2","","true","0","full_practice",""
"","bandit","68","535027","0.0-34.0-14.0","34543444","wem/bandit_either_3","A3D2U4QF7821ZW","either","8","239","","","","","","","0","1","0","","0.6","0.5","0.5","0.5","0.5","0.8","0.2","0.6","0.2","","","","","","","","","","","","75","K","2","","true","0","full_practice",""
"","bandit","69","536699","0.0-34.0-15.0","34543444","wem/bandit_either_3","A3D2U4QF7821ZW","either","8","167","","","","","","","0","0","1","","0.6","0.5","0.5","0.5","0.5","0.8","0.2","0.6","0.2","","","","","","","","","","","","75","K","2","","true","0","full_practice",""
"","bandit","70","538401","0.0-34.0-16.0","34543444","wem/bandit_either_3","A3D2U4QF7821ZW","either","8","196","","","","","","","1","0","0","0.6","","0.5","0.5","0.5","0.5","","","","","0.8","0.2","0.6","0.2","","","","","","","","75","K","2","","true","0","full_practice",""
"","bandit","71","540196","0.0-34.0-17.0","34543444","wem/bandit_either_3","A3D2U4QF7821ZW","either","8","290","","","","","","","1","0","0","0.6","","0.5","0.5","0.5","0.5","","","","","0.8","0.2","0.6","0.2","","","","","","","","75","K","2","","true","0","full_practice",""
"","bandit","72","542012","0.0-34.0-18.0","34543444","wem/bandit_either_3","A3D2U4QF7821ZW","either","8","311","","","","","","","0","0","1","0.6","","0.5","0.5","0.5","0.5","","","","","0.8","0.2","0.6","0.2","","","","","","","","75","K","2","","true","0","full_practice",""
"","bandit","73","543796","0.0-34.0-19.0","34543444","wem/bandit_either_3","A3D2U4QF7821ZW","either","8","279","","","","","","","0","1","0","","0.6","0.5","0.5","0.5","0.5","0.8","0.2","0.6","0.2","","","","","","","","","","","","75","K","2","","true","0","full_practice",""
"","text","74","547146","0.0-35.0","34543444","wem/bandit_either_3","A3D2U4QF7821ZW","either","8","3347","","32","","","","","","","","","","","","","","","","","","","","","","","","","","","","","","","","","","","",""
"","text","75","577675","0.0-36.0","34543444","wem/bandit_either_3","A3D2U4QF7821ZW","either","8","29527","","32","","","","","","","","","","","","","","","","","","","","","","","","","","","","","","","","","","","",""
"","text","76","579693","0.0-37.0","34543444","wem/bandit_either_3","A3D2U4QF7821ZW","either","8","2016","","32","","","","","","","","","","","","","","","","","","","","","","","","","","","","","","","","","","","",""
"","text","77","581269","0.0-38.0","34543444","wem/bandit_either_3","A3D2U4QF7821ZW","either","8","1575","","32","","","","","","","","","","","","","","","","","","","","","","","","","","","","","","","","","","","",""
"","text","78","585837","0.0-39.0","34543444","wem/bandit_either_3","A3D2U4QF7821ZW","either","8","4565","","32","","","","","","","","","","","","","","","","","","","","","","","","","","","","","","","","","","","",""
"","text","79","588995","0.0-40.0","34543444","wem/bandit_either_3","A3D2U4QF7821ZW","either","8","3157","","32","","","","","","","","","","","","","","","","","","","","","","","","","","","","","","","","","","","",""
"","bandit","80","591404","0.0-41.0-0.0","34543444","wem/bandit_either_3","A3D2U4QF7821ZW","either","8","904","","","","","","","0","0","1","0.4468950172","","0.8","0.6","0.4","0.2","","","","","0.4468950172","0.6337563202","0.3040937467","0.2428949588","","","","","","","","72","H","0","img/none_selected.jpg","","1","main_expt",""
"","bandit","81","593259","0.0-42.0-0.0","34543444","wem/bandit_either_3","A3D2U4QF7821ZW","either","8","351","","","","","","","0","0","1","0.3846124694","","0.8","0.6","0.4","0.2","","","","","0.3846124694","0.7380673114","0.2687625136","0.248961424","","","","","","","","72","H","0","img/none_selected.jpg","","2","main_expt",""
"","bandit","82","595107","0.0-43.0-0.0","34543444","wem/bandit_either_3","A3D2U4QF7821ZW","either","8","344","","","","","","","1","0","0","0.7715549737","","0.8","0.6","0.4","0.2","","","","","0.3885967974","0.7715549737","0.3017919557","0.1878604038","","","","","","","","74","J","1","","","3","main_expt",""
"","bandit","83","597020","0.0-44.0-0.0","34543444","wem/bandit_either_3","A3D2U4QF7821ZW","either","8","408","","","","","","","0","1","0","","0.8257013646","0.8","0.6","0.4","0.2","0.2891644394","0.8257013646","0.3388517529","0.1194049449","","","","","","","","","","","","74","J","1","","","4","main_expt",""
"","bandit","84","599003","0.0-45.0-0.0","34543444","wem/bandit_either_3","A3D2U4QF7821ZW","either","8","480","","","","","","","1","0","0","0.8617886559","","0.8","0.6","0.4","0.2","","","","","0.2654579937","0.8617886559","0.389096829","0.197046458","","","","","","","","74","J","1","","","5","main_expt",""
"","bandit","85","600969","0.0-46.0-0.0","34543444","wem/bandit_either_3","A3D2U4QF7821ZW","either","8","460","","","","","","","1","0","0","0.8452125903","","0.8","0.6","0.4","0.2","","","","","0.355160999","0.8452125903","0.4799636182","0.2312720201","","","","","","","","74","J","1","","","6","main_expt",""
"","bandit","86","603045","0.0-47.0-0.0","34543444","wem/bandit_either_3","A3D2U4QF7821ZW","either","8","569","","","","","","","1","0","0","0.8765288384","","0.8","0.6","0.4","0.2","","","","","0.4733904832","0.8765288384","0.5316557606","0.3255591742","","","","","","","","74","J","1","","","7","main_expt",""
"","bandit","87","604860","0.0-48.0-0.0","34543444","wem/bandit_either_3","A3D2U4QF7821ZW","either","8","311","","","","","","","1","0","0","0.8625068071","","0.8","0.6","0.4","0.2","","","","","0.4900136729","0.8625068071","0.4935712437","0.163151729","","","","","","","","74","J","1","","","8","main_expt",""
"","bandit","88","606709","0.0-49.0-0.0","34543444","wem/bandit_either_3","A3D2U4QF7821ZW","either","8","343","","","","","","","1","0","0","0.8385781597","","0.8","0.6","0.4","0.2","","","","","0.4543552171","0.8385781597","0.5400450001","0.1671639775","","","","","","","","74","J","1","","","9","main_expt",""
"","bandit","89","608549","0.0-50.0-0.0","34543444","wem/bandit_either_3","A3D2U4QF7821ZW","either","8","336","","","","","","","0","1","0","","0.833356221","0.8","0.6","0.4","0.2","0.4523920981","0.833356221","0.6510952772","0.1315225434","","","","","","","","","","","","74","J","1","","","10","main_expt",""
"","bandit","90","610349","0.0-51.0-0.0","34543444","wem/bandit_either_3","A3D2U4QF7821ZW","either","8","296","","","","","","","1","0","0","0.9030756702","","0.8","0.6","0.4","0.2","","","","","0.4053083118","0.9030756702","0.6117649901","0.1287002637","","","","","","","","74","J","1","","","11","main_expt",""
"","bandit","91","612219","0.0-52.0-0.0","34543444","wem/bandit_either_3","A3D2U4QF7821ZW","either","8","364","","","","","","","0","1","0","","0.9129290363","0.8","0.6","0.4","0.2","0.4059907931","0.9129290363","0.6360746298","0.1026596936","","","","","","","","","","","","74","J","1","","","12","main_expt",""
"","bandit","92","614421","0.0-53.0-0.0","34543444","wem/bandit_either_3","A3D2U4QF7821ZW","either","8","697","","","","","","","0","1","0","","0.8638417716","0.8","0.6","0.4","0.2","0.2934167972","0.8638417716","0.5673960652","0.1287514256","","","","","","","","","","","","74","J","1","","","13","main_expt",""
"","bandit","93","616379","0.0-54.0-0.0","34543444","wem/bandit_either_3","A3D2U4QF7821ZW","either","8","455","","","","","","","0","1","0","","0.787806988","0.8","0.6","0.4","0.2","0.3260927596","0.787806988","0.6747725803","0.1786171179","","","","","","","","","","","","74","J","1","","","14","main_expt",""
"","bandit","94","618333","0.0-55.0-0.0","34543444","wem/bandit_either_3","A3D2U4QF7821ZW","either","8","448","","","","","","","0","0","1","0.7254212376","","0.8","0.6","0.4","0.2","","","","","0.3355382734","0.7254212376","0.6277188345","0.1459410532","","","","","","","","74","J","1","","","15","main_expt",""
"","bandit","95","620797","0.0-56.0-0.0","34543444","wem/bandit_either_3","A3D2U4QF7821ZW","either","8","959","","","","","","","0","1","0","","0.7238415528","0.8","0.6","0.4","0.2","0.3040928121","0.7238415528","0.5435568235","0.2255600906","","","","","","","","","","","","74","J","1","","","16","main_expt",""
"","bandit","96","622728","0.0-57.0-0.0","34543444","wem/bandit_either_3","A3D2U4QF7821ZW","either","8","428","","","","","","","1","0","0","0.7796243455","","0.8","0.6","0.4","0.2","","","","","0.2730366263","0.7796243455","0.4180161478","0.2052013943","","","","","","","","74","J","1","","","17","main_expt",""
"","bandit","97","624757","0.0-58.0-0.0","34543444","wem/bandit_either_3","A3D2U4QF7821ZW","either","8","524","","","","","","","1","0","0","0.6928902724","","0.8","0.6","0.4","0.2","","","","","0.4105298721","0.6928902724","0.4961111773","0.1780354615","","","","","","","","74","J","1","","","18","main_expt",""
"","bandit","98","626797","0.0-59.0-0.0","34543444","wem/bandit_either_3","A3D2U4QF7821ZW","either","8","535","","","","","","","0","1","0","","0.7658630901","0.8","0.6","0.4","0.2","0.3586923344","0.7658630901","0.445530788","0.1576496117","","","","","","","","","","","","74","J","1","","","19","main_expt",""
"","bandit","99","629053","0.0-60.0-0.0","34543444","wem/bandit_either_3","A3D2U4QF7821ZW","either","8","750","","","","","","","0","1","0","","0.7584200513","0.8","0.6","0.4","0.2","0.3220075653","0.7584200513","0.3443163705","0.1618752313","","","","","","","","","","","","74","J","1","","","20","main_expt",""
"","bandit","100","630941","0.0-61.0-0.0","34543444","wem/bandit_either_3","A3D2U4QF7821ZW","either","8","380","","","","","","","0","1","0","","0.7727038765","0.8","0.6","0.4","0.2","0.2729660799","0.7727038765","0.3012808647","0.2152187387","","","","","","","","","","","","74","J","1","","","21","main_expt",""
"","bandit","101","632850","0.0-62.0-0.0","34543444","wem/bandit_either_3","A3D2U4QF7821ZW","either","8","404","","","","","","","0","1","0","","0.8152565923","0.8","0.6","0.4","0.2","0.2712352107","0.8152565923","0.2882062485","0.3547982299","","","","","","","","","","","","74","J","1","","","22","main_expt",""
"","bandit","102","634717","0.0-63.0-0.0","34543444","wem/bandit_either_3","A3D2U4QF7821ZW","either","8","363","","","","","","","0","1","0","","0.7537075358","0.8","0.6","0.4","0.2","0.3390855774","0.7537075358","0.2113421372","0.323805638","","","","","","","","","","","","74","J","1","","","23","main_expt",""
"","bandit","103","636645","0.0-64.0-0.0","34543444","wem/bandit_either_3","A3D2U4QF7821ZW","either","8","422","","","","","","","1","0","0","0.7108822858","","0.8","0.6","0.4","0.2","","","","","0.3483259141","0.7108822858","0.2201805416","0.3588909826","","","","","","","","74","J","1","","","24","main_expt",""
"","bandit","104","638692","0.0-65.0-0.0","34543444","wem/bandit_either_3","A3D2U4QF7821ZW","either","8","543","","","","","","","1","0","0","0.6930515954","","0.8","0.6","0.4","0.2","","","","","0.3416976173","0.6930515954","0.2580956466","0.3885553436","","","","","","","","74","J","1","","","25","main_expt",""
"","bandit","105","640548","0.0-66.0-0.0","34543444","wem/bandit_either_3","A3D2U4QF7821ZW","either","8","351","","","","","","","0","1","0","","0.6905393417","0.8","0.6","0.4","0.2","0.4243476322","0.6905393417","0.2153432854","0.4871556374","","","","","","","","","","","","74","J","1","","","26","main_expt",""
"","bandit","106","642486","0.0-67.0-0.0","34543444","wem/bandit_either_3","A3D2U4QF7821ZW","either","8","434","","","","","","","1","0","0","0.7531652131","","0.8","0.6","0.4","0.2","","","","","0.5257754898","0.7531652131","0.1727955236","0.4934119911","","","","","","","","74","J","1","","","27","main_expt",""
"","bandit","107","644641","0.0-68.0-0.0","34543444","wem/bandit_either_3","A3D2U4QF7821ZW","either","8","650","","","","","","","1","0","0","0.8001777041","","0.8","0.6","0.4","0.2","","","","","0.5246232361","0.8001777041","0.1894296703","0.4322092846","","","","","","","","74","J","1","","","28","main_expt",""
"","bandit","108","646556","0.0-69.0-0.0","34543444","wem/bandit_either_3","A3D2U4QF7821ZW","either","8","410","","","","","","","1","0","0","0.8118404327","","0.8","0.6","0.4","0.2","","","","","0.375994784","0.8118404327","0.2128919211","0.3459113699","","","","","","","","74","J","1","","","29","main_expt",""
"","bandit","109","648573","0.0-70.0-0.0","34543444","wem/bandit_either_3","A3D2U4QF7821ZW","either","8","511","","","","","","","1","0","0","0.7839534503","","0.8","0.6","0.4","0.2","","","","","0.2936890161","0.7839534503","0.206056468","0.280789843","","","","","","","","74","J","1","","","30","main_expt",""
"","bandit","110","650780","0.0-71.0-0.0","34543444","wem/bandit_either_3","A3D2U4QF7821ZW","either","8","703","","","","","","","0","1","0","","0.8066372971","0.8","0.6","0.4","0.2","0.2878812258","0.8066372971","0.1725623241","0.2613810438","","","","","","","","","","","","74","J","1","","","31","main_expt",""
"","bandit","111","652581","0.0-72.0-0.0","34543444","wem/bandit_either_3","A3D2U4QF7821ZW","either","8","297","","","","","","","1","0","0","0.8049259064","","0.8","0.6","0.4","0.2","","","","","0.2451492808","0.8049259064","0.1629883914","0.3821585683","","","","","","","","74","J","1","","","32","main_expt",""
"","bandit","112","654356","0.0-73.0-0.0","34543444","wem/bandit_either_3","A3D2U4QF7821ZW","either","8","271","","","","","","","0","1","0","","0.7891664673","0.8","0.6","0.4","0.2","0.2802113289","0.7891664673","0.2107911223","0.2714925976","","","","","","","","","","","","74","J","1","","","33","main_expt",""
"","bandit","113","656170","0.0-74.0-0.0","34543444","wem/bandit_either_3","A3D2U4QF7821ZW","either","8","308","","","","","","","1","0","0","0.7854278051","","0.8","0.6","0.4","0.2","","","","","0.2892342718","0.7854278051","0.1025901997","0.2755575364","","","","","","","","74","J","1","","","34","main_expt",""
"","bandit","114","657965","0.0-75.0-0.0","34543444","wem/bandit_either_3","A3D2U4QF7821ZW","either","8","290","","","","","","","1","0","0","0.7260182018","","0.8","0.6","0.4","0.2","","","","","0.2486893666","0.7260182018","0.1289879153","0.2697856654","","","","","","","","74","J","1","","","35","main_expt",""
"","bandit","115","659844","0.0-76.0-0.0","34543444","wem/bandit_either_3","A3D2U4QF7821ZW","either","8","375","","","","","","","1","0","0","0.7910957192","","0.8","0.6","0.4","0.2","","","","","0.3536408983","0.7910957192","0.1645491317","0.2483646443","","","","","","","","74","J","1","","","36","main_expt",""
"","bandit","116","661525","0.0-77.0-0.0","34543444","wem/bandit_either_3","A3D2U4QF7821ZW","either","8","174","","","","","","","1","0","0","0.7996551039","","0.8","0.6","0.4","0.2","","","","","0.2493566902","0.7996551039","0.1698046746","0.2103950957","","","","","","","","74","J","1","","","37","main_expt",""
"","bandit","117","663372","0.0-78.0-0.0","34543444","wem/bandit_either_3","A3D2U4QF7821ZW","either","8","342","","","","","","","0","1","0","","0.6717479894","0.8","0.6","0.4","0.2","0.2948354516","0.6717479894","0.2281502886","0.2128944509","","","","","","","","","","","","74","J","1","","","38","main_expt",""
"","bandit","118","665206","0.0-79.0-0.0","34543444","wem/bandit_either_3","A3D2U4QF7821ZW","either","8","326","","","","","","","0","0","1","","0.7121128808","0.8","0.6","0.4","0.2","0.3373274679","0.7121128808","0.1561271762","0.2965153327","","","","","","","","","","","","74","J","1","","","39","main_expt",""
"","bandit","119","667041","0.0-80.0-0.0","34543444","wem/bandit_either_3","A3D2U4QF7821ZW","either","8","332","","","","","","","0","1","0","","0.7157410044","0.8","0.6","0.4","0.2","0.4138768052","0.7157410044","0.1543620621","0.4447532253","","","","","","","","","","","","74","J","1","","","40","main_expt",""
"","bandit","120","668876","0.0-81.0-0.0","34543444","wem/bandit_either_3","A3D2U4QF7821ZW","either","8","330","","","","","","","0","0","1","0.681196038","","0.8","0.6","0.4","0.2","","","","","0.438096834","0.681196038","0.2271499981","0.5330008696","","","","","","","","74","J","1","","","41","main_expt",""
"","bandit","121","670653","0.0-82.0-0.0","34543444","wem/bandit_either_3","A3D2U4QF7821ZW","either","8","273","","","","","","","0","0","1","0.6504320647","","0.8","0.6","0.4","0.2","","","","","0.4185173612","0.6504320647","0.2882452936","0.573861049","","","","","","","","74","J","1","","","42","main_expt",""
"","bandit","122","672366","0.0-83.0-0.0","34543444","wem/bandit_either_3","A3D2U4QF7821ZW","either","8","207","","","","","","","0","1","0","","0.298522686","0.8","0.6","0.4","0.2","0.3796335567","0.7369830744","0.298522686","0.6654349765","","","","","","","","","","","","75","K","2","","","43","main_expt",""
"","bandit","123","674164","0.0-84.0-0.0","34543444","wem/bandit_either_3","A3D2U4QF7821ZW","either","8","294","","","","","","","0","0","1","","0.3188886026","0.8","0.6","0.4","0.2","0.31766129","0.6797935378","0.3188886026","0.691198465","","","","","","","","","","","","75","K","2","","","44","main_expt",""
"","bandit","124","675924","0.0-85.0-0.0","34543444","wem/bandit_either_3","A3D2U4QF7821ZW","either","8","255","","","","","","","0","0","1","","0.2705760174","0.8","0.6","0.4","0.2","0.4047397141","0.6507473666","0.2705760174","0.7652674903","","","","","","","","","","","","75","K","2","","","45","main_expt",""
"","bandit","125","677523","0.0-86.0-0.0","34543444","wem/bandit_either_3","A3D2U4QF7821ZW","either","8","94","","","","","","","0","0","1","0.8065230058","","0.8","0.6","0.4","0.2","","","","","0.4961613307","0.6334510787","0.2506880939","0.8065230058","","","","","","","","76","L","3","","","46","main_expt",""
"","bandit","126","679301","0.0-87.0-0.0","34543444","wem/bandit_either_3","A3D2U4QF7821ZW","either","8","273","","","","","","","1","0","0","0.7774474893","","0.8","0.6","0.4","0.2","","","","","0.4624468315","0.6143175143","0.2491585872","0.7774474893","","","","","","","","76","L","3","","","47","main_expt",""
"","bandit","127","681045","0.0-88.0-0.0","34543444","wem/bandit_either_3","A3D2U4QF7821ZW","either","8","239","","","","","","","0","1","0","","0.7693176975","0.8","0.6","0.4","0.2","0.4886537242","0.6404512611","0.1997021219","0.7693176975","","","","","","","","","","","","76","L","3","","","48","main_expt",""
"","bandit","128","682908","0.0-89.0-0.0","34543444","wem/bandit_either_3","A3D2U4QF7821ZW","either","8","357","","","","","","","0","1","0","","0.807419373","0.8","0.6","0.4","0.2","0.4270302022","0.6758621215","0.2119577724","0.807419373","","","","","","","","","","","","76","L","3","","","49","main_expt",""
"","bandit","129","685004","0.0-90.0-0.0","34543444","wem/bandit_either_3","A3D2U4QF7821ZW","either","8","592","","","","","","","1","0","0","0.8562769227","","0.8","0.6","0.4","0.2","","","","","0.5151345658","0.6873234502","0.2615271711","0.8562769227","","","","","","","","76","L","3","","","50","main_expt",""
"","bandit","130","686901","0.0-91.0-0.0","34543444","wem/bandit_either_3","A3D2U4QF7821ZW","either","8","392","","","","","","","0","1","0","","0.8705114925","0.8","0.6","0.4","0.2","0.5134524181","0.7776044395","0.2764427577","0.8705114925","","","","","","","","","","","","76","L","3","","","51","main_expt",""
"","bandit","131","688715","0.0-92.0-0.0","34543444","wem/bandit_either_3","A3D2U4QF7821ZW","either","8","307","","","","","","","0","1","0","","0.9310361031","0.8","0.6","0.4","0.2","0.4842684999","0.8403410939","0.3833776697","0.9310361031","","","","","","","","","","","","76","L","3","","","52","main_expt",""
"","bandit","132","690541","0.0-93.0-0.0","34543444","wem/bandit_either_3","A3D2U4QF7821ZW","either","8","320","","","","","","","0","1","0","","0.905794742","0.8","0.6","0.4","0.2","0.4412850773","0.8151983534","0.4356502318","0.905794742","","","","","","","","","","","","76","L","3","","","53","main_expt",""
"","bandit","133","692372","0.0-94.0-0.0","34543444","wem/bandit_either_3","A3D2U4QF7821ZW","either","8","328","","","","","","","0","1","0","","0.9391541593","0.8","0.6","0.4","0.2","0.4397693946","0.8081222638","0.4120588364","0.9391541593","","","","","","","","","","","","76","L","3","","","54","main_expt",""
"","bandit","134","694285","0.0-95.0-0.0","34543444","wem/bandit_either_3","A3D2U4QF7821ZW","either","8","408","","","","","","","0","1","0","","0.9596285882","0.8","0.6","0.4","0.2","0.3928202278","0.742009976","0.2714296105","0.9596285882","","","","","","","","","","","","76","L","3","","","55","main_expt",""
"","bandit","135","696117","0.0-96.0-0.0","34543444","wem/bandit_either_3","A3D2U4QF7821ZW","either","8","326","","","","","","","0","1","0","","0.9565658233","0.8","0.6","0.4","0.2","0.4593665993","0.7065076074","0.2122311877","0.9565658233","","","","","","","","","","","","76","L","3","","","56","main_expt",""
"","bandit","136","698004","0.0-97.0-0.0","34543444","wem/bandit_either_3","A3D2U4QF7821ZW","either","8","382","","","","","","","0","1","0","","0.9681540372","0.8","0.6","0.4","0.2","0.4006145211","0.6860695476","0.2282278588","0.9681540372","","","","","","","","","","","","76","L","3","","","57","main_expt",""
"","bandit","137","699921","0.0-98.0-0.0","34543444","wem/bandit_either_3","A3D2U4QF7821ZW","either","8","413","","","","","","","0","1","0","","0.9207083952","0.8","0.6","0.4","0.2","0.4597890412","0.742301155","0.1392076118","0.9207083952","","","","","","","","","","","","76","L","3","","","58","main_expt",""
"","bandit","138","701916","0.0-99.0-0.0","34543444","wem/bandit_either_3","A3D2U4QF7821ZW","either","8","491","","","","","","","0","1","0","","0.9178227258","0.8","0.6","0.4","0.2","0.4232266093","0.5291004622","0.1706239206","0.9178227258","","","","","","","","","","","","76","L","3","","","59","main_expt",""
"","bandit","139","703765","0.0-100.0-0.0","34543444","wem/bandit_either_3","A3D2U4QF7821ZW","either","8","342","","","","","","","0","1","0","","0.8951285427","0.8","0.6","0.4","0.2","0.3565880291","0.6348838793","0.1674269281","0.8951285427","","","","","","","","","","","","76","L","3","","","60","main_expt",""
"","bandit","140","706180","0.0-101.0-0.0","34543444","wem/bandit_either_3","A3D2U4QF7821ZW","either","8","911","","","","","","","0","1","0","","0.8506814954","0.8","0.6","0.4","0.2","0.3663276413","0.6796423313","0.2182313474","0.8506814954","","","","","","","","","","","","76","L","3","","","61","main_expt",""
"","bandit","141","708341","0.0-102.0-0.0","34543444","wem/bandit_either_3","A3D2U4QF7821ZW","either","8","655","","","","","","","0","1","0","","0.8513854559","0.8","0.6","0.4","0.2","0.3193005293","0.6928172916","0.2949218256","0.8513854559","","","","","","","","","","","","76","L","3","","","62","main_expt",""
"","bandit","142","710362","0.0-103.0-0.0","34543444","wem/bandit_either_3","A3D2U4QF7821ZW","either","8","516","","","","","","","0","1","0","","0.8927579502","0.8","0.6","0.4","0.2","0.1562068481","0.6996506825","0.3170222383","0.8927579502","","","","","","","","","","","","76","L","3","","","63","main_expt",""
"","bandit","143","712420","0.0-104.0-0.0","34543444","wem/bandit_either_3","A3D2U4QF7821ZW","either","8","553","","","","","","","0","1","0","","0.9217936765","0.8","0.6","0.4","0.2","0.2300477965","0.7294442249","0.3033511374","0.9217936765","","","","","","","","","","","","76","L","3","","","64","main_expt",""
"","bandit","144","714356","0.0-105.0-0.0","34543444","wem/bandit_either_3","A3D2U4QF7821ZW","either","8","431","","","","","","","0","1","0","","0.9357047413","0.8","0.6","0.4","0.2","0.2869838185","0.6605354899","0.3973690147","0.9357047413","","","","","","","","","","","","76","L","3","","","65","main_expt",""
"","bandit","145","716437","0.0-106.0-0.0","34543444","wem/bandit_either_3","A3D2U4QF7821ZW","either","8","575","","","","","","","1","0","0","0.910343843","","0.8","0.6","0.4","0.2","","","","","0.3287476356","0.6959621059","0.4320294497","0.910343843","","","","","","","","76","L","3","","","66","main_expt",""
"","bandit","146","718468","0.0-107.0-0.0","34543444","wem/bandit_either_3","A3D2U4QF7821ZW","either","8","527","","","","","","","0","1","0","","0.9022080512","0.8","0.6","0.4","0.2","0.3018365728","0.653899752","0.3208465419","0.9022080512","","","","","","","","","","","","76","L","3","","","67","main_expt",""
"","bandit","147","720609","0.0-108.0-0.0","34543444","wem/bandit_either_3","A3D2U4QF7821ZW","either","8","636","","","","","","","0","1","0","","0.8492414063","0.8","0.6","0.4","0.2","0.3208616414","0.6517851336","0.3570730799","0.8492414063","","","","","","","","","","","","76","L","3","","","68","main_expt",""
"","bandit","148","722461","0.0-109.0-0.0","34543444","wem/bandit_either_3","A3D2U4QF7821ZW","either","8","347","","","","","","","0","1","0","","0.768219052","0.8","0.6","0.4","0.2","0.386863802","0.7011615004","0.3451514791","0.768219052","","","","","","","","","","","","76","L","3","","","69","main_expt",""
"","bandit","149","724420","0.0-110.0-0.0","34543444","wem/bandit_either_3","A3D2U4QF7821ZW","either","8","454","","","","","","","0","1","0","","0.7996218848","0.8","0.6","0.4","0.2","0.3628244161","0.6278947594","0.3127714871","0.7996218848","","","","","","","","","","","","76","L","3","","","70","main_expt",""
"","bandit","150","726965","0.0-111.0-0.0","34543444","wem/bandit_either_3","A3D2U4QF7821ZW","either","8","1039","","","","","","","0","1","0","","0.9130189757","0.8","0.6","0.4","0.2","0.2969295023","0.688517509","0.3855297895","0.9130189757","","","","","","","","","","","","76","L","3","","","71","main_expt",""
"","bandit","151","728820","0.0-112.0-0.0","34543444","wem/bandit_either_3","A3D2U4QF7821ZW","either","8","350","","","","","","","0","0","1","0.9016843832","","0.8","0.6","0.4","0.2","","","","","0.3512325323","0.6125440106","0.3555010044","0.9016843832","","","","","","","","76","L","3","","","72","main_expt",""
"","bandit","152","730783","0.0-113.0-0.0","34543444","wem/bandit_either_3","A3D2U4QF7821ZW","either","8","444","","","","","","","0","1","0","","0.9166584401","0.8","0.6","0.4","0.2","0.3845321254","0.4884410468","0.3278360739","0.9166584401","","","","","","","","","","","","76","L","3","","","73","main_expt",""
"","bandit","153","732889","0.0-114.0-0.0","34543444","wem/bandit_either_3","A3D2U4QF7821ZW","either","8","594","","","","","","","0","1","0","","0.8699410266","0.8","0.6","0.4","0.2","0.3760614253","0.5800760741","0.3275161349","0.8699410266","","","","","","","","","","","","76","L","3","","","74","main_expt",""
"","bandit","154","735156","0.0-115.0-0.0","34543444","wem/bandit_either_3","A3D2U4QF7821ZW","either","8","762","","","","","","","0","0","1","0.8192171788","","0.8","0.6","0.4","0.2","","","","","0.370831352","0.6614390465","0.3454333807","0.8192171788","","","","","","","","76","L","3","","","75","main_expt",""
"","bandit","155","737201","0.0-116.0-0.0","34543444","wem/bandit_either_3","A3D2U4QF7821ZW","either","8","536","","","","","","","0","1","0","","0.8990587115","0.8","0.6","0.4","0.2","0.4008199491","0.6861570843","0.4213924804","0.8990587115","","","","","","","","","","","","76","L","3","","","76","main_expt",""
"","bandit","156","739844","0.0-117.0-0.0","34543444","wem/bandit_either_3","A3D2U4QF7821ZW","either","8","1138","","","","","","","0","1","0","","0.9062137116","0.8","0.6","0.4","0.2","0.3928984844","0.5980737028","0.439510692","0.9062137116","","","","","","","","","","","","76","L","3","","","77","main_expt",""
"","bandit","157","742128","0.0-118.0-0.0","34543444","wem/bandit_either_3","A3D2U4QF7821ZW","either","8","780","","","","","","","0","1","0","","0.9215914722","0.8","0.6","0.4","0.2","0.4709058574","0.6754083514","0.4419424199","0.9215914722","","","","","","","","","","","","76","L","3","","","78","main_expt",""
"","bandit","158","744932","0.0-119.0-0.0","34543444","wem/bandit_either_3","A3D2U4QF7821ZW","either","8","1300","","","","","","","0","1","0","","0.895443078","0.8","0.6","0.4","0.2","0.4971614577","0.7012934339","0.5056762283","0.895443078","","","","","","","","","","","","76","L","3","","","79","main_expt",""
"","bandit","159","746949","0.0-120.0-0.0","34543444","wem/bandit_either_3","A3D2U4QF7821ZW","either","8","511","","","","","","","0","0","1","0.7789772955","","0.8","0.6","0.4","0.2","","","","","0.4828267768","0.7067798052","0.4558190996","0.7789772955","","","","","","","","76","L","3","","","80","main_expt",""
"","bandit","160","748809","0.0-121.0-0.0","34543444","wem/bandit_either_3","A3D2U4QF7821ZW","either","8","350","","","","","","","0","1","0","","0.755426824","0.8","0.6","0.4","0.2","0.4280570329","0.7259433061","0.4774921548","0.755426824","","","","","","","","","","","","76","L","3","","","81","main_expt",""
"","bandit","161","751084","0.0-122.0-0.0","34543444","wem/bandit_either_3","A3D2U4QF7821ZW","either","8","770","","","","","","","0","1","0","","0.8356426425","0.8","0.6","0.4","0.2","0.486136241","0.7022130872","0.3611036613","0.8356426425","","","","","","","","","","","","76","L","3","","","82","main_expt",""
"","bandit","162","753059","0.0-123.0-0.0","34543444","wem/bandit_either_3","A3D2U4QF7821ZW","either","8","452","","","","","","","1","0","0","0.8783145762","","0.8","0.6","0.4","0.2","","","","","0.3539143083","0.75927227","0.3341354767","0.8783145762","","","","","","","","76","L","3","","","83","main_expt",""
"","bandit","163","755428","0.0-124.0-0.0","34543444","wem/bandit_either_3","A3D2U4QF7821ZW","either","8","857","","","","","","","1","0","0","0.9087743635","","0.8","0.6","0.4","0.2","","","","","0.374811954","0.8556046088","0.288479151","0.9087743635","","","","","","","","76","L","3","","","84","main_expt",""
"","bandit","164","757442","0.0-125.0-0.0","34543444","wem/bandit_either_3","A3D2U4QF7821ZW","either","8","503","","","","","","","0","0","1","0.8632011641","","0.8","0.6","0.4","0.2","","","","","0.4518264681","0.7835234447","0.3061923995","0.8632011641","","","","","","","","76","L","3","","","85","main_expt",""
"","bandit","165","759334","0.0-126.0-0.0","34543444","wem/bandit_either_3","A3D2U4QF7821ZW","either","8","377","","","","","","","0","1","0","","0.8341253046","0.8","0.6","0.4","0.2","0.461936863","0.7037548709","0.3370204437","0.8341253046","","","","","","","","","","","","76","L","3","","","86","main_expt",""
"","bandit","166","761289","0.0-127.0-0.0","34543444","wem/bandit_either_3","A3D2U4QF7821ZW","either","8","444","","","","","","","0","1","0","","0.8728746981","0.8","0.6","0.4","0.2","0.3681660755","0.6903674631","0.3900809043","0.8728746981","","","","","","","","","","","","76","L","3","","","87","main_expt",""
"","bandit","167","763449","0.0-128.0-0.0","34543444","wem/bandit_either_3","A3D2U4QF7821ZW","either","8","655","","","","","","","0","1","0","","0.8408980459","0.8","0.6","0.4","0.2","0.3788462328","0.5883284312","0.4296615172","0.8408980459","","","","","","","","","","","","76","L","3","","","88","main_expt",""
"","bandit","168","765867","0.0-129.0-0.0","34543444","wem/bandit_either_3","A3D2U4QF7821ZW","either","8","914","","","","","","","0","1","0","","0.8585781628","0.8","0.6","0.4","0.2","0.3316952272","0.5258490985","0.4636560077","0.8585781628","","","","","","","","","","","","76","L","3","","","89","main_expt",""
"","bandit","169","767789","0.0-130.0-0.0","34543444","wem/bandit_either_3","A3D2U4QF7821ZW","either","8","407","","","","","","","0","1","0","","0.925840658","0.8","0.6","0.4","0.2","0.438068917","0.6395041767","0.4463585346","0.925840658","","","","","","","","","","","","76","L","3","","","90","main_expt",""
"","bandit","170","769754","0.0-131.0-0.0","34543444","wem/bandit_either_3","A3D2U4QF7821ZW","either","8","455","","","","","","","1","0","0","0.9201841885","","0.8","0.6","0.4","0.2","","","","","0.5158843935","0.6931091445","0.4734463503","0.9201841885","","","","","","","","76","L","3","","","91","main_expt",""
"","bandit","171","771645","0.0-132.0-0.0","34543444","wem/bandit_either_3","A3D2U4QF7821ZW","either","8","386","","","","","","","1","0","0","0.8508076908","","0.8","0.6","0.4","0.2","","","","","0.5182757575","0.6725373887","0.5248255385","0.8508076908","","","","","","","","76","L","3","","","92","main_expt",""
"","bandit","172","773513","0.0-133.0-0.0","34543444","wem/bandit_either_3","A3D2U4QF7821ZW","either","8","362","","","","","","","0","1","0","","0.8106711147","0.8","0.6","0.4","0.2","0.5498130742","0.7388835399","0.3386726181","0.8106711147","","","","","","","","","","","","76","L","3","","","93","main_expt",""
"","bandit","173","775371","0.0-134.0-0.0","34543444","wem/bandit_either_3","A3D2U4QF7821ZW","either","8","345","","","","","","","0","1","0","","0.8543263914","0.8","0.6","0.4","0.2","0.6049407638","0.697373586","0.3718894848","0.8543263914","","","","","","","","","","","","76","L","3","","","94","main_expt",""
"","bandit","174","777196","0.0-135.0-0.0","34543444","wem/bandit_either_3","A3D2U4QF7821ZW","either","8","321","","","","","","","0","1","0","","0.8387782901","0.8","0.6","0.4","0.2","0.6604115927","0.7550322224","0.4005278521","0.8387782901","","","","","","","","","","","","76","L","3","","","95","main_expt",""
"","bandit","175","779381","0.0-136.0-0.0","34543444","wem/bandit_either_3","A3D2U4QF7821ZW","either","8","678","","","","","","","0","1","0","","0.8208071174","0.8","0.6","0.4","0.2","0.7003847986","0.6576962358","0.3694595514","0.8208071174","","","","","","","","","","","","76","L","3","","","96","main_expt",""
"","bandit","176","781293","0.0-137.0-0.0","34543444","wem/bandit_either_3","A3D2U4QF7821ZW","either","8","406","","","","","","","0","1","0","","0.765358829","0.8","0.6","0.4","0.2","0.6793148949","0.6802484638","0.3186037095","0.765358829","","","","","","","","","","","","76","L","3","","","97","main_expt",""
"","bandit","177","783292","0.0-138.0-0.0","34543444","wem/bandit_either_3","A3D2U4QF7821ZW","either","8","495","","","","","","","0","0","1","","0.7823463211","0.8","0.6","0.4","0.2","0.6204607354","0.7042077447","0.2786717818","0.7823463211","","","","","","","","","","","","76","L","3","","","98","main_expt",""
"","bandit","178","785168","0.0-139.0-0.0","34543444","wem/bandit_either_3","A3D2U4QF7821ZW","either","8","356","","","","","","","0","1","0","","0.7523003034","0.8","0.6","0.4","0.2","0.6166262367","0.7355617892","0.32929866","0.7523003034","","","","","","","","","","","","76","L","3","","","99","main_expt",""
"","bandit","179","787167","0.0-140.0-0.0","34543444","wem/bandit_either_3","A3D2U4QF7821ZW","either","8","483","","","","","","","0","1","0","","0.7174790615","0.8","0.6","0.4","0.2","0.5347115766","0.7117411671","0.3115323478","0.7174790615","","","","","","","","","","","","76","L","3","","","100","main_expt",""
"","bandit","180","789122","0.0-141.0-0.0","34543444","wem/bandit_either_3","A3D2U4QF7821ZW","either","8","437","","","","","","","0","1","0","","0.7660578318","0.8","0.6","0.4","0.2","0.3418016043","0.7263903312","0.4221749579","0.7660578318","","","","","","","","","","","","76","L","3","","","101","main_expt",""
"","bandit","181","791089","0.0-142.0-0.0","34543444","wem/bandit_either_3","A3D2U4QF7821ZW","either","8","449","","","","","","","0","1","0","","0.7201180075","0.8","0.6","0.4","0.2","0.2550922237","0.7357346189","0.2718078598","0.7201180075","","","","","","","","","","","","76","L","3","","","102","main_expt",""
"","bandit","182","793112","0.0-143.0-0.0","34543444","wem/bandit_either_3","A3D2U4QF7821ZW","either","8","506","","","","","","","0","0","1","","0.8452780714","0.8","0.6","0.4","0.2","0.3181696353","0.7026134783","0.3011307106","0.8452780714","","","","","","","","","","","","76","L","3","","","103","main_expt",""
"","bandit","183","795028","0.0-144.0-0.0","34543444","wem/bandit_either_3","A3D2U4QF7821ZW","either","8","411","","","","","","","0","1","0","","0.7236924273","0.8","0.6","0.4","0.2","0.3383579412","0.8073666152","0.3659291838","0.7236924273","","","","","","","","","","","","76","L","3","","","104","main_expt",""
"","bandit","184","797139","0.0-145.0-0.0","34543444","wem/bandit_either_3","A3D2U4QF7821ZW","either","8","604","","","","","","","1","0","0","0.743719778","","0.8","0.6","0.4","0.2","","","","","0.2354673658","0.824483439","0.3499435223","0.743719778","","","","","","","","76","L","3","","","105","main_expt",""
"","bandit","185","799109","0.0-146.0-0.0","34543444","wem/bandit_either_3","A3D2U4QF7821ZW","either","8","457","","","","","","","1","0","0","0.7985687284","","0.8","0.6","0.4","0.2","","","","","0.159398249","0.9208810438","0.3602262465","0.7985687284","","","","","","","","76","L","3","","","106","main_expt",""
"","bandit","186","801003","0.0-147.0-0.0","34543444","wem/bandit_either_3","A3D2U4QF7821ZW","either","8","374","","","","","","","0","1","0","","0.799345197","0.8","0.6","0.4","0.2","0.1295169146","0.8911910097","0.3252215163","0.799345197","","","","","","","","","","","","76","L","3","","","107","main_expt",""
"","bandit","187","803002","0.0-148.0-0.0","34543444","wem/bandit_either_3","A3D2U4QF7821ZW","either","8","480","","","","","","","0","1","0","","0.8681690713","0.8","0.6","0.4","0.2","0.07754053308","0.8450149587","0.2812406992","0.8681690713","","","","","","","","","","","","76","L","3","","","108","main_expt",""
"","bandit","188","804951","0.0-149.0-0.0","34543444","wem/bandit_either_3","A3D2U4QF7821ZW","either","8","434","","","","","","","1","0","0","0.8556732204","","0.8","0.6","0.4","0.2","","","","","0.06591215473","0.868327257","0.2559497519","0.8556732204","","","","","","","","76","L","3","","","109","main_expt",""
"","bandit","189","806812","0.0-150.0-0.0","34543444","wem/bandit_either_3","A3D2U4QF7821ZW","either","8","347","","","","","","","0","1","0","","0.8669893864","0.8","0.6","0.4","0.2","0.1189546392","0.8868335222","0.2817400418","0.8669893864","","","","","","","","","","","","76","L","3","","","110","main_expt",""
"","bandit","190","808841","0.0-151.0-0.0","34543444","wem/bandit_either_3","A3D2U4QF7821ZW","either","8","524","","","","","","","0","1","0","","0.799383849","0.8","0.6","0.4","0.2","0.09523351692","0.8770728171","0.2773620367","0.799383849","","","","","","","","","","","","76","L","3","","","111","main_expt",""
"","bandit","191","810732","0.0-152.0-0.0","34543444","wem/bandit_either_3","A3D2U4QF7821ZW","either","8","386","","","","","","","1","0","0","0.859799476","","0.8","0.6","0.4","0.2","","","","","0.107489667","0.8481710002","0.2833316415","0.859799476","","","","","","","","76","L","3","","","112","main_expt",""
"","bandit","192","812675","0.0-153.0-0.0","34543444","wem/bandit_either_3","A3D2U4QF7821ZW","either","8","423","","","","","","","0","1","0","","0.7932436089","0.8","0.6","0.4","0.2","0.1026187258","0.8573528835","0.3433702059","0.7932436089","","","","","","","","","","","","76","L","3","","","113","main_expt",""
"","bandit","193","814949","0.0-154.0-0.0","34543444","wem/bandit_either_3","A3D2U4QF7821ZW","either","8","759","","","","","","","0","1","0","","0.849407262","0.8","0.6","0.4","0.2","0.1044839951","0.8291807482","0.4828882278","0.849407262","","","","","","","","","","","","76","L","3","","","114","main_expt",""
"","bandit","194","817052","0.0-155.0-0.0","34543444","wem/bandit_either_3","A3D2U4QF7821ZW","either","8","598","","","","","","","0","1","0","","0.8882716547","0.8","0.6","0.4","0.2","0.1213931844","0.761972944","0.54932579","0.8882716547","","","","","","","","","","","","76","L","3","","","115","main_expt",""
"","bandit","195","821041","0.0-156.0-0.0","34543444","wem/bandit_either_3","A3D2U4QF7821ZW","either","8","2471","","","","","","","0","1","0","","0.8741354715","0.8","0.6","0.4","0.2","0.1184144227","0.786197192","0.6971345968","0.8741354715","","","","","","","","","","","","76","L","3","","","116","main_expt",""
"","bandit","196","822980","0.0-157.0-0.0","34543444","wem/bandit_either_3","A3D2U4QF7821ZW","either","8","434","","","","","","","0","1","0","","0.8083823922","0.8","0.6","0.4","0.2","0.1983931569","0.7834453561","0.5396272374","0.8083823922","","","","","","","","","","","","76","L","3","","","117","main_expt",""
"","bandit","197","825164","0.0-158.0-0.0","34543444","wem/bandit_either_3","A3D2U4QF7821ZW","either","8","679","","","","","","","0","1","0","","0.868525306","0.8","0.6","0.4","0.2","0.2840039584","0.6742380839","0.5544567993","0.868525306","","","","","","","","","","","","76","L","3","","","118","main_expt",""
"","bandit","198","827060","0.0-159.0-0.0","34543444","wem/bandit_either_3","A3D2U4QF7821ZW","either","8","382","","","","","","","0","1","0","","0.8386471998","0.8","0.6","0.4","0.2","0.3563325119","0.7350700153","0.5504896642","0.8386471998","","","","","","","","","","","","76","L","3","","","119","main_expt",""
"","bandit","199","828868","0.0-160.0-0.0","34543444","wem/bandit_either_3","A3D2U4QF7821ZW","either","8","302","","","","","","","0","1","0","","0.8103559508","0.8","0.6","0.4","0.2","0.5682387565","0.70601835","0.5812137135","0.8103559508","","","","","","","","","","","","76","L","3","","","120","main_expt",""
"","bandit","200","830717","0.0-161.0-0.0","34543444","wem/bandit_either_3","A3D2U4QF7821ZW","either","8","344","","","","","","","0","0","1","","0.8193015173","0.8","0.6","0.4","0.2","0.5189107771","0.7347719752","0.6033058466","0.8193015173","","","","","","","","","","","","76","L","3","","","121","main_expt",""
"","bandit","201","832619","0.0-162.0-0.0","34543444","wem/bandit_either_3","A3D2U4QF7821ZW","either","8","388","","","","","","","0","1","0","","0.8025146027","0.8","0.6","0.4","0.2","0.4428493372","0.8270923978","0.6102220397","0.8025146027","","","","","","","","","","","","76","L","3","","","122","main_expt",""
"","bandit","202","834605","0.0-163.0-0.0","34543444","wem/bandit_either_3","A3D2U4QF7821ZW","either","8","480","","","","","","","0","1","0","","0.8121847492","0.8","0.6","0.4","0.2","0.472724465","0.7980631313","0.6108151959","0.8121847492","","","","","","","","","","","","76","L","3","","","123","main_expt",""
"","bandit","203","836510","0.0-164.0-0.0","34543444","wem/bandit_either_3","A3D2U4QF7821ZW","either","8","398","","","","","","","0","0","1","0.8299418439","","0.8","0.6","0.4","0.2","","","","","0.4799585558","0.7369852887","0.7117385939","0.8299418439","","","","","","","","76","L","3","","","124","main_expt",""
"","bandit","204","838367","0.0-165.0-0.0","34543444","wem/bandit_either_3","A3D2U4QF7821ZW","either","8","349","","","","","","","1","0","0","0.825688343","","0.8","0.6","0.4","0.2","","","","","0.5080184993","0.7465944313","0.7554186078","0.825688343","","","","","","","","76","L","3","","","125","main_expt",""
"","bandit","205","840268","0.0-166.0-0.0","34543444","wem/bandit_either_3","A3D2U4QF7821ZW","either","8","396","","","","","","","0","0","1","","0.8372054396","0.8","0.6","0.4","0.2","0.4555098289","0.7596834852","0.8855751833","0.8372054396","","","","","","","","","","","","76","L","3","","","126","main_expt",""
"","bandit","206","842286","0.0-167.0-0.0","34543444","wem/bandit_either_3","A3D2U4QF7821ZW","either","8","511","","","","","","","1","0","0","0.7906689898","","0.8","0.6","0.4","0.2","","","","","0.5475411796","0.7398299979","0.8003015049","0.7906689898","","","","","","","","76","L","3","","","127","main_expt",""
"","bandit","207","844330","0.0-168.0-0.0","34543444","wem/bandit_either_3","A3D2U4QF7821ZW","either","8","537","","","","","","","0","0","1","","0.8008571507","0.8","0.6","0.4","0.2","0.612647382","0.7764866849","0.8403113951","0.8008571507","","","","","","","","","","","","76","L","3","","","128","main_expt",""
"","bandit","208","846489","0.0-169.0-0.0","34543444","wem/bandit_either_3","A3D2U4QF7821ZW","either","8","641","","","","","","","0","0","1","0.7829297973","","0.8","0.6","0.4","0.2","","","","","0.7128970287","0.6435675963","0.8826872071","0.7829297973","","","","","","","","76","L","3","","","129","main_expt",""
"","bandit","209","848746","0.0-170.0-0.0","34543444","wem/bandit_either_3","A3D2U4QF7821ZW","either","8","745","","","","","","","1","0","0","0.6898445721","","0.8","0.6","0.4","0.2","","","","","0.7309911721","0.7030252038","0.8641000085","0.6898445721","","","","","","","","76","L","3","","","130","main_expt",""
"","bandit","210","850740","0.0-171.0-0.0","34543444","wem/bandit_either_3","A3D2U4QF7821ZW","either","8","488","","","","","","","1","0","0","0.5864867529","","0.8","0.6","0.4","0.2","","","","","0.73180147","0.6829232191","0.8752037592","0.5864867529","","","","","","","","76","L","3","","","131","main_expt",""
"","bandit","211","852723","0.0-172.0-0.0","34543444","wem/bandit_either_3","A3D2U4QF7821ZW","either","8","476","","","","","","","1","0","0","0.560122833","","0.8","0.6","0.4","0.2","","","","","0.8467134838","0.7406452387","0.8279556795","0.560122833","","","","","","","","76","L","3","","","132","main_expt",""
"","bandit","212","854568","0.0-173.0-0.0","34543444","wem/bandit_either_3","A3D2U4QF7821ZW","either","8","339","","","","","","","0","1","0","","0.48439517","0.8","0.6","0.4","0.2","0.8481264083","0.6666234363","0.8194722428","0.48439517","","","","","","","","","","","","76","L","3","","","133","main_expt",""
"","bandit","213","856425","0.0-174.0-0.0","34543444","wem/bandit_either_3","A3D2U4QF7821ZW","either","8","345","","","","","","","0","0","1","","0.3919863126","0.8","0.6","0.4","0.2","0.8771050955","0.680542061","0.8037084922","0.3919863126","","","","","","","","","","","","76","L","3","","","134","main_expt",""
"","bandit","214","858070","0.0-175.0-0.0","34543444","wem/bandit_either_3","A3D2U4QF7821ZW","either","8","137","","","","","","","0","0","1","","0.5174750093","0.8","0.6","0.4","0.2","0.9103241533","0.7006187635","0.8155916457","0.5174750093","","","","","","","","","","","","76","L","3","","","135","main_expt",""
"","bandit","215","859835","0.0-176.0-0.0","34543444","wem/bandit_either_3","A3D2U4QF7821ZW","either","8","260","","","","","","","0","1","0","","0.9126032517","0.8","0.6","0.4","0.2","0.9126032517","0.6936815578","0.8281957705","0.4264762493","","","","","","","","","","","","72","H","0","img/none_selected.jpg","","136","main_expt",""
"","bandit","216","861716","0.0-177.0-0.0","34543444","wem/bandit_either_3","A3D2U4QF7821ZW","either","8","366","","","","","","","1","0","0","0.8983360858","","0.8","0.6","0.4","0.2","","","","","0.8983360858","0.6531428085","0.7055403129","0.5351999402","","","","","","","","72","H","0","img/none_selected.jpg","","137","main_expt",""
"","bandit","217","863684","0.0-178.0-0.0","34543444","wem/bandit_either_3","A3D2U4QF7821ZW","either","8","461","","","","","","","1","0","0","0.8851370462","","0.8","0.6","0.4","0.2","","","","","0.8851370462","0.6769758131","0.6884351598","0.4758748922","","","","","","","","72","H","0","img/none_selected.jpg","","138","main_expt",""
"","bandit","218","865515","0.0-179.0-0.0","34543444","wem/bandit_either_3","A3D2U4QF7821ZW","either","8","322","","","","","","","0","0","1","0.8662270416","","0.8","0.6","0.4","0.2","","","","","0.8662270416","0.7649589049","0.6090423031","0.4039793023","","","","","","","","72","H","0","img/none_selected.jpg","","139","main_expt",""
"","bandit","219","867261","0.0-180.0-0.0","34543444","wem/bandit_either_3","A3D2U4QF7821ZW","either","8","239","","","","","","","0","0","1","0.8345767194","","0.8","0.6","0.4","0.2","","","","","0.8345767194","0.7674202191","0.7000077187","0.384774136","","","","","","","","72","H","0","img/none_selected.jpg","","140","main_expt",""
"","bandit","220","869147","0.0-181.0-0.0","34543444","wem/bandit_either_3","A3D2U4QF7821ZW","either","8","381","","","","","","","1","0","0","0.8783670964","","0.8","0.6","0.4","0.2","","","","","0.8783670964","0.8575114448","0.6643185619","0.327254859","","","","","","","","72","H","0","img/none_selected.jpg","","141","main_expt",""
"","bandit","221","871068","0.0-182.0-0.0","34543444","wem/bandit_either_3","A3D2U4QF7821ZW","either","8","415","","","","","","","0","0","1","0.8895828315","","0.8","0.6","0.4","0.2","","","","","0.8895828315","0.8134430427","0.7079845674","0.4536641492","","","","","","","","72","H","0","img/none_selected.jpg","","142","main_expt",""
"","bandit","222","872728","0.0-183.0-0.0","34543444","wem/bandit_either_3","A3D2U4QF7821ZW","either","8","149","","","","","","","0","1","0","","0.8345505038","0.8","0.6","0.4","0.2","0.9053928798","0.8345505038","0.6624187643","0.4348486293","","","","","","","","","","","","74","J","1","","","143","main_expt",""
"","bandit","223","874609","0.0-184.0-0.0","34543444","wem/bandit_either_3","A3D2U4QF7821ZW","either","8","371","","","","","","","1","0","0","0.7482817554","","0.8","0.6","0.4","0.2","","","","","0.9033088386","0.7482817554","0.6779247185","0.4086594597","","","","","","","","74","J","1","","","144","main_expt",""
"","bandit","224","876617","0.0-185.0-0.0","34543444","wem/bandit_either_3","A3D2U4QF7821ZW","either","8","500","","","","","","","1","0","0","0.7400387939","","0.8","0.6","0.4","0.2","","","","","0.8572864227","0.7400387939","0.7216102374","0.4420772456","","","","","","","","74","J","1","","","145","main_expt",""
"","bandit","225","878484","0.0-186.0-0.0","34543444","wem/bandit_either_3","A3D2U4QF7821ZW","either","8","361","","","","","","","1","0","0","0.795971973","","0.8","0.6","0.4","0.2","","","","","0.8687508917","0.795971973","0.7837267619","0.508741462","","","","","","","","74","J","1","","","146","main_expt",""
"","bandit","226","880420","0.0-187.0-0.0","34543444","wem/bandit_either_3","A3D2U4QF7821ZW","either","8","431","","","","","","","0","1","0","","0.7503502301","0.8","0.6","0.4","0.2","0.8657621525","0.7503502301","0.7652264833","0.4624398998","","","","","","","","","","","","74","J","1","","","147","main_expt",""
"","bandit","227","882255","0.0-188.0-0.0","34543444","wem/bandit_either_3","A3D2U4QF7821ZW","either","8","327","","","","","","","0","1","0","","0.8200474043","0.8","0.6","0.4","0.2","0.8362891365","0.8200474043","0.7358716413","0.4062589849","","","","","","","","","","","","74","J","1","","","148","main_expt",""
"","bandit","228","884123","0.0-189.0-0.0","34543444","wem/bandit_either_3","A3D2U4QF7821ZW","either","8","363","","","","","","","1","0","0","0.8509010271","","0.8","0.6","0.4","0.2","","","","","0.8144386017","0.8509010271","0.7129200786","0.4895331913","","","","","","","","74","J","1","","","149","main_expt",""
"","bandit","229","885988","0.0-190.0-0.0","34543444","wem/bandit_either_3","A3D2U4QF7821ZW","either","8","360","","","","","","","0","1","0","","0.8298908313","0.8","0.6","0.4","0.2","0.6948055455","0.8298908313","0.705531668","0.4704746919","","","","","","","","","","","","74","J","1","","","150","main_expt",""
"","bandit","230","888051","0.0-191.0-0.0","34543444","wem/bandit_either_3","A3D2U4QF7821ZW","either","8","546","","","","","","","0","1","0","","0.7362749002","0.8","0.6","0.4","0.2","0.6231991314","0.7362749002","0.5744604188","0.4725745774","","","","","","","","","","","","74","J","1","","","151","main_expt",""
"","bandit","231","890345","0.0-192.0-0.0","34543444","wem/bandit_either_3","A3D2U4QF7821ZW","either","8","782","","","","","","","0","1","0","","0.7601791643","0.8","0.6","0.4","0.2","0.7045057733","0.7601791643","0.5372669321","0.4943906398","","","","","","","","","","","","74","J","1","","","152","main_expt",""
"","bandit","232","892376","0.0-193.0-0.0","34543444","wem/bandit_either_3","A3D2U4QF7821ZW","either","8","520","","","","","","","1","0","0","0.7590648118","","0.8","0.6","0.4","0.2","","","","","0.5331338622","0.7590648118","0.5447545218","0.4639524782","","","","","","","","74","J","1","","","153","main_expt",""
"","bandit","233","894357","0.0-194.0-0.0","34543444","wem/bandit_either_3","A3D2U4QF7821ZW","either","8","450","","","","","","","0","0","1","0.7805387907","","0.8","0.6","0.4","0.2","","","","","0.5096720896","0.7805387907","0.4191749193","0.3935792086","","","","","","","","74","J","1","","","154","main_expt",""
"","bandit","234","896251","0.0-195.0-0.0","34543444","wem/bandit_either_3","A3D2U4QF7821ZW","either","8","378","","","","","","","1","0","0","0.8450805748","","0.8","0.6","0.4","0.2","","","","","0.4719011365","0.8450805748","0.4269770229","0.4127348605","","","","","","","","74","J","1","","","155","main_expt",""
"","bandit","235","898667","0.0-196.0-0.0","34543444","wem/bandit_either_3","A3D2U4QF7821ZW","either","8","900","","","","","","","1","0","0","0.8513110265","","0.8","0.6","0.4","0.2","","","","","0.5818713095","0.8513110265","0.4589862704","0.3697675558","","","","","","","","74","J","1","","","156","main_expt",""
"","bandit","236","900635","0.0-197.0-0.0","34543444","wem/bandit_either_3","A3D2U4QF7821ZW","either","8","462","","","","","","","0","1","0","","0.8226236001","0.8","0.6","0.4","0.2","0.5804022203","0.8226236001","0.5370818316","0.3604398023","","","","","","","","","","","","74","J","1","","","157","main_expt",""
"","bandit","237","902572","0.0-198.0-0.0","34543444","wem/bandit_either_3","A3D2U4QF7821ZW","either","8","430","","","","","","","0","1","0","","0.8843141367","0.8","0.6","0.4","0.2","0.4773166223","0.8843141367","0.4757376888","0.4061750625","","","","","","","","","","","","74","J","1","","","158","main_expt",""
"","bandit","238","905116","0.0-199.0-0.0","34543444","wem/bandit_either_3","A3D2U4QF7821ZW","either","8","1031","","","","","","","1","0","0","0.8078798749","","0.8","0.6","0.4","0.2","","","","","0.419048585","0.8078798749","0.4887287223","0.4696417586","","","","","","","","74","J","1","","","159","main_expt",""
"","bandit","239","907020","0.0-200.0-0.0","34543444","wem/bandit_either_3","A3D2U4QF7821ZW","either","8","398","","","","","","","0","0","1","0.7689164465","","0.8","0.6","0.4","0.2","","","","","0.4672574386","0.7689164465","0.4588489809","0.4659569923","","","","","","","","74","J","1","","","160","main_expt",""
"","bandit","240","909300","0.0-201.0-0.0","34543444","wem/bandit_either_3","A3D2U4QF7821ZW","either","8","770","","","","","","","1","0","0","0.7863156869","","0.8","0.6","0.4","0.2","","","","","0.5612985374","0.7863156869","0.4920004413","0.3947207546","","","","","","","","74","J","1","","","161","main_expt",""
"","bandit","241","911460","0.0-202.0-0.0","34543444","wem/bandit_either_3","A3D2U4QF7821ZW","either","8","647","","","","","","","0","1","0","","0.8098475403","0.8","0.6","0.4","0.2","0.5288680036","0.8098475403","0.5389881207","0.2460097942","","","","","","","","","","","","74","J","1","","","162","main_expt",""
"","bandit","242","913225","0.0-203.0-0.0","34543444","wem/bandit_either_3","A3D2U4QF7821ZW","either","8","254","","","","","","","1","0","0","0.8222712862","","0.8","0.6","0.4","0.2","","","","","0.6096883849","0.8222712862","0.6040136001","0.3603606056","","","","","","","","74","J","1","","","163","main_expt",""
"","bandit","243","915212","0.0-204.0-0.0","34543444","wem/bandit_either_3","A3D2U4QF7821ZW","either","8","466","","","","","","","1","0","0","0.7876031225","","0.8","0.6","0.4","0.2","","","","","0.4868922288","0.7876031225","0.623756827","0.2507209727","","","","","","","","74","J","1","","","164","main_expt",""
"","bandit","244","917969","0.0-205.0-0.0","34543444","wem/bandit_either_3","A3D2U4QF7821ZW","either","8","1247","","","","","","","1","0","0","0.7435052823","","0.8","0.6","0.4","0.2","","","","","0.4055552053","0.7435052823","0.6164515281","0.2162043423","","","","","","","","74","J","1","","","165","main_expt",""
"","bandit","245","920312","0.0-206.0-0.0","34543444","wem/bandit_either_3","A3D2U4QF7821ZW","either","8","837","","","","","","","0","0","1","","0.6545739251","0.8","0.6","0.4","0.2","0.4748236382","0.6545739251","0.4660222187","0.2573409732","","","","","","","","","","","","74","J","1","","","166","main_expt",""
"","bandit","246","922220","0.0-207.0-0.0","34543444","wem/bandit_either_3","A3D2U4QF7821ZW","either","8","385","","","","","","","1","0","0","0.6645907447","","0.8","0.6","0.4","0.2","","","","","0.4725242185","0.6645907447","0.3336058786","0.4016088623","","","","","","","","74","J","1","","","167","main_expt",""
"","bandit","247","924756","0.0-208.0-0.0","34543444","wem/bandit_either_3","A3D2U4QF7821ZW","either","8","1014","","","","","","","1","0","0","0.7243751722","","0.8","0.6","0.4","0.2","","","","","0.4775208721","0.7243751722","0.2887723434","0.5522858252","","","","","","","","74","J","1","","","168","main_expt",""
"","bandit","248","926678","0.0-209.0-0.0","34543444","wem/bandit_either_3","A3D2U4QF7821ZW","either","8","404","","","","","","","1","0","0","0.6453105543","","0.8","0.6","0.4","0.2","","","","","0.4682732781","0.6453105543","0.3357056981","0.5461138513","","","","","","","","74","J","1","","","169","main_expt",""
"","bandit","249","928769","0.0-210.0-0.0","34543444","wem/bandit_either_3","A3D2U4QF7821ZW","either","8","571","","","","","","","1","0","0","0.5334010147","","0.8","0.6","0.4","0.2","","","","","0.4246621539","0.5334010147","0.4179693295","0.4402798015","","","","","","","","74","J","1","","","170","main_expt",""
"","bandit","250","930681","0.0-211.0-0.0","34543444","wem/bandit_either_3","A3D2U4QF7821ZW","either","8","405","","","","","","","1","0","0","0.498122785","","0.8","0.6","0.4","0.2","","","","","0.2843380906","0.498122785","0.3050406521","0.450294849","","","","","","","","74","J","1","","","171","main_expt",""
"","bandit","251","932597","0.0-212.0-0.0","34543444","wem/bandit_either_3","A3D2U4QF7821ZW","either","8","402","","","","","","","0","0","1","0.4356988635","","0.8","0.6","0.4","0.2","","","","","0.2668952485","0.4356988635","0.3364500029","0.6475755847","","","","","","","","74","J","1","","","172","main_expt",""
"","bandit","252","934704","0.0-213.0-0.0","34543444","wem/bandit_either_3","A3D2U4QF7821ZW","either","8","589","","","","","","","0","0","1","","0.3964199688","0.8","0.6","0.4","0.2","0.3802819164","0.3964199688","0.421339117","0.6095255177","","","","","","","","","","","","74","J","1","","","173","main_expt",""
"","bandit","253","936565","0.0-214.0-0.0","34543444","wem/bandit_either_3","A3D2U4QF7821ZW","either","8","354","","","","","","","0","0","1","0.3194345802","","0.8","0.6","0.4","0.2","","","","","0.4042455133","0.3194345802","0.4913704717","0.5003628493","","","","","","","","74","J","1","","","174","main_expt",""
"","bandit","254","938453","0.0-215.0-0.0","34543444","wem/bandit_either_3","A3D2U4QF7821ZW","either","8","379","","","","","","","0","1","0","","0.2865230234","0.8","0.6","0.4","0.2","0.4393989914","0.2865230234","0.5882611891","0.5576212716","","","","","","","","","","","","74","J","1","","","175","main_expt",""
"","bandit","255","940445","0.0-216.0-0.0","34543444","wem/bandit_either_3","A3D2U4QF7821ZW","either","8","476","","","","","","","0","0","1","0.6313830356","","0.8","0.6","0.4","0.2","","","","","0.4705173801","0.3352692614","0.6313830356","0.6230679906","","","","","","","","75","K","2","","","176","main_expt",""
"","bandit","256","942256","0.0-217.0-0.0","34543444","wem/bandit_either_3","A3D2U4QF7821ZW","either","8","304","","","","","","","0","1","0","","0.6501784685","0.8","0.6","0.4","0.2","0.4698597734","0.3389264817","0.5531265137","0.6501784685","","","","","","","","","","","","76","L","3","","","177","main_expt",""
"","bandit","257","944596","0.0-218.0-0.0","34543444","wem/bandit_either_3","A3D2U4QF7821ZW","either","8","834","","","","","","","0","1","0","","0.6334155083","0.8","0.6","0.4","0.2","0.3570804947","0.3709673039","0.4621004187","0.6334155083","","","","","","","","","","","","76","L","3","","","178","main_expt",""
"","bandit","258","946874","0.0-219.0-0.0","34543444","wem/bandit_either_3","A3D2U4QF7821ZW","either","8","766","","","","","","","0","1","0","","0.7548338289","0.8","0.6","0.4","0.2","0.3441184995","0.2940579202","0.512884041","0.7548338289","","","","","","","","","","","","76","L","3","","","179","main_expt",""
"","bandit","259","949582","0.0-220.0-0.0","34543444","wem/bandit_either_3","A3D2U4QF7821ZW","either","8","1191","","","","","","","1","0","0","0.8074073351","","0.8","0.6","0.4","0.2","","","","","0.3646136501","0.3218724025","0.506744284","0.8074073351","","","","","","","","76","L","3","","","180","main_expt",""
"","bandit","260","951483","0.0-221.0-0.0","34543444","wem/bandit_either_3","A3D2U4QF7821ZW","either","8","395","","","","","","","0","1","0","","0.780721516","0.8","0.6","0.4","0.2","0.3777688814","0.3633286182","0.4556494723","0.780721516","","","","","","","","","","","","76","L","3","","","181","main_expt",""
"","bandit","261","953550","0.0-222.0-0.0","34543444","wem/bandit_either_3","A3D2U4QF7821ZW","either","8","539","","","","","","","0","0","1","0.7647415088","","0.8","0.6","0.4","0.2","","","","","0.4578236703","0.3324048704","0.4494525508","0.7647415088","","","","","","","","76","L","3","","","182","main_expt",""
"","bandit","262","955608","0.0-223.0-0.0","34543444","wem/bandit_either_3","A3D2U4QF7821ZW","either","8","539","","","","","","","0","0","1","0.4244895098","","0.8","0.6","0.4","0.2","","","","","0.4244895098","0.3092830871","0.5189143621","0.7349307529","","","","","","","","72","H","0","img/none_selected.jpg","","183","main_expt",""
"","bandit","263","957319","0.0-224.0-0.0","34543444","wem/bandit_either_3","A3D2U4QF7821ZW","either","8","194","","","","","","","0","0","1","0.3905692936","","0.8","0.6","0.4","0.2","","","","","0.3566779322","0.3905692936","0.5167606333","0.8298088288","","","","","","","","74","J","1","","","184","main_expt",""
"","bandit","264","958921","0.0-225.0-0.0","34543444","wem/bandit_either_3","A3D2U4QF7821ZW","either","8","91","","","","","","","0","0","1","0.5270237034","","0.8","0.6","0.4","0.2","","","","","0.3737416658","0.4626192444","0.5270237034","0.7894193193","","","","","","","","75","K","2","","","185","main_expt",""
"","bandit","265","960643","0.0-226.0-0.0","34543444","wem/bandit_either_3","A3D2U4QF7821ZW","either","8","208","","","","","","","0","0","1","","0.7665022487","0.8","0.6","0.4","0.2","0.3120176694","0.6061762586","0.5556036571","0.7665022487","","","","","","","","","","","","76","L","3","","","186","main_expt",""
"","bandit","266","962442","0.0-227.0-0.0","34543444","wem/bandit_either_3","A3D2U4QF7821ZW","either","8","285","","","","","","","0","1","0","","0.4134691065","0.8","0.6","0.4","0.2","0.4134691065","0.530958695","0.5865134094","0.7394266891","","","","","","","","","","","","72","H","0","img/none_selected.jpg","","187","main_expt",""
"","bandit","267","964505","0.0-228.0-0.0","34543444","wem/bandit_either_3","A3D2U4QF7821ZW","either","8","532","","","","","","","0","0","1","0.4637770407","","0.8","0.6","0.4","0.2","","","","","0.4637770407","0.380024655","0.5034866795","0.6567361442","","","","","","","","72","H","0","img/none_selected.jpg","","188","main_expt",""
"","bandit","268","966436","0.0-229.0-0.0","34543444","wem/bandit_either_3","A3D2U4QF7821ZW","either","8","408","","","","","","","1","0","0","0.5739034088","","0.8","0.6","0.4","0.2","","","","","0.5739034088","0.4563575644","0.5761715841","0.6572443956","","","","","","","","72","H","0","img/none_selected.jpg","","189","main_expt",""
"","bandit","269","968289","0.0-230.0-0.0","34543444","wem/bandit_either_3","A3D2U4QF7821ZW","either","8","341","","","","","","","0","0","1","0.5859504021","","0.8","0.6","0.4","0.2","","","","","0.5859504021","0.4540853102","0.5325489933","0.6735764162","","","","","","","","72","H","0","img/none_selected.jpg","","190","main_expt",""
"","bandit","270","970216","0.0-231.0-0.0","34543444","wem/bandit_either_3","A3D2U4QF7821ZW","either","8","402","","","","","","","0","0","1","0.5325822721","","0.8","0.6","0.4","0.2","","","","","0.5325822721","0.4328006462","0.5614919892","0.5997518312","","","","","","","","72","H","0","img/none_selected.jpg","","191","main_expt",""
"","bandit","271","972279","0.0-232.0-0.0","34543444","wem/bandit_either_3","A3D2U4QF7821ZW","either","8","553","","","","","","","1","0","0","0.4622441745","","0.8","0.6","0.4","0.2","","","","","0.4622441745","0.4979354652","0.5972832049","0.6582178794","","","","","","","","72","H","0","img/none_selected.jpg","","192","main_expt",""
"","bandit","272","974886","0.0-233.0-0.0","34543444","wem/bandit_either_3","A3D2U4QF7821ZW","either","8","1088","","","","","","","0","0","1","","0.4765036663","0.8","0.6","0.4","0.2","0.4765036663","0.4887187701","0.6997951875","0.7246172867","","","","","","","","","","","","72","H","0","img/none_selected.jpg","","193","main_expt",""
"","bandit","273","976637","0.0-234.0-0.0","34543444","wem/bandit_either_3","A3D2U4QF7821ZW","either","8","245","","","","","","","0","1","0","","0.4993882896","0.8","0.6","0.4","0.2","0.4504155567","0.4993882896","0.7511051992","0.7721250451","","","","","","","","","","","","74","J","1","","","194","main_expt",""
"","bandit","274","978641","0.0-235.0-0.0","34543444","wem/bandit_either_3","A3D2U4QF7821ZW","either","8","484","","","","","","","0","0","1","","0.5011331455","0.8","0.6","0.4","0.2","0.4354252764","0.5011331455","0.8281457055","0.8366496483","","","","","","","","","","","","74","J","1","","","195","main_expt",""
"","bandit","275","980611","0.0-236.0-0.0","34543444","wem/bandit_either_3","A3D2U4QF7821ZW","either","8","457","","","","","","","0","1","0","","0.4487960683","0.8","0.6","0.4","0.2","0.4170899215","0.4487960683","0.8248544968","0.8484646997","","","","","","","","","","","","74","J","1","","","196","main_expt",""
"","bandit","276","982611","0.0-237.0-0.0","34543444","wem/bandit_either_3","A3D2U4QF7821ZW","either","8","479","","","","","","","0","1","0","","0.3975590019","0.8","0.6","0.4","0.2","0.4149059055","0.3975590019","0.8532714289","0.8734060335","","","","","","","","","","","","74","J","1","","","197","main_expt",""
"","bandit","277","984661","0.0-238.0-0.0","34543444","wem/bandit_either_3","A3D2U4QF7821ZW","either","8","544","","","","","","","0","1","0","","0.4161601929","0.8","0.6","0.4","0.2","0.4737306044","0.4161601929","0.7587337752","0.8515360685","","","","","","","","","","","","74","J","1","","","198","main_expt",""
"","bandit","278","986873","0.0-239.0-0.0","34543444","wem/bandit_either_3","A3D2U4QF7821ZW","either","8","698","","","","","","","0","0","1","","0.4483979408","0.8","0.6","0.4","0.2","0.4541760911","0.4483979408","0.8124408481","0.8805923715","","","","","","","","","","","","74","J","1","","","199","main_expt",""
"","bandit","279","988749","0.0-240.0-0.0","34543444","wem/bandit_either_3","A3D2U4QF7821ZW","either","8","362","","","","","","","0","0","1","","0.5303380975","0.8","0.6","0.4","0.2","0.3964714959","0.5303380975","0.7935778268","0.9645818821","","","","","","","","","","","","74","J","1","","","200","main_expt",""
"","bandit","280","990449","0.0-241.0-0.0","34543444","wem/bandit_either_3","A3D2U4QF7821ZW","either","8","181","","","","","","","0","1","0","","0.736942723","0.8","0.6","0.4","0.2","0.3815447649","0.4014045657","0.736942723","0.9689478708","","","","","","","","","","","","75","K","2","","","201","main_expt",""
"","bandit","281","992281","0.0-242.0-0.0","34543444","wem/bandit_either_3","A3D2U4QF7821ZW","either","8","312","","","","","","","0","1","0","","0.7001951276","0.8","0.6","0.4","0.2","0.3726367513","0.5115169607","0.7001951276","0.9678291885","","","","","","","","","","","","75","K","2","","","202","main_expt",""
"","bandit","282","995396","0.0-243.0-0.0","34543444","wem/bandit_either_3","A3D2U4QF7821ZW","either","8","1608","","","","","","","0","1","0","","0.7209300446","0.8","0.6","0.4","0.2","0.3062653216","0.5026191452","0.7209300446","0.9633244117","","","","","","","","","","","","75","K","2","","","203","main_expt",""
"","bandit","283","997444","0.0-244.0-0.0","34543444","wem/bandit_either_3","A3D2U4QF7821ZW","either","8","532","","","","","","","0","1","0","","0.8574132932","0.8","0.6","0.4","0.2","0.2848501254","0.4736298566","0.8574132932","0.9730812582","","","","","","","","","","","","75","K","2","","","204","main_expt",""
"","bandit","284","999239","0.0-245.0-0.0","34543444","wem/bandit_either_3","A3D2U4QF7821ZW","either","8","286","","","","","","","0","1","0","","0.9038760074","0.8","0.6","0.4","0.2","0.3457586416","0.6121858428","0.9038760074","0.9521206422","","","","","","","","","","","","75","K","2","","","205","main_expt",""
"","bandit","285","1001062","0.0-246.0-0.0","34543444","wem/bandit_either_3","A3D2U4QF7821ZW","either","8","316","","","","","","","0","1","0","","0.9273356803","0.8","0.6","0.4","0.2","0.4609097875","0.6377028942","0.9273356803","0.9614764056","","","","","","","","","","","","75","K","2","","","206","main_expt",""
"","bandit","286","1002947","0.0-247.0-0.0","34543444","wem/bandit_either_3","A3D2U4QF7821ZW","either","8","355","","","","","","","0","1","0","","0.9502037039","0.8","0.6","0.4","0.2","0.4980316736","0.5700483165","0.9502037039","0.9625830716","","","","","","","","","","","","75","K","2","","","207","main_expt",""
"","bandit","287","1005065","0.0-248.0-0.0","34543444","wem/bandit_either_3","A3D2U4QF7821ZW","either","8","607","","","","","","","1","0","0","0.944094639","","0.8","0.6","0.4","0.2","","","","","0.4537691537","0.624428721","0.944094639","0.9359306517","","","","","","","","75","K","2","","","208","main_expt",""
"","bandit","288","1007364","0.0-249.0-0.0","34543444","wem/bandit_either_3","A3D2U4QF7821ZW","either","8","794","","","","","","","0","1","0","","0.9070839441","0.8","0.6","0.4","0.2","0.4475842875","0.4861871301","0.9070839441","0.9632917203","","","","","","","","","","","","75","K","2","","","209","main_expt",""
"","bandit","289","1009467","0.0-250.0-0.0","34543444","wem/bandit_either_3","A3D2U4QF7821ZW","either","8","594","","","","","","","0","0","1","0.8960653589","","0.8","0.6","0.4","0.2","","","","","0.4803454055","0.3956361612","0.8960653589","0.9633226214","","","","","","","","75","K","2","","","210","main_expt",""
"","bandit","290","1011245","0.0-251.0-0.0","34543444","wem/bandit_either_3","A3D2U4QF7821ZW","either","8","262","","","","","","","1","0","0","0.3599204452","","0.8","0.6","0.4","0.2","","","","","0.4126443349","0.3599204452","0.9155455821","0.9719781217","","","","","","","","74","J","1","","","211","main_expt",""
"","bandit","291","1013496","0.0-252.0-0.0","34543444","wem/bandit_either_3","A3D2U4QF7821ZW","either","8","741","","","","","","","0","1","0","","0.3349000901","0.8","0.6","0.4","0.2","0.3384802849","0.3349000901","0.9087954588","0.9700781686","","","","","","","","","","","","74","J","1","","","212","main_expt",""
"","bandit","292","1016475","0.0-253.0-0.0","34543444","wem/bandit_either_3","A3D2U4QF7821ZW","either","8","1473","","","","","","","0","0","1","0.3183344176","","0.8","0.6","0.4","0.2","","","","","0.3039242722","0.3183344176","0.8528540962","0.971165811","","","","","","","","74","J","1","","","213","main_expt",""
"","bandit","293","1019279","0.0-254.0-0.0","34543444","wem/bandit_either_3","A3D2U4QF7821ZW","either","8","1279","","","","","","","0","0","1","0.2390758011","","0.8","0.6","0.4","0.2","","","","","0.4541530846","0.2390758011","0.8506041988","0.9627117","","","","","","","","74","J","1","","","214","main_expt",""
"","bandit","294","1023457","0.0-255.0-0.0","34543444","wem/bandit_either_3","A3D2U4QF7821ZW","either","8","2671","","","","","","","0","0","1","0.5101749692","","0.8","0.6","0.4","0.2","","","","","0.5101749692","0.1997060473","0.8001829978","0.9552130497","","","","","","","","72","H","0","img/none_selected.jpg","","215","main_expt",""
"","bandit","295","1025256","0.0-256.0-0.0","34543444","wem/bandit_either_3","A3D2U4QF7821ZW","either","8","274","","","","","","","0","1","0","","0.9220350188","0.8","0.6","0.4","0.2","0.5580520347","0.2326539104","0.733614842","0.9220350188","","","","","","","","","","","","76","L","3","","","216","main_expt",""
"","bandit","296","1027217","0.0-257.0-0.0","34543444","wem/bandit_either_3","A3D2U4QF7821ZW","either","8","442","","","","","","","0","1","0","","0.8736667029","0.8","0.6","0.4","0.2","0.4368451062","0.2319826337","0.7479737912","0.8736667029","","","","","","","","","","","","76","L","3","","","217","main_expt",""
"","bandit","297","1029164","0.0-258.0-0.0","34543444","wem/bandit_either_3","A3D2U4QF7821ZW","either","8","440","","","","","","","0","1","0","","0.7602784417","0.8","0.6","0.4","0.2","0.3963441813","0.3143382807","0.7713398237","0.7602784417","","","","","","","","","","","","76","L","3","","","218","main_expt",""
"","bandit","298","1032573","0.0-259.0-0.0","34543444","wem/bandit_either_3","A3D2U4QF7821ZW","either","8","1903","","","","","","","0","1","0","","0.7643050859","0.8","0.6","0.4","0.2","0.4809426617","0.3304972923","0.8077055691","0.7643050859","","","","","","","","","","","","76","L","3","","","219","main_expt",""
"","bandit","299","1034582","0.0-260.0-0.0","34543444","wem/bandit_either_3","A3D2U4QF7821ZW","either","8","497","","","","","","","0","1","0","","0.7793587236","0.8","0.6","0.4","0.2","0.397759556","0.2866104843","0.7778114837","0.7793587236","","","","","","","","","","","","76","L","3","","","220","main_expt",""
"","bandit","300","1036443","0.0-261.0-0.0","34543444","wem/bandit_either_3","A3D2U4QF7821ZW","either","8","340","","","","","","","0","1","0","","0.82086311","0.8","0.6","0.4","0.2","0.4087677593","0.3602561646","0.7214198583","0.82086311","","","","","","","","","","","","76","L","3","","","221","main_expt",""
"","bandit","301","1038495","0.0-262.0-0.0","34543444","wem/bandit_either_3","A3D2U4QF7821ZW","either","8","534","","","","","","","0","1","0","","0.8543662658","0.8","0.6","0.4","0.2","0.4561280915","0.3228749062","0.8091526303","0.8543662658","","","","","","","","","","","","76","L","3","","","222","main_expt",""
"","bandit","302","1040713","0.0-263.0-0.0","34543444","wem/bandit_either_3","A3D2U4QF7821ZW","either","8","706","","","","","","","0","0","1","","0.8599459829","0.8","0.6","0.4","0.2","0.4419858618","0.2549485676","0.8240838469","0.8599459829","","","","","","","","","","","","76","L","3","","","223","main_expt",""
"","bandit","303","1042350","0.0-264.0-0.0","34543444","wem/bandit_either_3","A3D2U4QF7821ZW","either","8","127","","","","","","","0","1","0","","0.8747991669","0.8","0.6","0.4","0.2","0.494409337","0.2389333491","0.7670685714","0.8747991669","","","","","","","","","","","","76","L","3","","","224","main_expt",""
"","bandit","304","1044720","0.0-265.0-0.0","34543444","wem/bandit_either_3","A3D2U4QF7821ZW","either","8","865","","","","","","","0","1","0","","0.7910409491","0.8","0.6","0.4","0.2","0.3713348049","0.1517307125","0.8775689376","0.7910409491","","","","","","","","","","","","76","L","3","","","225","main_expt",""
"","bandit","305","1047861","0.0-266.0-0.0","34543444","wem/bandit_either_3","A3D2U4QF7821ZW","either","8","1634","","","","","","","0","0","1","","0.7212928749","0.8","0.6","0.4","0.2","0.4013452417","0.1002450003","0.8846504348","0.7212928749","","","","","","","","","","","","76","L","3","","","226","main_expt",""
"","bandit","306","1050590","0.0-267.0-0.0","34543444","wem/bandit_either_3","A3D2U4QF7821ZW","either","8","1204","","","","","","","0","1","0","","0.7090989562","0.8","0.6","0.4","0.2","0.393451628","0.1049945928","0.851087938","0.7090989562","","","","","","","","","","","","76","L","3","","","227","main_expt",""
"","bandit","307","1054390","0.0-268.0-0.0","34543444","wem/bandit_either_3","A3D2U4QF7821ZW","either","8","2290","","","","","","","0","1","0","","0.6606736223","0.8","0.6","0.4","0.2","0.4175844788","0.03915988122","0.9074720337","0.6606736223","","","","","","","","","","","","76","L","3","","","228","main_expt",""
"","bandit","308","1056306","0.0-269.0-0.0","34543444","wem/bandit_either_3","A3D2U4QF7821ZW","either","8","400","","","","","","","0","1","0","","0.6893924153","0.8","0.6","0.4","0.2","0.408368909","0.03767516843","0.872332114","0.6893924153","","","","","","","","","","","","76","L","3","","","229","main_expt",""
"","bandit","309","1060309","0.0-270.0-0.0","34543444","wem/bandit_either_3","A3D2U4QF7821ZW","either","8","2497","","","","","","","1","0","0","0.6067604319","","0.8","0.6","0.4","0.2","","","","","0.4777699032","0.05804790214","0.7967167456","0.6067604319","","","","","","","","76","L","3","","","230","main_expt",""
"","bandit","310","1062172","0.0-271.0-0.0","34543444","wem/bandit_either_3","A3D2U4QF7821ZW","either","8","358","","","","","","","0","1","0","","0.5037419277","0.8","0.6","0.4","0.2","0.4935442242","0.04963095007","0.7760618079","0.5037419277","","","","","","","","","","","","76","L","3","","","231","main_expt",""
"","bandit","311","1064654","0.0-272.0-0.0","34543444","wem/bandit_either_3","A3D2U4QF7821ZW","either","8","959","","","","","","","1","0","0","0.4339479185","","0.8","0.6","0.4","0.2","","","","","0.4889590317","0.03759782928","0.7765467853","0.4339479185","","","","","","","","76","L","3","","","232","main_expt",""
"","bandit","312","1066550","0.0-273.0-0.0","34543444","wem/bandit_either_3","A3D2U4QF7821ZW","either","8","376","","","","","","","0","0","1","0.4525546635","","0.8","0.6","0.4","0.2","","","","","0.5212294662","0.03147013274","0.7895219362","0.4525546635","","","","","","","","76","L","3","","","233","main_expt",""
"","bandit","313","1068441","0.0-274.0-0.0","34543444","wem/bandit_either_3","A3D2U4QF7821ZW","either","8","380","","","","","","","0","0","1","","0.3680080929","0.8","0.6","0.4","0.2","0.4420617392","0.03547440544","0.7491899586","0.3680080929","","","","","","","","","","","","76","L","3","","","234","main_expt",""
"","bandit","314","1070236","0.0-275.0-0.0","34543444","wem/bandit_either_3","A3D2U4QF7821ZW","either","8","289","","","","","","","0","0","1","0.3416373547","","0.8","0.6","0.4","0.2","","","","","0.4816955248","0.04486782706","0.7397351474","0.3416373547","","","","","","","","76","L","3","","","235","main_expt",""
"","bandit","315","1072081","0.0-276.0-0.0","34543444","wem/bandit_either_3","A3D2U4QF7821ZW","either","8","333","","","","","","","1","0","0","0.6587673302","","0.8","0.6","0.4","0.2","","","","","0.3028121716","0.03122339122","0.6587673302","0.3722877153","","","","","","","","75","K","2","","","236","main_expt",""
"","bandit","316","1073899","0.0-277.0-0.0","34543444","wem/bandit_either_3","A3D2U4QF7821ZW","either","8","305","","","","","","","0","1","0","","0.7534934878","0.8","0.6","0.4","0.2","0.3802502189","0.04191117605","0.7534934878","0.3081002542","","","","","","","","","","","","75","K","2","","","237","main_expt",""
"","bandit","317","1075725","0.0-278.0-0.0","34543444","wem/bandit_either_3","A3D2U4QF7821ZW","either","8","320","","","","","","","0","1","0","","0.8023031038","0.8","0.6","0.4","0.2","0.4160754302","0.06367740527","0.8023031038","0.2546656634","","","","","","","","","","","","75","K","2","","","238","main_expt",""
"","bandit","318","1077324","0.0-279.0-0.0","34543444","wem/bandit_either_3","A3D2U4QF7821ZW","either","8","81","","","","","","","0","1","0","","0.8333986962","0.8","0.6","0.4","0.2","0.3510440385","0.06315957527","0.8333986962","0.3038323055","","","","","","","","","","","","75","K","2","","","239","main_expt",""
"","bandit","319","1079404","0.0-280.0-0.0","34543444","wem/bandit_either_3","A3D2U4QF7821ZW","either","8","574","","","","","","","0","0","1","","0.840768508","0.8","0.6","0.4","0.2","0.4182550587","0.05324295338","0.840768508","0.291884511","","","","","","","","","","","","75","K","2","","","240","main_expt",""
"","bandit","320","1081223","0.0-281.0-0.0","34543444","wem/bandit_either_3","A3D2U4QF7821ZW","either","8","309","","","","","","","0","0","1","","0.04641095239","0.8","0.6","0.4","0.2","0.5037088371","0.04641095239","0.823006268","0.3124975621","","","","","","","","","","","","74","J","1","","","241","main_expt",""
"","bandit","321","1083432","0.0-282.0-0.0","34543444","wem/bandit_either_3","A3D2U4QF7821ZW","either","8","682","","","","","","","1","0","0","0.4877747003","","0.8","0.6","0.4","0.2","","","","","0.4877747003","0.04954190216","0.8152254121","0.3637146884","","","","","","","","72","H","0","img/none_selected.jpg","","242","main_expt",""
"","bandit","322","1085245","0.0-283.0-0.0","34543444","wem/bandit_either_3","A3D2U4QF7821ZW","either","8","298","","","","","","","0","0","1","0.5007011316","","0.8","0.6","0.4","0.2","","","","","0.5007011316","0.05592390002","0.8377493118","0.3304840913","","","","","","","","72","H","0","img/none_selected.jpg","","243","main_expt",""
"","bandit","323","1086825","0.0-284.0-0.0","34543444","wem/bandit_either_3","A3D2U4QF7821ZW","either","8","68","","","","","","","1","0","0","0.8258586067","","0.8","0.6","0.4","0.2","","","","","0.5730304632","0.03808637997","0.8258586067","0.4067767971","","","","","","","","75","K","2","","","244","main_expt",""
"","bandit","324","1088593","0.0-285.0-0.0","34543444","wem/bandit_either_3","A3D2U4QF7821ZW","either","8","237","","","","","","","0","1","0","","0.7889424323","0.8","0.6","0.4","0.2","0.6096531262","0.02077199453","0.7889424323","0.4091901929","","","","","","","","","","","","75","K","2","","","245","main_expt",""
"","bandit","325","1090418","0.0-286.0-0.0","34543444","wem/bandit_either_3","A3D2U4QF7821ZW","either","8","304","","","","","","","1","0","0","0.7288058668","","0.8","0.6","0.4","0.2","","","","","0.6433625309","0.01756278659","0.7288058668","0.3814802778","","","","","","","","75","K","2","","","246","main_expt",""
"","bandit","326","1092203","0.0-287.0-0.0","34543444","wem/bandit_either_3","A3D2U4QF7821ZW","either","8","273","","","","","","","0","0","1","0.6944890646","","0.8","0.6","0.4","0.2","","","","","0.5912901759","0.02612390617","0.6944890646","0.4081758168","","","","","","","","75","K","2","","","247","main_expt",""
