"consent","trial_type","trial_index","time_elapsed","internal_node_id","subjID","study","MID","cond","drift","rt","responses","key_press","expt_phase","like","value","connected","gems","bombs","no_reward","GemPrChosen","BombPrChosen","GainOverPainPr_0","GainOverPainPr_1","GainOverPainPr_2","GainOverPainPr_3","LosePr_0","LosePr_1","LosePr_2","LosePr_3","WinPr_0","WinPr_1","WinPr_2","WinPr_3","Q0","Q1","Q2","gender","age","ethnicity","target","respCharCode","respKey","respChoiceNum","respChoice","practice","trial_counter","trial_label","button_pressed"
"INL_behavioral_consent_30min_online.html","consent","0","9546","0.0-0.0","35188403","wem/bandit_either_3","A24O8U6HKPJKVA","either","6","","","","","","","","","","","","","","","","","","","","","","","","","","","","","","","","","","","","","","",""
"","survey-text","1","22963","0.0-1.0","35188403","wem/bandit_either_3","A24O8U6HKPJKVA","either","6","12411","{""Q0"":""A24O8U6HKPJKVA""}","","","","","","","","","","","","","","","","","","","","","","","","","","","","","","","","","","","","",""
"","text","2","131687","0.0-2.0","35188403","wem/bandit_either_3","A24O8U6HKPJKVA","either","6","107722","","32","","","","","","","","","","","","","","","","","","","","","","","","","","","","","","","","","","","",""
"","text","3","137788","0.0-3.0","35188403","wem/bandit_either_3","A24O8U6HKPJKVA","either","6","6099","","32","","","","","","","","","","","","","","","","","","","","","","","","","","","","","","","","","","","",""
"","text","4","182471","0.0-4.0","35188403","wem/bandit_either_3","A24O8U6HKPJKVA","either","6","44680","","32","","","","","","","","","","","","","","","","","","","","","","","","","","","","","","","","","","","",""
"","text","5","196634","0.0-5.0","35188403","wem/bandit_either_3","A24O8U6HKPJKVA","either","6","14162","","32","","","","","","","","","","","","","","","","","","","","","","","","","","","","","","","","","","","",""
"","text","6","209439","0.0-6.0","35188403","wem/bandit_either_3","A24O8U6HKPJKVA","either","6","12805","","32","","","","","","","","","","","","","","","","","","","","","","","","","","","","","","","","","","","",""
"","text","7","218488","0.0-7.0","35188403","wem/bandit_either_3","A24O8U6HKPJKVA","either","6","9047","","32","","","","","","","","","","","","","","","","","","","","","","","","","","","","","","","","","","","",""
"","text","8","222584","0.0-8.0","35188403","wem/bandit_either_3","A24O8U6HKPJKVA","either","6","4095","","32","","","","","","","","","","","","","","","","","","","","","","","","","","","","","","","","","","","",""
"","identification","9","235877","0.0-9.0-0.0","35188403","wem/bandit_either_3","A24O8U6HKPJKVA","either","6","13279","","","","0","2","0","","","","","","","","","","","","","","","","","","","","","","","","the village of Zur","","","","","","","",""
"","identification","10","264829","0.0-9.0-1.0","35188403","wem/bandit_either_3","A24O8U6HKPJKVA","either","6","27941","","","","2","3","1","","","","","","","","","","","","","","","","","","","","","","","","the village of Nyx","","","","","","","",""
"","text","11","271256","0.0-10.0","35188403","wem/bandit_either_3","A24O8U6HKPJKVA","either","6","5425","","32","","","","","","","","","","","","","","","","","","","","","","","","","","","","","","","","","","","",""
"","text","12","273545","0.0-11.0","35188403","wem/bandit_either_3","A24O8U6HKPJKVA","either","6","2287","","32","","","","","","","","","","","","","","","","","","","","","","","","","","","","","","","","","","","",""
"","text","13","276048","0.0-12.0","35188403","wem/bandit_either_3","A24O8U6HKPJKVA","either","6","2501","","32","","","","","","","","","","","","","","","","","","","","","","","","","","","","","","","","","","","",""
"","text","14","279335","0.0-13.0","35188403","wem/bandit_either_3","A24O8U6HKPJKVA","either","6","3287","","32","","","","","","","","","","","","","","","","","","","","","","","","","","","","","","","","","","","",""
"","bandit","15","283063","0.0-14.0-0.0","35188403","wem/bandit_either_3","A24O8U6HKPJKVA","either","6","2217","","","","","","","0","0","1","0","0","","","","","0","","","","0","","","","","","","","","","","74","J","0","img/none_selected_demo.jpg","true","0","",""
"","bandit","16","286767","0.0-15.0-0.0","35188403","wem/bandit_either_3","A24O8U6HKPJKVA","either","6","2195","","","","","","","0","0","1","0","0","","","","","0","","","","0","","","","","","","","","","","75","K","0","img/none_selected_demo.jpg","true","0","",""
"","text","17","305697","0.0-16.0","35188403","wem/bandit_either_3","A24O8U6HKPJKVA","either","6","18927","","32","","","","","","","","","","","","","","","","","","","","","","","","","","","","","","","","","","","",""
"","text","18","314079","0.0-17.0","35188403","wem/bandit_either_3","A24O8U6HKPJKVA","either","6","8381","","32","","","","","","","","","","","","","","","","","","","","","","","","","","","","","","","","","","","",""
"","text","19","318640","0.0-18.0","35188403","wem/bandit_either_3","A24O8U6HKPJKVA","either","6","4561","","32","","","","","","","","","","","","","","","","","","","","","","","","","","","","","","","","","","","",""
"","text","20","320864","0.0-19.0","35188403","wem/bandit_either_3","A24O8U6HKPJKVA","either","6","2222","","32","","","","","","","","","","","","","","","","","","","","","","","","","","","","","","","","","","","",""
"","bandit","21","323814","0.0-20.0-0.0","35188403","wem/bandit_either_3","A24O8U6HKPJKVA","either","6","1443","","","","","","","0","1","0","","0.8","0.5","0.5","","","0.8","0.2","","","","","","","","","","","","","","74","J","0","img/none_selected_demo.jpg","true","0","80_20_practice",""
"","bandit","22","325918","0.0-20.0-1.0","35188403","wem/bandit_either_3","A24O8U6HKPJKVA","either","6","600","","","","","","","1","0","0","0.8","","0.5","0.5","","","","","","","0.8","0.2","","","","","","","","","","74","J","0","img/none_selected_demo.jpg","true","0","80_20_practice",""
"","bandit","23","327870","0.0-20.0-2.0","35188403","wem/bandit_either_3","A24O8U6HKPJKVA","either","6","448","","","","","","","0","0","1","","0.8","0.5","0.5","","","0.8","0.2","","","","","","","","","","","","","","74","J","0","img/none_selected_demo.jpg","true","0","80_20_practice",""
"","bandit","24","329495","0.0-20.0-3.0","35188403","wem/bandit_either_3","A24O8U6HKPJKVA","either","6","118","","","","","","","1","0","0","0.8","","0.5","0.5","","","","","","","0.8","0.2","","","","","","","","","","74","J","0","img/none_selected_demo.jpg","true","0","80_20_practice",""
"","bandit","25","331366","0.0-20.0-4.0","35188403","wem/bandit_either_3","A24O8U6HKPJKVA","either","6","367","","","","","","","1","0","0","0.8","","0.5","0.5","","","","","","","0.8","0.2","","","","","","","","","","74","J","0","img/none_selected_demo.jpg","true","0","80_20_practice",""
"","bandit","26","333320","0.0-20.0-5.0","35188403","wem/bandit_either_3","A24O8U6HKPJKVA","either","6","447","","","","","","","0","1","0","","0.8","0.5","0.5","","","0.8","0.2","","","","","","","","","","","","","","74","J","0","img/none_selected_demo.jpg","true","0","80_20_practice",""
"","bandit","27","335270","0.0-20.0-6.0","35188403","wem/bandit_either_3","A24O8U6HKPJKVA","either","6","445","","","","","","","0","0","1","0.2","","0.5","0.5","","","","","","","0.8","0.2","","","","","","","","","","75","K","1","","true","0","80_20_practice",""
"","bandit","28","337309","0.0-20.0-7.0","35188403","wem/bandit_either_3","A24O8U6HKPJKVA","either","6","532","","","","","","","1","0","0","0.2","","0.5","0.5","","","","","","","0.8","0.2","","","","","","","","","","75","K","1","","true","0","80_20_practice",""
"","bandit","29","339191","0.0-20.0-8.0","35188403","wem/bandit_either_3","A24O8U6HKPJKVA","either","6","376","","","","","","","0","1","0","","0.2","0.5","0.5","","","0.8","0.2","","","","","","","","","","","","","","75","K","1","","true","0","80_20_practice",""
"","bandit","30","341126","0.0-20.0-9.0","35188403","wem/bandit_either_3","A24O8U6HKPJKVA","either","6","427","","","","","","","0","0","1","0.2","","0.5","0.5","","","","","","","0.8","0.2","","","","","","","","","","75","K","1","","true","0","80_20_practice",""
"","bandit","31","344495","0.0-20.0-10.0","35188403","wem/bandit_either_3","A24O8U6HKPJKVA","either","6","1861","","","","","","","0","0","1","","0.2","0.5","0.5","","","0.8","0.2","","","","","","","","","","","","","","75","K","1","","true","0","80_20_practice",""
"","bandit","32","346790","0.0-20.0-11.0","35188403","wem/bandit_either_3","A24O8U6HKPJKVA","either","6","786","","","","","","","0","0","1","0.2","","0.5","0.5","","","","","","","0.8","0.2","","","","","","","","","","75","K","1","","true","0","80_20_practice",""
"","bandit","33","348943","0.0-20.0-12.0","35188403","wem/bandit_either_3","A24O8U6HKPJKVA","either","6","648","","","","","","","0","1","0","","0.2","0.5","0.5","","","0.8","0.2","","","","","","","","","","","","","","75","K","1","","true","0","80_20_practice",""
"","bandit","34","351101","0.0-20.0-13.0","35188403","wem/bandit_either_3","A24O8U6HKPJKVA","either","6","654","","","","","","","0","0","1","0.2","","0.5","0.5","","","","","","","0.8","0.2","","","","","","","","","","75","K","1","","true","0","80_20_practice",""
"","bandit","35","353901","0.0-20.0-14.0","35188403","wem/bandit_either_3","A24O8U6HKPJKVA","either","6","1297","","","","","","","0","0","1","0.2","","0.5","0.5","","","","","","","0.8","0.2","","","","","","","","","","75","K","1","","true","0","80_20_practice",""
"","bandit","36","355886","0.0-20.0-15.0","35188403","wem/bandit_either_3","A24O8U6HKPJKVA","either","6","481","","","","","","","0","0","1","0.2","","0.5","0.5","","","","","","","0.8","0.2","","","","","","","","","","75","K","1","","true","0","80_20_practice",""
"","bandit","37","357821","0.0-20.0-16.0","35188403","wem/bandit_either_3","A24O8U6HKPJKVA","either","6","429","","","","","","","0","0","1","","0.2","0.5","0.5","","","0.8","0.2","","","","","","","","","","","","","","75","K","1","","true","0","80_20_practice",""
"","bandit","38","359823","0.0-20.0-17.0","35188403","wem/bandit_either_3","A24O8U6HKPJKVA","either","6","494","","","","","","","0","0","1","","0.2","0.5","0.5","","","0.8","0.2","","","","","","","","","","","","","","75","K","1","","true","0","80_20_practice",""
"","bandit","39","361782","0.0-20.0-18.0","35188403","wem/bandit_either_3","A24O8U6HKPJKVA","either","6","450","","","","","","","0","1","0","","0.2","0.5","0.5","","","0.8","0.2","","","","","","","","","","","","","","75","K","1","","true","0","80_20_practice",""
"","bandit","40","363741","0.0-20.0-19.0","35188403","wem/bandit_either_3","A24O8U6HKPJKVA","either","6","453","","","","","","","1","0","0","0.8","","0.5","0.5","","","","","","","0.8","0.2","","","","","","","","","","74","J","0","img/none_selected_demo.jpg","true","0","80_20_practice",""
"","text","41","367727","0.0-21.0","35188403","wem/bandit_either_3","A24O8U6HKPJKVA","either","6","3984","","32","","","","","","","","","","","","","","","","","","","","","","","","","","","","","","","","","","","",""
"","bandit","42","370286","0.0-22.0-0.0","35188403","wem/bandit_either_3","A24O8U6HKPJKVA","either","6","1055","","","","","","","1","0","0","1","0","","","","","0","1","","","1","0","","","","","","","","","","74","J","0","img/none_selected_demo.jpg","true","0","",""
"","text","43","373491","0.0-23.0","35188403","wem/bandit_either_3","A24O8U6HKPJKVA","either","6","3202","","32","","","","","","","","","","","","","","","","","","","","","","","","","","","","","","","","","","","",""
"","text","44","377127","0.0-24.0","35188403","wem/bandit_either_3","A24O8U6HKPJKVA","either","6","3632","","32","","","","","","","","","","","","","","","","","","","","","","","","","","","","","","","","","","","",""
"","text","45","379087","0.0-25.0","35188403","wem/bandit_either_3","A24O8U6HKPJKVA","either","6","1957","","32","","","","","","","","","","","","","","","","","","","","","","","","","","","","","","","","","","","",""
"","text","46","381254","0.0-26.0","35188403","wem/bandit_either_3","A24O8U6HKPJKVA","either","6","2167","","32","","","","","","","","","","","","","","","","","","","","","","","","","","","","","","","","","","","",""
"","text","47","387329","0.0-27.0","35188403","wem/bandit_either_3","A24O8U6HKPJKVA","either","6","6074","","32","","","","","","","","","","","","","","","","","","","","","","","","","","","","","","","","","","","",""
"","text","48","397561","0.0-28.0","35188403","wem/bandit_either_3","A24O8U6HKPJKVA","either","6","10230","","32","","","","","","","","","","","","","","","","","","","","","","","","","","","","","","","","","","","",""
"","text","49","407916","0.0-29.0","35188403","wem/bandit_either_3","A24O8U6HKPJKVA","either","6","10353","","32","","","","","","","","","","","","","","","","","","","","","","","","","","","","","","","","","","","",""
"","text","50","411359","0.0-30.0","35188403","wem/bandit_either_3","A24O8U6HKPJKVA","either","6","3438","","32","","","","","","","","","","","","","","","","","","","","","","","","","","","","","","","","","","","",""
"","text","51","415047","0.0-31.0","35188403","wem/bandit_either_3","A24O8U6HKPJKVA","either","6","3688","","32","","","","","","","","","","","","","","","","","","","","","","","","","","","","","","","","","","","",""
"","text","52","416614","0.0-32.0","35188403","wem/bandit_either_3","A24O8U6HKPJKVA","either","6","1564","","32","","","","","","","","","","","","","","","","","","","","","","","","","","","","","","","","","","","",""
"","text","53","420983","0.0-33.0","35188403","wem/bandit_either_3","A24O8U6HKPJKVA","either","6","4367","","32","","","","","","","","","","","","","","","","","","","","","","","","","","","","","","","","","","","",""
"","bandit","54","423238","0.0-34.0-0.0","35188403","wem/bandit_either_3","A24O8U6HKPJKVA","either","6","748","","","","","","","0","1","0","","0.8","0.5","0.5","0.5","0.5","0.8","0.2","0.6","0.2","","","","","","","","","","","","72","H","0","img/none_selected.jpg","true","0","full_practice",""
"","bandit","55","425245","0.0-34.0-1.0","35188403","wem/bandit_either_3","A24O8U6HKPJKVA","either","6","499","","","","","","","0","1","0","","0.8","0.5","0.5","0.5","0.5","0.8","0.2","0.6","0.2","","","","","","","","","","","","72","H","0","img/none_selected.jpg","true","0","full_practice",""
"","bandit","56","427188","0.0-34.0-2.0","35188403","wem/bandit_either_3","A24O8U6HKPJKVA","either","6","437","","","","","","","0","0","1","","0.2","0.5","0.5","0.5","0.5","0.8","0.2","0.6","0.2","","","","","","","","","","","","74","J","1","","true","0","full_practice",""
"","bandit","57","429165","0.0-34.0-3.0","35188403","wem/bandit_either_3","A24O8U6HKPJKVA","either","6","472","","","","","","","0","1","0","","0.2","0.5","0.5","0.5","0.5","0.8","0.2","0.6","0.2","","","","","","","","","","","","74","J","1","","true","0","full_practice",""
"","bandit","58","431038","0.0-34.0-4.0","35188403","wem/bandit_either_3","A24O8U6HKPJKVA","either","6","369","","","","","","","0","0","1","0.6","","0.5","0.5","0.5","0.5","","","","","0.8","0.2","0.6","0.2","","","","","","","","75","K","2","","true","0","full_practice",""
"","bandit","59","432956","0.0-34.0-5.0","35188403","wem/bandit_either_3","A24O8U6HKPJKVA","either","6","412","","","","","","","0","0","1","","0.6","0.5","0.5","0.5","0.5","0.8","0.2","0.6","0.2","","","","","","","","","","","","75","K","2","","true","0","full_practice",""
"","bandit","60","435334","0.0-34.0-6.0","35188403","wem/bandit_either_3","A24O8U6HKPJKVA","either","6","872","","","","","","","0","0","1","","0.2","0.5","0.5","0.5","0.5","0.8","0.2","0.6","0.2","","","","","","","","","","","","76","L","3","","true","0","full_practice",""
"","bandit","61","437584","0.0-34.0-7.0","35188403","wem/bandit_either_3","A24O8U6HKPJKVA","either","6","739","","","","","","","0","0","1","0.2","","0.5","0.5","0.5","0.5","","","","","0.8","0.2","0.6","0.2","","","","","","","","76","L","3","","true","0","full_practice",""
"","bandit","62","439632","0.0-34.0-8.0","35188403","wem/bandit_either_3","A24O8U6HKPJKVA","either","6","538","","","","","","","0","0","1","","0.2","0.5","0.5","0.5","0.5","0.8","0.2","0.6","0.2","","","","","","","","","","","","76","L","3","","true","0","full_practice",""
"","bandit","63","441563","0.0-34.0-9.0","35188403","wem/bandit_either_3","A24O8U6HKPJKVA","either","6","420","","","","","","","1","0","0","0.6","","0.5","0.5","0.5","0.5","","","","","0.8","0.2","0.6","0.2","","","","","","","","75","K","2","","true","0","full_practice",""
"","bandit","64","443743","0.0-34.0-10.0","35188403","wem/bandit_either_3","A24O8U6HKPJKVA","either","6","672","","","","","","","1","0","0","0.6","","0.5","0.5","0.5","0.5","","","","","0.8","0.2","0.6","0.2","","","","","","","","75","K","2","","true","0","full_practice",""
"","bandit","65","446071","0.0-34.0-11.0","35188403","wem/bandit_either_3","A24O8U6HKPJKVA","either","6","819","","","","","","","1","0","0","0.6","","0.5","0.5","0.5","0.5","","","","","0.8","0.2","0.6","0.2","","","","","","","","75","K","2","","true","0","full_practice",""
"","bandit","66","447998","0.0-34.0-12.0","35188403","wem/bandit_either_3","A24O8U6HKPJKVA","either","6","422","","","","","","","0","1","0","","0.6","0.5","0.5","0.5","0.5","0.8","0.2","0.6","0.2","","","","","","","","","","","","75","K","2","","true","0","full_practice",""
"","bandit","67","450295","0.0-34.0-13.0","35188403","wem/bandit_either_3","A24O8U6HKPJKVA","either","6","791","","","","","","","1","0","0","0.6","","0.5","0.5","0.5","0.5","","","","","0.8","0.2","0.6","0.2","","","","","","","","75","K","2","","true","0","full_practice",""
"","bandit","68","452515","0.0-34.0-14.0","35188403","wem/bandit_either_3","A24O8U6HKPJKVA","either","6","713","","","","","","","0","0","1","0.6","","0.5","0.5","0.5","0.5","","","","","0.8","0.2","0.6","0.2","","","","","","","","75","K","2","","true","0","full_practice",""
"","bandit","69","454566","0.0-34.0-15.0","35188403","wem/bandit_either_3","A24O8U6HKPJKVA","either","6","546","","","","","","","0","0","1","","0.6","0.5","0.5","0.5","0.5","0.8","0.2","0.6","0.2","","","","","","","","","","","","75","K","2","","true","0","full_practice",""
"","bandit","70","456446","0.0-34.0-16.0","35188403","wem/bandit_either_3","A24O8U6HKPJKVA","either","6","372","","","","","","","0","0","1","0.6","","0.5","0.5","0.5","0.5","","","","","0.8","0.2","0.6","0.2","","","","","","","","75","K","2","","true","0","full_practice",""
"","bandit","71","458326","0.0-34.0-17.0","35188403","wem/bandit_either_3","A24O8U6HKPJKVA","either","6","375","","","","","","","1","0","0","0.6","","0.5","0.5","0.5","0.5","","","","","0.8","0.2","0.6","0.2","","","","","","","","75","K","2","","true","0","full_practice",""
"","bandit","72","460277","0.0-34.0-18.0","35188403","wem/bandit_either_3","A24O8U6HKPJKVA","either","6","444","","","","","","","1","0","0","0.6","","0.5","0.5","0.5","0.5","","","","","0.8","0.2","0.6","0.2","","","","","","","","75","K","2","","true","0","full_practice",""
"","bandit","73","462278","0.0-34.0-19.0","35188403","wem/bandit_either_3","A24O8U6HKPJKVA","either","6","495","","","","","","","1","0","0","0.6","","0.5","0.5","0.5","0.5","","","","","0.8","0.2","0.6","0.2","","","","","","","","75","K","2","","true","0","full_practice",""
"","text","74","465464","0.0-35.0","35188403","wem/bandit_either_3","A24O8U6HKPJKVA","either","6","3174","","32","","","","","","","","","","","","","","","","","","","","","","","","","","","","","","","","","","","",""
"","text","75","475817","0.0-36.0","35188403","wem/bandit_either_3","A24O8U6HKPJKVA","either","6","9351","","32","","","","","","","","","","","","","","","","","","","","","","","","","","","","","","","","","","","",""
"","text","76","484296","0.0-37.0","35188403","wem/bandit_either_3","A24O8U6HKPJKVA","either","6","8476","","32","","","","","","","","","","","","","","","","","","","","","","","","","","","","","","","","","","","",""
"","text","77","487705","0.0-38.0","35188403","wem/bandit_either_3","A24O8U6HKPJKVA","either","6","3407","","32","","","","","","","","","","","","","","","","","","","","","","","","","","","","","","","","","","","",""
"","text","78","492848","0.0-39.0","35188403","wem/bandit_either_3","A24O8U6HKPJKVA","either","6","5142","","32","","","","","","","","","","","","","","","","","","","","","","","","","","","","","","","","","","","",""
"","text","79","496583","0.0-40.0","35188403","wem/bandit_either_3","A24O8U6HKPJKVA","either","6","3732","","32","","","","","","","","","","","","","","","","","","","","","","","","","","","","","","","","","","","",""
"","bandit","80","499931","0.0-41.0-0.0","35188403","wem/bandit_either_3","A24O8U6HKPJKVA","either","6","1840","","","","","","","0","0","1","0.1947351938","","0.8","0.2","0.4","0.6","","","","","0.1947351938","0.2309914537","0.7197236342","0.3049938501","","","","","","","","72","H","0","img/none_selected.jpg","","1","main_expt",""
"","bandit","81","502223","0.0-42.0-0.0","35188403","wem/bandit_either_3","A24O8U6HKPJKVA","either","6","783","","","","","","","0","0","1","","0.2351366282","0.8","0.2","0.4","0.6","0.1865171684","0.2351366282","0.7453792406","0.3105507028","","","","","","","","","","","","74","J","1","","","2","main_expt",""
"","bandit","82","504077","0.0-43.0-0.0","35188403","wem/bandit_either_3","A24O8U6HKPJKVA","either","6","350","","","","","","","1","0","0","0.7422746785","","0.8","0.2","0.4","0.6","","","","","0.1578482069","0.3338792953","0.7422746785","0.347932066","","","","","","","","75","K","2","","","3","main_expt",""
"","bandit","83","505982","0.0-44.0-0.0","35188403","wem/bandit_either_3","A24O8U6HKPJKVA","either","6","400","","","","","","","1","0","0","0.8152876082","","0.8","0.2","0.4","0.6","","","","","0.1733557992","0.2578124611","0.8152876082","0.294099503","","","","","","","","75","K","2","","","4","main_expt",""
"","bandit","84","507863","0.0-45.0-0.0","35188403","wem/bandit_either_3","A24O8U6HKPJKVA","either","6","375","","","","","","","0","0","1","","0.8494846052","0.8","0.2","0.4","0.6","0.1275681293","0.152782507","0.8494846052","0.256228135","","","","","","","","","","","","75","K","2","","","5","main_expt",""
"","bandit","85","509719","0.0-46.0-0.0","35188403","wem/bandit_either_3","A24O8U6HKPJKVA","either","6","350","","","","","","","1","0","0","0.8036792828","","0.8","0.2","0.4","0.6","","","","","0.1776351543","0.200224935","0.8036792828","0.3142053347","","","","","","","","75","K","2","","","6","main_expt",""
"","bandit","86","511552","0.0-47.0-0.0","35188403","wem/bandit_either_3","A24O8U6HKPJKVA","either","6","322","","","","","","","1","0","0","0.8659664865","","0.8","0.2","0.4","0.6","","","","","0.1412615145","0.2200442108","0.8659664865","0.2382568898","","","","","","","","75","K","2","","","7","main_expt",""
"","bandit","87","513359","0.0-48.0-0.0","35188403","wem/bandit_either_3","A24O8U6HKPJKVA","either","6","297","","","","","","","1","0","0","0.8475436228","","0.8","0.2","0.4","0.6","","","","","0.1508054742","0.1516915951","0.8475436228","0.220471749","","","","","","","","75","K","2","","","8","main_expt",""
"","bandit","88","515261","0.0-49.0-0.0","35188403","wem/bandit_either_3","A24O8U6HKPJKVA","either","6","398","","","","","","","0","1","0","","0.8034999265","0.8","0.2","0.4","0.6","0.1882404854","0.1468829212","0.8034999265","0.2842820234","","","","","","","","","","","","75","K","2","","","9","main_expt",""
"","bandit","89","517152","0.0-50.0-0.0","35188403","wem/bandit_either_3","A24O8U6HKPJKVA","either","6","381","","","","","","","1","0","0","0.7148412232","","0.8","0.2","0.4","0.6","","","","","0.1731305678","0.1507643719","0.7148412232","0.3392415315","","","","","","","","75","K","2","","","10","main_expt",""
"","bandit","90","519072","0.0-51.0-0.0","35188403","wem/bandit_either_3","A24O8U6HKPJKVA","either","6","414","","","","","","","1","0","0","0.7213030285","","0.8","0.2","0.4","0.6","","","","","0.2475279461","0.18301","0.7213030285","0.4470346709","","","","","","","","75","K","2","","","11","main_expt",""
"","bandit","91","521174","0.0-52.0-0.0","35188403","wem/bandit_either_3","A24O8U6HKPJKVA","either","6","597","","","","","","","0","1","0","","0.7396148754","0.8","0.2","0.4","0.6","0.2068792089","0.209562337","0.7396148754","0.5143820195","","","","","","","","","","","","75","K","2","","","12","main_expt",""
"","bandit","92","523464","0.0-53.0-0.0","35188403","wem/bandit_either_3","A24O8U6HKPJKVA","either","6","782","","","","","","","0","0","1","","0.6870781676","0.8","0.2","0.4","0.6","0.1594062408","0.2133897639","0.6870781676","0.4934308908","","","","","","","","","","","","75","K","2","","","13","main_expt",""
"","bandit","93","525398","0.0-54.0-0.0","35188403","wem/bandit_either_3","A24O8U6HKPJKVA","either","6","424","","","","","","","1","0","0","0.6561171826","","0.8","0.2","0.4","0.6","","","","","0.1808320347","0.1865122749","0.6561171826","0.5884397519","","","","","","","","75","K","2","","","14","main_expt",""
"","bandit","94","527597","0.0-55.0-0.0","35188403","wem/bandit_either_3","A24O8U6HKPJKVA","either","6","691","","","","","","","0","1","0","","0.6255101569","0.8","0.2","0.4","0.6","0.2401125286","0.3169691733","0.6255101569","0.425765204","","","","","","","","","","","","75","K","2","","","15","main_expt",""
"","bandit","95","529574","0.0-56.0-0.0","35188403","wem/bandit_either_3","A24O8U6HKPJKVA","either","6","469","","","","","","","0","1","0","","0.4458974369","0.8","0.2","0.4","0.6","0.1823220599","0.3927767979","0.6101220295","0.4458974369","","","","","","","","","","","","76","L","3","","","16","main_expt",""
"","bandit","96","531590","0.0-57.0-0.0","35188403","wem/bandit_either_3","A24O8U6HKPJKVA","either","6","511","","","","","","","0","0","1","","0.2882183284","0.8","0.2","0.4","0.6","0.2076179308","0.2882183284","0.6233337625","0.4907358526","","","","","","","","","","","","74","J","1","","","17","main_expt",""
"","bandit","97","533478","0.0-58.0-0.0","35188403","wem/bandit_either_3","A24O8U6HKPJKVA","either","6","383","","","","","","","0","1","0","","0.3212622409","0.8","0.2","0.4","0.6","0.2310064443","0.3212622409","0.598865074","0.4895096529","","","","","","","","","","","","74","J","1","","","18","main_expt",""
"","bandit","98","535456","0.0-59.0-0.0","35188403","wem/bandit_either_3","A24O8U6HKPJKVA","either","6","471","","","","","","","0","1","0","","0.3678238944","0.8","0.2","0.4","0.6","0.1919199612","0.3678238944","0.6318918302","0.5437378015","","","","","","","","","","","","74","J","1","","","19","main_expt",""
"","bandit","99","537303","0.0-60.0-0.0","35188403","wem/bandit_either_3","A24O8U6HKPJKVA","either","6","335","","","","","","","0","0","1","0.2150176637","","0.8","0.2","0.4","0.6","","","","","0.2150176637","0.4357360734","0.5667690756","0.543071052","","","","","","","","72","H","0","img/none_selected.jpg","","20","main_expt",""
"","bandit","100","539310","0.0-61.0-0.0","35188403","wem/bandit_either_3","A24O8U6HKPJKVA","either","6","502","","","","","","","0","0","1","0.4486518506","","0.8","0.2","0.4","0.6","","","","","0.2980309021","0.4486518506","0.6364396753","0.5457928974","","","","","","","","74","J","1","","","21","main_expt",""
"","bandit","101","540911","0.0-62.0-0.0","35188403","wem/bandit_either_3","A24O8U6HKPJKVA","either","6","96","","","","","","","0","0","1","","0.3238742104","0.8","0.2","0.4","0.6","0.3238742104","0.5145372488","0.5563436533","0.4531799458","","","","","","","","","","","","72","H","0","img/none_selected.jpg","","22","main_expt",""
"","bandit","102","542821","0.0-63.0-0.0","35188403","wem/bandit_either_3","A24O8U6HKPJKVA","either","6","399","","","","","","","0","0","1","","0.4158928209","0.8","0.2","0.4","0.6","0.4158928209","0.6324996067","0.4555064456","0.4321579995","","","","","","","","","","","","72","H","0","img/none_selected.jpg","","23","main_expt",""
"","bandit","103","544678","0.0-64.0-0.0","35188403","wem/bandit_either_3","A24O8U6HKPJKVA","either","6","353","","","","","","","0","0","1","0.2798670784","","0.8","0.2","0.4","0.6","","","","","0.2798670784","0.6665025749","0.4398961724","0.3892872195","","","","","","","","72","H","0","img/none_selected.jpg","","24","main_expt",""
"","bandit","104","546509","0.0-65.0-0.0","35188403","wem/bandit_either_3","A24O8U6HKPJKVA","either","6","327","","","","","","","0","0","1","0.3810464824","","0.8","0.2","0.4","0.6","","","","","0.3932164435","0.5316582614","0.3810464824","0.4322880781","","","","","","","","75","K","2","","","25","main_expt",""
"","bandit","105","548262","0.0-66.0-0.0","35188403","wem/bandit_either_3","A24O8U6HKPJKVA","either","6","248","","","","","","","1","0","0","0.451695138","","0.8","0.2","0.4","0.6","","","","","0.3243459504","0.4282094451","0.451695138","0.4560392573","","","","","","","","75","K","2","","","26","main_expt",""
"","bandit","106","550213","0.0-67.0-0.0","35188403","wem/bandit_either_3","A24O8U6HKPJKVA","either","6","443","","","","","","","0","0","1","","0.4423729324","0.8","0.2","0.4","0.6","0.4266302179","0.4711380508","0.4423729324","0.5372901799","","","","","","","","","","","","75","K","2","","","27","main_expt",""
"","bandit","107","552102","0.0-68.0-0.0","35188403","wem/bandit_either_3","A24O8U6HKPJKVA","either","6","382","","","","","","","0","1","0","","0.4221124674","0.8","0.2","0.4","0.6","0.4206607535","0.4539290932","0.4221124674","0.6619872032","","","","","","","","","","","","75","K","2","","","28","main_expt",""
"","bandit","108","554457","0.0-69.0-0.0","35188403","wem/bandit_either_3","A24O8U6HKPJKVA","either","6","847","","","","","","","0","0","1","","0.4378511583","0.8","0.2","0.4","0.6","0.440099583","0.4378511583","0.489207998","0.5939885142","","","","","","","","","","","","74","J","1","","","29","main_expt",""
"","bandit","109","556400","0.0-70.0-0.0","35188403","wem/bandit_either_3","A24O8U6HKPJKVA","either","6","434","","","","","","","0","1","0","","0.3982168329","0.8","0.2","0.4","0.6","0.3982168329","0.3425428874","0.4406356357","0.5602145404","","","","","","","","","","","","72","H","0","img/none_selected.jpg","","30","main_expt",""
"","bandit","110","558333","0.0-71.0-0.0","35188403","wem/bandit_either_3","A24O8U6HKPJKVA","either","6","428","","","","","","","0","0","1","","0.2354865125","0.8","0.2","0.4","0.6","0.3573437221","0.2354865125","0.484130952","0.5376870091","","","","","","","","","","","","74","J","1","","","31","main_expt",""
"","bandit","111","560199","0.0-72.0-0.0","35188403","wem/bandit_either_3","A24O8U6HKPJKVA","either","6","359","","","","","","","0","1","0","","0.2552437171","0.8","0.2","0.4","0.6","0.3712986889","0.2552437171","0.432294219","0.6346195819","","","","","","","","","","","","74","J","1","","","32","main_expt",""
"","bandit","112","562055","0.0-73.0-0.0","35188403","wem/bandit_either_3","A24O8U6HKPJKVA","either","6","345","","","","","","","0","0","1","","0.4821309474","0.8","0.2","0.4","0.6","0.45096985","0.2470382599","0.4821309474","0.7540961955","","","","","","","","","","","","75","K","2","","","33","main_expt",""
"","bandit","113","564134","0.0-74.0-0.0","35188403","wem/bandit_either_3","A24O8U6HKPJKVA","either","6","570","","","","","","","0","1","0","","0.699797925","0.8","0.2","0.4","0.6","0.5559331637","0.2951894024","0.4702474349","0.699797925","","","","","","","","","","","","76","L","3","","","34","main_expt",""
"","bandit","114","566013","0.0-75.0-0.0","35188403","wem/bandit_either_3","A24O8U6HKPJKVA","either","6","372","","","","","","","1","0","0","0.5363697359","","0.8","0.2","0.4","0.6","","","","","0.7354386419","0.2596626779","0.5363697359","0.7410295452","","","","","","","","75","K","2","","","35","main_expt",""
"","bandit","115","567854","0.0-76.0-0.0","35188403","wem/bandit_either_3","A24O8U6HKPJKVA","either","6","337","","","","","","","0","0","1","0.602250539","","0.8","0.2","0.4","0.6","","","","","0.6934166837","0.3164764808","0.602250539","0.7332281969","","","","","","","","75","K","2","","","36","main_expt",""
"","bandit","116","569543","0.0-77.0-0.0","35188403","wem/bandit_either_3","A24O8U6HKPJKVA","either","6","182","","","","","","","1","0","0","0.5337433964","","0.8","0.2","0.4","0.6","","","","","0.6311869688","0.3672962009","0.5337433964","0.736713329","","","","","","","","75","K","2","","","37","main_expt",""
"","bandit","117","571630","0.0-78.0-0.0","35188403","wem/bandit_either_3","A24O8U6HKPJKVA","either","6","581","","","","","","","0","1","0","","0.5970413872","0.8","0.2","0.4","0.6","0.6583504975","0.4056598401","0.5970413872","0.6860808007","","","","","","","","","","","","75","K","2","","","38","main_expt",""
"","bandit","118","573638","0.0-79.0-0.0","35188403","wem/bandit_either_3","A24O8U6HKPJKVA","either","6","500","","","","","","","1","0","0","0.6529448079","","0.8","0.2","0.4","0.6","","","","","0.5861321806","0.4236995386","0.6529448079","0.7498761973","","","","","","","","75","K","2","","","39","main_expt",""
"","bandit","119","575613","0.0-80.0-0.0","35188403","wem/bandit_either_3","A24O8U6HKPJKVA","either","6","466","","","","","","","1","0","0","0.6612991154","","0.8","0.2","0.4","0.6","","","","","0.4892836735","0.4365163158","0.6612991154","0.7043283504","","","","","","","","75","K","2","","","40","main_expt",""
"","bandit","120","577501","0.0-81.0-0.0","35188403","wem/bandit_either_3","A24O8U6HKPJKVA","either","6","383","","","","","","","1","0","0","0.7390431107","","0.8","0.2","0.4","0.6","","","","","0.3479900608","0.4854269132","0.7390431107","0.6469690382","","","","","","","","75","K","2","","","41","main_expt",""
"","bandit","121","579407","0.0-82.0-0.0","35188403","wem/bandit_either_3","A24O8U6HKPJKVA","either","6","399","","","","","","","0","0","1","0.7609423287","","0.8","0.2","0.4","0.6","","","","","0.376709287","0.4753587859","0.7609423287","0.6388905256","","","","","","","","75","K","2","","","42","main_expt",""
"","bandit","122","581725","0.0-83.0-0.0","35188403","wem/bandit_either_3","A24O8U6HKPJKVA","either","6","813","","","","","","","0","1","0","","0.8039673949","0.8","0.2","0.4","0.6","0.4319300722","0.452202747","0.8039673949","0.6383372244","","","","","","","","","","","","75","K","2","","","43","main_expt",""
"","bandit","123","583989","0.0-84.0-0.0","35188403","wem/bandit_either_3","A24O8U6HKPJKVA","either","6","760","","","","","","","0","1","0","","0.8216753652","0.8","0.2","0.4","0.6","0.4458636389","0.5522191005","0.8216753652","0.6247854939","","","","","","","","","","","","75","K","2","","","44","main_expt",""
"","bandit","124","586191","0.0-85.0-0.0","35188403","wem/bandit_either_3","A24O8U6HKPJKVA","either","6","693","","","","","","","1","0","0","0.7636866317","","0.8","0.2","0.4","0.6","","","","","0.4323480181","0.4878962787","0.7636866317","0.6341880498","","","","","","","","75","K","2","","","45","main_expt",""
"","bandit","125","589166","0.0-86.0-0.0","35188403","wem/bandit_either_3","A24O8U6HKPJKVA","either","6","1464","","","","","","","1","0","0","0.8203755575","","0.8","0.2","0.4","0.6","","","","","0.4348202433","0.487595293","0.8203755575","0.5081310512","","","","","","","","75","K","2","","","46","main_expt",""
"","bandit","126","591902","0.0-87.0-0.0","35188403","wem/bandit_either_3","A24O8U6HKPJKVA","either","6","1231","","","","","","","0","0","1","","0.8706375764","0.8","0.2","0.4","0.6","0.3430847618","0.444754188","0.8706375764","0.4202927251","","","","","","","","","","","","75","K","2","","","47","main_expt",""
"","bandit","127","594398","0.0-88.0-0.0","35188403","wem/bandit_either_3","A24O8U6HKPJKVA","either","6","990","","","","","","","0","0","1","","0.8019506245","0.8","0.2","0.4","0.6","0.2601977795","0.5044276746","0.8019506245","0.4767868938","","","","","","","","","","","","75","K","2","","","48","main_expt",""
"","bandit","128","597117","0.0-89.0-0.0","35188403","wem/bandit_either_3","A24O8U6HKPJKVA","either","6","1208","","","","","","","0","1","0","","0.7331224435","0.8","0.2","0.4","0.6","0.2368144698","0.3766714482","0.7331224435","0.3749468019","","","","","","","","","","","","75","K","2","","","49","main_expt",""
"","bandit","129","599261","0.0-90.0-0.0","35188403","wem/bandit_either_3","A24O8U6HKPJKVA","either","6","639","","","","","","","0","0","1","0.7908344101","","0.8","0.2","0.4","0.6","","","","","0.2484527115","0.406992786","0.7908344101","0.3532902347","","","","","","","","75","K","2","","","50","main_expt",""
"","bandit","130","601181","0.0-91.0-0.0","35188403","wem/bandit_either_3","A24O8U6HKPJKVA","either","6","414","","","","","","","0","0","1","","0.7922828235","0.8","0.2","0.4","0.6","0.230268934","0.3854505747","0.7922828235","0.2413466802","","","","","","","","","","","","75","K","2","","","51","main_expt",""
"","bandit","131","603126","0.0-92.0-0.0","35188403","wem/bandit_either_3","A24O8U6HKPJKVA","either","6","438","","","","","","","1","0","0","0.7485378942","","0.8","0.2","0.4","0.6","","","","","0.3429002399","0.3956915145","0.7485378942","0.2673723166","","","","","","","","75","K","2","","","52","main_expt",""
"","bandit","132","605225","0.0-93.0-0.0","35188403","wem/bandit_either_3","A24O8U6HKPJKVA","either","6","589","","","","","","","0","0","1","","0.6603794952","0.8","0.2","0.4","0.6","0.2871029552","0.3062348001","0.6603794952","0.2806035608","","","","","","","","","","","","75","K","2","","","53","main_expt",""
"","bandit","133","607176","0.0-94.0-0.0","35188403","wem/bandit_either_3","A24O8U6HKPJKVA","either","6","439","","","","","","","0","1","0","","0.6931449795","0.8","0.2","0.4","0.6","0.2594444468","0.2996500993","0.6931449795","0.2544312064","","","","","","","","","","","","75","K","2","","","54","main_expt",""
"","bandit","134","609096","0.0-95.0-0.0","35188403","wem/bandit_either_3","A24O8U6HKPJKVA","either","6","412","","","","","","","0","0","1","","0.2518247787","0.8","0.2","0.4","0.6","0.3333749245","0.2518247787","0.7553272845","0.3362815808","","","","","","","","","","","","74","J","1","","","55","main_expt",""
"","bandit","135","610929","0.0-96.0-0.0","35188403","wem/bandit_either_3","A24O8U6HKPJKVA","either","6","324","","","","","","","0","1","0","","0.3014763065","0.8","0.2","0.4","0.6","0.3049104067","0.3014763065","0.7231548626","0.3798256012","","","","","","","","","","","","74","J","1","","","56","main_expt",""
"","bandit","136","612838","0.0-97.0-0.0","35188403","wem/bandit_either_3","A24O8U6HKPJKVA","either","6","398","","","","","","","0","0","1","0.3623273811","","0.8","0.2","0.4","0.6","","","","","0.3623273811","0.2730843718","0.7485901337","0.3989549393","","","","","","","","72","H","0","img/none_selected.jpg","","57","main_expt",""
"","bandit","137","614686","0.0-98.0-0.0","35188403","wem/bandit_either_3","A24O8U6HKPJKVA","either","6","341","","","","","","","1","0","0","0.3621169042","","0.8","0.2","0.4","0.6","","","","","0.3621169042","0.367239041","0.797082508","0.3373398956","","","","","","","","72","H","0","img/none_selected.jpg","","58","main_expt",""
"","bandit","138","616598","0.0-99.0-0.0","35188403","wem/bandit_either_3","A24O8U6HKPJKVA","either","6","407","","","","","","","1","0","0","0.3672848169","","0.8","0.2","0.4","0.6","","","","","0.3672848169","0.4005220403","0.7466963627","0.3381045731","","","","","","","","72","H","0","img/none_selected.jpg","","59","main_expt",""
"","bandit","139","618493","0.0-100.0-0.0","35188403","wem/bandit_either_3","A24O8U6HKPJKVA","either","6","383","","","","","","","0","0","1","0.5123874715","","0.8","0.2","0.4","0.6","","","","","0.5123874715","0.4863912708","0.6359615323","0.4838111383","","","","","","","","72","H","0","img/none_selected.jpg","","60","main_expt",""
"","bandit","140","620342","0.0-101.0-0.0","35188403","wem/bandit_either_3","A24O8U6HKPJKVA","either","6","341","","","","","","","1","0","0","0.5218319631","","0.8","0.2","0.4","0.6","","","","","0.5218319631","0.5220595343","0.7125939799","0.4290776342","","","","","","","","72","H","0","img/none_selected.jpg","","61","main_expt",""
"","bandit","141","622206","0.0-102.0-0.0","35188403","wem/bandit_either_3","A24O8U6HKPJKVA","either","6","352","","","","","","","0","0","1","0.6482151027","","0.8","0.2","0.4","0.6","","","","","0.6482151027","0.5447889898","0.5978650666","0.4387439774","","","","","","","","72","H","0","img/none_selected.jpg","","62","main_expt",""
"","bandit","142","624063","0.0-103.0-0.0","35188403","wem/bandit_either_3","A24O8U6HKPJKVA","either","6","350","","","","","","","1","0","0","0.6966290852","","0.8","0.2","0.4","0.6","","","","","0.6966290852","0.5517390004","0.5166338879","0.3670418014","","","","","","","","72","H","0","img/none_selected.jpg","","63","main_expt",""
"","bandit","143","625927","0.0-104.0-0.0","35188403","wem/bandit_either_3","A24O8U6HKPJKVA","either","6","353","","","","","","","0","0","1","0.6497033777","","0.8","0.2","0.4","0.6","","","","","0.6497033777","0.6576188384","0.4901650138","0.3470393933","","","","","","","","72","H","0","img/none_selected.jpg","","64","main_expt",""
"","bandit","144","627797","0.0-105.0-0.0","35188403","wem/bandit_either_3","A24O8U6HKPJKVA","either","6","365","","","","","","","1","0","0","0.6925184903","","0.8","0.2","0.4","0.6","","","","","0.6925184903","0.5156176703","0.459365688","0.3361574661","","","","","","","","72","H","0","img/none_selected.jpg","","65","main_expt",""
"","bandit","145","629821","0.0-106.0-0.0","35188403","wem/bandit_either_3","A24O8U6HKPJKVA","either","6","519","","","","","","","1","0","0","0.8298767513","","0.8","0.2","0.4","0.6","","","","","0.8298767513","0.3851410914","0.4666104807","0.34308242","","","","","","","","72","H","0","img/none_selected.jpg","","66","main_expt",""
"","bandit","146","631966","0.0-107.0-0.0","35188403","wem/bandit_either_3","A24O8U6HKPJKVA","either","6","640","","","","","","","0","0","1","0.8506596021","","0.8","0.2","0.4","0.6","","","","","0.8506596021","0.3925250542","0.5547259005","0.3730603492","","","","","","","","72","H","0","img/none_selected.jpg","","67","main_expt",""
"","bandit","147","633862","0.0-108.0-0.0","35188403","wem/bandit_either_3","A24O8U6HKPJKVA","either","6","390","","","","","","","0","0","1","","0.8536910832","0.8","0.2","0.4","0.6","0.8536910832","0.3884113518","0.6038719492","0.4089949532","","","","","","","","","","","","72","H","0","img/none_selected.jpg","","68","main_expt",""
"","bandit","148","636127","0.0-109.0-0.0","35188403","wem/bandit_either_3","A24O8U6HKPJKVA","either","6","761","","","","","","","1","0","0","0.8642538991","","0.8","0.2","0.4","0.6","","","","","0.8642538991","0.3434478979","0.6148283845","0.3749002533","","","","","","","","72","H","0","img/none_selected.jpg","","69","main_expt",""
"","bandit","149","637999","0.0-110.0-0.0","35188403","wem/bandit_either_3","A24O8U6HKPJKVA","either","6","362","","","","","","","1","0","0","0.8073802352","","0.8","0.2","0.4","0.6","","","","","0.8073802352","0.4426642051","0.6683283761","0.4133869845","","","","","","","","72","H","0","img/none_selected.jpg","","70","main_expt",""
"","bandit","150","639991","0.0-111.0-0.0","35188403","wem/bandit_either_3","A24O8U6HKPJKVA","either","6","477","","","","","","","1","0","0","0.8059201048","","0.8","0.2","0.4","0.6","","","","","0.8059201048","0.4518046004","0.738459761","0.3302164541","","","","","","","","72","H","0","img/none_selected.jpg","","71","main_expt",""
"","bandit","151","642046","0.0-112.0-0.0","35188403","wem/bandit_either_3","A24O8U6HKPJKVA","either","6","550","","","","","","","1","0","0","0.8262275011","","0.8","0.2","0.4","0.6","","","","","0.8262275011","0.4903223245","0.6525166508","0.2570952275","","","","","","","","72","H","0","img/none_selected.jpg","","72","main_expt",""
"","bandit","152","644144","0.0-113.0-0.0","35188403","wem/bandit_either_3","A24O8U6HKPJKVA","either","6","590","","","","","","","1","0","0","0.7334390718","","0.8","0.2","0.4","0.6","","","","","0.7334390718","0.5296083002","0.5715134512","0.2042885023","","","","","","","","72","H","0","img/none_selected.jpg","","73","main_expt",""
"","bandit","153","646451","0.0-114.0-0.0","35188403","wem/bandit_either_3","A24O8U6HKPJKVA","either","6","799","","","","","","","1","0","0","0.7490977197","","0.8","0.2","0.4","0.6","","","","","0.7490977197","0.4883026933","0.6228045854","0.2152837516","","","","","","","","72","H","0","img/none_selected.jpg","","74","main_expt",""
"","bandit","154","648584","0.0-115.0-0.0","35188403","wem/bandit_either_3","A24O8U6HKPJKVA","either","6","623","","","","","","","1","0","0","0.7554087461","","0.8","0.2","0.4","0.6","","","","","0.7554087461","0.4914171484","0.613630376","0.2044775694","","","","","","","","72","H","0","img/none_selected.jpg","","75","main_expt",""
"","bandit","155","650615","0.0-116.0-0.0","35188403","wem/bandit_either_3","A24O8U6HKPJKVA","either","6","524","","","","","","","1","0","0","0.804443878","","0.8","0.2","0.4","0.6","","","","","0.804443878","0.6059218973","0.7047266053","0.2247613499","","","","","","","","72","H","0","img/none_selected.jpg","","76","main_expt",""
"","bandit","156","652573","0.0-117.0-0.0","35188403","wem/bandit_either_3","A24O8U6HKPJKVA","either","6","453","","","","","","","1","0","0","0.6656620098","","0.8","0.2","0.4","0.6","","","","","0.6656620098","0.553792366","0.6910360943","0.2266335256","","","","","","","","72","H","0","img/none_selected.jpg","","77","main_expt",""
"","bandit","157","654537","0.0-118.0-0.0","35188403","wem/bandit_either_3","A24O8U6HKPJKVA","either","6","430","","","","","","","1","0","0","0.5898140708","","0.8","0.2","0.4","0.6","","","","","0.5898140708","0.6884193839","0.5515992215","0.1659731505","","","","","","","","72","H","0","img/none_selected.jpg","","78","main_expt",""
"","bandit","158","656475","0.0-119.0-0.0","35188403","wem/bandit_either_3","A24O8U6HKPJKVA","either","6","429","","","","","","","0","0","1","0.613215191","","0.8","0.2","0.4","0.6","","","","","0.613215191","0.7214277645","0.6448399581","0.2343921172","","","","","","","","72","H","0","img/none_selected.jpg","","79","main_expt",""
"","bandit","159","658518","0.0-120.0-0.0","35188403","wem/bandit_either_3","A24O8U6HKPJKVA","either","6","539","","","","","","","1","0","0","0.4605925783","","0.8","0.2","0.4","0.6","","","","","0.4605925783","0.7328142644","0.739479497","0.2164054515","","","","","","","","72","H","0","img/none_selected.jpg","","80","main_expt",""
"","bandit","160","660375","0.0-121.0-0.0","35188403","wem/bandit_either_3","A24O8U6HKPJKVA","either","6","349","","","","","","","0","0","1","","0.5390789087","0.8","0.2","0.4","0.6","0.5390789087","0.7101675561","0.6956071838","0.1361232007","","","","","","","","","","","","72","H","0","img/none_selected.jpg","","81","main_expt",""
"","bandit","161","661919","0.0-122.0-0.0","35188403","wem/bandit_either_3","A24O8U6HKPJKVA","either","6","34","","","","","","","1","0","0","0.621290364","","0.8","0.2","0.4","0.6","","","","","0.621290364","0.6984384541","0.5886517937","0.2275447725","","","","","","","","72","H","0","img/none_selected.jpg","","82","main_expt",""
"","bandit","162","663729","0.0-123.0-0.0","35188403","wem/bandit_either_3","A24O8U6HKPJKVA","either","6","298","","","","","","","1","0","0","0.6359424421","","0.8","0.2","0.4","0.6","","","","","0.6359424421","0.7447883659","0.4764182235","0.1900607051","","","","","","","","72","H","0","img/none_selected.jpg","","83","main_expt",""
"","bandit","163","665512","0.0-124.0-0.0","35188403","wem/bandit_either_3","A24O8U6HKPJKVA","either","6","269","","","","","","","1","0","0","0.6133664729","","0.8","0.2","0.4","0.6","","","","","0.6133664729","0.6900592863","0.5149027494","0.1306868958","","","","","","","","72","H","0","img/none_selected.jpg","","84","main_expt",""
"","bandit","164","667484","0.0-125.0-0.0","35188403","wem/bandit_either_3","A24O8U6HKPJKVA","either","6","458","","","","","","","1","0","0","0.7815463305","","0.8","0.2","0.4","0.6","","","","","0.7815463305","0.7010597455","0.4908067213","0.1683201849","","","","","","","","72","H","0","img/none_selected.jpg","","85","main_expt",""
"","bandit","165","669558","0.0-126.0-0.0","35188403","wem/bandit_either_3","A24O8U6HKPJKVA","either","6","562","","","","","","","0","1","0","","0.7355789231","0.8","0.2","0.4","0.6","0.7355789231","0.6171062652","0.4139472458","0.1290314955","","","","","","","","","","","","72","H","0","img/none_selected.jpg","","86","main_expt",""
"","bandit","166","671582","0.0-127.0-0.0","35188403","wem/bandit_either_3","A24O8U6HKPJKVA","either","6","514","","","","","","","0","0","1","0.7267399876","","0.8","0.2","0.4","0.6","","","","","0.7267399876","0.5629375242","0.4253818619","0.2297537383","","","","","","","","72","H","0","img/none_selected.jpg","","87","main_expt",""
"","bandit","167","673485","0.0-128.0-0.0","35188403","wem/bandit_either_3","A24O8U6HKPJKVA","either","6","397","","","","","","","1","0","0","0.7703195612","","0.8","0.2","0.4","0.6","","","","","0.7703195612","0.6434443074","0.4448862761","0.1878263516","","","","","","","","72","H","0","img/none_selected.jpg","","88","main_expt",""
"","bandit","168","675424","0.0-129.0-0.0","35188403","wem/bandit_either_3","A24O8U6HKPJKVA","either","6","426","","","","","","","0","1","0","","0.81872988","0.8","0.2","0.4","0.6","0.81872988","0.7296698787","0.4295642349","0.1896964823","","","","","","","","","","","","72","H","0","img/none_selected.jpg","","89","main_expt",""
"","bandit","169","677407","0.0-130.0-0.0","35188403","wem/bandit_either_3","A24O8U6HKPJKVA","either","6","471","","","","","","","0","1","0","","0.7042864347","0.8","0.2","0.4","0.6","0.8032570632","0.7042864347","0.3655203192","0.1614970172","","","","","","","","","","","","74","J","1","","","90","main_expt",""
"","bandit","170","679379","0.0-131.0-0.0","35188403","wem/bandit_either_3","A24O8U6HKPJKVA","either","6","463","","","","","","","0","0","1","0.402428746","","0.8","0.2","0.4","0.6","","","","","0.8257352781","0.7606559624","0.402428746","0.2107705911","","","","","","","","75","K","2","","","91","main_expt",""
"","bandit","171","681831","0.0-132.0-0.0","35188403","wem/bandit_either_3","A24O8U6HKPJKVA","either","6","942","","","","","","","1","0","0","0.452733603","","0.8","0.2","0.4","0.6","","","","","0.7762210657","0.8466818248","0.452733603","0.1317951273","","","","","","","","75","K","2","","","92","main_expt",""
"","bandit","172","683725","0.0-133.0-0.0","35188403","wem/bandit_either_3","A24O8U6HKPJKVA","either","6","387","","","","","","","1","0","0","0.5416456901","","0.8","0.2","0.4","0.6","","","","","0.8293629201","0.8181600593","0.5416456901","0.09268613222","","","","","","","","75","K","2","","","93","main_expt",""
"","bandit","173","685733","0.0-134.0-0.0","35188403","wem/bandit_either_3","A24O8U6HKPJKVA","either","6","503","","","","","","","0","1","0","","0.5246039132","0.8","0.2","0.4","0.6","0.7849393417","0.7259749053","0.5246039132","0.06418168538","","","","","","","","","","","","75","K","2","","","94","main_expt",""
"","bandit","174","687709","0.0-135.0-0.0","35188403","wem/bandit_either_3","A24O8U6HKPJKVA","either","6","471","","","","","","","0","0","1","0.100072779","","0.8","0.2","0.4","0.6","","","","","0.7850226125","0.6538641892","0.606801291","0.100072779","","","","","","","","76","L","3","","","95","main_expt",""
"","bandit","175","689577","0.0-136.0-0.0","35188403","wem/bandit_either_3","A24O8U6HKPJKVA","either","6","361","","","","","","","1","0","0","0.09628221604","","0.8","0.2","0.4","0.6","","","","","0.8013150942","0.6384360591","0.7175242067","0.09628221604","","","","","","","","76","L","3","","","96","main_expt",""
"","bandit","176","691518","0.0-137.0-0.0","35188403","wem/bandit_either_3","A24O8U6HKPJKVA","either","6","432","","","","","","","0","0","1","0.1335622201","","0.8","0.2","0.4","0.6","","","","","0.70340399","0.6836118029","0.7706560561","0.1335622201","","","","","","","","76","L","3","","","97","main_expt",""
"","bandit","177","693457","0.0-138.0-0.0","35188403","wem/bandit_either_3","A24O8U6HKPJKVA","either","6","429","","","","","","","0","1","0","","0.167202632","0.8","0.2","0.4","0.6","0.7562517051","0.659457158","0.7234704616","0.167202632","","","","","","","","","","","","76","L","3","","","98","main_expt",""
"","bandit","178","695382","0.0-139.0-0.0","35188403","wem/bandit_either_3","A24O8U6HKPJKVA","either","6","421","","","","","","","1","0","0","0.6582042781","","0.8","0.2","0.4","0.6","","","","","0.6514659141","0.7726162223","0.6582042781","0.1216125457","","","","","","","","75","K","2","","","99","main_expt",""
"","bandit","179","697464","0.0-140.0-0.0","35188403","wem/bandit_either_3","A24O8U6HKPJKVA","either","6","574","","","","","","","1","0","0","0.6530973887","","0.8","0.2","0.4","0.6","","","","","0.7112237606","0.8446518706","0.6530973887","0.1163239148","","","","","","","","75","K","2","","","100","main_expt",""
"","bandit","180","699528","0.0-141.0-0.0","35188403","wem/bandit_either_3","A24O8U6HKPJKVA","either","6","552","","","","","","","1","0","0","0.6690961394","","0.8","0.2","0.4","0.6","","","","","0.6865981462","0.8784151442","0.6690961394","0.1037928869","","","","","","","","75","K","2","","","101","main_expt",""
"","bandit","181","701519","0.0-142.0-0.0","35188403","wem/bandit_either_3","A24O8U6HKPJKVA","either","6","479","","","","","","","0","1","0","","0.6268844929","0.8","0.2","0.4","0.6","0.6663704066","0.8781202538","0.6268844929","0.0991068806","","","","","","","","","","","","75","K","2","","","102","main_expt",""
"","bandit","182","703432","0.0-143.0-0.0","35188403","wem/bandit_either_3","A24O8U6HKPJKVA","either","6","404","","","","","","","0","0","1","","0.1226752409","0.8","0.2","0.4","0.6","0.6006744832","0.8123732176","0.6657789595","0.1226752409","","","","","","","","","","","","76","L","3","","","103","main_expt",""
"","bandit","183","705334","0.0-144.0-0.0","35188403","wem/bandit_either_3","A24O8U6HKPJKVA","either","6","391","","","","","","","0","0","1","0.1552466415","","0.8","0.2","0.4","0.6","","","","","0.518723913","0.8461937008","0.6951589836","0.1552466415","","","","","","","","76","L","3","","","104","main_expt",""
"","bandit","184","707248","0.0-145.0-0.0","35188403","wem/bandit_either_3","A24O8U6HKPJKVA","either","6","400","","","","","","","0","0","1","0.1702138509","","0.8","0.2","0.4","0.6","","","","","0.5343999165","0.8664825842","0.6382729445","0.1702138509","","","","","","","","76","L","3","","","105","main_expt",""
"","bandit","185","709231","0.0-146.0-0.0","35188403","wem/bandit_either_3","A24O8U6HKPJKVA","either","6","472","","","","","","","0","0","1","0.7139624249","","0.8","0.2","0.4","0.6","","","","","0.4959998489","0.8703997655","0.7139624249","0.2021425125","","","","","","","","75","K","2","","","106","main_expt",""
"","bandit","186","711291","0.0-147.0-0.0","35188403","wem/bandit_either_3","A24O8U6HKPJKVA","either","6","549","","","","","","","0","1","0","","0.7718136471","0.8","0.2","0.4","0.6","0.5052663648","0.8964314806","0.7718136471","0.2196373816","","","","","","","","","","","","75","K","2","","","107","main_expt",""
"","bandit","187","713143","0.0-148.0-0.0","35188403","wem/bandit_either_3","A24O8U6HKPJKVA","either","6","339","","","","","","","0","1","0","","0.9080126319","0.8","0.2","0.4","0.6","0.4859582203","0.9080126319","0.8818715302","0.2393661099","","","","","","","","","","","","74","J","1","","","108","main_expt",""
"","bandit","188","715110","0.0-149.0-0.0","35188403","wem/bandit_either_3","A24O8U6HKPJKVA","either","6","461","","","","","","","1","0","0","0.523617738","","0.8","0.2","0.4","0.6","","","","","0.523617738","0.8880845243","0.8757741924","0.2516352594","","","","","","","","72","H","0","img/none_selected.jpg","","109","main_expt",""
"","bandit","189","717309","0.0-150.0-0.0","35188403","wem/bandit_either_3","A24O8U6HKPJKVA","either","6","694","","","","","","","1","0","0","0.5492010791","","0.8","0.2","0.4","0.6","","","","","0.5492010791","0.899251136","0.8657151097","0.2424291788","","","","","","","","72","H","0","img/none_selected.jpg","","110","main_expt",""
"","bandit","190","719229","0.0-151.0-0.0","35188403","wem/bandit_either_3","A24O8U6HKPJKVA","either","6","415","","","","","","","1","0","0","0.5467154696","","0.8","0.2","0.4","0.6","","","","","0.5467154696","0.9019514556","0.8457624762","0.2033086481","","","","","","","","72","H","0","img/none_selected.jpg","","111","main_expt",""
"","bandit","191","721574","0.0-152.0-0.0","35188403","wem/bandit_either_3","A24O8U6HKPJKVA","either","6","839","","","","","","","1","0","0","0.5396215981","","0.8","0.2","0.4","0.6","","","","","0.5396215981","0.9315537639","0.8756116827","0.208613213","","","","","","","","72","H","0","img/none_selected.jpg","","112","main_expt",""
"","bandit","192","723680","0.0-153.0-0.0","35188403","wem/bandit_either_3","A24O8U6HKPJKVA","either","6","590","","","","","","","1","0","0","0.5542875214","","0.8","0.2","0.4","0.6","","","","","0.5542875214","0.9254394702","0.8773181328","0.2743958833","","","","","","","","72","H","0","img/none_selected.jpg","","113","main_expt",""
"","bandit","193","725245","0.0-154.0-0.0","35188403","wem/bandit_either_3","A24O8U6HKPJKVA","either","6","60","","","","","","","1","0","0","0.6411428718","","0.8","0.2","0.4","0.6","","","","","0.6411428718","0.9394904604","0.8842236373","0.2657329006","","","","","","","","72","H","0","img/none_selected.jpg","","114","main_expt",""
"","bandit","194","728982","0.0-155.0-0.0","35188403","wem/bandit_either_3","A24O8U6HKPJKVA","either","6","2231","","","","","","","0","1","0","","0.7261400339","0.8","0.2","0.4","0.6","0.7261400339","0.9533355239","0.8499121835","0.3234316928","","","","","","","","","","","","72","H","0","img/none_selected.jpg","","115","main_expt",""
"","bandit","195","731431","0.0-156.0-0.0","35188403","wem/bandit_either_3","A24O8U6HKPJKVA","either","6","941","","","","","","","0","1","0","","0.7890056153","0.8","0.2","0.4","0.6","0.7395407697","0.960842596","0.7890056153","0.3625587123","","","","","","","","","","","","75","K","2","","","116","main_expt",""
"","bandit","196","733360","0.0-157.0-0.0","35188403","wem/bandit_either_3","A24O8U6HKPJKVA","either","6","419","","","","","","","0","1","0","","0.8231731708","0.8","0.2","0.4","0.6","0.8231731708","0.937733065","0.7709890197","0.4946904956","","","","","","","","","","","","72","H","0","img/none_selected.jpg","","117","main_expt",""
"","bandit","197","735278","0.0-158.0-0.0","35188403","wem/bandit_either_3","A24O8U6HKPJKVA","either","6","410","","","","","","","0","1","0","","0.9561499645","0.8","0.2","0.4","0.6","0.8278750807","0.9561499645","0.7459937787","0.6246330079","","","","","","","","","","","","74","J","1","","","118","main_expt",""
"","bandit","198","737190","0.0-159.0-0.0","35188403","wem/bandit_either_3","A24O8U6HKPJKVA","either","6","406","","","","","","","0","1","0","","0.5818097722","0.8","0.2","0.4","0.6","0.8715827524","0.9595118281","0.716881491","0.5818097722","","","","","","","","","","","","76","L","3","","","119","main_expt",""
"","bandit","199","739102","0.0-160.0-0.0","35188403","wem/bandit_either_3","A24O8U6HKPJKVA","either","6","406","","","","","","","1","0","0","0.8522670476","","0.8","0.2","0.4","0.6","","","","","0.8522670476","0.9548463758","0.6595649419","0.5990025551","","","","","","","","72","H","0","img/none_selected.jpg","","120","main_expt",""
"","bandit","200","740957","0.0-161.0-0.0","35188403","wem/bandit_either_3","A24O8U6HKPJKVA","either","6","345","","","","","","","0","1","0","","0.8266542562","0.8","0.2","0.4","0.6","0.8266542562","0.958085665","0.6576447048","0.6534424477","","","","","","","","","","","","72","H","0","img/none_selected.jpg","","121","main_expt",""
"","bandit","201","743021","0.0-162.0-0.0","35188403","wem/bandit_either_3","A24O8U6HKPJKVA","either","6","559","","","","","","","0","1","0","","0.9630601427","0.8","0.2","0.4","0.6","0.81688531","0.9630601427","0.6391957719","0.5952731017","","","","","","","","","","","","74","J","1","","","122","main_expt",""
"","bandit","202","744886","0.0-163.0-0.0","35188403","wem/bandit_either_3","A24O8U6HKPJKVA","either","6","359","","","","","","","1","0","0","0.5873908865","","0.8","0.2","0.4","0.6","","","","","0.8307363081","0.9790283764","0.5873908865","0.6469086187","","","","","","","","75","K","2","","","123","main_expt",""
"","bandit","203","746783","0.0-164.0-0.0","35188403","wem/bandit_either_3","A24O8U6HKPJKVA","either","6","391","","","","","","","1","0","0","0.6592760984","","0.8","0.2","0.4","0.6","","","","","0.6943824695","0.9718765302","0.6592760984","0.6911454426","","","","","","","","75","K","2","","","124","main_expt",""
"","bandit","204","749008","0.0-165.0-0.0","35188403","wem/bandit_either_3","A24O8U6HKPJKVA","either","6","717","","","","","","","0","0","1","","0.6012083746","0.8","0.2","0.4","0.6","0.7137568944","0.9845173964","0.6012083746","0.750572215","","","","","","","","","","","","75","K","2","","","125","main_expt",""
"","bandit","205","750936","0.0-166.0-0.0","35188403","wem/bandit_either_3","A24O8U6HKPJKVA","either","6","417","","","","","","","1","0","0","0.6043440275","","0.8","0.2","0.4","0.6","","","","","0.6878742658","0.9804670004","0.6043440275","0.8108432581","","","","","","","","75","K","2","","","126","main_expt",""
"","bandit","206","752950","0.0-167.0-0.0","35188403","wem/bandit_either_3","A24O8U6HKPJKVA","either","6","501","","","","","","","0","0","1","","0.5043142332","0.8","0.2","0.4","0.6","0.6175454059","0.9792667249","0.5043142332","0.8338196277","","","","","","","","","","","","75","K","2","","","127","main_expt",""
"","bandit","207","754871","0.0-168.0-0.0","35188403","wem/bandit_either_3","A24O8U6HKPJKVA","either","6","410","","","","","","","0","1","0","","0.5778209799","0.8","0.2","0.4","0.6","0.5556505876","0.9853815399","0.5778209799","0.8624128669","","","","","","","","","","","","75","K","2","","","128","main_expt",""
"","bandit","208","756743","0.0-169.0-0.0","35188403","wem/bandit_either_3","A24O8U6HKPJKVA","either","6","362","","","","","","","1","0","0","0.9026068167","","0.8","0.2","0.4","0.6","","","","","0.5948532478","0.9838319732","0.5806273004","0.9026068167","","","","","","","","76","L","3","","","129","main_expt",""
"","bandit","209","758687","0.0-170.0-0.0","35188403","wem/bandit_either_3","A24O8U6HKPJKVA","either","6","432","","","","","","","1","0","0","0.8983636673","","0.8","0.2","0.4","0.6","","","","","0.6646968067","0.9798768453","0.4152233618","0.8983636673","","","","","","","","76","L","3","","","130","main_expt",""
"","bandit","210","760751","0.0-171.0-0.0","35188403","wem/bandit_either_3","A24O8U6HKPJKVA","either","6","557","","","","","","","1","0","0","0.888478962","","0.8","0.2","0.4","0.6","","","","","0.6676177377","0.9628017066","0.4527057242","0.888478962","","","","","","","","76","L","3","","","131","main_expt",""
"","bandit","211","762655","0.0-172.0-0.0","35188403","wem/bandit_either_3","A24O8U6HKPJKVA","either","6","390","","","","","","","0","1","0","","0.8470567254","0.8","0.2","0.4","0.6","0.7638630926","0.9723970119","0.5185753891","0.8470567254","","","","","","","","","","","","76","L","3","","","132","main_expt",""
"","bandit","212","764561","0.0-173.0-0.0","35188403","wem/bandit_either_3","A24O8U6HKPJKVA","either","6","395","","","","","","","0","1","0","","0.8852081265","0.8","0.2","0.4","0.6","0.726350598","0.9754432393","0.4567386081","0.8852081265","","","","","","","","","","","","76","L","3","","","133","main_expt",""
"","bandit","213","766567","0.0-174.0-0.0","35188403","wem/bandit_either_3","A24O8U6HKPJKVA","either","6","501","","","","","","","1","0","0","0.8317422298","","0.8","0.2","0.4","0.6","","","","","0.7638059904","0.9635376407","0.4494056808","0.8317422298","","","","","","","","76","L","3","","","134","main_expt",""
"","bandit","214","768413","0.0-175.0-0.0","35188403","wem/bandit_either_3","A24O8U6HKPJKVA","either","6","340","","","","","","","1","0","0","0.8121858422","","0.8","0.2","0.4","0.6","","","","","0.7337835984","0.9304273523","0.4608562393","0.8121858422","","","","","","","","76","L","3","","","135","main_expt",""
"","bandit","215","770386","0.0-176.0-0.0","35188403","wem/bandit_either_3","A24O8U6HKPJKVA","either","6","463","","","","","","","1","0","0","0.8473276522","","0.8","0.2","0.4","0.6","","","","","0.7869055623","0.9295592062","0.6684020244","0.8473276522","","","","","","","","76","L","3","","","136","main_expt",""
"","bandit","216","772726","0.0-177.0-0.0","35188403","wem/bandit_either_3","A24O8U6HKPJKVA","either","6","833","","","","","","","1","0","0","0.8251243182","","0.8","0.2","0.4","0.6","","","","","0.8033651193","0.9343332129","0.614137061","0.8251243182","","","","","","","","76","L","3","","","137","main_expt",""
"","bandit","217","774886","0.0-178.0-0.0","35188403","wem/bandit_either_3","A24O8U6HKPJKVA","either","6","653","","","","","","","1","0","0","0.7892590299","","0.8","0.2","0.4","0.6","","","","","0.7620089345","0.9325781127","0.711021659","0.7892590299","","","","","","","","76","L","3","","","138","main_expt",""
"","bandit","218","777093","0.0-179.0-0.0","35188403","wem/bandit_either_3","A24O8U6HKPJKVA","either","6","694","","","","","","","0","0","1","0.753698647","","0.8","0.2","0.4","0.6","","","","","0.8098853196","0.9687763229","0.5731932267","0.753698647","","","","","","","","76","L","3","","","139","main_expt",""
"","bandit","219","780127","0.0-180.0-0.0","35188403","wem/bandit_either_3","A24O8U6HKPJKVA","either","6","1525","","","","","","","0","1","0","","0.7281837229","0.8","0.2","0.4","0.6","0.8737133651","0.9520204639","0.6553783698","0.7281837229","","","","","","","","","","","","76","L","3","","","140","main_expt",""
"","bandit","220","782538","0.0-181.0-0.0","35188403","wem/bandit_either_3","A24O8U6HKPJKVA","either","6","896","","","","","","","0","1","0","","0.7913145473","0.8","0.2","0.4","0.6","0.8464817719","0.9615613541","0.5665224918","0.7913145473","","","","","","","","","","","","76","L","3","","","141","main_expt",""
"","bandit","221","784383","0.0-182.0-0.0","35188403","wem/bandit_either_3","A24O8U6HKPJKVA","either","6","337","","","","","","","0","1","0","","0.7498898283","0.8","0.2","0.4","0.6","0.8457688645","0.9438722422","0.5230460729","0.7498898283","","","","","","","","","","","","76","L","3","","","142","main_expt",""
"","bandit","222","786294","0.0-183.0-0.0","35188403","wem/bandit_either_3","A24O8U6HKPJKVA","either","6","405","","","","","","","0","1","0","","0.5401897842","0.8","0.2","0.4","0.6","0.8801682128","0.9419241064","0.5401897842","0.723110339","","","","","","","","","","","","75","K","2","","","143","main_expt",""
"","bandit","223","788287","0.0-184.0-0.0","35188403","wem/bandit_either_3","A24O8U6HKPJKVA","either","6","479","","","","","","","0","1","0","","0.9383966058","0.8","0.2","0.4","0.6","0.7806105972","0.9383966058","0.5495292383","0.7697142539","","","","","","","","","","","","74","J","1","","","144","main_expt",""
"","bandit","224","790216","0.0-185.0-0.0","35188403","wem/bandit_either_3","A24O8U6HKPJKVA","either","6","422","","","","","","","1","0","0","0.7384744451","","0.8","0.2","0.4","0.6","","","","","0.7384744451","0.9442204223","0.4718854897","0.8279494337","","","","","","","","72","H","0","img/none_selected.jpg","","145","main_expt",""
"","bandit","225","792470","0.0-186.0-0.0","35188403","wem/bandit_either_3","A24O8U6HKPJKVA","either","6","746","","","","","","","1","0","0","0.7078417075","","0.8","0.2","0.4","0.6","","","","","0.7078417075","0.9461270134","0.3790577705","0.747104877","","","","","","","","72","H","0","img/none_selected.jpg","","146","main_expt",""
"","bandit","226","794624","0.0-187.0-0.0","35188403","wem/bandit_either_3","A24O8U6HKPJKVA","either","6","640","","","","","","","0","0","1","","0.7671729372","0.8","0.2","0.4","0.6","0.7671729372","0.9677113618","0.3671333747","0.7635883185","","","","","","","","","","","","72","H","0","img/none_selected.jpg","","147","main_expt",""
"","bandit","227","797024","0.0-188.0-0.0","35188403","wem/bandit_either_3","A24O8U6HKPJKVA","either","6","883","","","","","","","1","0","0","0.7515071201","","0.8","0.2","0.4","0.6","","","","","0.7515071201","0.9603287673","0.4462771912","0.6650729927","","","","","","","","72","H","0","img/none_selected.jpg","","148","main_expt",""
"","bandit","228","799535","0.0-189.0-0.0","35188403","wem/bandit_either_3","A24O8U6HKPJKVA","either","6","1001","","","","","","","1","0","0","0.7582160768","","0.8","0.2","0.4","0.6","","","","","0.7582160768","0.9256305183","0.3929125452","0.594527628","","","","","","","","72","H","0","img/none_selected.jpg","","149","main_expt",""
"","bandit","229","808912","0.0-190.0-0.0","35188403","wem/bandit_either_3","A24O8U6HKPJKVA","either","6","7861","","","","","","","1","0","0","0.6843302658","","0.8","0.2","0.4","0.6","","","","","0.6843302658","0.9222609783","0.3825194633","0.5101412162","","","","","","","","72","H","0","img/none_selected.jpg","","150","main_expt",""
"","bandit","230","811621","0.0-191.0-0.0","35188403","wem/bandit_either_3","A24O8U6HKPJKVA","either","6","1200","","","","","","","0","1","0","","0.4980827124","0.8","0.2","0.4","0.6","0.4980827124","0.9522131909","0.3889652011","0.5755011036","","","","","","","","","","","","72","H","0","img/none_selected.jpg","","151","main_expt",""
"","bandit","231","814223","0.0-192.0-0.0","35188403","wem/bandit_either_3","A24O8U6HKPJKVA","either","6","1092","","","","","","","0","1","0","","0.5415628766","0.8","0.2","0.4","0.6","0.5418861514","0.9351777179","0.372169082","0.5415628766","","","","","","","","","","","","76","L","3","","","152","main_expt",""
"","bandit","232","816377","0.0-193.0-0.0","35188403","wem/bandit_either_3","A24O8U6HKPJKVA","either","6","640","","","","","","","0","0","1","0.6424708626","","0.8","0.2","0.4","0.6","","","","","0.6424708626","0.9526549669","0.4275919172","0.6392888902","","","","","","","","72","H","0","img/none_selected.jpg","","153","main_expt",""
"","bandit","233","818650","0.0-194.0-0.0","35188403","wem/bandit_either_3","A24O8U6HKPJKVA","either","6","763","","","","","","","0","0","1","0.6200403258","","0.8","0.2","0.4","0.6","","","","","0.6200403258","0.944677936","0.3978897223","0.6798835142","","","","","","","","72","H","0","img/none_selected.jpg","","154","main_expt",""
"","bandit","234","820840","0.0-195.0-0.0","35188403","wem/bandit_either_3","A24O8U6HKPJKVA","either","6","682","","","","","","","1","0","0","0.5087788092","","0.8","0.2","0.4","0.6","","","","","0.5087788092","0.9443948233","0.4922143253","0.7376683638","","","","","","","","72","H","0","img/none_selected.jpg","","155","main_expt",""
"","bandit","235","822998","0.0-196.0-0.0","35188403","wem/bandit_either_3","A24O8U6HKPJKVA","either","6","642","","","","","","","0","0","1","0.4397360723","","0.8","0.2","0.4","0.6","","","","","0.4397360723","0.9312029685","0.5060601407","0.7740838489","","","","","","","","72","H","0","img/none_selected.jpg","","156","main_expt",""
"","bandit","236","825199","0.0-197.0-0.0","35188403","wem/bandit_either_3","A24O8U6HKPJKVA","either","6","686","","","","","","","0","0","1","","0.4529934193","0.8","0.2","0.4","0.6","0.4529934193","0.9009413449","0.56460533","0.7526352547","","","","","","","","","","","","72","H","0","img/none_selected.jpg","","157","main_expt",""
"","bandit","237","827158","0.0-198.0-0.0","35188403","wem/bandit_either_3","A24O8U6HKPJKVA","either","6","452","","","","","","","0","0","1","0.522014142","","0.8","0.2","0.4","0.6","","","","","0.522014142","0.8799225656","0.5551408743","0.807066173","","","","","","","","72","H","0","img/none_selected.jpg","","158","main_expt",""
"","bandit","238","829263","0.0-199.0-0.0","35188403","wem/bandit_either_3","A24O8U6HKPJKVA","either","6","595","","","","","","","1","0","0","0.447178695","","0.8","0.2","0.4","0.6","","","","","0.447178695","0.9103166083","0.6362487126","0.8348587906","","","","","","","","72","H","0","img/none_selected.jpg","","159","main_expt",""
"","bandit","239","831239","0.0-200.0-0.0","35188403","wem/bandit_either_3","A24O8U6HKPJKVA","either","6","469","","","","","","","0","0","1","0.4293784973","","0.8","0.2","0.4","0.6","","","","","0.4293784973","0.9575168601","0.5818198138","0.8054329593","","","","","","","","72","H","0","img/none_selected.jpg","","160","main_expt",""
"","bandit","240","833342","0.0-201.0-0.0","35188403","wem/bandit_either_3","A24O8U6HKPJKVA","either","6","592","","","","","","","0","0","1","","0.4263694152","0.8","0.2","0.4","0.6","0.4263694152","0.9323430526","0.5079421761","0.8263011938","","","","","","","","","","","","72","H","0","img/none_selected.jpg","","161","main_expt",""
"","bandit","241","835544","0.0-202.0-0.0","35188403","wem/bandit_either_3","A24O8U6HKPJKVA","either","6","695","","","","","","","0","0","1","0.4394756583","","0.8","0.2","0.4","0.6","","","","","0.4394756583","0.8731035433","0.3944353318","0.8468561623","","","","","","","","72","H","0","img/none_selected.jpg","","162","main_expt",""
"","bandit","242","837445","0.0-203.0-0.0","35188403","wem/bandit_either_3","A24O8U6HKPJKVA","either","6","395","","","","","","","0","1","0","","0.4632532181","0.8","0.2","0.4","0.6","0.4632532181","0.860239847","0.4560534757","0.866861138","","","","","","","","","","","","72","H","0","img/none_selected.jpg","","163","main_expt",""
"","bandit","243","839360","0.0-204.0-0.0","35188403","wem/bandit_either_3","A24O8U6HKPJKVA","either","6","408","","","","","","","0","0","1","0.469091439","","0.8","0.2","0.4","0.6","","","","","0.469091439","0.8327160304","0.4338988853","0.8621839131","","","","","","","","72","H","0","img/none_selected.jpg","","164","main_expt",""
"","bandit","244","841229","0.0-205.0-0.0","35188403","wem/bandit_either_3","A24O8U6HKPJKVA","either","6","362","","","","","","","0","0","1","0.4691854483","","0.8","0.2","0.4","0.6","","","","","0.4691854483","0.8780399083","0.3640020004","0.8368369455","","","","","","","","72","H","0","img/none_selected.jpg","","165","main_expt",""
"","bandit","245","843149","0.0-206.0-0.0","35188403","wem/bandit_either_3","A24O8U6HKPJKVA","either","6","414","","","","","","","1","0","0","0.424594696","","0.8","0.2","0.4","0.6","","","","","0.424594696","0.8659509199","0.4433911144","0.8543831227","","","","","","","","72","H","0","img/none_selected.jpg","","166","main_expt",""
"","bandit","246","845103","0.0-207.0-0.0","35188403","wem/bandit_either_3","A24O8U6HKPJKVA","either","6","440","","","","","","","0","0","1","0.4691217736","","0.8","0.2","0.4","0.6","","","","","0.4691217736","0.8458676595","0.4852122499","0.8444257961","","","","","","","","72","H","0","img/none_selected.jpg","","167","main_expt",""
"","bandit","247","847103","0.0-208.0-0.0","35188403","wem/bandit_either_3","A24O8U6HKPJKVA","either","6","492","","","","","","","1","0","0","0.8895061166","","0.8","0.2","0.4","0.6","","","","","0.4605946041","0.7368025647","0.4829488348","0.8895061166","","","","","","","","76","L","3","","","168","main_expt",""
"","bandit","248","849168","0.0-209.0-0.0","35188403","wem/bandit_either_3","A24O8U6HKPJKVA","either","6","556","","","","","","","0","1","0","","0.8980662015","0.8","0.2","0.4","0.6","0.4302520818","0.6811301937","0.467087579","0.8980662015","","","","","","","","","","","","76","L","3","","","169","main_expt",""
"","bandit","249","851145","0.0-210.0-0.0","35188403","wem/bandit_either_3","A24O8U6HKPJKVA","either","6","468","","","","","","","1","0","0","0.9399190154","","0.8","0.2","0.4","0.6","","","","","0.3846086554","0.6781719117","0.3575164989","0.9399190154","","","","","","","","76","L","3","","","170","main_expt",""
"","bandit","250","853087","0.0-211.0-0.0","35188403","wem/bandit_either_3","A24O8U6HKPJKVA","either","6","430","","","","","","","1","0","0","0.9199626721","","0.8","0.2","0.4","0.6","","","","","0.4938912128","0.5779776893","0.3433755155","0.9199626721","","","","","","","","76","L","3","","","171","main_expt",""
"","bandit","251","855167","0.0-212.0-0.0","35188403","wem/bandit_either_3","A24O8U6HKPJKVA","either","6","573","","","","","","","1","0","0","0.8885959212","","0.8","0.2","0.4","0.6","","","","","0.5409242696","0.5461867433","0.2921203137","0.8885959212","","","","","","","","76","L","3","","","172","main_expt",""
"","bandit","252","857207","0.0-213.0-0.0","35188403","wem/bandit_either_3","A24O8U6HKPJKVA","either","6","529","","","","","","","0","1","0","","0.8502068985","0.8","0.2","0.4","0.6","0.4899310385","0.5898781272","0.3237382503","0.8502068985","","","","","","","","","","","","76","L","3","","","173","main_expt",""
"","bandit","253","859389","0.0-214.0-0.0","35188403","wem/bandit_either_3","A24O8U6HKPJKVA","either","6","676","","","","","","","0","1","0","","0.2935635685","0.8","0.2","0.4","0.6","0.4464532747","0.5990225055","0.2935635685","0.9054067092","","","","","","","","","","","","75","K","2","","","174","main_expt",""
"","bandit","254","861240","0.0-215.0-0.0","35188403","wem/bandit_either_3","A24O8U6HKPJKVA","either","6","344","","","","","","","0","0","1","","0.6129624105","0.8","0.2","0.4","0.6","0.4363040476","0.6129624105","0.2797951809","0.9096893241","","","","","","","","","","","","74","J","1","","","175","main_expt",""
"","bandit","255","863095","0.0-216.0-0.0","35188403","wem/bandit_either_3","A24O8U6HKPJKVA","either","6","346","","","","","","","0","0","1","","0.5434192492","0.8","0.2","0.4","0.6","0.4198776974","0.5434192492","0.2067270565","0.9081003197","","","","","","","","","","","","74","J","1","","","176","main_expt",""
"","bandit","256","865030","0.0-217.0-0.0","35188403","wem/bandit_either_3","A24O8U6HKPJKVA","either","6","424","","","","","","","1","0","0","0.5893108522","","0.8","0.2","0.4","0.6","","","","","0.4001478854","0.5893108522","0.19266164","0.8417535431","","","","","","","","74","J","1","","","177","main_expt",""
"","bandit","257","866671","0.0-218.0-0.0","35188403","wem/bandit_either_3","A24O8U6HKPJKVA","either","6","132","","","","","","","0","0","1","","0.4862463398","0.8","0.2","0.4","0.6","0.3015477047","0.4862463398","0.1393448617","0.8045518304","","","","","","","","","","","","74","J","1","","","178","main_expt",""
"","bandit","258","869479","0.0-219.0-0.0","35188403","wem/bandit_either_3","A24O8U6HKPJKVA","either","6","1298","","","","","","","0","0","1","","0.4227787996","0.8","0.2","0.4","0.6","0.2700131006","0.4227787996","0.1149816072","0.8250115846","","","","","","","","","","","","74","J","1","","","179","main_expt",""
"","bandit","259","871715","0.0-220.0-0.0","35188403","wem/bandit_either_3","A24O8U6HKPJKVA","either","6","726","","","","","","","0","1","0","","0.3583368423","0.8","0.2","0.4","0.6","0.3473069","0.3583368423","0.1231561222","0.7418096358","","","","","","","","","","","","74","J","1","","","180","main_expt",""
"","bandit","260","873814","0.0-221.0-0.0","35188403","wem/bandit_either_3","A24O8U6HKPJKVA","either","6","583","","","","","","","0","0","1","0.3478804011","","0.8","0.2","0.4","0.6","","","","","0.3478804011","0.3820052134","0.1134989143","0.7180260456","","","","","","","","72","H","0","img/none_selected.jpg","","181","main_expt",""
"","bandit","261","875982","0.0-222.0-0.0","35188403","wem/bandit_either_3","A24O8U6HKPJKVA","either","6","660","","","","","","","0","0","1","0.3304981007","","0.8","0.2","0.4","0.6","","","","","0.3304981007","0.437769555","0.07317944644","0.6777378447","","","","","","","","72","H","0","img/none_selected.jpg","","182","main_expt",""
"","bandit","262","877870","0.0-223.0-0.0","35188403","wem/bandit_either_3","A24O8U6HKPJKVA","either","6","376","","","","","","","0","0","1","","0.3951330089","0.8","0.2","0.4","0.6","0.2578466268","0.3951330089","0.05085611098","0.6331465848","","","","","","","","","","","","74","J","1","","","183","main_expt",""
"","bandit","263","879463","0.0-224.0-0.0","35188403","wem/bandit_either_3","A24O8U6HKPJKVA","either","6","84","","","","","","","0","0","1","0.3550464129","","0.8","0.2","0.4","0.6","","","","","0.3550464129","0.4062376343","0.07152820202","0.6578519513","","","","","","","","72","H","0","img/none_selected.jpg","","184","main_expt",""
"","bandit","264","881398","0.0-225.0-0.0","35188403","wem/bandit_either_3","A24O8U6HKPJKVA","either","6","427","","","","","","","0","0","1","","0.4035727276","0.8","0.2","0.4","0.6","0.2993299556","0.4035727276","0.08814522307","0.7160298793","","","","","","","","","","","","74","J","1","","","185","main_expt",""
"","bandit","265","883140","0.0-226.0-0.0","35188403","wem/bandit_either_3","A24O8U6HKPJKVA","either","6","232","","","","","","","0","1","0","","0.7081703269","0.8","0.2","0.4","0.6","0.3985972224","0.4595565904","0.0931487442","0.7081703269","","","","","","","","","","","","76","L","3","","","186","main_expt",""
"","bandit","266","885126","0.0-227.0-0.0","35188403","wem/bandit_either_3","A24O8U6HKPJKVA","either","6","477","","","","","","","1","0","0","0.05847154344","","0.8","0.2","0.4","0.6","","","","","0.4563810555","0.4956959756","0.05847154344","0.7670757258","","","","","","","","75","K","2","","","187","main_expt",""
"","bandit","267","887095","0.0-228.0-0.0","35188403","wem/bandit_either_3","A24O8U6HKPJKVA","either","6","457","","","","","","","0","0","1","","0.05005107021","0.8","0.2","0.4","0.6","0.4621092719","0.4295585103","0.05005107021","0.7986884496","","","","","","","","","","","","75","K","2","","","188","main_expt",""
"","bandit","268","889206","0.0-229.0-0.0","35188403","wem/bandit_either_3","A24O8U6HKPJKVA","either","6","597","","","","","","","0","0","1","0.05158958255","","0.8","0.2","0.4","0.6","","","","","0.4214675273","0.4121259827","0.05158958255","0.8113194514","","","","","","","","75","K","2","","","189","main_expt",""
"","bandit","269","891159","0.0-230.0-0.0","35188403","wem/bandit_either_3","A24O8U6HKPJKVA","either","6","444","","","","","","","0","0","1","","0.0530996007","0.8","0.2","0.4","0.6","0.4445162903","0.40505342","0.0530996007","0.8311477635","","","","","","","","","","","","75","K","2","","","190","main_expt",""
"","bandit","270","893343","0.0-231.0-0.0","35188403","wem/bandit_either_3","A24O8U6HKPJKVA","either","6","666","","","","","","","0","0","1","","0.05342003941","0.8","0.2","0.4","0.6","0.4077799102","0.3671493273","0.05342003941","0.7941336253","","","","","","","","","","","","75","K","2","","","191","main_expt",""
"","bandit","271","895336","0.0-232.0-0.0","35188403","wem/bandit_either_3","A24O8U6HKPJKVA","either","6","483","","","","","","","0","1","0","","0.3367263454","0.8","0.2","0.4","0.6","0.413117206","0.3367263454","0.05264216412","0.841847859","","","","","","","","","","","","74","J","1","","","192","main_expt",""
"","bandit","272","897253","0.0-233.0-0.0","35188403","wem/bandit_either_3","A24O8U6HKPJKVA","either","6","410","","","","","","","0","0","1","0.374663265","","0.8","0.2","0.4","0.6","","","","","0.374663265","0.2587514209","0.07418965368","0.865127625","","","","","","","","72","H","0","img/none_selected.jpg","","193","main_expt",""
"","bandit","273","899199","0.0-234.0-0.0","35188403","wem/bandit_either_3","A24O8U6HKPJKVA","either","6","437","","","","","","","0","0","1","0.1148515542","","0.8","0.2","0.4","0.6","","","","","0.2792309937","0.2123696513","0.1148515542","0.8369883383","","","","","","","","75","K","2","","","194","main_expt",""
"","bandit","274","901056","0.0-235.0-0.0","35188403","wem/bandit_either_3","A24O8U6HKPJKVA","either","6","334","","","","","","","0","1","0","","0.8226177272","0.8","0.2","0.4","0.6","0.3090424304","0.2551117677","0.1102075851","0.8226177272","","","","","","","","","","","","76","L","3","","","195","main_expt",""
"","bandit","275","903046","0.0-236.0-0.0","35188403","wem/bandit_either_3","A24O8U6HKPJKVA","either","6","483","","","","","","","0","0","1","","0.09307195637","0.8","0.2","0.4","0.6","0.2254203465","0.2948177706","0.09307195637","0.8759919892","","","","","","","","","","","","75","K","2","","","196","main_expt",""
"","bandit","276","904945","0.0-237.0-0.0","35188403","wem/bandit_either_3","A24O8U6HKPJKVA","either","6","385","","","","","","","0","0","1","","0.08341332984","0.8","0.2","0.4","0.6","0.2104085952","0.2864074111","0.08341332984","0.9413038234","","","","","","","","","","","","75","K","2","","","197","main_expt",""
"","bandit","277","906460","0.0-238.0-0.0","35188403","wem/bandit_either_3","A24O8U6HKPJKVA","either","6","0","","","","","","","0","0","1","","0.3044962429","0.8","0.2","0.4","0.6","0.1686499416","0.3044962429","0.06206278739","0.9384937307","","","","","","","","","","","","74","J","1","","","198","main_expt",""
"","bandit","278","908359","0.0-239.0-0.0","35188403","wem/bandit_either_3","A24O8U6HKPJKVA","either","6","384","","","","","","","1","0","0","0.2804127106","","0.8","0.2","0.4","0.6","","","","","0.1696058054","0.2804127106","0.1015706687","0.927250614","","","","","","","","74","J","1","","","199","main_expt",""
"","bandit","279","910250","0.0-240.0-0.0","35188403","wem/bandit_either_3","A24O8U6HKPJKVA","either","6","372","","","","","","","0","0","1","0.3151112274","","0.8","0.2","0.4","0.6","","","","","0.1940139532","0.3151112274","0.07348353789","0.8840406778","","","","","","","","74","J","1","","","200","main_expt",""
"","bandit","280","912166","0.0-241.0-0.0","35188403","wem/bandit_either_3","A24O8U6HKPJKVA","either","6","401","","","","","","","0","1","0","","0.3124471347","0.8","0.2","0.4","0.6","0.2384341862","0.3124471347","0.09218994405","0.8866639954","","","","","","","","","","","","74","J","1","","","201","main_expt",""
"","bandit","281","914109","0.0-242.0-0.0","35188403","wem/bandit_either_3","A24O8U6HKPJKVA","either","6","425","","","","","","","0","0","1","","0.2069173963","0.8","0.2","0.4","0.6","0.2069173963","0.3418115628","0.1662378481","0.8188103646","","","","","","","","","","","","72","H","0","img/none_selected.jpg","","202","main_expt",""
"","bandit","282","916431","0.0-243.0-0.0","35188403","wem/bandit_either_3","A24O8U6HKPJKVA","either","6","814","","","","","","","0","0","1","0.2502389624","","0.8","0.2","0.4","0.6","","","","","0.2502389624","0.2676578736","0.1808123801","0.8026106274","","","","","","","","72","H","0","img/none_selected.jpg","","203","main_expt",""
"","bandit","283","918887","0.0-244.0-0.0","35188403","wem/bandit_either_3","A24O8U6HKPJKVA","either","6","947","","","","","","","0","0","1","0.2226806","","0.8","0.2","0.4","0.6","","","","","0.2226806","0.2513587973","0.2011980288","0.6613987003","","","","","","","","72","H","0","img/none_selected.jpg","","204","main_expt",""
"","bandit","284","920767","0.0-245.0-0.0","35188403","wem/bandit_either_3","A24O8U6HKPJKVA","either","6","362","","","","","","","0","1","0","","0.2733703365","0.8","0.2","0.4","0.6","0.2327973494","0.2733703365","0.1877492959","0.7402115251","","","","","","","","","","","","74","J","1","","","205","main_expt",""
"","bandit","285","922670","0.0-246.0-0.0","35188403","wem/bandit_either_3","A24O8U6HKPJKVA","either","6","392","","","","","","","0","0","1","","0.3212331514","0.8","0.2","0.4","0.6","0.3134624789","0.3212331514","0.1891298069","0.6792505986","","","","","","","","","","","","74","J","1","","","206","main_expt",""
"","bandit","286","924646","0.0-247.0-0.0","35188403","wem/bandit_either_3","A24O8U6HKPJKVA","either","6","461","","","","","","","1","0","0","0.3381772831","","0.8","0.2","0.4","0.6","","","","","0.3808856429","0.3381772831","0.2092890992","0.6510378203","","","","","","","","74","J","1","","","207","main_expt",""
"","bandit","287","926767","0.0-248.0-0.0","35188403","wem/bandit_either_3","A24O8U6HKPJKVA","either","6","608","","","","","","","0","1","0","","0.2370260631","0.8","0.2","0.4","0.6","0.318509643","0.2370260631","0.2563161799","0.5971377862","","","","","","","","","","","","74","J","1","","","208","main_expt",""
"","bandit","288","928783","0.0-249.0-0.0","35188403","wem/bandit_either_3","A24O8U6HKPJKVA","either","6","507","","","","","","","0","0","1","","0.2157004535","0.8","0.2","0.4","0.6","0.2932847295","0.2157004535","0.2643940457","0.6040603887","","","","","","","","","","","","74","J","1","","","209","main_expt",""
"","bandit","289","930684","0.0-250.0-0.0","35188403","wem/bandit_either_3","A24O8U6HKPJKVA","either","6","394","","","","","","","0","0","1","","0.2655169153","0.8","0.2","0.4","0.6","0.2230023122","0.2655169153","0.2710870001","0.7794442159","","","","","","","","","","","","74","J","1","","","210","main_expt",""
"","bandit","290","932844","0.0-251.0-0.0","35188403","wem/bandit_either_3","A24O8U6HKPJKVA","either","6","653","","","","","","","0","0","1","0.2359505063","","0.8","0.2","0.4","0.6","","","","","0.1899351836","0.2359505063","0.2056380183","0.8397026392","","","","","","","","74","J","1","","","211","main_expt",""
"","bandit","291","934997","0.0-252.0-0.0","35188403","wem/bandit_either_3","A24O8U6HKPJKVA","either","6","645","","","","","","","0","0","1","","0.2431981852","0.8","0.2","0.4","0.6","0.2593929449","0.2431981852","0.2487045614","0.7883870126","","","","","","","","","","","","74","J","1","","","212","main_expt",""
"","bandit","292","936944","0.0-253.0-0.0","35188403","wem/bandit_either_3","A24O8U6HKPJKVA","either","6","436","","","","","","","0","1","0","","0.3385658967","0.8","0.2","0.4","0.6","0.2304425673","0.3385658967","0.3520378668","0.7160446845","","","","","","","","","","","","74","J","1","","","213","main_expt",""
"","bandit","293","938886","0.0-254.0-0.0","35188403","wem/bandit_either_3","A24O8U6HKPJKVA","either","6","421","","","","","","","0","0","1","","0.3455661114","0.8","0.2","0.4","0.6","0.2849244028","0.445002088","0.3455661114","0.7501162241","","","","","","","","","","","","75","K","2","","","214","main_expt",""
"","bandit","294","940950","0.0-255.0-0.0","35188403","wem/bandit_either_3","A24O8U6HKPJKVA","either","6","555","","","","","","","0","0","1","","0.3290646698","0.8","0.2","0.4","0.6","0.3184819088","0.4340580748","0.3290646698","0.7574589115","","","","","","","","","","","","75","K","2","","","215","main_expt",""
"","bandit","295","942911","0.0-256.0-0.0","35188403","wem/bandit_either_3","A24O8U6HKPJKVA","either","6","450","","","","","","","0","0","1","","0.2737258078","0.8","0.2","0.4","0.6","0.2989728513","0.3996931216","0.2737258078","0.7376674805","","","","","","","","","","","","75","K","2","","","216","main_expt",""
"","bandit","296","944893","0.0-257.0-0.0","35188403","wem/bandit_either_3","A24O8U6HKPJKVA","either","6","460","","","","","","","0","0","1","","0.2401291484","0.8","0.2","0.4","0.6","0.5538830624","0.453570069","0.2401291484","0.67262171","","","","","","","","","","","","75","K","2","","","217","main_expt",""
"","bandit","297","946976","0.0-258.0-0.0","35188403","wem/bandit_either_3","A24O8U6HKPJKVA","either","6","574","","","","","","","0","0","1","0.2395298113","","0.8","0.2","0.4","0.6","","","","","0.5331458927","0.3566620654","0.2395298113","0.6309662891","","","","","","","","75","K","2","","","218","main_expt",""
"","bandit","298","949038","0.0-259.0-0.0","35188403","wem/bandit_either_3","A24O8U6HKPJKVA","either","6","551","","","","","","","0","0","1","0.2333127667","","0.8","0.2","0.4","0.6","","","","","0.409279481","0.3114207129","0.2333127667","0.610488243","","","","","","","","75","K","2","","","219","main_expt",""
"","bandit","299","951069","0.0-260.0-0.0","35188403","wem/bandit_either_3","A24O8U6HKPJKVA","either","6","522","","","","","","","0","0","1","0.6741838821","","0.8","0.2","0.4","0.6","","","","","0.3910907299","0.348491043","0.2097963002","0.6741838821","","","","","","","","76","L","3","","","220","main_expt",""
"","bandit","300","952972","0.0-261.0-0.0","35188403","wem/bandit_either_3","A24O8U6HKPJKVA","either","6","389","","","","","","","0","1","0","","0.6938787555","0.8","0.2","0.4","0.6","0.37386253","0.325682353","0.1761429423","0.6938787555","","","","","","","","","","","","76","L","3","","","221","main_expt",""
"","bandit","301","954911","0.0-262.0-0.0","35188403","wem/bandit_either_3","A24O8U6HKPJKVA","either","6","431","","","","","","","0","0","1","0.5460784034","","0.8","0.2","0.4","0.6","","","","","0.5460784034","0.3582518194","0.1770547834","0.622086605","","","","","","","","72","H","0","img/none_selected.jpg","","222","main_expt",""
"","bandit","302","956789","0.0-263.0-0.0","35188403","wem/bandit_either_3","A24O8U6HKPJKVA","either","6","370","","","","","","","1","0","0","0.5484594206","","0.8","0.2","0.4","0.6","","","","","0.5484594206","0.3596631187","0.1494166006","0.6190419158","","","","","","","","72","H","0","img/none_selected.jpg","","223","main_expt",""
"","bandit","303","959118","0.0-264.0-0.0","35188403","wem/bandit_either_3","A24O8U6HKPJKVA","either","6","821","","","","","","","0","0","1","0.5156266917","","0.8","0.2","0.4","0.6","","","","","0.5156266917","0.4757784632","0.1444184755","0.6525227655","","","","","","","","72","H","0","img/none_selected.jpg","","224","main_expt",""
"","bandit","304","961078","0.0-265.0-0.0","35188403","wem/bandit_either_3","A24O8U6HKPJKVA","either","6","450","","","","","","","0","0","1","0.5120039273","","0.8","0.2","0.4","0.6","","","","","0.5120039273","0.5384710229","0.2381889698","0.5739960468","","","","","","","","72","H","0","img/none_selected.jpg","","225","main_expt",""
"","bandit","305","963006","0.0-266.0-0.0","35188403","wem/bandit_either_3","A24O8U6HKPJKVA","either","6","418","","","","","","","0","0","1","","0.5568413113","0.8","0.2","0.4","0.6","0.5568413113","0.5308581489","0.1429230379","0.6038380469","","","","","","","","","","","","72","H","0","img/none_selected.jpg","","226","main_expt",""
"","bandit","306","965244","0.0-267.0-0.0","35188403","wem/bandit_either_3","A24O8U6HKPJKVA","either","6","719","","","","","","","0","0","1","","0.488482713","0.8","0.2","0.4","0.6","0.5277183188","0.488482713","0.124100867","0.5203417309","","","","","","","","","","","","74","J","1","","","227","main_expt",""
"","bandit","307","967501","0.0-268.0-0.0","35188403","wem/bandit_either_3","A24O8U6HKPJKVA","either","6","743","","","","","","","0","0","1","","0.4406219513","0.8","0.2","0.4","0.6","0.5041270258","0.4406219513","0.1762219884","0.4263922038","","","","","","","","","","","","74","J","1","","","228","main_expt",""
"","bandit","308","969422","0.0-269.0-0.0","35188403","wem/bandit_either_3","A24O8U6HKPJKVA","either","6","412","","","","","","","1","0","0","0.4541369304","","0.8","0.2","0.4","0.6","","","","","0.4541369304","0.4892119921","0.1910325121","0.3475105047","","","","","","","","72","H","0","img/none_selected.jpg","","229","main_expt",""
"","bandit","309","971767","0.0-270.0-0.0","35188403","wem/bandit_either_3","A24O8U6HKPJKVA","either","6","833","","","","","","","0","0","1","0.4504381994","","0.8","0.2","0.4","0.6","","","","","0.4504381994","0.5129573662","0.2571549068","0.3353007417","","","","","","","","72","H","0","img/none_selected.jpg","","230","main_expt",""
"","bandit","310","974166","0.0-271.0-0.0","35188403","wem/bandit_either_3","A24O8U6HKPJKVA","either","6","890","","","","","","","0","0","1","0.4698668598","","0.8","0.2","0.4","0.6","","","","","0.4698668598","0.4382888871","0.1781345747","0.2870546929","","","","","","","","72","H","0","img/none_selected.jpg","","231","main_expt",""
"","bandit","311","976341","0.0-272.0-0.0","35188403","wem/bandit_either_3","A24O8U6HKPJKVA","either","6","656","","","","","","","0","0","1","0.5460008395","","0.8","0.2","0.4","0.6","","","","","0.5460008395","0.42174841","0.1748933913","0.3092655517","","","","","","","","72","H","0","img/none_selected.jpg","","232","main_expt",""
"","bandit","312","978621","0.0-273.0-0.0","35188403","wem/bandit_either_3","A24O8U6HKPJKVA","either","6","766","","","","","","","0","0","1","0.5345299581","","0.8","0.2","0.4","0.6","","","","","0.5345299581","0.4297142637","0.2196371411","0.4231157335","","","","","","","","72","H","0","img/none_selected.jpg","","233","main_expt",""
"","bandit","313","980719","0.0-274.0-0.0","35188403","wem/bandit_either_3","A24O8U6HKPJKVA","either","6","584","","","","","","","1","0","0","0.508060833","","0.8","0.2","0.4","0.6","","","","","0.508060833","0.3016140143","0.2052749597","0.5525929145","","","","","","","","72","H","0","img/none_selected.jpg","","234","main_expt",""
"","bandit","314","982840","0.0-275.0-0.0","35188403","wem/bandit_either_3","A24O8U6HKPJKVA","either","6","611","","","","","","","0","0","1","0.4956589368","","0.8","0.2","0.4","0.6","","","","","0.4956589368","0.2735586703","0.3158924645","0.7239072418","","","","","","","","72","H","0","img/none_selected.jpg","","235","main_expt",""
"","bandit","315","984991","0.0-276.0-0.0","35188403","wem/bandit_either_3","A24O8U6HKPJKVA","either","6","642","","","","","","","1","0","0","0.5514737959","","0.8","0.2","0.4","0.6","","","","","0.5514737959","0.2536827631","0.3668106878","0.8076920848","","","","","","","","72","H","0","img/none_selected.jpg","","236","main_expt",""
"","bandit","316","986893","0.0-277.0-0.0","35188403","wem/bandit_either_3","A24O8U6HKPJKVA","either","6","382","","","","","","","0","0","1","","0.5183580196","0.8","0.2","0.4","0.6","0.5183580196","0.2478783488","0.3866395083","0.7703095863","","","","","","","","","","","","72","H","0","img/none_selected.jpg","","237","main_expt",""
"","bandit","317","988751","0.0-278.0-0.0","35188403","wem/bandit_either_3","A24O8U6HKPJKVA","either","6","349","","","","","","","1","0","0","0.5320509842","","0.8","0.2","0.4","0.6","","","","","0.5320509842","0.1688186905","0.4108821033","0.6485929649","","","","","","","","72","H","0","img/none_selected.jpg","","238","main_expt",""
"","bandit","318","990816","0.0-279.0-0.0","35188403","wem/bandit_either_3","A24O8U6HKPJKVA","either","6","557","","","","","","","0","0","1","","0.46832295","0.8","0.2","0.4","0.6","0.46832295","0.1232648298","0.4384900471","0.7028133827","","","","","","","","","","","","72","H","0","img/none_selected.jpg","","239","main_expt",""
"","bandit","319","992774","0.0-280.0-0.0","35188403","wem/bandit_either_3","A24O8U6HKPJKVA","either","6","436","","","","","","","0","0","1","","0.5024711131","0.8","0.2","0.4","0.6","0.5024711131","0.1720424997","0.4246438665","0.6620055833","","","","","","","","","","","","72","H","0","img/none_selected.jpg","","240","main_expt",""
"","bandit","320","994847","0.0-281.0-0.0","35188403","wem/bandit_either_3","A24O8U6HKPJKVA","either","6","563","","","","","","","1","0","0","0.6092933485","","0.8","0.2","0.4","0.6","","","","","0.6092933485","0.1045812876","0.3783755671","0.6925250702","","","","","","","","72","H","0","img/none_selected.jpg","","241","main_expt",""
"","bandit","321","997383","0.0-282.0-0.0","35188403","wem/bandit_either_3","A24O8U6HKPJKVA","either","6","1018","","","","","","","1","0","0","0.5812412386","","0.8","0.2","0.4","0.6","","","","","0.5812412386","0.08136382084","0.3619864671","0.7076428944","","","","","","","","72","H","0","img/none_selected.jpg","","242","main_expt",""
"","bandit","322","999711","0.0-283.0-0.0","35188403","wem/bandit_either_3","A24O8U6HKPJKVA","either","6","819","","","","","","","0","0","1","0.5582769518","","0.8","0.2","0.4","0.6","","","","","0.5582769518","0.08711917736","0.4143237557","0.6671697692","","","","","","","","72","H","0","img/none_selected.jpg","","243","main_expt",""
