"consent","trial_type","trial_index","time_elapsed","internal_node_id","subjID","study","MID","cond","drift","rt","responses","key_press","expt_phase","like","value","connected","gems","bombs","no_reward","GemPrChosen","BombPrChosen","GainOverPainPr_0","GainOverPainPr_1","GainOverPainPr_2","GainOverPainPr_3","LosePr_0","LosePr_1","LosePr_2","LosePr_3","WinPr_0","WinPr_1","WinPr_2","WinPr_3","Q0","Q1","Q2","gender","age","ethnicity","target","respCharCode","respKey","respChoiceNum","respChoice","practice","trial_counter","trial_label","button_pressed"
"INL_behavioral_consent_30min_online.html","consent","0","8088","0.0-0.0","37270032","wem/bandit_either_3","A2BEETGUC05155","either","8","","","","","","","","","","","","","","","","","","","","","","","","","","","","","","","","","","","","","","",""
"","survey-text","1","14055","0.0-1.0","37270032","wem/bandit_either_3","A2BEETGUC05155","either","8","4948","{""Q0"":""A2BEETGUC05155""}","","","","","","","","","","","","","","","","","","","","","","","","","","","","","","","","","","","","",""
"","text","2","22679","0.0-2.0","37270032","wem/bandit_either_3","A2BEETGUC05155","either","8","7617","","32","","","","","","","","","","","","","","","","","","","","","","","","","","","","","","","","","","","",""
"","text","3","35643","0.0-3.0","37270032","wem/bandit_either_3","A2BEETGUC05155","either","8","12955","","32","","","","","","","","","","","","","","","","","","","","","","","","","","","","","","","","","","","",""
"","text","4","59464","0.0-4.0","37270032","wem/bandit_either_3","A2BEETGUC05155","either","8","23812","","32","","","","","","","","","","","","","","","","","","","","","","","","","","","","","","","","","","","",""
"","text","5","79211","0.0-5.0","37270032","wem/bandit_either_3","A2BEETGUC05155","either","8","19743","","32","","","","","","","","","","","","","","","","","","","","","","","","","","","","","","","","","","","",""
"","text","6","115876","0.0-6.0","37270032","wem/bandit_either_3","A2BEETGUC05155","either","8","36662","","32","","","","","","","","","","","","","","","","","","","","","","","","","","","","","","","","","","","",""
"","text","7","124554","0.0-7.0","37270032","wem/bandit_either_3","A2BEETGUC05155","either","8","8676","","32","","","","","","","","","","","","","","","","","","","","","","","","","","","","","","","","","","","",""
"","text","8","129673","0.0-8.0","37270032","wem/bandit_either_3","A2BEETGUC05155","either","8","5114","","32","","","","","","","","","","","","","","","","","","","","","","","","","","","","","","","","","","","",""
"","identification","9","141707","0.0-9.0-0.0","37270032","wem/bandit_either_3","A2BEETGUC05155","either","8","11988","","","","5","3","3","","","","","","","","","","","","","","","","","","","","","","","","the village of Zur","","","","","","","",""
"","identification","10","152309","0.0-9.0-1.0","37270032","wem/bandit_either_3","A2BEETGUC05155","either","8","9523","","","","1","0","0","","","","","","","","","","","","","","","","","","","","","","","","the village of Nyx","","","","","","","",""
"","text","11","159686","0.0-10.0","37270032","wem/bandit_either_3","A2BEETGUC05155","either","8","6369","","32","","","","","","","","","","","","","","","","","","","","","","","","","","","","","","","","","","","",""
"","text","12","162593","0.0-11.0","37270032","wem/bandit_either_3","A2BEETGUC05155","either","8","2903","","32","","","","","","","","","","","","","","","","","","","","","","","","","","","","","","","","","","","",""
"","text","13","164387","0.0-12.0","37270032","wem/bandit_either_3","A2BEETGUC05155","either","8","1790","","32","","","","","","","","","","","","","","","","","","","","","","","","","","","","","","","","","","","",""
"","text","14","169867","0.0-13.0","37270032","wem/bandit_either_3","A2BEETGUC05155","either","8","5475","","32","","","","","","","","","","","","","","","","","","","","","","","","","","","","","","","","","","","",""
"","bandit","15","173954","0.0-14.0-0.0","37270032","wem/bandit_either_3","A2BEETGUC05155","either","8","2545","","","","","","","0","0","1","0","0","","","","","0","","","","0","","","","","","","","","","","74","J","0","img/none_selected_demo.jpg","true","0","",""
"","bandit","16","176362","0.0-15.0-0.0","37270032","wem/bandit_either_3","A2BEETGUC05155","either","8","894","","","","","","","0","0","1","0","0","","","","","0","","","","0","","","","","","","","","","","75","K","0","img/none_selected_demo.jpg","true","0","",""
"","text","17","183543","0.0-16.0","37270032","wem/bandit_either_3","A2BEETGUC05155","either","8","7173","","32","","","","","","","","","","","","","","","","","","","","","","","","","","","","","","","","","","","",""
"","text","18","195674","0.0-17.0","37270032","wem/bandit_either_3","A2BEETGUC05155","either","8","12122","","32","","","","","","","","","","","","","","","","","","","","","","","","","","","","","","","","","","","",""
"","text","19","202107","0.0-18.0","37270032","wem/bandit_either_3","A2BEETGUC05155","either","8","6425","","32","","","","","","","","","","","","","","","","","","","","","","","","","","","","","","","","","","","",""
"","text","20","208870","0.0-19.0","37270032","wem/bandit_either_3","A2BEETGUC05155","either","8","6756","","32","","","","","","","","","","","","","","","","","","","","","","","","","","","","","","","","","","","",""
"","bandit","21","211078","0.0-20.0-0.0","37270032","wem/bandit_either_3","A2BEETGUC05155","either","8","692","","","","","","","0","1","0","","0.8","0.5","0.5","","","0.8","0.2","","","","","","","","","","","","","","74","J","0","img/none_selected_demo.jpg","true","0","80_20_practice",""
"","bandit","22","213547","0.0-20.0-1.0","37270032","wem/bandit_either_3","A2BEETGUC05155","either","8","952","","","","","","","1","0","0","0.8","","0.5","0.5","","","","","","","0.8","0.2","","","","","","","","","","74","J","0","img/none_selected_demo.jpg","true","0","80_20_practice",""
"","bandit","23","215620","0.0-20.0-2.0","37270032","wem/bandit_either_3","A2BEETGUC05155","either","8","557","","","","","","","1","0","0","0.8","","0.5","0.5","","","","","","","0.8","0.2","","","","","","","","","","74","J","0","img/none_selected_demo.jpg","true","0","80_20_practice",""
"","bandit","24","217826","0.0-20.0-3.0","37270032","wem/bandit_either_3","A2BEETGUC05155","either","8","686","","","","","","","1","0","0","0.8","","0.5","0.5","","","","","","","0.8","0.2","","","","","","","","","","74","J","0","img/none_selected_demo.jpg","true","0","80_20_practice",""
"","bandit","25","220063","0.0-20.0-4.0","37270032","wem/bandit_either_3","A2BEETGUC05155","either","8","716","","","","","","","0","1","0","","0.8","0.5","0.5","","","0.8","0.2","","","","","","","","","","","","","","74","J","0","img/none_selected_demo.jpg","true","0","80_20_practice",""
"","bandit","26","222319","0.0-20.0-5.0","37270032","wem/bandit_either_3","A2BEETGUC05155","either","8","737","","","","","","","0","0","1","","0.8","0.5","0.5","","","0.8","0.2","","","","","","","","","","","","","","74","J","0","img/none_selected_demo.jpg","true","0","80_20_practice",""
"","bandit","27","224406","0.0-20.0-6.0","37270032","wem/bandit_either_3","A2BEETGUC05155","either","8","560","","","","","","","1","0","0","0.8","","0.5","0.5","","","","","","","0.8","0.2","","","","","","","","","","74","J","0","img/none_selected_demo.jpg","true","0","80_20_practice",""
"","bandit","28","226245","0.0-20.0-7.0","37270032","wem/bandit_either_3","A2BEETGUC05155","either","8","323","","","","","","","1","0","0","0.8","","0.5","0.5","","","","","","","0.8","0.2","","","","","","","","","","74","J","0","img/none_selected_demo.jpg","true","0","80_20_practice",""
"","bandit","29","228255","0.0-20.0-8.0","37270032","wem/bandit_either_3","A2BEETGUC05155","either","8","483","","","","","","","1","0","0","0.8","","0.5","0.5","","","","","","","0.8","0.2","","","","","","","","","","74","J","0","img/none_selected_demo.jpg","true","0","80_20_practice",""
"","bandit","30","230256","0.0-20.0-9.0","37270032","wem/bandit_either_3","A2BEETGUC05155","either","8","444","","","","","","","1","0","0","0.8","","0.5","0.5","","","","","","","0.8","0.2","","","","","","","","","","74","J","0","img/none_selected_demo.jpg","true","0","80_20_practice",""
"","bandit","31","231943","0.0-20.0-10.0","37270032","wem/bandit_either_3","A2BEETGUC05155","either","8","164","","","","","","","0","0","1","","0.8","0.5","0.5","","","0.8","0.2","","","","","","","","","","","","","","74","J","0","img/none_selected_demo.jpg","true","0","80_20_practice",""
"","bandit","32","233684","0.0-20.0-11.0","37270032","wem/bandit_either_3","A2BEETGUC05155","either","8","192","","","","","","","0","1","0","","0.8","0.5","0.5","","","0.8","0.2","","","","","","","","","","","","","","74","J","0","img/none_selected_demo.jpg","true","0","80_20_practice",""
"","bandit","33","237514","0.0-20.0-12.0","37270032","wem/bandit_either_3","A2BEETGUC05155","either","8","2312","","","","","","","1","0","0","0.8","","0.5","0.5","","","","","","","0.8","0.2","","","","","","","","","","74","J","0","img/none_selected_demo.jpg","true","0","80_20_practice",""
"","bandit","34","239453","0.0-20.0-13.0","37270032","wem/bandit_either_3","A2BEETGUC05155","either","8","419","","","","","","","1","0","0","0.8","","0.5","0.5","","","","","","","0.8","0.2","","","","","","","","","","74","J","0","img/none_selected_demo.jpg","true","0","80_20_practice",""
"","bandit","35","241047","0.0-20.0-14.0","37270032","wem/bandit_either_3","A2BEETGUC05155","either","8","80","","","","","","","0","0","1","0.8","","0.5","0.5","","","","","","","0.8","0.2","","","","","","","","","","74","J","0","img/none_selected_demo.jpg","true","0","80_20_practice",""
"","bandit","36","242836","0.0-20.0-15.0","37270032","wem/bandit_either_3","A2BEETGUC05155","either","8","265","","","","","","","1","0","0","0.8","","0.5","0.5","","","","","","","0.8","0.2","","","","","","","","","","74","J","0","img/none_selected_demo.jpg","true","0","80_20_practice",""
"","bandit","37","244980","0.0-20.0-16.0","37270032","wem/bandit_either_3","A2BEETGUC05155","either","8","625","","","","","","","0","0","1","0.8","","0.5","0.5","","","","","","","0.8","0.2","","","","","","","","","","74","J","0","img/none_selected_demo.jpg","true","0","80_20_practice",""
"","bandit","38","247048","0.0-20.0-17.0","37270032","wem/bandit_either_3","A2BEETGUC05155","either","8","528","","","","","","","1","0","0","0.8","","0.5","0.5","","","","","","","0.8","0.2","","","","","","","","","","74","J","0","img/none_selected_demo.jpg","true","0","80_20_practice",""
"","bandit","39","248950","0.0-20.0-18.0","37270032","wem/bandit_either_3","A2BEETGUC05155","either","8","387","","","","","","","1","0","0","0.8","","0.5","0.5","","","","","","","0.8","0.2","","","","","","","","","","74","J","0","img/none_selected_demo.jpg","true","0","80_20_practice",""
"","bandit","40","250614","0.0-20.0-19.0","37270032","wem/bandit_either_3","A2BEETGUC05155","either","8","145","","","","","","","1","0","0","0.8","","0.5","0.5","","","","","","","0.8","0.2","","","","","","","","","","74","J","0","img/none_selected_demo.jpg","true","0","80_20_practice",""
"","text","41","254635","0.0-21.0","37270032","wem/bandit_either_3","A2BEETGUC05155","either","8","4005","","32","","","","","","","","","","","","","","","","","","","","","","","","","","","","","","","","","","","",""
"","bandit","42","257658","0.0-22.0-0.0","37270032","wem/bandit_either_3","A2BEETGUC05155","either","8","1484","","","","","","","1","0","0","1","0","","","","","0","1","","","1","0","","","","","","","","","","74","J","0","img/none_selected_demo.jpg","true","0","",""
"","text","43","267058","0.0-23.0","37270032","wem/bandit_either_3","A2BEETGUC05155","either","8","9385","","32","","","","","","","","","","","","","","","","","","","","","","","","","","","","","","","","","","","",""
"","text","44","270272","0.0-24.0","37270032","wem/bandit_either_3","A2BEETGUC05155","either","8","3209","","32","","","","","","","","","","","","","","","","","","","","","","","","","","","","","","","","","","","",""
"","text","45","273496","0.0-25.0","37270032","wem/bandit_either_3","A2BEETGUC05155","either","8","3219","","32","","","","","","","","","","","","","","","","","","","","","","","","","","","","","","","","","","","",""
"","text","46","276348","0.0-26.0","37270032","wem/bandit_either_3","A2BEETGUC05155","either","8","2848","","32","","","","","","","","","","","","","","","","","","","","","","","","","","","","","","","","","","","",""
"","text","47","297799","0.0-27.0","37270032","wem/bandit_either_3","A2BEETGUC05155","either","8","21445","","32","","","","","","","","","","","","","","","","","","","","","","","","","","","","","","","","","","","",""
"","text","48","301159","0.0-28.0","37270032","wem/bandit_either_3","A2BEETGUC05155","either","8","3357","","32","","","","","","","","","","","","","","","","","","","","","","","","","","","","","","","","","","","",""
"","text","49","310336","0.0-29.0","37270032","wem/bandit_either_3","A2BEETGUC05155","either","8","9173","","32","","","","","","","","","","","","","","","","","","","","","","","","","","","","","","","","","","","",""
"","text","50","313841","0.0-30.0","37270032","wem/bandit_either_3","A2BEETGUC05155","either","8","3491","","32","","","","","","","","","","","","","","","","","","","","","","","","","","","","","","","","","","","",""
"","text","51","318519","0.0-31.0","37270032","wem/bandit_either_3","A2BEETGUC05155","either","8","4657","","32","","","","","","","","","","","","","","","","","","","","","","","","","","","","","","","","","","","",""
"","text","52","320634","0.0-32.0","37270032","wem/bandit_either_3","A2BEETGUC05155","either","8","2110","","32","","","","","","","","","","","","","","","","","","","","","","","","","","","","","","","","","","","",""
"","text","53","324050","0.0-33.0","37270032","wem/bandit_either_3","A2BEETGUC05155","either","8","3410","","32","","","","","","","","","","","","","","","","","","","","","","","","","","","","","","","","","","","",""
"","bandit","54","326872","0.0-34.0-0.0","37270032","wem/bandit_either_3","A2BEETGUC05155","either","8","1281","","","","","","","0","0","1","0.8","","0.5","0.5","0.5","0.5","","","","","0.8","0.2","0.6","0.2","","","","","","","","72","H","0","img/none_selected.jpg","true","0","full_practice",""
"","bandit","55","329304","0.0-34.0-1.0","37270032","wem/bandit_either_3","A2BEETGUC05155","either","8","900","","","","","","","0","0","1","0.6","","0.5","0.5","0.5","0.5","","","","","0.8","0.2","0.6","0.2","","","","","","","","75","K","2","","true","0","full_practice",""
"","bandit","56","331071","0.0-34.0-2.0","37270032","wem/bandit_either_3","A2BEETGUC05155","either","8","245","","","","","","","1","0","0","0.2","","0.5","0.5","0.5","0.5","","","","","0.8","0.2","0.6","0.2","","","","","","","","76","L","3","","true","0","full_practice",""
"","bandit","57","332950","0.0-34.0-3.0","37270032","wem/bandit_either_3","A2BEETGUC05155","either","8","354","","","","","","","0","0","1","0.2","","0.5","0.5","0.5","0.5","","","","","0.8","0.2","0.6","0.2","","","","","","","","76","L","3","","true","0","full_practice",""
"","bandit","58","334885","0.0-34.0-4.0","37270032","wem/bandit_either_3","A2BEETGUC05155","either","8","401","","","","","","","0","0","1","","0.2","0.5","0.5","0.5","0.5","0.8","0.2","0.6","0.2","","","","","","","","","","","","76","L","3","","true","0","full_practice",""
"","bandit","59","336647","0.0-34.0-5.0","37270032","wem/bandit_either_3","A2BEETGUC05155","either","8","245","","","","","","","0","0","1","","0.2","0.5","0.5","0.5","0.5","0.8","0.2","0.6","0.2","","","","","","","","","","","","74","J","1","","true","0","full_practice",""
"","bandit","60","338471","0.0-34.0-6.0","37270032","wem/bandit_either_3","A2BEETGUC05155","either","8","302","","","","","","","0","1","0","","0.6","0.5","0.5","0.5","0.5","0.8","0.2","0.6","0.2","","","","","","","","","","","","75","K","2","","true","0","full_practice",""
"","bandit","61","340354","0.0-34.0-7.0","37270032","wem/bandit_either_3","A2BEETGUC05155","either","8","348","","","","","","","1","0","0","0.6","","0.5","0.5","0.5","0.5","","","","","0.8","0.2","0.6","0.2","","","","","","","","75","K","2","","true","0","full_practice",""
"","bandit","62","342240","0.0-34.0-8.0","37270032","wem/bandit_either_3","A2BEETGUC05155","either","8","346","","","","","","","1","0","0","0.6","","0.5","0.5","0.5","0.5","","","","","0.8","0.2","0.6","0.2","","","","","","","","75","K","2","","true","0","full_practice",""
"","bandit","63","344140","0.0-34.0-9.0","37270032","wem/bandit_either_3","A2BEETGUC05155","either","8","365","","","","","","","0","1","0","","0.6","0.5","0.5","0.5","0.5","0.8","0.2","0.6","0.2","","","","","","","","","","","","75","K","2","","true","0","full_practice",""
"","bandit","64","346016","0.0-34.0-10.0","37270032","wem/bandit_either_3","A2BEETGUC05155","either","8","356","","","","","","","1","0","0","0.6","","0.5","0.5","0.5","0.5","","","","","0.8","0.2","0.6","0.2","","","","","","","","75","K","2","","true","0","full_practice",""
"","bandit","65","347829","0.0-34.0-11.0","37270032","wem/bandit_either_3","A2BEETGUC05155","either","8","289","","","","","","","0","0","1","0.6","","0.5","0.5","0.5","0.5","","","","","0.8","0.2","0.6","0.2","","","","","","","","75","K","2","","true","0","full_practice",""
"","bandit","66","350054","0.0-34.0-12.0","37270032","wem/bandit_either_3","A2BEETGUC05155","either","8","683","","","","","","","0","0","1","0.6","","0.5","0.5","0.5","0.5","","","","","0.8","0.2","0.6","0.2","","","","","","","","75","K","2","","true","0","full_practice",""
"","bandit","67","351573","0.0-34.0-13.0","37270032","wem/bandit_either_3","A2BEETGUC05155","either","8","6","","","","","","","0","1","0","","0.8","0.5","0.5","0.5","0.5","0.8","0.2","0.6","0.2","","","","","","","","","","","","72","H","0","img/none_selected.jpg","true","0","full_practice",""
"","bandit","68","353279","0.0-34.0-14.0","37270032","wem/bandit_either_3","A2BEETGUC05155","either","8","187","","","","","","","1","0","0","0.8","","0.5","0.5","0.5","0.5","","","","","0.8","0.2","0.6","0.2","","","","","","","","72","H","0","img/none_selected.jpg","true","0","full_practice",""
"","bandit","69","355220","0.0-34.0-15.0","37270032","wem/bandit_either_3","A2BEETGUC05155","either","8","368","","","","","","","1","0","0","0.8","","0.5","0.5","0.5","0.5","","","","","0.8","0.2","0.6","0.2","","","","","","","","72","H","0","img/none_selected.jpg","true","0","full_practice",""
"","bandit","70","357124","0.0-34.0-16.0","37270032","wem/bandit_either_3","A2BEETGUC05155","either","8","371","","","","","","","0","1","0","","0.8","0.5","0.5","0.5","0.5","0.8","0.2","0.6","0.2","","","","","","","","","","","","72","H","0","img/none_selected.jpg","true","0","full_practice",""
"","bandit","71","359167","0.0-34.0-17.0","37270032","wem/bandit_either_3","A2BEETGUC05155","either","8","506","","","","","","","1","0","0","0.8","","0.5","0.5","0.5","0.5","","","","","0.8","0.2","0.6","0.2","","","","","","","","72","H","0","img/none_selected.jpg","true","0","full_practice",""
"","bandit","72","361051","0.0-34.0-18.0","37270032","wem/bandit_either_3","A2BEETGUC05155","either","8","350","","","","","","","0","0","1","0.8","","0.5","0.5","0.5","0.5","","","","","0.8","0.2","0.6","0.2","","","","","","","","72","H","0","img/none_selected.jpg","true","0","full_practice",""
"","bandit","73","362938","0.0-34.0-19.0","37270032","wem/bandit_either_3","A2BEETGUC05155","either","8","368","","","","","","","0","1","0","","0.8","0.5","0.5","0.5","0.5","0.8","0.2","0.6","0.2","","","","","","","","","","","","72","H","0","img/none_selected.jpg","true","0","full_practice",""
"","text","74","367346","0.0-35.0","37270032","wem/bandit_either_3","A2BEETGUC05155","either","8","4369","","32","","","","","","","","","","","","","","","","","","","","","","","","","","","","","","","","","","","",""
"","text","75","390117","0.0-36.0","37270032","wem/bandit_either_3","A2BEETGUC05155","either","8","21755","","32","","","","","","","","","","","","","","","","","","","","","","","","","","","","","","","","","","","",""
"","text","76","401170","0.0-37.0","37270032","wem/bandit_either_3","A2BEETGUC05155","either","8","11047","","32","","","","","","","","","","","","","","","","","","","","","","","","","","","","","","","","","","","",""
"","text","77","408235","0.0-38.0","37270032","wem/bandit_either_3","A2BEETGUC05155","either","8","7061","","32","","","","","","","","","","","","","","","","","","","","","","","","","","","","","","","","","","","",""
"","text","78","415417","0.0-39.0","37270032","wem/bandit_either_3","A2BEETGUC05155","either","8","7176","","32","","","","","","","","","","","","","","","","","","","","","","","","","","","","","","","","","","","",""
"","text","79","421372","0.0-40.0","37270032","wem/bandit_either_3","A2BEETGUC05155","either","8","5950","","32","","","","","","","","","","","","","","","","","","","","","","","","","","","","","","","","","","","",""
"","bandit","80","424877","0.0-41.0-0.0","37270032","wem/bandit_either_3","A2BEETGUC05155","either","8","1978","","","","","","","0","1","0","","0.2428949588","0.4","0.2","0.8","0.6","0.2428949588","0.4468950172","0.3040937467","0.6337563202","","","","","","","","","","","","72","H","0","img/none_selected.jpg","","1","main_expt",""
"","bandit","81","426788","0.0-42.0-0.0","37270032","wem/bandit_either_3","A2BEETGUC05155","either","8","391","","","","","","","0","0","1","","0.248961424","0.4","0.2","0.8","0.6","0.248961424","0.3846124694","0.2687625136","0.7380673114","","","","","","","","","","","","72","H","0","img/none_selected.jpg","","2","main_expt",""
"","bandit","82","428701","0.0-43.0-0.0","37270032","wem/bandit_either_3","A2BEETGUC05155","either","8","379","","","","","","","0","0","1","0.1878604038","","0.4","0.2","0.8","0.6","","","","","0.1878604038","0.3885967974","0.3017919557","0.7715549737","","","","","","","","72","H","0","img/none_selected.jpg","","3","main_expt",""
"","bandit","83","430370","0.0-44.0-0.0","37270032","wem/bandit_either_3","A2BEETGUC05155","either","8","122","","","","","","","0","0","1","","0.2891644394","0.4","0.2","0.8","0.6","0.1194049449","0.2891644394","0.3388517529","0.8257013646","","","","","","","","","","","","74","J","1","","","4","main_expt",""
"","bandit","84","432048","0.0-45.0-0.0","37270032","wem/bandit_either_3","A2BEETGUC05155","either","8","134","","","","","","","1","0","0","0.389096829","","0.4","0.2","0.8","0.6","","","","","0.197046458","0.2654579937","0.389096829","0.8617886559","","","","","","","","75","K","2","","","5","main_expt",""
"","bandit","85","433725","0.0-46.0-0.0","37270032","wem/bandit_either_3","A2BEETGUC05155","either","8","150","","","","","","","0","0","1","0.4799636182","","0.4","0.2","0.8","0.6","","","","","0.2312720201","0.355160999","0.4799636182","0.8452125903","","","","","","","","75","K","2","","","6","main_expt",""
"","bandit","86","435320","0.0-47.0-0.0","37270032","wem/bandit_either_3","A2BEETGUC05155","either","8","43","","","","","","","1","0","0","0.5316557606","","0.4","0.2","0.8","0.6","","","","","0.3255591742","0.4733904832","0.5316557606","0.8765288384","","","","","","","","75","K","2","","","7","main_expt",""
"","bandit","87","437120","0.0-48.0-0.0","37270032","wem/bandit_either_3","A2BEETGUC05155","either","8","277","","","","","","","1","0","0","0.4935712437","","0.4","0.2","0.8","0.6","","","","","0.163151729","0.4900136729","0.4935712437","0.8625068071","","","","","","","","75","K","2","","","8","main_expt",""
"","bandit","88","438972","0.0-49.0-0.0","37270032","wem/bandit_either_3","A2BEETGUC05155","either","8","325","","","","","","","1","0","0","0.5400450001","","0.4","0.2","0.8","0.6","","","","","0.1671639775","0.4543552171","0.5400450001","0.8385781597","","","","","","","","75","K","2","","","9","main_expt",""
"","bandit","89","440808","0.0-50.0-0.0","37270032","wem/bandit_either_3","A2BEETGUC05155","either","8","315","","","","","","","1","0","0","0.6510952772","","0.4","0.2","0.8","0.6","","","","","0.1315225434","0.4523920981","0.6510952772","0.833356221","","","","","","","","75","K","2","","","10","main_expt",""
"","bandit","90","442528","0.0-51.0-0.0","37270032","wem/bandit_either_3","A2BEETGUC05155","either","8","183","","","","","","","1","0","0","0.6117649901","","0.4","0.2","0.8","0.6","","","","","0.1287002637","0.4053083118","0.6117649901","0.9030756702","","","","","","","","75","K","2","","","11","main_expt",""
"","bandit","91","444185","0.0-52.0-0.0","37270032","wem/bandit_either_3","A2BEETGUC05155","either","8","132","","","","","","","0","0","1","0.6360746298","","0.4","0.2","0.8","0.6","","","","","0.1026596936","0.4059907931","0.6360746298","0.9129290363","","","","","","","","75","K","2","","","12","main_expt",""
"","bandit","92","445870","0.0-53.0-0.0","37270032","wem/bandit_either_3","A2BEETGUC05155","either","8","123","","","","","","","1","0","0","0.5673960652","","0.4","0.2","0.8","0.6","","","","","0.1287514256","0.2934167972","0.5673960652","0.8638417716","","","","","","","","75","K","2","","","13","main_expt",""
"","bandit","93","447699","0.0-54.0-0.0","37270032","wem/bandit_either_3","A2BEETGUC05155","either","8","288","","","","","","","1","0","0","0.6747725803","","0.4","0.2","0.8","0.6","","","","","0.1786171179","0.3260927596","0.6747725803","0.787806988","","","","","","","","75","K","2","","","14","main_expt",""
"","bandit","94","449535","0.0-55.0-0.0","37270032","wem/bandit_either_3","A2BEETGUC05155","either","8","317","","","","","","","1","0","0","0.6277188345","","0.4","0.2","0.8","0.6","","","","","0.1459410532","0.3355382734","0.6277188345","0.7254212376","","","","","","","","75","K","2","","","15","main_expt",""
"","bandit","95","451379","0.0-56.0-0.0","37270032","wem/bandit_either_3","A2BEETGUC05155","either","8","314","","","","","","","0","0","1","0.5435568235","","0.4","0.2","0.8","0.6","","","","","0.2255600906","0.3040928121","0.5435568235","0.7238415528","","","","","","","","75","K","2","","","16","main_expt",""
"","bandit","96","453546","0.0-57.0-0.0","37270032","wem/bandit_either_3","A2BEETGUC05155","either","8","635","","","","","","","0","1","0","","0.4180161478","0.4","0.2","0.8","0.6","0.2052013943","0.2730366263","0.4180161478","0.7796243455","","","","","","","","","","","","75","K","2","","","17","main_expt",""
"","bandit","97","455476","0.0-58.0-0.0","37270032","wem/bandit_either_3","A2BEETGUC05155","either","8","377","","","","","","","1","0","0","0.4961111773","","0.4","0.2","0.8","0.6","","","","","0.1780354615","0.4105298721","0.4961111773","0.6928902724","","","","","","","","75","K","2","","","18","main_expt",""
"","bandit","98","457335","0.0-59.0-0.0","37270032","wem/bandit_either_3","A2BEETGUC05155","either","8","324","","","","","","","1","0","0","0.445530788","","0.4","0.2","0.8","0.6","","","","","0.1576496117","0.3586923344","0.445530788","0.7658630901","","","","","","","","75","K","2","","","19","main_expt",""
"","bandit","99","459229","0.0-60.0-0.0","37270032","wem/bandit_either_3","A2BEETGUC05155","either","8","362","","","","","","","0","0","1","0.3443163705","","0.4","0.2","0.8","0.6","","","","","0.1618752313","0.3220075653","0.3443163705","0.7584200513","","","","","","","","75","K","2","","","20","main_expt",""
"","bandit","100","462457","0.0-61.0-0.0","37270032","wem/bandit_either_3","A2BEETGUC05155","either","8","1701","","","","","","","0","0","1","0.3012808647","","0.4","0.2","0.8","0.6","","","","","0.2152187387","0.2729660799","0.3012808647","0.7727038765","","","","","","","","75","K","2","","","21","main_expt",""
"","bandit","101","464472","0.0-62.0-0.0","37270032","wem/bandit_either_3","A2BEETGUC05155","either","8","493","","","","","","","0","0","1","0.2712352107","","0.4","0.2","0.8","0.6","","","","","0.3547982299","0.2712352107","0.2882062485","0.8152565923","","","","","","","","74","J","1","","","22","main_expt",""
"","bandit","102","466341","0.0-63.0-0.0","37270032","wem/bandit_either_3","A2BEETGUC05155","either","8","349","","","","","","","0","0","1","","0.7537075358","0.4","0.2","0.8","0.6","0.323805638","0.3390855774","0.2113421372","0.7537075358","","","","","","","","","","","","76","L","3","","","23","main_expt",""
"","bandit","103","468086","0.0-64.0-0.0","37270032","wem/bandit_either_3","A2BEETGUC05155","either","8","229","","","","","","","1","0","0","0.3588909826","","0.4","0.2","0.8","0.6","","","","","0.3588909826","0.3483259141","0.2201805416","0.7108822858","","","","","","","","72","H","0","img/none_selected.jpg","","24","main_expt",""
"","bandit","104","469689","0.0-65.0-0.0","37270032","wem/bandit_either_3","A2BEETGUC05155","either","8","79","","","","","","","0","0","1","","0.3885553436","0.4","0.2","0.8","0.6","0.3885553436","0.3416976173","0.2580956466","0.6930515954","","","","","","","","","","","","72","H","0","img/none_selected.jpg","","25","main_expt",""
"","bandit","105","471786","0.0-66.0-0.0","37270032","wem/bandit_either_3","A2BEETGUC05155","either","8","560","","","","","","","0","0","1","","0.4871556374","0.4","0.2","0.8","0.6","0.4871556374","0.4243476322","0.2153432854","0.6905393417","","","","","","","","","","","","72","H","0","img/none_selected.jpg","","26","main_expt",""
"","bandit","106","473403","0.0-67.0-0.0","37270032","wem/bandit_either_3","A2BEETGUC05155","either","8","72","","","","","","","0","0","1","0.1727955236","","0.4","0.2","0.8","0.6","","","","","0.4934119911","0.5257754898","0.1727955236","0.7531652131","","","","","","","","75","K","2","","","27","main_expt",""
"","bandit","107","475016","0.0-68.0-0.0","37270032","wem/bandit_either_3","A2BEETGUC05155","either","8","84","","","","","","","0","0","1","0.1894296703","","0.4","0.2","0.8","0.6","","","","","0.4322092846","0.5246232361","0.1894296703","0.8001777041","","","","","","","","75","K","2","","","28","main_expt",""
"","bandit","108","476636","0.0-69.0-0.0","37270032","wem/bandit_either_3","A2BEETGUC05155","either","8","68","","","","","","","0","0","1","","0.375994784","0.4","0.2","0.8","0.6","0.3459113699","0.375994784","0.2128919211","0.8118404327","","","","","","","","","","","","74","J","1","","","29","main_expt",""
"","bandit","109","478542","0.0-70.0-0.0","37270032","wem/bandit_either_3","A2BEETGUC05155","either","8","368","","","","","","","0","1","0","","0.2936890161","0.4","0.2","0.8","0.6","0.280789843","0.2936890161","0.206056468","0.7839534503","","","","","","","","","","","","74","J","1","","","30","main_expt",""
"","bandit","110","480373","0.0-71.0-0.0","37270032","wem/bandit_either_3","A2BEETGUC05155","either","8","301","","","","","","","0","0","1","","0.2878812258","0.4","0.2","0.8","0.6","0.2613810438","0.2878812258","0.1725623241","0.8066372971","","","","","","","","","","","","74","J","1","","","31","main_expt",""
"","bandit","111","482120","0.0-72.0-0.0","37270032","wem/bandit_either_3","A2BEETGUC05155","either","8","228","","","","","","","0","1","0","","0.8049259064","0.4","0.2","0.8","0.6","0.3821585683","0.2451492808","0.1629883914","0.8049259064","","","","","","","","","","","","76","L","3","","","32","main_expt",""
"","bandit","112","484009","0.0-73.0-0.0","37270032","wem/bandit_either_3","A2BEETGUC05155","either","8","332","","","","","","","0","1","0","","0.7891664673","0.4","0.2","0.8","0.6","0.2714925976","0.2802113289","0.2107911223","0.7891664673","","","","","","","","","","","","76","L","3","","","33","main_expt",""
"","bandit","113","485954","0.0-74.0-0.0","37270032","wem/bandit_either_3","A2BEETGUC05155","either","8","394","","","","","","","0","1","0","","0.7854278051","0.4","0.2","0.8","0.6","0.2755575364","0.2892342718","0.1025901997","0.7854278051","","","","","","","","","","","","76","L","3","","","34","main_expt",""
"","bandit","114","488203","0.0-75.0-0.0","37270032","wem/bandit_either_3","A2BEETGUC05155","either","8","693","","","","","","","0","0","1","","0.7260182018","0.4","0.2","0.8","0.6","0.2697856654","0.2486893666","0.1289879153","0.7260182018","","","","","","","","","","","","76","L","3","","","35","main_expt",""
"","bandit","115","491098","0.0-76.0-0.0","37270032","wem/bandit_either_3","A2BEETGUC05155","either","8","1360","","","","","","","0","1","0","","0.7910957192","0.4","0.2","0.8","0.6","0.2483646443","0.3536408983","0.1645491317","0.7910957192","","","","","","","","","","","","76","L","3","","","36","main_expt",""
"","bandit","116","492983","0.0-77.0-0.0","37270032","wem/bandit_either_3","A2BEETGUC05155","either","8","361","","","","","","","0","1","0","","0.7996551039","0.4","0.2","0.8","0.6","0.2103950957","0.2493566902","0.1698046746","0.7996551039","","","","","","","","","","","","76","L","3","","","37","main_expt",""
"","bandit","117","495024","0.0-78.0-0.0","37270032","wem/bandit_either_3","A2BEETGUC05155","either","8","505","","","","","","","0","0","1","0.6717479894","","0.4","0.2","0.8","0.6","","","","","0.2128944509","0.2948354516","0.2281502886","0.6717479894","","","","","","","","76","L","3","","","38","main_expt",""
"","bandit","118","497097","0.0-79.0-0.0","37270032","wem/bandit_either_3","A2BEETGUC05155","either","8","511","","","","","","","0","1","0","","0.7121128808","0.4","0.2","0.8","0.6","0.2965153327","0.3373274679","0.1561271762","0.7121128808","","","","","","","","","","","","76","L","3","","","39","main_expt",""
"","bandit","119","499034","0.0-80.0-0.0","37270032","wem/bandit_either_3","A2BEETGUC05155","either","8","404","","","","","","","1","0","0","0.7157410044","","0.4","0.2","0.8","0.6","","","","","0.4447532253","0.4138768052","0.1543620621","0.7157410044","","","","","","","","76","L","3","","","40","main_expt",""
"","bandit","120","500938","0.0-81.0-0.0","37270032","wem/bandit_either_3","A2BEETGUC05155","either","8","364","","","","","","","0","1","0","","0.681196038","0.4","0.2","0.8","0.6","0.5330008696","0.438096834","0.2271499981","0.681196038","","","","","","","","","","","","76","L","3","","","41","main_expt",""
"","bandit","121","502904","0.0-82.0-0.0","37270032","wem/bandit_either_3","A2BEETGUC05155","either","8","425","","","","","","","1","0","0","0.6504320647","","0.4","0.2","0.8","0.6","","","","","0.573861049","0.4185173612","0.2882452936","0.6504320647","","","","","","","","76","L","3","","","42","main_expt",""
"","bandit","122","504952","0.0-83.0-0.0","37270032","wem/bandit_either_3","A2BEETGUC05155","either","8","520","","","","","","","1","0","0","0.7369830744","","0.4","0.2","0.8","0.6","","","","","0.6654349765","0.3796335567","0.298522686","0.7369830744","","","","","","","","76","L","3","","","43","main_expt",""
"","bandit","123","507080","0.0-84.0-0.0","37270032","wem/bandit_either_3","A2BEETGUC05155","either","8","587","","","","","","","1","0","0","0.6797935378","","0.4","0.2","0.8","0.6","","","","","0.691198465","0.31766129","0.3188886026","0.6797935378","","","","","","","","76","L","3","","","44","main_expt",""
"","bandit","124","509477","0.0-85.0-0.0","37270032","wem/bandit_either_3","A2BEETGUC05155","either","8","868","","","","","","","1","0","0","0.6507473666","","0.4","0.2","0.8","0.6","","","","","0.7652674903","0.4047397141","0.2705760174","0.6507473666","","","","","","","","76","L","3","","","45","main_expt",""
"","bandit","125","511831","0.0-86.0-0.0","37270032","wem/bandit_either_3","A2BEETGUC05155","either","8","835","","","","","","","1","0","0","0.6334510787","","0.4","0.2","0.8","0.6","","","","","0.8065230058","0.4961613307","0.2506880939","0.6334510787","","","","","","","","76","L","3","","","46","main_expt",""
"","bandit","126","513818","0.0-87.0-0.0","37270032","wem/bandit_either_3","A2BEETGUC05155","either","8","455","","","","","","","0","0","1","0.6143175143","","0.4","0.2","0.8","0.6","","","","","0.7774474893","0.4624468315","0.2491585872","0.6143175143","","","","","","","","76","L","3","","","47","main_expt",""
"","bandit","127","515565","0.0-88.0-0.0","37270032","wem/bandit_either_3","A2BEETGUC05155","either","8","226","","","","","","","0","1","0","","0.6404512611","0.4","0.2","0.8","0.6","0.7693176975","0.4886537242","0.1997021219","0.6404512611","","","","","","","","","","","","76","L","3","","","48","main_expt",""
"","bandit","128","517561","0.0-89.0-0.0","37270032","wem/bandit_either_3","A2BEETGUC05155","either","8","457","","","","","","","0","0","1","","0.6758621215","0.4","0.2","0.8","0.6","0.807419373","0.4270302022","0.2119577724","0.6758621215","","","","","","","","","","","","76","L","3","","","49","main_expt",""
"","bandit","129","519339","0.0-90.0-0.0","37270032","wem/bandit_either_3","A2BEETGUC05155","either","8","220","","","","","","","1","0","0","0.6873234502","","0.4","0.2","0.8","0.6","","","","","0.8562769227","0.5151345658","0.2615271711","0.6873234502","","","","","","","","76","L","3","","","50","main_expt",""
"","bandit","130","521302","0.0-91.0-0.0","37270032","wem/bandit_either_3","A2BEETGUC05155","either","8","442","","","","","","","1","0","0","0.7776044395","","0.4","0.2","0.8","0.6","","","","","0.8705114925","0.5134524181","0.2764427577","0.7776044395","","","","","","","","76","L","3","","","51","main_expt",""
"","bandit","131","523239","0.0-92.0-0.0","37270032","wem/bandit_either_3","A2BEETGUC05155","either","8","407","","","","","","","1","0","0","0.8403410939","","0.4","0.2","0.8","0.6","","","","","0.9310361031","0.4842684999","0.3833776697","0.8403410939","","","","","","","","76","L","3","","","52","main_expt",""
"","bandit","132","525089","0.0-93.0-0.0","37270032","wem/bandit_either_3","A2BEETGUC05155","either","8","310","","","","","","","1","0","0","0.8151983534","","0.4","0.2","0.8","0.6","","","","","0.905794742","0.4412850773","0.4356502318","0.8151983534","","","","","","","","76","L","3","","","53","main_expt",""
"","bandit","133","526952","0.0-94.0-0.0","37270032","wem/bandit_either_3","A2BEETGUC05155","either","8","342","","","","","","","1","0","0","0.8081222638","","0.4","0.2","0.8","0.6","","","","","0.9391541593","0.4397693946","0.4120588364","0.8081222638","","","","","","","","76","L","3","","","54","main_expt",""
"","bandit","134","528912","0.0-95.0-0.0","37270032","wem/bandit_either_3","A2BEETGUC05155","either","8","441","","","","","","","0","0","1","0.742009976","","0.4","0.2","0.8","0.6","","","","","0.9596285882","0.3928202278","0.2714296105","0.742009976","","","","","","","","76","L","3","","","55","main_expt",""
"","bandit","135","530767","0.0-96.0-0.0","37270032","wem/bandit_either_3","A2BEETGUC05155","either","8","335","","","","","","","0","0","1","0.7065076074","","0.4","0.2","0.8","0.6","","","","","0.9565658233","0.4593665993","0.2122311877","0.7065076074","","","","","","","","76","L","3","","","56","main_expt",""
"","bandit","136","532791","0.0-97.0-0.0","37270032","wem/bandit_either_3","A2BEETGUC05155","either","8","497","","","","","","","1","0","0","0.6860695476","","0.4","0.2","0.8","0.6","","","","","0.9681540372","0.4006145211","0.2282278588","0.6860695476","","","","","","","","76","L","3","","","57","main_expt",""
"","bandit","137","534925","0.0-98.0-0.0","37270032","wem/bandit_either_3","A2BEETGUC05155","either","8","602","","","","","","","0","1","0","","0.742301155","0.4","0.2","0.8","0.6","0.9207083952","0.4597890412","0.1392076118","0.742301155","","","","","","","","","","","","76","L","3","","","58","main_expt",""
"","bandit","138","536971","0.0-99.0-0.0","37270032","wem/bandit_either_3","A2BEETGUC05155","either","8","525","","","","","","","1","0","0","0.5291004622","","0.4","0.2","0.8","0.6","","","","","0.9178227258","0.4232266093","0.1706239206","0.5291004622","","","","","","","","76","L","3","","","59","main_expt",""
"","bandit","139","538868","0.0-100.0-0.0","37270032","wem/bandit_either_3","A2BEETGUC05155","either","8","364","","","","","","","0","1","0","","0.6348838793","0.4","0.2","0.8","0.6","0.8951285427","0.3565880291","0.1674269281","0.6348838793","","","","","","","","","","","","76","L","3","","","60","main_expt",""
"","bandit","140","540756","0.0-101.0-0.0","37270032","wem/bandit_either_3","A2BEETGUC05155","either","8","343","","","","","","","1","0","0","0.6796423313","","0.4","0.2","0.8","0.6","","","","","0.8506814954","0.3663276413","0.2182313474","0.6796423313","","","","","","","","76","L","3","","","61","main_expt",""
"","bandit","141","542666","0.0-102.0-0.0","37270032","wem/bandit_either_3","A2BEETGUC05155","either","8","367","","","","","","","0","1","0","","0.6928172916","0.4","0.2","0.8","0.6","0.8513854559","0.3193005293","0.2949218256","0.6928172916","","","","","","","","","","","","76","L","3","","","62","main_expt",""
"","bandit","142","544647","0.0-103.0-0.0","37270032","wem/bandit_either_3","A2BEETGUC05155","either","8","439","","","","","","","1","0","0","0.6996506825","","0.4","0.2","0.8","0.6","","","","","0.8927579502","0.1562068481","0.3170222383","0.6996506825","","","","","","","","76","L","3","","","63","main_expt",""
"","bandit","143","546596","0.0-104.0-0.0","37270032","wem/bandit_either_3","A2BEETGUC05155","either","8","402","","","","","","","0","1","0","","0.7294442249","0.4","0.2","0.8","0.6","0.9217936765","0.2300477965","0.3033511374","0.7294442249","","","","","","","","","","","","76","L","3","","","64","main_expt",""
"","bandit","144","548547","0.0-105.0-0.0","37270032","wem/bandit_either_3","A2BEETGUC05155","either","8","423","","","","","","","1","0","0","0.6605354899","","0.4","0.2","0.8","0.6","","","","","0.9357047413","0.2869838185","0.3973690147","0.6605354899","","","","","","","","76","L","3","","","65","main_expt",""
"","bandit","145","550420","0.0-106.0-0.0","37270032","wem/bandit_either_3","A2BEETGUC05155","either","8","350","","","","","","","1","0","0","0.6959621059","","0.4","0.2","0.8","0.6","","","","","0.910343843","0.3287476356","0.4320294497","0.6959621059","","","","","","","","76","L","3","","","66","main_expt",""
"","bandit","146","552634","0.0-107.0-0.0","37270032","wem/bandit_either_3","A2BEETGUC05155","either","8","691","","","","","","","1","0","0","0.653899752","","0.4","0.2","0.8","0.6","","","","","0.9022080512","0.3018365728","0.3208465419","0.653899752","","","","","","","","76","L","3","","","67","main_expt",""
"","bandit","147","554685","0.0-108.0-0.0","37270032","wem/bandit_either_3","A2BEETGUC05155","either","8","511","","","","","","","0","0","1","0.6517851336","","0.4","0.2","0.8","0.6","","","","","0.8492414063","0.3208616414","0.3570730799","0.6517851336","","","","","","","","76","L","3","","","68","main_expt",""
"","bandit","148","556686","0.0-109.0-0.0","37270032","wem/bandit_either_3","A2BEETGUC05155","either","8","470","","","","","","","0","0","1","0.7011615004","","0.4","0.2","0.8","0.6","","","","","0.768219052","0.386863802","0.3451514791","0.7011615004","","","","","","","","76","L","3","","","69","main_expt",""
"","bandit","149","558833","0.0-110.0-0.0","37270032","wem/bandit_either_3","A2BEETGUC05155","either","8","574","","","","","","","0","0","1","0.6278947594","","0.4","0.2","0.8","0.6","","","","","0.7996218848","0.3628244161","0.3127714871","0.6278947594","","","","","","","","76","L","3","","","70","main_expt",""
"","bandit","150","560774","0.0-111.0-0.0","37270032","wem/bandit_either_3","A2BEETGUC05155","either","8","414","","","","","","","1","0","0","0.3855297895","","0.4","0.2","0.8","0.6","","","","","0.9130189757","0.2969295023","0.3855297895","0.688517509","","","","","","","","75","K","2","","","71","main_expt",""
"","bandit","151","562800","0.0-112.0-0.0","37270032","wem/bandit_either_3","A2BEETGUC05155","either","8","501","","","","","","","0","0","1","0.3555010044","","0.4","0.2","0.8","0.6","","","","","0.9016843832","0.3512325323","0.3555010044","0.6125440106","","","","","","","","75","K","2","","","72","main_expt",""
"","bandit","152","564852","0.0-113.0-0.0","37270032","wem/bandit_either_3","A2BEETGUC05155","either","8","481","","","","","","","0","0","1","","0.3278360739","0.4","0.2","0.8","0.6","0.9166584401","0.3845321254","0.3278360739","0.4884410468","","","","","","","","","","","","75","K","2","","","73","main_expt",""
"","bandit","153","566743","0.0-114.0-0.0","37270032","wem/bandit_either_3","A2BEETGUC05155","either","8","322","","","","","","","0","0","1","0.3275161349","","0.4","0.2","0.8","0.6","","","","","0.8699410266","0.3760614253","0.3275161349","0.5800760741","","","","","","","","75","K","2","","","74","main_expt",""
"","bandit","154","568711","0.0-115.0-0.0","37270032","wem/bandit_either_3","A2BEETGUC05155","either","8","449","","","","","","","0","0","1","","0.370831352","0.4","0.2","0.8","0.6","0.8192171788","0.370831352","0.3454333807","0.6614390465","","","","","","","","","","","","74","J","1","","","75","main_expt",""
"","bandit","155","570512","0.0-116.0-0.0","37270032","wem/bandit_either_3","A2BEETGUC05155","either","8","250","","","","","","","1","0","0","0.4008199491","","0.4","0.2","0.8","0.6","","","","","0.8990587115","0.4008199491","0.4213924804","0.6861570843","","","","","","","","74","J","1","","","76","main_expt",""
"","bandit","156","572328","0.0-117.0-0.0","37270032","wem/bandit_either_3","A2BEETGUC05155","either","8","284","","","","","","","0","1","0","","0.3928984844","0.4","0.2","0.8","0.6","0.9062137116","0.3928984844","0.439510692","0.5980737028","","","","","","","","","","","","74","J","1","","","77","main_expt",""
"","bandit","157","574259","0.0-118.0-0.0","37270032","wem/bandit_either_3","A2BEETGUC05155","either","8","384","","","","","","","0","0","1","","0.4709058574","0.4","0.2","0.8","0.6","0.9215914722","0.4709058574","0.4419424199","0.6754083514","","","","","","","","","","","","74","J","1","","","78","main_expt",""
"","bandit","158","575935","0.0-119.0-0.0","37270032","wem/bandit_either_3","A2BEETGUC05155","either","8","152","","","","","","","0","1","0","","0.4971614577","0.4","0.2","0.8","0.6","0.895443078","0.4971614577","0.5056762283","0.7012934339","","","","","","","","","","","","74","J","1","","","79","main_expt",""
"","bandit","159","577791","0.0-120.0-0.0","37270032","wem/bandit_either_3","A2BEETGUC05155","either","8","335","","","","","","","0","1","0","","0.4828267768","0.4","0.2","0.8","0.6","0.7789772955","0.4828267768","0.4558190996","0.7067798052","","","","","","","","","","","","74","J","1","","","80","main_expt",""
"","bandit","160","579696","0.0-121.0-0.0","37270032","wem/bandit_either_3","A2BEETGUC05155","either","8","349","","","","","","","0","0","1","","0.4280570329","0.4","0.2","0.8","0.6","0.755426824","0.4280570329","0.4774921548","0.7259433061","","","","","","","","","","","","74","J","1","","","81","main_expt",""
"","bandit","161","581401","0.0-122.0-0.0","37270032","wem/bandit_either_3","A2BEETGUC05155","either","8","160","","","","","","","0","1","0","","0.486136241","0.4","0.2","0.8","0.6","0.8356426425","0.486136241","0.3611036613","0.7022130872","","","","","","","","","","","","74","J","1","","","82","main_expt",""
"","bandit","162","583221","0.0-123.0-0.0","37270032","wem/bandit_either_3","A2BEETGUC05155","either","8","301","","","","","","","0","0","1","","0.3539143083","0.4","0.2","0.8","0.6","0.8783145762","0.3539143083","0.3341354767","0.75927227","","","","","","","","","","","","74","J","1","","","83","main_expt",""
"","bandit","163","584943","0.0-124.0-0.0","37270032","wem/bandit_either_3","A2BEETGUC05155","either","8","198","","","","","","","1","0","0","0.374811954","","0.4","0.2","0.8","0.6","","","","","0.9087743635","0.374811954","0.288479151","0.8556046088","","","","","","","","74","J","1","","","84","main_expt",""
"","bandit","164","586811","0.0-125.0-0.0","37270032","wem/bandit_either_3","A2BEETGUC05155","either","8","339","","","","","","","0","0","1","","0.4518264681","0.4","0.2","0.8","0.6","0.8632011641","0.4518264681","0.3061923995","0.7835234447","","","","","","","","","","","","74","J","1","","","85","main_expt",""
"","bandit","165","588470","0.0-126.0-0.0","37270032","wem/bandit_either_3","A2BEETGUC05155","either","8","106","","","","","","","1","0","0","0.461936863","","0.4","0.2","0.8","0.6","","","","","0.8341253046","0.461936863","0.3370204437","0.7037548709","","","","","","","","74","J","1","","","86","main_expt",""
"","bandit","166","590345","0.0-127.0-0.0","37270032","wem/bandit_either_3","A2BEETGUC05155","either","8","351","","","","","","","0","0","1","","0.3681660755","0.4","0.2","0.8","0.6","0.8728746981","0.3681660755","0.3900809043","0.6903674631","","","","","","","","","","","","74","J","1","","","87","main_expt",""
"","bandit","167","591888","0.0-128.0-0.0","37270032","wem/bandit_either_3","A2BEETGUC05155","either","8","16","","","","","","","0","1","0","","0.3788462328","0.4","0.2","0.8","0.6","0.8408980459","0.3788462328","0.4296615172","0.5883284312","","","","","","","","","","","","74","J","1","","","88","main_expt",""
"","bandit","168","594320","0.0-129.0-0.0","37270032","wem/bandit_either_3","A2BEETGUC05155","either","8","879","","","","","","","0","0","1","","0.3316952272","0.4","0.2","0.8","0.6","0.8585781628","0.3316952272","0.4636560077","0.5258490985","","","","","","","","","","","","74","J","1","","","89","main_expt",""
"","bandit","169","595861","0.0-130.0-0.0","37270032","wem/bandit_either_3","A2BEETGUC05155","either","8","12","","","","","","","0","0","1","","0.438068917","0.4","0.2","0.8","0.6","0.925840658","0.438068917","0.4463585346","0.6395041767","","","","","","","","","","","","74","J","1","","","90","main_expt",""
"","bandit","170","597618","0.0-131.0-0.0","37270032","wem/bandit_either_3","A2BEETGUC05155","either","8","220","","","","","","","1","0","0","0.9201841885","","0.4","0.2","0.8","0.6","","","","","0.9201841885","0.5158843935","0.4734463503","0.6931091445","","","","","","","","72","H","0","img/none_selected.jpg","","91","main_expt",""
"","bandit","171","599486","0.0-132.0-0.0","37270032","wem/bandit_either_3","A2BEETGUC05155","either","8","336","","","","","","","1","0","0","0.8508076908","","0.4","0.2","0.8","0.6","","","","","0.8508076908","0.5182757575","0.5248255385","0.6725373887","","","","","","","","72","H","0","img/none_selected.jpg","","92","main_expt",""
"","bandit","172","601378","0.0-133.0-0.0","37270032","wem/bandit_either_3","A2BEETGUC05155","either","8","358","","","","","","","0","1","0","","0.8106711147","0.4","0.2","0.8","0.6","0.8106711147","0.5498130742","0.3386726181","0.7388835399","","","","","","","","","","","","72","H","0","img/none_selected.jpg","","93","main_expt",""
"","bandit","173","603318","0.0-134.0-0.0","37270032","wem/bandit_either_3","A2BEETGUC05155","either","8","416","","","","","","","1","0","0","0.8543263914","","0.4","0.2","0.8","0.6","","","","","0.8543263914","0.6049407638","0.3718894848","0.697373586","","","","","","","","72","H","0","img/none_selected.jpg","","94","main_expt",""
"","bandit","174","605224","0.0-135.0-0.0","37270032","wem/bandit_either_3","A2BEETGUC05155","either","8","380","","","","","","","1","0","0","0.8387782901","","0.4","0.2","0.8","0.6","","","","","0.8387782901","0.6604115927","0.4005278521","0.7550322224","","","","","","","","72","H","0","img/none_selected.jpg","","95","main_expt",""
"","bandit","175","607143","0.0-136.0-0.0","37270032","wem/bandit_either_3","A2BEETGUC05155","either","8","395","","","","","","","1","0","0","0.8208071174","","0.4","0.2","0.8","0.6","","","","","0.8208071174","0.7003847986","0.3694595514","0.6576962358","","","","","","","","72","H","0","img/none_selected.jpg","","96","main_expt",""
"","bandit","176","609085","0.0-137.0-0.0","37270032","wem/bandit_either_3","A2BEETGUC05155","either","8","413","","","","","","","0","0","1","","0.765358829","0.4","0.2","0.8","0.6","0.765358829","0.6793148949","0.3186037095","0.6802484638","","","","","","","","","","","","72","H","0","img/none_selected.jpg","","97","main_expt",""
"","bandit","177","611003","0.0-138.0-0.0","37270032","wem/bandit_either_3","A2BEETGUC05155","either","8","386","","","","","","","1","0","0","0.7823463211","","0.4","0.2","0.8","0.6","","","","","0.7823463211","0.6204607354","0.2786717818","0.7042077447","","","","","","","","72","H","0","img/none_selected.jpg","","98","main_expt",""
"","bandit","178","612938","0.0-139.0-0.0","37270032","wem/bandit_either_3","A2BEETGUC05155","either","8","387","","","","","","","0","1","0","","0.7523003034","0.4","0.2","0.8","0.6","0.7523003034","0.6166262367","0.32929866","0.7355617892","","","","","","","","","","","","72","H","0","img/none_selected.jpg","","99","main_expt",""
"","bandit","179","614845","0.0-140.0-0.0","37270032","wem/bandit_either_3","A2BEETGUC05155","either","8","375","","","","","","","1","0","0","0.7174790615","","0.4","0.2","0.8","0.6","","","","","0.7174790615","0.5347115766","0.3115323478","0.7117411671","","","","","","","","72","H","0","img/none_selected.jpg","","100","main_expt",""
"","bandit","180","616728","0.0-141.0-0.0","37270032","wem/bandit_either_3","A2BEETGUC05155","either","8","344","","","","","","","1","0","0","0.7660578318","","0.4","0.2","0.8","0.6","","","","","0.7660578318","0.3418016043","0.4221749579","0.7263903312","","","","","","","","72","H","0","img/none_selected.jpg","","101","main_expt",""
"","bandit","181","618593","0.0-142.0-0.0","37270032","wem/bandit_either_3","A2BEETGUC05155","either","8","338","","","","","","","0","0","1","","0.7201180075","0.4","0.2","0.8","0.6","0.7201180075","0.2550922237","0.2718078598","0.7357346189","","","","","","","","","","","","72","H","0","img/none_selected.jpg","","102","main_expt",""
"","bandit","182","620237","0.0-143.0-0.0","37270032","wem/bandit_either_3","A2BEETGUC05155","either","8","121","","","","","","","0","1","0","","0.8452780714","0.4","0.2","0.8","0.6","0.8452780714","0.3181696353","0.3011307106","0.7026134783","","","","","","","","","","","","72","H","0","img/none_selected.jpg","","103","main_expt",""
"","bandit","183","621887","0.0-144.0-0.0","37270032","wem/bandit_either_3","A2BEETGUC05155","either","8","104","","","","","","","0","1","0","","0.7236924273","0.4","0.2","0.8","0.6","0.7236924273","0.3383579412","0.3659291838","0.8073666152","","","","","","","","","","","","72","H","0","img/none_selected.jpg","","104","main_expt",""
"","bandit","184","623785","0.0-145.0-0.0","37270032","wem/bandit_either_3","A2BEETGUC05155","either","8","377","","","","","","","0","0","1","0.743719778","","0.4","0.2","0.8","0.6","","","","","0.743719778","0.2354673658","0.3499435223","0.824483439","","","","","","","","72","H","0","img/none_selected.jpg","","105","main_expt",""
"","bandit","185","625452","0.0-146.0-0.0","37270032","wem/bandit_either_3","A2BEETGUC05155","either","8","136","","","","","","","1","0","0","0.7985687284","","0.4","0.2","0.8","0.6","","","","","0.7985687284","0.159398249","0.3602262465","0.9208810438","","","","","","","","72","H","0","img/none_selected.jpg","","106","main_expt",""
"","bandit","186","627195","0.0-147.0-0.0","37270032","wem/bandit_either_3","A2BEETGUC05155","either","8","190","","","","","","","1","0","0","0.799345197","","0.4","0.2","0.8","0.6","","","","","0.799345197","0.1295169146","0.3252215163","0.8911910097","","","","","","","","72","H","0","img/none_selected.jpg","","107","main_expt",""
"","bandit","187","629268","0.0-148.0-0.0","37270032","wem/bandit_either_3","A2BEETGUC05155","either","8","519","","","","","","","0","0","1","","0.8681690713","0.4","0.2","0.8","0.6","0.8681690713","0.07754053308","0.2812406992","0.8450149587","","","","","","","","","","","","72","H","0","img/none_selected.jpg","","108","main_expt",""
"","bandit","188","631177","0.0-149.0-0.0","37270032","wem/bandit_either_3","A2BEETGUC05155","either","8","338","","","","","","","0","1","0","","0.8556732204","0.4","0.2","0.8","0.6","0.8556732204","0.06591215473","0.2559497519","0.868327257","","","","","","","","","","","","72","H","0","img/none_selected.jpg","","109","main_expt",""
"","bandit","189","633381","0.0-150.0-0.0","37270032","wem/bandit_either_3","A2BEETGUC05155","either","8","658","","","","","","","1","0","0","0.8669893864","","0.4","0.2","0.8","0.6","","","","","0.8669893864","0.1189546392","0.2817400418","0.8868335222","","","","","","","","72","H","0","img/none_selected.jpg","","110","main_expt",""
"","bandit","190","635635","0.0-151.0-0.0","37270032","wem/bandit_either_3","A2BEETGUC05155","either","8","706","","","","","","","0","0","1","0.799383849","","0.4","0.2","0.8","0.6","","","","","0.799383849","0.09523351692","0.2773620367","0.8770728171","","","","","","","","72","H","0","img/none_selected.jpg","","111","main_expt",""
"","bandit","191","637188","0.0-152.0-0.0","37270032","wem/bandit_either_3","A2BEETGUC05155","either","8","4","","","","","","","0","1","0","","0.859799476","0.4","0.2","0.8","0.6","0.859799476","0.107489667","0.2833316415","0.8481710002","","","","","","","","","","","","72","H","0","img/none_selected.jpg","","112","main_expt",""
"","bandit","192","639047","0.0-153.0-0.0","37270032","wem/bandit_either_3","A2BEETGUC05155","either","8","337","","","","","","","0","0","1","0.7932436089","","0.4","0.2","0.8","0.6","","","","","0.7932436089","0.1026187258","0.3433702059","0.8573528835","","","","","","","","72","H","0","img/none_selected.jpg","","113","main_expt",""
"","bandit","193","641165","0.0-154.0-0.0","37270032","wem/bandit_either_3","A2BEETGUC05155","either","8","573","","","","","","","0","0","1","0.849407262","","0.4","0.2","0.8","0.6","","","","","0.849407262","0.1044839951","0.4828882278","0.8291807482","","","","","","","","72","H","0","img/none_selected.jpg","","114","main_expt",""
"","bandit","194","642810","0.0-155.0-0.0","37270032","wem/bandit_either_3","A2BEETGUC05155","either","8","118","","","","","","","0","1","0","","0.8882716547","0.4","0.2","0.8","0.6","0.8882716547","0.1213931844","0.54932579","0.761972944","","","","","","","","","","","","72","H","0","img/none_selected.jpg","","115","main_expt",""
"","bandit","195","644925","0.0-156.0-0.0","37270032","wem/bandit_either_3","A2BEETGUC05155","either","8","553","","","","","","","0","1","0","","0.8741354715","0.4","0.2","0.8","0.6","0.8741354715","0.1184144227","0.6971345968","0.786197192","","","","","","","","","","","","72","H","0","img/none_selected.jpg","","116","main_expt",""
"","bandit","196","646757","0.0-157.0-0.0","37270032","wem/bandit_either_3","A2BEETGUC05155","either","8","264","","","","","","","1","0","0","0.8083823922","","0.4","0.2","0.8","0.6","","","","","0.8083823922","0.1983931569","0.5396272374","0.7834453561","","","","","","","","72","H","0","img/none_selected.jpg","","117","main_expt",""
"","bandit","197","648797","0.0-158.0-0.0","37270032","wem/bandit_either_3","A2BEETGUC05155","either","8","496","","","","","","","1","0","0","0.868525306","","0.4","0.2","0.8","0.6","","","","","0.868525306","0.2840039584","0.5544567993","0.6742380839","","","","","","","","72","H","0","img/none_selected.jpg","","118","main_expt",""
"","bandit","198","651356","0.0-159.0-0.0","37270032","wem/bandit_either_3","A2BEETGUC05155","either","8","1012","","","","","","","0","1","0","","0.8386471998","0.4","0.2","0.8","0.6","0.8386471998","0.3563325119","0.5504896642","0.7350700153","","","","","","","","","","","","72","H","0","img/none_selected.jpg","","119","main_expt",""
"","bandit","199","653619","0.0-160.0-0.0","37270032","wem/bandit_either_3","A2BEETGUC05155","either","8","742","","","","","","","0","1","0","","0.8103559508","0.4","0.2","0.8","0.6","0.8103559508","0.5682387565","0.5812137135","0.70601835","","","","","","","","","","","","72","H","0","img/none_selected.jpg","","120","main_expt",""
"","bandit","200","655626","0.0-161.0-0.0","37270032","wem/bandit_either_3","A2BEETGUC05155","either","8","478","","","","","","","1","0","0","0.8193015173","","0.4","0.2","0.8","0.6","","","","","0.8193015173","0.5189107771","0.6033058466","0.7347719752","","","","","","","","72","H","0","img/none_selected.jpg","","121","main_expt",""
"","bandit","201","657672","0.0-162.0-0.0","37270032","wem/bandit_either_3","A2BEETGUC05155","either","8","530","","","","","","","0","0","1","0.8025146027","","0.4","0.2","0.8","0.6","","","","","0.8025146027","0.4428493372","0.6102220397","0.8270923978","","","","","","","","72","H","0","img/none_selected.jpg","","122","main_expt",""
"","bandit","202","659765","0.0-163.0-0.0","37270032","wem/bandit_either_3","A2BEETGUC05155","either","8","519","","","","","","","0","1","0","","0.8121847492","0.4","0.2","0.8","0.6","0.8121847492","0.472724465","0.6108151959","0.7980631313","","","","","","","","","","","","72","H","0","img/none_selected.jpg","","123","main_expt",""
"","bandit","203","661710","0.0-164.0-0.0","37270032","wem/bandit_either_3","A2BEETGUC05155","either","8","417","","","","","","","1","0","0","0.8299418439","","0.4","0.2","0.8","0.6","","","","","0.8299418439","0.4799585558","0.7117385939","0.7369852887","","","","","","","","72","H","0","img/none_selected.jpg","","124","main_expt",""
"","bandit","204","663849","0.0-165.0-0.0","37270032","wem/bandit_either_3","A2BEETGUC05155","either","8","621","","","","","","","0","0","1","","0.825688343","0.4","0.2","0.8","0.6","0.825688343","0.5080184993","0.7554186078","0.7465944313","","","","","","","","","","","","72","H","0","img/none_selected.jpg","","125","main_expt",""
"","bandit","205","665467","0.0-166.0-0.0","37270032","wem/bandit_either_3","A2BEETGUC05155","either","8","96","","","","","","","0","1","0","","0.8372054396","0.4","0.2","0.8","0.6","0.8372054396","0.4555098289","0.8855751833","0.7596834852","","","","","","","","","","","","72","H","0","img/none_selected.jpg","","126","main_expt",""
"","bandit","206","669496","0.0-167.0-0.0","37270032","wem/bandit_either_3","A2BEETGUC05155","either","8","2506","","","","","","","0","1","0","","0.7906689898","0.4","0.2","0.8","0.6","0.7906689898","0.5475411796","0.8003015049","0.7398299979","","","","","","","","","","","","72","H","0","img/none_selected.jpg","","127","main_expt",""
"","bandit","207","671540","0.0-168.0-0.0","37270032","wem/bandit_either_3","A2BEETGUC05155","either","8","523","","","","","","","0","0","1","","0.8008571507","0.4","0.2","0.8","0.6","0.8008571507","0.612647382","0.8403113951","0.7764866849","","","","","","","","","","","","72","H","0","img/none_selected.jpg","","128","main_expt",""
"","bandit","208","673622","0.0-169.0-0.0","37270032","wem/bandit_either_3","A2BEETGUC05155","either","8","563","","","","","","","1","0","0","0.7829297973","","0.4","0.2","0.8","0.6","","","","","0.7829297973","0.7128970287","0.8826872071","0.6435675963","","","","","","","","72","H","0","img/none_selected.jpg","","129","main_expt",""
"","bandit","209","675539","0.0-170.0-0.0","37270032","wem/bandit_either_3","A2BEETGUC05155","either","8","398","","","","","","","0","1","0","","0.6898445721","0.4","0.2","0.8","0.6","0.6898445721","0.7309911721","0.8641000085","0.7030252038","","","","","","","","","","","","72","H","0","img/none_selected.jpg","","130","main_expt",""
"","bandit","210","677469","0.0-171.0-0.0","37270032","wem/bandit_either_3","A2BEETGUC05155","either","8","400","","","","","","","0","1","0","","0.5864867529","0.4","0.2","0.8","0.6","0.5864867529","0.73180147","0.8752037592","0.6829232191","","","","","","","","","","","","72","H","0","img/none_selected.jpg","","131","main_expt",""
"","bandit","211","679335","0.0-172.0-0.0","37270032","wem/bandit_either_3","A2BEETGUC05155","either","8","300","","","","","","","1","0","0","0.560122833","","0.4","0.2","0.8","0.6","","","","","0.560122833","0.8467134838","0.8279556795","0.7406452387","","","","","","","","72","H","0","img/none_selected.jpg","","132","main_expt",""
"","bandit","212","681428","0.0-173.0-0.0","37270032","wem/bandit_either_3","A2BEETGUC05155","either","8","526","","","","","","","0","0","1","","0.48439517","0.4","0.2","0.8","0.6","0.48439517","0.8481264083","0.8194722428","0.6666234363","","","","","","","","","","","","72","H","0","img/none_selected.jpg","","133","main_expt",""
"","bandit","213","683004","0.0-174.0-0.0","37270032","wem/bandit_either_3","A2BEETGUC05155","either","8","53","","","","","","","0","1","0","","0.3919863126","0.4","0.2","0.8","0.6","0.3919863126","0.8771050955","0.8037084922","0.680542061","","","","","","","","","","","","72","H","0","img/none_selected.jpg","","134","main_expt",""
"","bandit","214","685476","0.0-175.0-0.0","37270032","wem/bandit_either_3","A2BEETGUC05155","either","8","941","","","","","","","0","1","0","","0.5174750093","0.4","0.2","0.8","0.6","0.5174750093","0.9103241533","0.8155916457","0.7006187635","","","","","","","","","","","","72","H","0","img/none_selected.jpg","","135","main_expt",""
"","bandit","215","687402","0.0-176.0-0.0","37270032","wem/bandit_either_3","A2BEETGUC05155","either","8","403","","","","","","","0","0","1","","0.4264762493","0.4","0.2","0.8","0.6","0.4264762493","0.9126032517","0.8281957705","0.6936815578","","","","","","","","","","","","72","H","0","img/none_selected.jpg","","136","main_expt",""
"","bandit","216","689002","0.0-177.0-0.0","37270032","wem/bandit_either_3","A2BEETGUC05155","either","8","54","","","","","","","0","1","0","","0.5351999402","0.4","0.2","0.8","0.6","0.5351999402","0.8983360858","0.7055403129","0.6531428085","","","","","","","","","","","","72","H","0","img/none_selected.jpg","","137","main_expt",""
"","bandit","217","691719","0.0-178.0-0.0","37270032","wem/bandit_either_3","A2BEETGUC05155","either","8","1188","","","","","","","0","0","1","0.6884351598","","0.4","0.2","0.8","0.6","","","","","0.4758748922","0.8851370462","0.6884351598","0.6769758131","","","","","","","","75","K","2","","","138","main_expt",""
"","bandit","218","693489","0.0-179.0-0.0","37270032","wem/bandit_either_3","A2BEETGUC05155","either","8","200","","","","","","","1","0","0","0.7649589049","","0.4","0.2","0.8","0.6","","","","","0.4039793023","0.8662270416","0.6090423031","0.7649589049","","","","","","","","76","L","3","","","139","main_expt",""
"","bandit","219","695287","0.0-180.0-0.0","37270032","wem/bandit_either_3","A2BEETGUC05155","either","8","268","","","","","","","0","1","0","","0.7674202191","0.4","0.2","0.8","0.6","0.384774136","0.8345767194","0.7000077187","0.7674202191","","","","","","","","","","","","76","L","3","","","140","main_expt",""
"","bandit","220","697001","0.0-181.0-0.0","37270032","wem/bandit_either_3","A2BEETGUC05155","either","8","176","","","","","","","0","0","1","0.8575114448","","0.4","0.2","0.8","0.6","","","","","0.327254859","0.8783670964","0.6643185619","0.8575114448","","","","","","","","76","L","3","","","141","main_expt",""
"","bandit","221","698649","0.0-182.0-0.0","37270032","wem/bandit_either_3","A2BEETGUC05155","either","8","123","","","","","","","1","0","0","0.8134430427","","0.4","0.2","0.8","0.6","","","","","0.4536641492","0.8895828315","0.7079845674","0.8134430427","","","","","","","","76","L","3","","","142","main_expt",""
"","bandit","222","700355","0.0-183.0-0.0","37270032","wem/bandit_either_3","A2BEETGUC05155","either","8","149","","","","","","","1","0","0","0.8345505038","","0.4","0.2","0.8","0.6","","","","","0.4348486293","0.9053928798","0.6624187643","0.8345505038","","","","","","","","76","L","3","","","143","main_expt",""
"","bandit","223","702111","0.0-184.0-0.0","37270032","wem/bandit_either_3","A2BEETGUC05155","either","8","216","","","","","","","0","0","1","0.7482817554","","0.4","0.2","0.8","0.6","","","","","0.4086594597","0.9033088386","0.6779247185","0.7482817554","","","","","","","","76","L","3","","","144","main_expt",""
"","bandit","224","703679","0.0-185.0-0.0","37270032","wem/bandit_either_3","A2BEETGUC05155","either","8","39","","","","","","","1","0","0","0.7400387939","","0.4","0.2","0.8","0.6","","","","","0.4420772456","0.8572864227","0.7216102374","0.7400387939","","","","","","","","76","L","3","","","145","main_expt",""
"","bandit","225","705451","0.0-186.0-0.0","37270032","wem/bandit_either_3","A2BEETGUC05155","either","8","243","","","","","","","1","0","0","0.795971973","","0.4","0.2","0.8","0.6","","","","","0.508741462","0.8687508917","0.7837267619","0.795971973","","","","","","","","76","L","3","","","146","main_expt",""
"","bandit","226","707588","0.0-187.0-0.0","37270032","wem/bandit_either_3","A2BEETGUC05155","either","8","607","","","","","","","0","0","1","0.7503502301","","0.4","0.2","0.8","0.6","","","","","0.4624398998","0.8657621525","0.7652264833","0.7503502301","","","","","","","","76","L","3","","","147","main_expt",""
"","bandit","227","709115","0.0-188.0-0.0","37270032","wem/bandit_either_3","A2BEETGUC05155","either","8","2","","","","","","","0","1","0","","0.8200474043","0.4","0.2","0.8","0.6","0.4062589849","0.8362891365","0.7358716413","0.8200474043","","","","","","","","","","","","76","L","3","","","148","main_expt",""
"","bandit","228","711156","0.0-189.0-0.0","37270032","wem/bandit_either_3","A2BEETGUC05155","either","8","517","","","","","","","0","0","1","","0.8144386017","0.4","0.2","0.8","0.6","0.4895331913","0.8144386017","0.7129200786","0.8509010271","","","","","","","","","","","","74","J","1","","","149","main_expt",""
"","bandit","229","712878","0.0-190.0-0.0","37270032","wem/bandit_either_3","A2BEETGUC05155","either","8","200","","","","","","","0","0","1","0.705531668","","0.4","0.2","0.8","0.6","","","","","0.4704746919","0.6948055455","0.705531668","0.8298908313","","","","","","","","75","K","2","","","150","main_expt",""
"","bandit","230","714794","0.0-191.0-0.0","37270032","wem/bandit_either_3","A2BEETGUC05155","either","8","390","","","","","","","1","0","0","0.7362749002","","0.4","0.2","0.8","0.6","","","","","0.4725745774","0.6231991314","0.5744604188","0.7362749002","","","","","","","","76","L","3","","","151","main_expt",""
"","bandit","231","716750","0.0-192.0-0.0","37270032","wem/bandit_either_3","A2BEETGUC05155","either","8","426","","","","","","","1","0","0","0.7601791643","","0.4","0.2","0.8","0.6","","","","","0.4943906398","0.7045057733","0.5372669321","0.7601791643","","","","","","","","76","L","3","","","152","main_expt",""
"","bandit","232","718487","0.0-193.0-0.0","37270032","wem/bandit_either_3","A2BEETGUC05155","either","8","210","","","","","","","0","0","1","","0.4639524782","0.4","0.2","0.8","0.6","0.4639524782","0.5331338622","0.5447545218","0.7590648118","","","","","","","","","","","","72","H","0","img/none_selected.jpg","","153","main_expt",""
"","bandit","233","720192","0.0-194.0-0.0","37270032","wem/bandit_either_3","A2BEETGUC05155","either","8","155","","","","","","","1","0","0","0.3935792086","","0.4","0.2","0.8","0.6","","","","","0.3935792086","0.5096720896","0.4191749193","0.7805387907","","","","","","","","72","H","0","img/none_selected.jpg","","154","main_expt",""
"","bandit","234","721882","0.0-195.0-0.0","37270032","wem/bandit_either_3","A2BEETGUC05155","either","8","132","","","","","","","0","0","1","","0.4127348605","0.4","0.2","0.8","0.6","0.4127348605","0.4719011365","0.4269770229","0.8450805748","","","","","","","","","","","","72","H","0","img/none_selected.jpg","","155","main_expt",""
"","bandit","235","723442","0.0-196.0-0.0","37270032","wem/bandit_either_3","A2BEETGUC05155","either","8","15","","","","","","","0","1","0","","0.8513110265","0.4","0.2","0.8","0.6","0.3697675558","0.5818713095","0.4589862704","0.8513110265","","","","","","","","","","","","76","L","3","","","156","main_expt",""
"","bandit","236","725163","0.0-197.0-0.0","37270032","wem/bandit_either_3","A2BEETGUC05155","either","8","178","","","","","","","1","0","0","0.8226236001","","0.4","0.2","0.8","0.6","","","","","0.3604398023","0.5804022203","0.5370818316","0.8226236001","","","","","","","","76","L","3","","","157","main_expt",""
"","bandit","237","726991","0.0-198.0-0.0","37270032","wem/bandit_either_3","A2BEETGUC05155","either","8","282","","","","","","","0","1","0","","0.8843141367","0.4","0.2","0.8","0.6","0.4061750625","0.4773166223","0.4757376888","0.8843141367","","","","","","","","","","","","76","L","3","","","158","main_expt",""
"","bandit","238","728864","0.0-199.0-0.0","37270032","wem/bandit_either_3","A2BEETGUC05155","either","8","342","","","","","","","1","0","0","0.8078798749","","0.4","0.2","0.8","0.6","","","","","0.4696417586","0.419048585","0.4887287223","0.8078798749","","","","","","","","76","L","3","","","159","main_expt",""
"","bandit","239","730707","0.0-200.0-0.0","37270032","wem/bandit_either_3","A2BEETGUC05155","either","8","318","","","","","","","0","1","0","","0.7689164465","0.4","0.2","0.8","0.6","0.4659569923","0.4672574386","0.4588489809","0.7689164465","","","","","","","","","","","","76","L","3","","","160","main_expt",""
"","bandit","240","732590","0.0-201.0-0.0","37270032","wem/bandit_either_3","A2BEETGUC05155","either","8","356","","","","","","","1","0","0","0.7863156869","","0.4","0.2","0.8","0.6","","","","","0.3947207546","0.5612985374","0.4920004413","0.7863156869","","","","","","","","76","L","3","","","161","main_expt",""
"","bandit","241","734496","0.0-202.0-0.0","37270032","wem/bandit_either_3","A2BEETGUC05155","either","8","374","","","","","","","1","0","0","0.8098475403","","0.4","0.2","0.8","0.6","","","","","0.2460097942","0.5288680036","0.5389881207","0.8098475403","","","","","","","","76","L","3","","","162","main_expt",""
"","bandit","242","736318","0.0-203.0-0.0","37270032","wem/bandit_either_3","A2BEETGUC05155","either","8","266","","","","","","","0","1","0","","0.8222712862","0.4","0.2","0.8","0.6","0.3603606056","0.6096883849","0.6040136001","0.8222712862","","","","","","","","","","","","76","L","3","","","163","main_expt",""
"","bandit","243","738055","0.0-204.0-0.0","37270032","wem/bandit_either_3","A2BEETGUC05155","either","8","216","","","","","","","0","1","0","","0.7876031225","0.4","0.2","0.8","0.6","0.2507209727","0.4868922288","0.623756827","0.7876031225","","","","","","","","","","","","76","L","3","","","164","main_expt",""
"","bandit","244","739782","0.0-205.0-0.0","37270032","wem/bandit_either_3","A2BEETGUC05155","either","8","181","","","","","","","1","0","0","0.7435052823","","0.4","0.2","0.8","0.6","","","","","0.2162043423","0.4055552053","0.6164515281","0.7435052823","","","","","","","","76","L","3","","","165","main_expt",""
"","bandit","245","741510","0.0-206.0-0.0","37270032","wem/bandit_either_3","A2BEETGUC05155","either","8","197","","","","","","","1","0","0","0.6545739251","","0.4","0.2","0.8","0.6","","","","","0.2573409732","0.4748236382","0.4660222187","0.6545739251","","","","","","","","76","L","3","","","166","main_expt",""
"","bandit","246","743144","0.0-207.0-0.0","37270032","wem/bandit_either_3","A2BEETGUC05155","either","8","103","","","","","","","1","0","0","0.6645907447","","0.4","0.2","0.8","0.6","","","","","0.4016088623","0.4725242185","0.3336058786","0.6645907447","","","","","","","","76","L","3","","","167","main_expt",""
"","bandit","247","744957","0.0-208.0-0.0","37270032","wem/bandit_either_3","A2BEETGUC05155","either","8","289","","","","","","","0","1","0","","0.7243751722","0.4","0.2","0.8","0.6","0.5522858252","0.4775208721","0.2887723434","0.7243751722","","","","","","","","","","","","76","L","3","","","168","main_expt",""
"","bandit","248","746823","0.0-209.0-0.0","37270032","wem/bandit_either_3","A2BEETGUC05155","either","8","339","","","","","","","0","1","0","","0.6453105543","0.4","0.2","0.8","0.6","0.5461138513","0.4682732781","0.3357056981","0.6453105543","","","","","","","","","","","","76","L","3","","","169","main_expt",""
"","bandit","249","748618","0.0-210.0-0.0","37270032","wem/bandit_either_3","A2BEETGUC05155","either","8","264","","","","","","","1","0","0","0.5334010147","","0.4","0.2","0.8","0.6","","","","","0.4402798015","0.4246621539","0.4179693295","0.5334010147","","","","","","","","76","L","3","","","170","main_expt",""
"","bandit","250","750358","0.0-211.0-0.0","37270032","wem/bandit_either_3","A2BEETGUC05155","either","8","142","","","","","","","0","1","0","","0.498122785","0.4","0.2","0.8","0.6","0.450294849","0.2843380906","0.3050406521","0.498122785","","","","","","","","","","","","76","L","3","","","171","main_expt",""
"","bandit","251","752178","0.0-212.0-0.0","37270032","wem/bandit_either_3","A2BEETGUC05155","either","8","286","","","","","","","0","0","1","","0.4356988635","0.4","0.2","0.8","0.6","0.6475755847","0.2668952485","0.3364500029","0.4356988635","","","","","","","","","","","","76","L","3","","","172","main_expt",""
"","bandit","252","753857","0.0-213.0-0.0","37270032","wem/bandit_either_3","A2BEETGUC05155","either","8","136","","","","","","","1","0","0","0.3964199688","","0.4","0.2","0.8","0.6","","","","","0.6095255177","0.3802819164","0.421339117","0.3964199688","","","","","","","","76","L","3","","","173","main_expt",""
"","bandit","253","755786","0.0-214.0-0.0","37270032","wem/bandit_either_3","A2BEETGUC05155","either","8","386","","","","","","","0","0","1","","0.3194345802","0.4","0.2","0.8","0.6","0.5003628493","0.4042455133","0.4913704717","0.3194345802","","","","","","","","","","","","76","L","3","","","174","main_expt",""
"","bandit","254","757452","0.0-215.0-0.0","37270032","wem/bandit_either_3","A2BEETGUC05155","either","8","124","","","","","","","1","0","0","0.2865230234","","0.4","0.2","0.8","0.6","","","","","0.5576212716","0.4393989914","0.5882611891","0.2865230234","","","","","","","","76","L","3","","","175","main_expt",""
"","bandit","255","759350","0.0-216.0-0.0","37270032","wem/bandit_either_3","A2BEETGUC05155","either","8","371","","","","","","","0","0","1","0.3352692614","","0.4","0.2","0.8","0.6","","","","","0.6230679906","0.4705173801","0.6313830356","0.3352692614","","","","","","","","76","L","3","","","176","main_expt",""
"","bandit","256","761215","0.0-217.0-0.0","37270032","wem/bandit_either_3","A2BEETGUC05155","either","8","330","","","","","","","0","0","1","0.3389264817","","0.4","0.2","0.8","0.6","","","","","0.6501784685","0.4698597734","0.5531265137","0.3389264817","","","","","","","","76","L","3","","","177","main_expt",""
"","bandit","257","763310","0.0-218.0-0.0","37270032","wem/bandit_either_3","A2BEETGUC05155","either","8","568","","","","","","","0","0","1","","0.3570804947","0.4","0.2","0.8","0.6","0.6334155083","0.3570804947","0.4621004187","0.3709673039","","","","","","","","","","","","74","J","1","","","178","main_expt",""
"","bandit","258","764934","0.0-219.0-0.0","37270032","wem/bandit_either_3","A2BEETGUC05155","either","8","94","","","","","","","0","0","1","0.512884041","","0.4","0.2","0.8","0.6","","","","","0.7548338289","0.3441184995","0.512884041","0.2940579202","","","","","","","","75","K","2","","","179","main_expt",""
"","bandit","259","766488","0.0-220.0-0.0","37270032","wem/bandit_either_3","A2BEETGUC05155","either","8","3","","","","","","","0","1","0","","0.8074073351","0.4","0.2","0.8","0.6","0.8074073351","0.3646136501","0.506744284","0.3218724025","","","","","","","","","","","","72","H","0","img/none_selected.jpg","","180","main_expt",""
"","bandit","260","768299","0.0-221.0-0.0","37270032","wem/bandit_either_3","A2BEETGUC05155","either","8","284","","","","","","","1","0","0","0.780721516","","0.4","0.2","0.8","0.6","","","","","0.780721516","0.3777688814","0.4556494723","0.3633286182","","","","","","","","72","H","0","img/none_selected.jpg","","181","main_expt",""
"","bandit","261","770019","0.0-222.0-0.0","37270032","wem/bandit_either_3","A2BEETGUC05155","either","8","177","","","","","","","0","1","0","","0.7647415088","0.4","0.2","0.8","0.6","0.7647415088","0.4578236703","0.4494525508","0.3324048704","","","","","","","","","","","","72","H","0","img/none_selected.jpg","","182","main_expt",""
"","bandit","262","771798","0.0-223.0-0.0","37270032","wem/bandit_either_3","A2BEETGUC05155","either","8","231","","","","","","","0","1","0","","0.7349307529","0.4","0.2","0.8","0.6","0.7349307529","0.4244895098","0.5189143621","0.3092830871","","","","","","","","","","","","72","H","0","img/none_selected.jpg","","183","main_expt",""
"","bandit","263","773684","0.0-224.0-0.0","37270032","wem/bandit_either_3","A2BEETGUC05155","either","8","314","","","","","","","0","1","0","","0.8298088288","0.4","0.2","0.8","0.6","0.8298088288","0.3566779322","0.5167606333","0.3905692936","","","","","","","","","","","","72","H","0","img/none_selected.jpg","","184","main_expt",""
"","bandit","264","775508","0.0-225.0-0.0","37270032","wem/bandit_either_3","A2BEETGUC05155","either","8","289","","","","","","","0","1","0","","0.7894193193","0.4","0.2","0.8","0.6","0.7894193193","0.3737416658","0.5270237034","0.4626192444","","","","","","","","","","","","72","H","0","img/none_selected.jpg","","185","main_expt",""
"","bandit","265","777387","0.0-226.0-0.0","37270032","wem/bandit_either_3","A2BEETGUC05155","either","8","346","","","","","","","1","0","0","0.7665022487","","0.4","0.2","0.8","0.6","","","","","0.7665022487","0.3120176694","0.5556036571","0.6061762586","","","","","","","","72","H","0","img/none_selected.jpg","","186","main_expt",""
"","bandit","266","779358","0.0-227.0-0.0","37270032","wem/bandit_either_3","A2BEETGUC05155","either","8","427","","","","","","","1","0","0","0.7394266891","","0.4","0.2","0.8","0.6","","","","","0.7394266891","0.4134691065","0.5865134094","0.530958695","","","","","","","","72","H","0","img/none_selected.jpg","","187","main_expt",""
"","bandit","267","781337","0.0-228.0-0.0","37270032","wem/bandit_either_3","A2BEETGUC05155","either","8","403","","","","","","","0","0","1","","0.6567361442","0.4","0.2","0.8","0.6","0.6567361442","0.4637770407","0.5034866795","0.380024655","","","","","","","","","","","","72","H","0","img/none_selected.jpg","","188","main_expt",""
"","bandit","268","783033","0.0-229.0-0.0","37270032","wem/bandit_either_3","A2BEETGUC05155","either","8","137","","","","","","","0","1","0","","0.6572443956","0.4","0.2","0.8","0.6","0.6572443956","0.5739034088","0.5761715841","0.4563575644","","","","","","","","","","","","72","H","0","img/none_selected.jpg","","189","main_expt",""
"","bandit","269","784764","0.0-230.0-0.0","37270032","wem/bandit_either_3","A2BEETGUC05155","either","8","202","","","","","","","0","1","0","","0.6735764162","0.4","0.2","0.8","0.6","0.6735764162","0.5859504021","0.5325489933","0.4540853102","","","","","","","","","","","","72","H","0","img/none_selected.jpg","","190","main_expt",""
"","bandit","270","786788","0.0-231.0-0.0","37270032","wem/bandit_either_3","A2BEETGUC05155","either","8","497","","","","","","","0","0","1","","0.5997518312","0.4","0.2","0.8","0.6","0.5997518312","0.5325822721","0.5614919892","0.4328006462","","","","","","","","","","","","72","H","0","img/none_selected.jpg","","191","main_expt",""
"","bandit","271","788403","0.0-232.0-0.0","37270032","wem/bandit_either_3","A2BEETGUC05155","either","8","87","","","","","","","0","0","1","","0.6582178794","0.4","0.2","0.8","0.6","0.6582178794","0.4622441745","0.5972832049","0.4979354652","","","","","","","","","","","","72","H","0","img/none_selected.jpg","","192","main_expt",""
"","bandit","272","790339","0.0-233.0-0.0","37270032","wem/bandit_either_3","A2BEETGUC05155","either","8","360","","","","","","","0","0","1","0.4887187701","","0.4","0.2","0.8","0.6","","","","","0.7246172867","0.4765036663","0.6997951875","0.4887187701","","","","","","","","76","L","3","","","193","main_expt",""
"","bandit","273","792109","0.0-234.0-0.0","37270032","wem/bandit_either_3","A2BEETGUC05155","either","8","233","","","","","","","1","0","0","0.7721250451","","0.4","0.2","0.8","0.6","","","","","0.7721250451","0.4504155567","0.7511051992","0.4993882896","","","","","","","","72","H","0","img/none_selected.jpg","","194","main_expt",""
"","bandit","274","793713","0.0-235.0-0.0","37270032","wem/bandit_either_3","A2BEETGUC05155","either","8","82","","","","","","","1","0","0","0.8366496483","","0.4","0.2","0.8","0.6","","","","","0.8366496483","0.4354252764","0.8281457055","0.5011331455","","","","","","","","72","H","0","img/none_selected.jpg","","195","main_expt",""
"","bandit","275","795476","0.0-236.0-0.0","37270032","wem/bandit_either_3","A2BEETGUC05155","either","8","229","","","","","","","0","1","0","","0.8484646997","0.4","0.2","0.8","0.6","0.8484646997","0.4170899215","0.8248544968","0.4487960683","","","","","","","","","","","","72","H","0","img/none_selected.jpg","","196","main_expt",""
"","bandit","276","797293","0.0-237.0-0.0","37270032","wem/bandit_either_3","A2BEETGUC05155","either","8","285","","","","","","","0","0","1","","0.8734060335","0.4","0.2","0.8","0.6","0.8734060335","0.4149059055","0.8532714289","0.3975590019","","","","","","","","","","","","72","H","0","img/none_selected.jpg","","197","main_expt",""
"","bandit","277","799276","0.0-238.0-0.0","37270032","wem/bandit_either_3","A2BEETGUC05155","either","8","454","","","","","","","0","1","0","","0.8515360685","0.4","0.2","0.8","0.6","0.8515360685","0.4737306044","0.7587337752","0.4161601929","","","","","","","","","","","","72","H","0","img/none_selected.jpg","","198","main_expt",""
"","bandit","278","800941","0.0-239.0-0.0","37270032","wem/bandit_either_3","A2BEETGUC05155","either","8","131","","","","","","","1","0","0","0.8124408481","","0.4","0.2","0.8","0.6","","","","","0.8805923715","0.4541760911","0.8124408481","0.4483979408","","","","","","","","75","K","2","","","199","main_expt",""
"","bandit","279","802763","0.0-240.0-0.0","37270032","wem/bandit_either_3","A2BEETGUC05155","either","8","289","","","","","","","0","1","0","","0.9645818821","0.4","0.2","0.8","0.6","0.9645818821","0.3964714959","0.7935778268","0.5303380975","","","","","","","","","","","","72","H","0","img/none_selected.jpg","","200","main_expt",""
"","bandit","280","804632","0.0-241.0-0.0","37270032","wem/bandit_either_3","A2BEETGUC05155","either","8","339","","","","","","","0","0","1","","0.736942723","0.4","0.2","0.8","0.6","0.9689478708","0.3815447649","0.736942723","0.4014045657","","","","","","","","","","","","75","K","2","","","201","main_expt",""
"","bandit","281","806441","0.0-242.0-0.0","37270032","wem/bandit_either_3","A2BEETGUC05155","either","8","237","","","","","","","0","1","0","","0.9678291885","0.4","0.2","0.8","0.6","0.9678291885","0.3726367513","0.7001951276","0.5115169607","","","","","","","","","","","","72","H","0","img/none_selected.jpg","","202","main_expt",""
"","bandit","282","808231","0.0-243.0-0.0","37270032","wem/bandit_either_3","A2BEETGUC05155","either","8","223","","","","","","","0","0","1","","0.5026191452","0.4","0.2","0.8","0.6","0.9633244117","0.3062653216","0.7209300446","0.5026191452","","","","","","","","","","","","76","L","3","","","203","main_expt",""
"","bandit","283","809980","0.0-244.0-0.0","37270032","wem/bandit_either_3","A2BEETGUC05155","either","8","199","","","","","","","1","0","0","0.9730812582","","0.4","0.2","0.8","0.6","","","","","0.9730812582","0.2848501254","0.8574132932","0.4736298566","","","","","","","","72","H","0","img/none_selected.jpg","","204","main_expt",""
"","bandit","284","811740","0.0-245.0-0.0","37270032","wem/bandit_either_3","A2BEETGUC05155","either","8","217","","","","","","","0","1","0","","0.9521206422","0.4","0.2","0.8","0.6","0.9521206422","0.3457586416","0.9038760074","0.6121858428","","","","","","","","","","","","72","H","0","img/none_selected.jpg","","205","main_expt",""
"","bandit","285","813400","0.0-246.0-0.0","37270032","wem/bandit_either_3","A2BEETGUC05155","either","8","94","","","","","","","1","0","0","0.9614764056","","0.4","0.2","0.8","0.6","","","","","0.9614764056","0.4609097875","0.9273356803","0.6377028942","","","","","","","","72","H","0","img/none_selected.jpg","","206","main_expt",""
"","bandit","286","815181","0.0-247.0-0.0","37270032","wem/bandit_either_3","A2BEETGUC05155","either","8","252","","","","","","","1","0","0","0.9625830716","","0.4","0.2","0.8","0.6","","","","","0.9625830716","0.4980316736","0.9502037039","0.5700483165","","","","","","","","72","H","0","img/none_selected.jpg","","207","main_expt",""
"","bandit","287","817025","0.0-248.0-0.0","37270032","wem/bandit_either_3","A2BEETGUC05155","either","8","306","","","","","","","0","1","0","","0.9359306517","0.4","0.2","0.8","0.6","0.9359306517","0.4537691537","0.944094639","0.624428721","","","","","","","","","","","","72","H","0","img/none_selected.jpg","","208","main_expt",""
"","bandit","288","819018","0.0-249.0-0.0","37270032","wem/bandit_either_3","A2BEETGUC05155","either","8","446","","","","","","","0","1","0","","0.9632917203","0.4","0.2","0.8","0.6","0.9632917203","0.4475842875","0.9070839441","0.4861871301","","","","","","","","","","","","72","H","0","img/none_selected.jpg","","209","main_expt",""
"","bandit","289","820786","0.0-250.0-0.0","37270032","wem/bandit_either_3","A2BEETGUC05155","either","8","216","","","","","","","0","1","0","","0.9633226214","0.4","0.2","0.8","0.6","0.9633226214","0.4803454055","0.8960653589","0.3956361612","","","","","","","","","","","","72","H","0","img/none_selected.jpg","","210","main_expt",""
"","bandit","290","822705","0.0-251.0-0.0","37270032","wem/bandit_either_3","A2BEETGUC05155","either","8","390","","","","","","","1","0","0","0.9719781217","","0.4","0.2","0.8","0.6","","","","","0.9719781217","0.4126443349","0.9155455821","0.3599204452","","","","","","","","72","H","0","img/none_selected.jpg","","211","main_expt",""
"","bandit","291","824702","0.0-252.0-0.0","37270032","wem/bandit_either_3","A2BEETGUC05155","either","8","470","","","","","","","0","1","0","","0.9700781686","0.4","0.2","0.8","0.6","0.9700781686","0.3384802849","0.9087954588","0.3349000901","","","","","","","","","","","","72","H","0","img/none_selected.jpg","","212","main_expt",""
"","bandit","292","826622","0.0-253.0-0.0","37270032","wem/bandit_either_3","A2BEETGUC05155","either","8","394","","","","","","","1","0","0","0.971165811","","0.4","0.2","0.8","0.6","","","","","0.971165811","0.3039242722","0.8528540962","0.3183344176","","","","","","","","72","H","0","img/none_selected.jpg","","213","main_expt",""
"","bandit","293","828456","0.0-254.0-0.0","37270032","wem/bandit_either_3","A2BEETGUC05155","either","8","306","","","","","","","0","1","0","","0.9627117","0.4","0.2","0.8","0.6","0.9627117","0.4541530846","0.8506041988","0.2390758011","","","","","","","","","","","","72","H","0","img/none_selected.jpg","","214","main_expt",""
"","bandit","294","830253","0.0-255.0-0.0","37270032","wem/bandit_either_3","A2BEETGUC05155","either","8","257","","","","","","","1","0","0","0.9552130497","","0.4","0.2","0.8","0.6","","","","","0.9552130497","0.5101749692","0.8001829978","0.1997060473","","","","","","","","72","H","0","img/none_selected.jpg","","215","main_expt",""
"","bandit","295","832228","0.0-256.0-0.0","37270032","wem/bandit_either_3","A2BEETGUC05155","either","8","410","","","","","","","0","1","0","","0.9220350188","0.4","0.2","0.8","0.6","0.9220350188","0.5580520347","0.733614842","0.2326539104","","","","","","","","","","","","72","H","0","img/none_selected.jpg","","216","main_expt",""
"","bandit","296","833999","0.0-257.0-0.0","37270032","wem/bandit_either_3","A2BEETGUC05155","either","8","243","","","","","","","0","1","0","","0.8736667029","0.4","0.2","0.8","0.6","0.8736667029","0.4368451062","0.7479737912","0.2319826337","","","","","","","","","","","","72","H","0","img/none_selected.jpg","","217","main_expt",""
"","bandit","297","836156","0.0-258.0-0.0","37270032","wem/bandit_either_3","A2BEETGUC05155","either","8","631","","","","","","","1","0","0","0.7602784417","","0.4","0.2","0.8","0.6","","","","","0.7602784417","0.3963441813","0.7713398237","0.3143382807","","","","","","","","72","H","0","img/none_selected.jpg","","218","main_expt",""
"","bandit","298","838239","0.0-259.0-0.0","37270032","wem/bandit_either_3","A2BEETGUC05155","either","8","549","","","","","","","0","1","0","","0.7643050859","0.4","0.2","0.8","0.6","0.7643050859","0.4809426617","0.8077055691","0.3304972923","","","","","","","","","","","","72","H","0","img/none_selected.jpg","","219","main_expt",""
"","bandit","299","840200","0.0-260.0-0.0","37270032","wem/bandit_either_3","A2BEETGUC05155","either","8","385","","","","","","","0","0","1","0.7793587236","","0.4","0.2","0.8","0.6","","","","","0.7793587236","0.397759556","0.7778114837","0.2866104843","","","","","","","","72","H","0","img/none_selected.jpg","","220","main_expt",""
"","bandit","300","843420","0.0-261.0-0.0","37270032","wem/bandit_either_3","A2BEETGUC05155","either","8","1683","","","","","","","1","0","0","0.82086311","","0.4","0.2","0.8","0.6","","","","","0.82086311","0.4087677593","0.7214198583","0.3602561646","","","","","","","","72","H","0","img/none_selected.jpg","","221","main_expt",""
"","bandit","301","846156","0.0-262.0-0.0","37270032","wem/bandit_either_3","A2BEETGUC05155","either","8","1164","","","","","","","0","1","0","","0.8543662658","0.4","0.2","0.8","0.6","0.8543662658","0.4561280915","0.8091526303","0.3228749062","","","","","","","","","","","","72","H","0","img/none_selected.jpg","","222","main_expt",""
"","bandit","302","848737","0.0-263.0-0.0","37270032","wem/bandit_either_3","A2BEETGUC05155","either","8","1038","","","","","","","0","1","0","","0.8599459829","0.4","0.2","0.8","0.6","0.8599459829","0.4419858618","0.8240838469","0.2549485676","","","","","","","","","","","","72","H","0","img/none_selected.jpg","","223","main_expt",""
"","bandit","303","851400","0.0-264.0-0.0","37270032","wem/bandit_either_3","A2BEETGUC05155","either","8","1128","","","","","","","1","0","0","0.8747991669","","0.4","0.2","0.8","0.6","","","","","0.8747991669","0.494409337","0.7670685714","0.2389333491","","","","","","","","72","H","0","img/none_selected.jpg","","224","main_expt",""
"","bandit","304","853154","0.0-265.0-0.0","37270032","wem/bandit_either_3","A2BEETGUC05155","either","8","203","","","","","","","0","1","0","","0.7910409491","0.4","0.2","0.8","0.6","0.7910409491","0.3713348049","0.8775689376","0.1517307125","","","","","","","","","","","","72","H","0","img/none_selected.jpg","","225","main_expt",""
"","bandit","305","855772","0.0-266.0-0.0","37270032","wem/bandit_either_3","A2BEETGUC05155","either","8","1091","","","","","","","0","0","1","","0.7212928749","0.4","0.2","0.8","0.6","0.7212928749","0.4013452417","0.8846504348","0.1002450003","","","","","","","","","","","","72","H","0","img/none_selected.jpg","","226","main_expt",""
"","bandit","306","857520","0.0-267.0-0.0","37270032","wem/bandit_either_3","A2BEETGUC05155","either","8","201","","","","","","","1","0","0","0.7090989562","","0.4","0.2","0.8","0.6","","","","","0.7090989562","0.393451628","0.851087938","0.1049945928","","","","","","","","72","H","0","img/none_selected.jpg","","227","main_expt",""
"","bandit","307","860642","0.0-268.0-0.0","37270032","wem/bandit_either_3","A2BEETGUC05155","either","8","1555","","","","","","","1","0","0","0.6606736223","","0.4","0.2","0.8","0.6","","","","","0.6606736223","0.4175844788","0.9074720337","0.03915988122","","","","","","","","72","H","0","img/none_selected.jpg","","228","main_expt",""
"","bandit","308","862546","0.0-269.0-0.0","37270032","wem/bandit_either_3","A2BEETGUC05155","either","8","371","","","","","","","0","1","0","","0.6893924153","0.4","0.2","0.8","0.6","0.6893924153","0.408368909","0.872332114","0.03767516843","","","","","","","","","","","","72","H","0","img/none_selected.jpg","","229","main_expt",""
"","bandit","309","865443","0.0-270.0-0.0","37270032","wem/bandit_either_3","A2BEETGUC05155","either","8","1306","","","","","","","0","1","0","","0.6067604319","0.4","0.2","0.8","0.6","0.6067604319","0.4777699032","0.7967167456","0.05804790214","","","","","","","","","","","","72","H","0","img/none_selected.jpg","","230","main_expt",""
"","bandit","310","867719","0.0-271.0-0.0","37270032","wem/bandit_either_3","A2BEETGUC05155","either","8","721","","","","","","","0","1","0","","0.5037419277","0.4","0.2","0.8","0.6","0.5037419277","0.4935442242","0.7760618079","0.04963095007","","","","","","","","","","","","72","H","0","img/none_selected.jpg","","231","main_expt",""
"","bandit","311","870094","0.0-272.0-0.0","37270032","wem/bandit_either_3","A2BEETGUC05155","either","8","800","","","","","","","0","0","1","0.4339479185","","0.4","0.2","0.8","0.6","","","","","0.4339479185","0.4889590317","0.7765467853","0.03759782928","","","","","","","","72","H","0","img/none_selected.jpg","","232","main_expt",""
"","bandit","312","872015","0.0-273.0-0.0","37270032","wem/bandit_either_3","A2BEETGUC05155","either","8","387","","","","","","","0","1","0","","0.4525546635","0.4","0.2","0.8","0.6","0.4525546635","0.5212294662","0.7895219362","0.03147013274","","","","","","","","","","","","72","H","0","img/none_selected.jpg","","233","main_expt",""
"","bandit","313","876457","0.0-274.0-0.0","37270032","wem/bandit_either_3","A2BEETGUC05155","either","8","2917","","","","","","","0","0","1","","0.3680080929","0.4","0.2","0.8","0.6","0.3680080929","0.4420617392","0.7491899586","0.03547440544","","","","","","","","","","","","72","H","0","img/none_selected.jpg","","234","main_expt",""
"","bandit","314","878322","0.0-275.0-0.0","37270032","wem/bandit_either_3","A2BEETGUC05155","either","8","338","","","","","","","0","0","1","","0.3416373547","0.4","0.2","0.8","0.6","0.3416373547","0.4816955248","0.7397351474","0.04486782706","","","","","","","","","","","","72","H","0","img/none_selected.jpg","","235","main_expt",""
"","bandit","315","879860","0.0-276.0-0.0","37270032","wem/bandit_either_3","A2BEETGUC05155","either","8","2","","","","","","","0","0","1","0.03122339122","","0.4","0.2","0.8","0.6","","","","","0.3722877153","0.3028121716","0.6587673302","0.03122339122","","","","","","","","76","L","3","","","236","main_expt",""
"","bandit","316","881435","0.0-277.0-0.0","37270032","wem/bandit_either_3","A2BEETGUC05155","either","8","22","","","","","","","0","0","1","","0.04191117605","0.4","0.2","0.8","0.6","0.3081002542","0.3802502189","0.7534934878","0.04191117605","","","","","","","","","","","","76","L","3","","","237","main_expt",""
"","bandit","317","883201","0.0-278.0-0.0","37270032","wem/bandit_either_3","A2BEETGUC05155","either","8","213","","","","","","","1","0","0","0.8023031038","","0.4","0.2","0.8","0.6","","","","","0.2546656634","0.4160754302","0.8023031038","0.06367740527","","","","","","","","75","K","2","","","238","main_expt",""
"","bandit","318","884865","0.0-279.0-0.0","37270032","wem/bandit_either_3","A2BEETGUC05155","either","8","128","","","","","","","0","0","1","0.8333986962","","0.4","0.2","0.8","0.6","","","","","0.3038323055","0.3510440385","0.8333986962","0.06315957527","","","","","","","","75","K","2","","","239","main_expt",""
"","bandit","319","886435","0.0-280.0-0.0","37270032","wem/bandit_either_3","A2BEETGUC05155","either","8","2","","","","","","","0","1","0","","0.840768508","0.4","0.2","0.8","0.6","0.291884511","0.4182550587","0.840768508","0.05324295338","","","","","","","","","","","","75","K","2","","","240","main_expt",""
"","bandit","320","888141","0.0-281.0-0.0","37270032","wem/bandit_either_3","A2BEETGUC05155","either","8","169","","","","","","","1","0","0","0.823006268","","0.4","0.2","0.8","0.6","","","","","0.3124975621","0.5037088371","0.823006268","0.04641095239","","","","","","","","75","K","2","","","241","main_expt",""
