"consent","trial_type","trial_index","time_elapsed","internal_node_id","subjID","study","MID","cond","drift","rt","responses","key_press","expt_phase","like","value","connected","gems","bombs","no_reward","GemPrChosen","BombPrChosen","GainOverPainPr_0","GainOverPainPr_1","GainOverPainPr_2","GainOverPainPr_3","LosePr_0","LosePr_1","LosePr_2","LosePr_3","WinPr_0","WinPr_1","WinPr_2","WinPr_3","Q0","Q1","Q2","gender","age","ethnicity","target","respCharCode","respKey","respChoiceNum","respChoice","practice","trial_counter","trial_label","button_pressed"
"INL_behavioral_consent_30min_online.html","consent","0","9305","0.0-0.0","39140001","wem/bandit_either_3","A1RDRK3QTM7U96","either","2","","","","","","","","","","","","","","","","","","","","","","","","","","","","","","","","","","","","","","",""
"","survey-text","1","15523","0.0-1.0","39140001","wem/bandit_either_3","A1RDRK3QTM7U96","either","2","5199","{""Q0"":""A1RDRK3QTM7U96""}","","","","","","","","","","","","","","","","","","","","","","","","","","","","","","","","","","","","",""
"","text","2","26874","0.0-2.0","39140001","wem/bandit_either_3","A1RDRK3QTM7U96","either","2","10342","","32","","","","","","","","","","","","","","","","","","","","","","","","","","","","","","","","","","","",""
"","text","3","55152","0.0-3.0","39140001","wem/bandit_either_3","A1RDRK3QTM7U96","either","2","28268","","32","","","","","","","","","","","","","","","","","","","","","","","","","","","","","","","","","","","",""
"","text","4","65058","0.0-4.0","39140001","wem/bandit_either_3","A1RDRK3QTM7U96","either","2","9906","","32","","","","","","","","","","","","","","","","","","","","","","","","","","","","","","","","","","","",""
"","text","5","76136","0.0-5.0","39140001","wem/bandit_either_3","A1RDRK3QTM7U96","either","2","11078","","32","","","","","","","","","","","","","","","","","","","","","","","","","","","","","","","","","","","",""
"","text","6","90432","0.0-6.0","39140001","wem/bandit_either_3","A1RDRK3QTM7U96","either","2","14296","","32","","","","","","","","","","","","","","","","","","","","","","","","","","","","","","","","","","","",""
"","text","7","94847","0.0-7.0","39140001","wem/bandit_either_3","A1RDRK3QTM7U96","either","2","4405","","32","","","","","","","","","","","","","","","","","","","","","","","","","","","","","","","","","","","",""
"","text","8","98617","0.0-8.0","39140001","wem/bandit_either_3","A1RDRK3QTM7U96","either","2","3770","","32","","","","","","","","","","","","","","","","","","","","","","","","","","","","","","","","","","","",""
"","identification","9","110606","0.0-9.0-0.0","39140001","wem/bandit_either_3","A1RDRK3QTM7U96","either","2","11959","","","","3","5","3","","","","","","","","","","","","","","","","","","","","","","","","the village of Zur","","","","","","","",""
"","identification","10","114944","0.0-9.0-1.0","39140001","wem/bandit_either_3","A1RDRK3QTM7U96","either","2","3328","","","","1","2","1","","","","","","","","","","","","","","","","","","","","","","","","the village of Nyx","","","","","","","",""
"","text","11","121369","0.0-10.0","39140001","wem/bandit_either_3","A1RDRK3QTM7U96","either","2","5423","","32","","","","","","","","","","","","","","","","","","","","","","","","","","","","","","","","","","","",""
"","text","12","124137","0.0-11.0","39140001","wem/bandit_either_3","A1RDRK3QTM7U96","either","2","2766","","32","","","","","","","","","","","","","","","","","","","","","","","","","","","","","","","","","","","",""
"","text","13","126017","0.0-12.0","39140001","wem/bandit_either_3","A1RDRK3QTM7U96","either","2","1878","","32","","","","","","","","","","","","","","","","","","","","","","","","","","","","","","","","","","","",""
"","text","14","128937","0.0-13.0","39140001","wem/bandit_either_3","A1RDRK3QTM7U96","either","2","2918","","32","","","","","","","","","","","","","","","","","","","","","","","","","","","","","","","","","","","",""
"","bandit","15","134419","0.0-14.0-0.0","39140001","wem/bandit_either_3","A1RDRK3QTM7U96","either","2","3970","","","","","","","0","0","1","0","0","","","","","0","","","","0","","","","","","","","","","","74","J","0","img/none_selected_demo.jpg","true","0","",""
"","bandit","16","137297","0.0-15.0-0.0","39140001","wem/bandit_either_3","A1RDRK3QTM7U96","either","2","1371","","","","","","","0","0","1","0","0","","","","","0","","","","0","","","","","","","","","","","75","K","0","img/none_selected_demo.jpg","true","0","",""
"","text","17","143553","0.0-16.0","39140001","wem/bandit_either_3","A1RDRK3QTM7U96","either","2","6254","","32","","","","","","","","","","","","","","","","","","","","","","","","","","","","","","","","","","","",""
"","text","18","152578","0.0-17.0","39140001","wem/bandit_either_3","A1RDRK3QTM7U96","either","2","9023","","32","","","","","","","","","","","","","","","","","","","","","","","","","","","","","","","","","","","",""
"","text","19","157281","0.0-18.0","39140001","wem/bandit_either_3","A1RDRK3QTM7U96","either","2","4701","","32","","","","","","","","","","","","","","","","","","","","","","","","","","","","","","","","","","","",""
"","text","20","159865","0.0-19.0","39140001","wem/bandit_either_3","A1RDRK3QTM7U96","either","2","2582","","32","","","","","","","","","","","","","","","","","","","","","","","","","","","","","","","","","","","",""
"","bandit","21","163855","0.0-20.0-0.0","39140001","wem/bandit_either_3","A1RDRK3QTM7U96","either","2","2485","","","","","","","1","0","0","0.8","","0.5","0.5","","","","","","","0.8","0.2","","","","","","","","","","74","J","0","img/none_selected_demo.jpg","true","0","80_20_practice",""
"","bandit","22","166576","0.0-20.0-1.0","39140001","wem/bandit_either_3","A1RDRK3QTM7U96","either","2","1214","","","","","","","0","1","0","","0.8","0.5","0.5","","","0.8","0.2","","","","","","","","","","","","","","74","J","0","img/none_selected_demo.jpg","true","0","80_20_practice",""
"","bandit","23","168480","0.0-20.0-2.0","39140001","wem/bandit_either_3","A1RDRK3QTM7U96","either","2","396","","","","","","","1","0","0","0.8","","0.5","0.5","","","","","","","0.8","0.2","","","","","","","","","","74","J","0","img/none_selected_demo.jpg","true","0","80_20_practice",""
"","bandit","24","170472","0.0-20.0-3.0","39140001","wem/bandit_either_3","A1RDRK3QTM7U96","either","2","485","","","","","","","0","1","0","","0.8","0.5","0.5","","","0.8","0.2","","","","","","","","","","","","","","74","J","0","img/none_selected_demo.jpg","true","0","80_20_practice",""
"","bandit","25","172448","0.0-20.0-4.0","39140001","wem/bandit_either_3","A1RDRK3QTM7U96","either","2","468","","","","","","","0","1","0","","0.8","0.5","0.5","","","0.8","0.2","","","","","","","","","","","","","","74","J","0","img/none_selected_demo.jpg","true","0","80_20_practice",""
"","bandit","26","174423","0.0-20.0-5.0","39140001","wem/bandit_either_3","A1RDRK3QTM7U96","either","2","469","","","","","","","1","0","0","0.8","","0.5","0.5","","","","","","","0.8","0.2","","","","","","","","","","74","J","0","img/none_selected_demo.jpg","true","0","80_20_practice",""
"","bandit","27","176232","0.0-20.0-6.0","39140001","wem/bandit_either_3","A1RDRK3QTM7U96","either","2","301","","","","","","","0","0","1","","0.8","0.5","0.5","","","0.8","0.2","","","","","","","","","","","","","","74","J","0","img/none_selected_demo.jpg","true","0","80_20_practice",""
"","bandit","28","177928","0.0-20.0-7.0","39140001","wem/bandit_either_3","A1RDRK3QTM7U96","either","2","189","","","","","","","0","1","0","","0.8","0.5","0.5","","","0.8","0.2","","","","","","","","","","","","","","74","J","0","img/none_selected_demo.jpg","true","0","80_20_practice",""
"","bandit","29","179671","0.0-20.0-8.0","39140001","wem/bandit_either_3","A1RDRK3QTM7U96","either","2","237","","","","","","","1","0","0","0.8","","0.5","0.5","","","","","","","0.8","0.2","","","","","","","","","","74","J","0","img/none_selected_demo.jpg","true","0","80_20_practice",""
"","bandit","30","181502","0.0-20.0-9.0","39140001","wem/bandit_either_3","A1RDRK3QTM7U96","either","2","326","","","","","","","1","0","0","0.8","","0.5","0.5","","","","","","","0.8","0.2","","","","","","","","","","74","J","0","img/none_selected_demo.jpg","true","0","80_20_practice",""
"","bandit","31","183311","0.0-20.0-10.0","39140001","wem/bandit_either_3","A1RDRK3QTM7U96","either","2","303","","","","","","","1","0","0","0.8","","0.5","0.5","","","","","","","0.8","0.2","","","","","","","","","","74","J","0","img/none_selected_demo.jpg","true","0","80_20_practice",""
"","bandit","32","185103","0.0-20.0-11.0","39140001","wem/bandit_either_3","A1RDRK3QTM7U96","either","2","286","","","","","","","1","0","0","0.8","","0.5","0.5","","","","","","","0.8","0.2","","","","","","","","","","74","J","0","img/none_selected_demo.jpg","true","0","80_20_practice",""
"","bandit","33","186904","0.0-20.0-12.0","39140001","wem/bandit_either_3","A1RDRK3QTM7U96","either","2","293","","","","","","","1","0","0","0.8","","0.5","0.5","","","","","","","0.8","0.2","","","","","","","","","","74","J","0","img/none_selected_demo.jpg","true","0","80_20_practice",""
"","bandit","34","188712","0.0-20.0-13.0","39140001","wem/bandit_either_3","A1RDRK3QTM7U96","either","2","302","","","","","","","0","1","0","","0.8","0.5","0.5","","","0.8","0.2","","","","","","","","","","","","","","74","J","0","img/none_selected_demo.jpg","true","0","80_20_practice",""
"","bandit","35","190504","0.0-20.0-14.0","39140001","wem/bandit_either_3","A1RDRK3QTM7U96","either","2","284","","","","","","","0","1","0","","0.8","0.5","0.5","","","0.8","0.2","","","","","","","","","","","","","","74","J","0","img/none_selected_demo.jpg","true","0","80_20_practice",""
"","bandit","36","192248","0.0-20.0-15.0","39140001","wem/bandit_either_3","A1RDRK3QTM7U96","either","2","236","","","","","","","1","0","0","0.8","","0.5","0.5","","","","","","","0.8","0.2","","","","","","","","","","74","J","0","img/none_selected_demo.jpg","true","0","80_20_practice",""
"","bandit","37","194072","0.0-20.0-16.0","39140001","wem/bandit_either_3","A1RDRK3QTM7U96","either","2","319","","","","","","","0","1","0","","0.8","0.5","0.5","","","0.8","0.2","","","","","","","","","","","","","","74","J","0","img/none_selected_demo.jpg","true","0","80_20_practice",""
"","bandit","38","196015","0.0-20.0-17.0","39140001","wem/bandit_either_3","A1RDRK3QTM7U96","either","2","436","","","","","","","1","0","0","0.8","","0.5","0.5","","","","","","","0.8","0.2","","","","","","","","","","74","J","0","img/none_selected_demo.jpg","true","0","80_20_practice",""
"","bandit","39","197799","0.0-20.0-18.0","39140001","wem/bandit_either_3","A1RDRK3QTM7U96","either","2","277","","","","","","","1","0","0","0.8","","0.5","0.5","","","","","","","0.8","0.2","","","","","","","","","","74","J","0","img/none_selected_demo.jpg","true","0","80_20_practice",""
"","bandit","40","199639","0.0-20.0-19.0","39140001","wem/bandit_either_3","A1RDRK3QTM7U96","either","2","333","","","","","","","1","0","0","0.8","","0.5","0.5","","","","","","","0.8","0.2","","","","","","","","","","74","J","0","img/none_selected_demo.jpg","true","0","80_20_practice",""
"","text","41","205113","0.0-21.0","39140001","wem/bandit_either_3","A1RDRK3QTM7U96","either","2","5469","","32","","","","","","","","","","","","","","","","","","","","","","","","","","","","","","","","","","","",""
"","bandit","42","209384","0.0-22.0-0.0","39140001","wem/bandit_either_3","A1RDRK3QTM7U96","either","2","2764","","","","","","","1","0","0","1","0","","","","","0","1","","","1","0","","","","","","","","","","74","J","0","img/none_selected_demo.jpg","true","0","",""
"","text","43","211793","0.0-23.0","39140001","wem/bandit_either_3","A1RDRK3QTM7U96","either","2","2407","","32","","","","","","","","","","","","","","","","","","","","","","","","","","","","","","","","","","","",""
"","text","44","215064","0.0-24.0","39140001","wem/bandit_either_3","A1RDRK3QTM7U96","either","2","3270","","32","","","","","","","","","","","","","","","","","","","","","","","","","","","","","","","","","","","",""
"","text","45","216536","0.0-25.0","39140001","wem/bandit_either_3","A1RDRK3QTM7U96","either","2","1470","","32","","","","","","","","","","","","","","","","","","","","","","","","","","","","","","","","","","","",""
"","text","46","219312","0.0-26.0","39140001","wem/bandit_either_3","A1RDRK3QTM7U96","either","2","2773","","32","","","","","","","","","","","","","","","","","","","","","","","","","","","","","","","","","","","",""
"","text","47","224233","0.0-27.0","39140001","wem/bandit_either_3","A1RDRK3QTM7U96","either","2","4920","","32","","","","","","","","","","","","","","","","","","","","","","","","","","","","","","","","","","","",""
"","text","48","226913","0.0-28.0","39140001","wem/bandit_either_3","A1RDRK3QTM7U96","either","2","2677","","32","","","","","","","","","","","","","","","","","","","","","","","","","","","","","","","","","","","",""
"","text","49","230224","0.0-29.0","39140001","wem/bandit_either_3","A1RDRK3QTM7U96","either","2","3310","","32","","","","","","","","","","","","","","","","","","","","","","","","","","","","","","","","","","","",""
"","text","50","233120","0.0-30.0","39140001","wem/bandit_either_3","A1RDRK3QTM7U96","either","2","2893","","32","","","","","","","","","","","","","","","","","","","","","","","","","","","","","","","","","","","",""
"","text","51","236776","0.0-31.0","39140001","wem/bandit_either_3","A1RDRK3QTM7U96","either","2","3655","","32","","","","","","","","","","","","","","","","","","","","","","","","","","","","","","","","","","","",""
"","text","52","238559","0.0-32.0","39140001","wem/bandit_either_3","A1RDRK3QTM7U96","either","2","1781","","32","","","","","","","","","","","","","","","","","","","","","","","","","","","","","","","","","","","",""
"","text","53","240969","0.0-33.0","39140001","wem/bandit_either_3","A1RDRK3QTM7U96","either","2","2408","","32","","","","","","","","","","","","","","","","","","","","","","","","","","","","","","","","","","","",""
"","bandit","54","244463","0.0-34.0-0.0","39140001","wem/bandit_either_3","A1RDRK3QTM7U96","either","2","1988","","","","","","","1","0","0","0.8","","0.5","0.5","0.5","0.5","","","","","0.8","0.2","0.6","0.2","","","","","","","","72","H","0","img/none_selected.jpg","true","0","full_practice",""
"","bandit","55","246359","0.0-34.0-1.0","39140001","wem/bandit_either_3","A1RDRK3QTM7U96","either","2","387","","","","","","","0","1","0","","0.8","0.5","0.5","0.5","0.5","0.8","0.2","0.6","0.2","","","","","","","","","","","","72","H","0","img/none_selected.jpg","true","0","full_practice",""
"","bandit","56","248191","0.0-34.0-2.0","39140001","wem/bandit_either_3","A1RDRK3QTM7U96","either","2","325","","","","","","","1","0","0","0.8","","0.5","0.5","0.5","0.5","","","","","0.8","0.2","0.6","0.2","","","","","","","","72","H","0","img/none_selected.jpg","true","0","full_practice",""
"","bandit","57","250080","0.0-34.0-3.0","39140001","wem/bandit_either_3","A1RDRK3QTM7U96","either","2","382","","","","","","","0","1","0","","0.8","0.5","0.5","0.5","0.5","0.8","0.2","0.6","0.2","","","","","","","","","","","","72","H","0","img/none_selected.jpg","true","0","full_practice",""
"","bandit","58","251823","0.0-34.0-4.0","39140001","wem/bandit_either_3","A1RDRK3QTM7U96","either","2","237","","","","","","","1","0","0","0.8","","0.5","0.5","0.5","0.5","","","","","0.8","0.2","0.6","0.2","","","","","","","","72","H","0","img/none_selected.jpg","true","0","full_practice",""
"","bandit","59","253534","0.0-34.0-5.0","39140001","wem/bandit_either_3","A1RDRK3QTM7U96","either","2","202","","","","","","","0","1","0","","0.8","0.5","0.5","0.5","0.5","0.8","0.2","0.6","0.2","","","","","","","","","","","","72","H","0","img/none_selected.jpg","true","0","full_practice",""
"","bandit","60","255390","0.0-34.0-6.0","39140001","wem/bandit_either_3","A1RDRK3QTM7U96","either","2","348","","","","","","","0","0","1","","0.8","0.5","0.5","0.5","0.5","0.8","0.2","0.6","0.2","","","","","","","","","","","","72","H","0","img/none_selected.jpg","true","0","full_practice",""
"","bandit","61","257223","0.0-34.0-7.0","39140001","wem/bandit_either_3","A1RDRK3QTM7U96","either","2","325","","","","","","","1","0","0","0.8","","0.5","0.5","0.5","0.5","","","","","0.8","0.2","0.6","0.2","","","","","","","","72","H","0","img/none_selected.jpg","true","0","full_practice",""
"","bandit","62","259079","0.0-34.0-8.0","39140001","wem/bandit_either_3","A1RDRK3QTM7U96","either","2","350","","","","","","","0","0","1","0.8","","0.5","0.5","0.5","0.5","","","","","0.8","0.2","0.6","0.2","","","","","","","","72","H","0","img/none_selected.jpg","true","0","full_practice",""
"","bandit","63","261159","0.0-34.0-9.0","39140001","wem/bandit_either_3","A1RDRK3QTM7U96","either","2","572","","","","","","","1","0","0","0.2","","0.5","0.5","0.5","0.5","","","","","0.8","0.2","0.6","0.2","","","","","","","","74","J","1","","true","0","full_practice",""
"","bandit","64","262926","0.0-34.0-10.0","39140001","wem/bandit_either_3","A1RDRK3QTM7U96","either","2","261","","","","","","","0","0","1","0.2","","0.5","0.5","0.5","0.5","","","","","0.8","0.2","0.6","0.2","","","","","","","","74","J","1","","true","0","full_practice",""
"","bandit","65","264688","0.0-34.0-11.0","39140001","wem/bandit_either_3","A1RDRK3QTM7U96","either","2","253","","","","","","","1","0","0","0.2","","0.5","0.5","0.5","0.5","","","","","0.8","0.2","0.6","0.2","","","","","","","","74","J","1","","true","0","full_practice",""
"","bandit","66","266495","0.0-34.0-12.0","39140001","wem/bandit_either_3","A1RDRK3QTM7U96","either","2","300","","","","","","","0","0","1","","0.2","0.5","0.5","0.5","0.5","0.8","0.2","0.6","0.2","","","","","","","","","","","","74","J","1","","true","0","full_practice",""
"","bandit","67","268343","0.0-34.0-13.0","39140001","wem/bandit_either_3","A1RDRK3QTM7U96","either","2","341","","","","","","","1","0","0","0.6","","0.5","0.5","0.5","0.5","","","","","0.8","0.2","0.6","0.2","","","","","","","","75","K","2","","true","0","full_practice",""
"","bandit","68","270151","0.0-34.0-14.0","39140001","wem/bandit_either_3","A1RDRK3QTM7U96","either","2","300","","","","","","","0","0","1","","0.6","0.5","0.5","0.5","0.5","0.8","0.2","0.6","0.2","","","","","","","","","","","","75","K","2","","true","0","full_practice",""
"","bandit","69","271887","0.0-34.0-15.0","39140001","wem/bandit_either_3","A1RDRK3QTM7U96","either","2","228","","","","","","","1","0","0","0.6","","0.5","0.5","0.5","0.5","","","","","0.8","0.2","0.6","0.2","","","","","","","","75","K","2","","true","0","full_practice",""
"","bandit","70","273689","0.0-34.0-16.0","39140001","wem/bandit_either_3","A1RDRK3QTM7U96","either","2","291","","","","","","","1","0","0","0.6","","0.5","0.5","0.5","0.5","","","","","0.8","0.2","0.6","0.2","","","","","","","","75","K","2","","true","0","full_practice",""
"","bandit","71","275496","0.0-34.0-17.0","39140001","wem/bandit_either_3","A1RDRK3QTM7U96","either","2","299","","","","","","","0","0","1","0.6","","0.5","0.5","0.5","0.5","","","","","0.8","0.2","0.6","0.2","","","","","","","","75","K","2","","true","0","full_practice",""
"","bandit","72","277262","0.0-34.0-18.0","39140001","wem/bandit_either_3","A1RDRK3QTM7U96","either","2","260","","","","","","","0","0","1","0.6","","0.5","0.5","0.5","0.5","","","","","0.8","0.2","0.6","0.2","","","","","","","","75","K","2","","true","0","full_practice",""
"","bandit","73","279814","0.0-34.0-19.0","39140001","wem/bandit_either_3","A1RDRK3QTM7U96","either","2","1046","","","","","","","1","0","0","0.2","","0.5","0.5","0.5","0.5","","","","","0.8","0.2","0.6","0.2","","","","","","","","76","L","3","","true","0","full_practice",""
"","text","74","283017","0.0-35.0","39140001","wem/bandit_either_3","A1RDRK3QTM7U96","either","2","3194","","32","","","","","","","","","","","","","","","","","","","","","","","","","","","","","","","","","","","",""
"","text","75","293145","0.0-36.0","39140001","wem/bandit_either_3","A1RDRK3QTM7U96","either","2","9125","","32","","","","","","","","","","","","","","","","","","","","","","","","","","","","","","","","","","","",""
"","text","76","298600","0.0-37.0","39140001","wem/bandit_either_3","A1RDRK3QTM7U96","either","2","5452","","32","","","","","","","","","","","","","","","","","","","","","","","","","","","","","","","","","","","",""
"","text","77","302927","0.0-38.0","39140001","wem/bandit_either_3","A1RDRK3QTM7U96","either","2","4324","","32","","","","","","","","","","","","","","","","","","","","","","","","","","","","","","","","","","","",""
"","text","78","307992","0.0-39.0","39140001","wem/bandit_either_3","A1RDRK3QTM7U96","either","2","5063","","32","","","","","","","","","","","","","","","","","","","","","","","","","","","","","","","","","","","",""
"","text","79","310287","0.0-40.0","39140001","wem/bandit_either_3","A1RDRK3QTM7U96","either","2","2293","","32","","","","","","","","","","","","","","","","","","","","","","","","","","","","","","","","","","","",""
"","bandit","80","313565","0.0-41.0-0.0","39140001","wem/bandit_either_3","A1RDRK3QTM7U96","either","2","1771","","","","","","","0","0","1","","0.7961415707","0.2","0.4","0.6","0.8","0.7961415707","0.7092854079","0.4841938304","0.9925337928","","","","","","","","","","","","72","H","0","img/none_selected.jpg","","1","main_expt",""
"","bandit","81","315693","0.0-42.0-0.0","39140001","wem/bandit_either_3","A1RDRK3QTM7U96","either","2","622","","","","","","","0","1","0","","0.7343230146","0.2","0.4","0.6","0.8","0.7739630809","0.7343230146","0.5300888233","0.9909612399","","","","","","","","","","","","74","J","1","","","2","main_expt",""
"","bandit","82","317454","0.0-43.0-0.0","39140001","wem/bandit_either_3","A1RDRK3QTM7U96","either","2","252","","","","","","","0","1","0","","0.7616266478","0.2","0.4","0.6","0.8","0.807852523","0.7616266478","0.4747636274","0.9875934203","","","","","","","","","","","","74","J","1","","","3","main_expt",""
"","bandit","83","319253","0.0-44.0-0.0","39140001","wem/bandit_either_3","A1RDRK3QTM7U96","either","2","292","","","","","","","1","0","0","0.7555889459","","0.2","0.4","0.6","0.8","","","","","0.7922386472","0.7555889459","0.4841015375","0.9782241123","","","","","","","","74","J","1","","","4","main_expt",""
"","bandit","84","320998","0.0-45.0-0.0","39140001","wem/bandit_either_3","A1RDRK3QTM7U96","either","2","234","","","","","","","0","1","0","","0.733520678","0.2","0.4","0.6","0.8","0.865094385","0.733520678","0.5545204825","0.9756627961","","","","","","","","","","","","74","J","1","","","5","main_expt",""
"","bandit","85","322932","0.0-46.0-0.0","39140001","wem/bandit_either_3","A1RDRK3QTM7U96","either","2","426","","","","","","","0","0","1","","0.6705264102","0.2","0.4","0.6","0.8","0.800956518","0.6705264102","0.6032406034","0.967089612","","","","","","","","","","","","74","J","1","","","6","main_expt",""
"","bandit","86","324509","0.0-47.0-0.0","39140001","wem/bandit_either_3","A1RDRK3QTM7U96","either","2","68","","","","","","","0","0","1","0.6395389268","","0.2","0.4","0.6","0.8","","","","","0.826484282","0.6395389268","0.6629125932","0.9581374084","","","","","","","","74","J","1","","","7","main_expt",""
"","bandit","87","326509","0.0-48.0-0.0","39140001","wem/bandit_either_3","A1RDRK3QTM7U96","either","2","492","","","","","","","0","1","0","","0.6179372523","0.2","0.4","0.6","0.8","0.8721258401","0.6463283336","0.6179372523","0.9470057872","","","","","","","","","","","","75","K","2","","","8","main_expt",""
"","bandit","88","328318","0.0-49.0-0.0","39140001","wem/bandit_either_3","A1RDRK3QTM7U96","either","2","299","","","","","","","0","1","0","","0.7126464358","0.2","0.4","0.6","0.8","0.9123847657","0.5257156782","0.7126464358","0.9776699295","","","","","","","","","","","","75","K","2","","","9","main_expt",""
"","bandit","89","330190","0.0-50.0-0.0","39140001","wem/bandit_either_3","A1RDRK3QTM7U96","either","2","362","","","","","","","1","0","0","0.7356985298","","0.2","0.4","0.6","0.8","","","","","0.8996742502","0.4763364632","0.7356985298","0.9728878591","","","","","","","","75","K","2","","","10","main_expt",""
"","bandit","90","332918","0.0-51.0-0.0","39140001","wem/bandit_either_3","A1RDRK3QTM7U96","either","2","1220","","","","","","","0","0","1","","0.768711937","0.2","0.4","0.6","0.8","0.9131723876","0.4284616273","0.768711937","0.9593139104","","","","","","","","","","","","75","K","2","","","11","main_expt",""
"","bandit","91","350333","0.0-52.0-0.0","39140001","wem/bandit_either_3","A1RDRK3QTM7U96","either","2","15906","","","","","","","0","1","0","","0.9498917819","0.2","0.4","0.6","0.8","0.8766857583","0.3846657661","0.775032537","0.9498917819","","","","","","","","","","","","76","L","3","","","12","main_expt",""
"","bandit","92","352293","0.0-53.0-0.0","39140001","wem/bandit_either_3","A1RDRK3QTM7U96","either","2","452","","","","","","","1","0","0","0.9541602679","","0.2","0.4","0.6","0.8","","","","","0.8395211377","0.4534267517","0.8005481332","0.9541602679","","","","","","","","76","L","3","","","13","main_expt",""
"","bandit","93","354150","0.0-54.0-0.0","39140001","wem/bandit_either_3","A1RDRK3QTM7U96","either","2","346","","","","","","","1","0","0","0.9457654821","","0.2","0.4","0.6","0.8","","","","","0.8716273459","0.5781166702","0.8437703121","0.9457654821","","","","","","","","76","L","3","","","14","main_expt",""
"","bandit","94","356021","0.0-55.0-0.0","39140001","wem/bandit_either_3","A1RDRK3QTM7U96","either","2","364","","","","","","","1","0","0","0.961431504","","0.2","0.4","0.6","0.8","","","","","0.8884181174","0.6683268695","0.7878475566","0.961431504","","","","","","","","76","L","3","","","15","main_expt",""
"","bandit","95","357901","0.0-56.0-0.0","39140001","wem/bandit_either_3","A1RDRK3QTM7U96","either","2","373","","","","","","","0","0","1","","0.9614480804","0.2","0.4","0.6","0.8","0.9144873871","0.6948649322","0.7873795395","0.9614480804","","","","","","","","","","","","76","L","3","","","16","main_expt",""
"","bandit","96","359708","0.0-57.0-0.0","39140001","wem/bandit_either_3","A1RDRK3QTM7U96","either","2","298","","","","","","","1","0","0","0.981184269","","0.2","0.4","0.6","0.8","","","","","0.915766025","0.7674725463","0.8084550093","0.981184269","","","","","","","","76","L","3","","","17","main_expt",""
"","bandit","97","361540","0.0-58.0-0.0","39140001","wem/bandit_either_3","A1RDRK3QTM7U96","either","2","325","","","","","","","0","1","0","","0.9861919244","0.2","0.4","0.6","0.8","0.9357816117","0.7706733977","0.8436933745","0.9861919244","","","","","","","","","","","","76","L","3","","","18","main_expt",""
"","bandit","98","363460","0.0-59.0-0.0","39140001","wem/bandit_either_3","A1RDRK3QTM7U96","either","2","413","","","","","","","1","0","0","0.986789567","","0.2","0.4","0.6","0.8","","","","","0.9482019282","0.7396491891","0.8059530903","0.986789567","","","","","","","","76","L","3","","","19","main_expt",""
"","bandit","99","365279","0.0-60.0-0.0","39140001","wem/bandit_either_3","A1RDRK3QTM7U96","either","2","305","","","","","","","1","0","0","0.986183881","","0.2","0.4","0.6","0.8","","","","","0.9433726768","0.6712916173","0.7839513496","0.986183881","","","","","","","","76","L","3","","","20","main_expt",""
"","bandit","100","367118","0.0-61.0-0.0","39140001","wem/bandit_either_3","A1RDRK3QTM7U96","either","2","327","","","","","","","0","1","0","","0.9887099493","0.2","0.4","0.6","0.8","0.9488284628","0.6728887443","0.7841815244","0.9887099493","","","","","","","","","","","","76","L","3","","","21","main_expt",""
"","bandit","101","368958","0.0-62.0-0.0","39140001","wem/bandit_either_3","A1RDRK3QTM7U96","either","2","331","","","","","","","1","0","0","0.992558567","","0.2","0.4","0.6","0.8","","","","","0.9500515088","0.7838502077","0.8256278583","0.992558567","","","","","","","","76","L","3","","","22","main_expt",""
"","bandit","102","370717","0.0-63.0-0.0","39140001","wem/bandit_either_3","A1RDRK3QTM7U96","either","2","251","","","","","","","1","0","0","0.9906074595","","0.2","0.4","0.6","0.8","","","","","0.9645760881","0.8711917965","0.7043778873","0.9906074595","","","","","","","","76","L","3","","","23","main_expt",""
"","bandit","103","372550","0.0-64.0-0.0","39140001","wem/bandit_either_3","A1RDRK3QTM7U96","either","2","325","","","","","","","0","1","0","","0.9828703082","0.2","0.4","0.6","0.8","0.946785539","0.861124964","0.7662705475","0.9828703082","","","","","","","","","","","","76","L","3","","","24","main_expt",""
"","bandit","104","374382","0.0-65.0-0.0","39140001","wem/bandit_either_3","A1RDRK3QTM7U96","either","2","322","","","","","","","1","0","0","0.984618899","","0.2","0.4","0.6","0.8","","","","","0.9229473608","0.8551403996","0.6915147264","0.984618899","","","","","","","","76","L","3","","","25","main_expt",""
"","bandit","105","376373","0.0-66.0-0.0","39140001","wem/bandit_either_3","A1RDRK3QTM7U96","either","2","482","","","","","","","1","0","0","0.9780938917","","0.2","0.4","0.6","0.8","","","","","0.8729820127","0.8959771014","0.6844606422","0.9780938917","","","","","","","","76","L","3","","","26","main_expt",""
"","bandit","106","378253","0.0-67.0-0.0","39140001","wem/bandit_either_3","A1RDRK3QTM7U96","either","2","371","","","","","","","1","0","0","0.9634866904","","0.2","0.4","0.6","0.8","","","","","0.859067388","0.8786292531","0.7953701942","0.9634866904","","","","","","","","76","L","3","","","27","main_expt",""
"","bandit","107","380248","0.0-68.0-0.0","39140001","wem/bandit_either_3","A1RDRK3QTM7U96","either","2","483","","","","","","","1","0","0","0.946494378","","0.2","0.4","0.6","0.8","","","","","0.836267867","0.8920593834","0.622657036","0.946494378","","","","","","","","76","L","3","","","28","main_expt",""
"","bandit","108","382134","0.0-69.0-0.0","39140001","wem/bandit_either_3","A1RDRK3QTM7U96","either","2","380","","","","","","","1","0","0","0.9338647731","","0.2","0.4","0.6","0.8","","","","","0.7158546556","0.8234517222","0.5757463716","0.9338647731","","","","","","","","76","L","3","","","29","main_expt",""
"","bandit","109","383911","0.0-70.0-0.0","39140001","wem/bandit_either_3","A1RDRK3QTM7U96","either","2","267","","","","","","","1","0","0","0.9354801528","","0.2","0.4","0.6","0.8","","","","","0.7262950886","0.7963444676","0.6048158844","0.9354801528","","","","","","","","76","L","3","","","30","main_expt",""
"","bandit","110","385733","0.0-71.0-0.0","39140001","wem/bandit_either_3","A1RDRK3QTM7U96","either","2","315","","","","","","","1","0","0","0.9323861487","","0.2","0.4","0.6","0.8","","","","","0.7049485024","0.6847131082","0.4831208743","0.9323861487","","","","","","","","76","L","3","","","31","main_expt",""
"","bandit","111","387573","0.0-72.0-0.0","39140001","wem/bandit_either_3","A1RDRK3QTM7U96","either","2","330","","","","","","","1","0","0","0.9159531952","","0.2","0.4","0.6","0.8","","","","","0.6294605358","0.7745616343","0.4413454117","0.9159531952","","","","","","","","76","L","3","","","32","main_expt",""
"","bandit","112","389453","0.0-73.0-0.0","39140001","wem/bandit_either_3","A1RDRK3QTM7U96","either","2","372","","","","","","","1","0","0","0.9501333659","","0.2","0.4","0.6","0.8","","","","","0.7097184707","0.8111568365","0.589686364","0.9501333659","","","","","","","","76","L","3","","","33","main_expt",""
"","bandit","113","391333","0.0-74.0-0.0","39140001","wem/bandit_either_3","A1RDRK3QTM7U96","either","2","373","","","","","","","0","1","0","","0.9485118263","0.2","0.4","0.6","0.8","0.6324728327","0.7291364049","0.5789977489","0.9485118263","","","","","","","","","","","","76","L","3","","","34","main_expt",""
"","bandit","114","393118","0.0-75.0-0.0","39140001","wem/bandit_either_3","A1RDRK3QTM7U96","either","2","274","","","","","","","1","0","0","0.959491173","","0.2","0.4","0.6","0.8","","","","","0.6809104991","0.7920219322","0.5605822786","0.959491173","","","","","","","","76","L","3","","","35","main_expt",""
"","bandit","115","395014","0.0-76.0-0.0","39140001","wem/bandit_either_3","A1RDRK3QTM7U96","either","2","388","","","","","","","1","0","0","0.9523687656","","0.2","0.4","0.6","0.8","","","","","0.5745256001","0.7889809596","0.3330948712","0.9523687656","","","","","","","","76","L","3","","","36","main_expt",""
"","bandit","116","396870","0.0-77.0-0.0","39140001","wem/bandit_either_3","A1RDRK3QTM7U96","either","2","346","","","","","","","1","0","0","0.9504344127","","0.2","0.4","0.6","0.8","","","","","0.6249275122","0.8060385269","0.2430176499","0.9504344127","","","","","","","","76","L","3","","","37","main_expt",""
"","bandit","117","398791","0.0-78.0-0.0","39140001","wem/bandit_either_3","A1RDRK3QTM7U96","either","2","410","","","","","","","0","1","0","","0.9321408283","0.2","0.4","0.6","0.8","0.5582777804","0.7188782676","0.3106083343","0.9321408283","","","","","","","","","","","","76","L","3","","","38","main_expt",""
"","bandit","118","400632","0.0-79.0-0.0","39140001","wem/bandit_either_3","A1RDRK3QTM7U96","either","2","328","","","","","","","1","0","0","0.9135525369","","0.2","0.4","0.6","0.8","","","","","0.6619895395","0.7387945131","0.3239447463","0.9135525369","","","","","","","","76","L","3","","","39","main_expt",""
"","bandit","119","402477","0.0-80.0-0.0","39140001","wem/bandit_either_3","A1RDRK3QTM7U96","either","2","337","","","","","","","0","1","0","","0.8840916364","0.2","0.4","0.6","0.8","0.6522152691","0.7478035428","0.2946631509","0.8840916364","","","","","","","","","","","","76","L","3","","","40","main_expt",""
"","bandit","120","404439","0.0-81.0-0.0","39140001","wem/bandit_either_3","A1RDRK3QTM7U96","either","2","451","","","","","","","1","0","0","0.8747037504","","0.2","0.4","0.6","0.8","","","","","0.6714070371","0.7802386085","0.193597671","0.8747037504","","","","","","","","76","L","3","","","41","main_expt",""
"","bandit","121","406342","0.0-82.0-0.0","39140001","wem/bandit_either_3","A1RDRK3QTM7U96","either","2","395","","","","","","","1","0","0","0.826315498","","0.2","0.4","0.6","0.8","","","","","0.6390104416","0.7994277013","0.1834529884","0.826315498","","","","","","","","76","L","3","","","42","main_expt",""
"","bandit","122","408141","0.0-83.0-0.0","39140001","wem/bandit_either_3","A1RDRK3QTM7U96","either","2","290","","","","","","","0","1","0","","0.7681371561","0.2","0.4","0.6","0.8","0.6318841448","0.8718069658","0.1558663495","0.7681371561","","","","","","","","","","","","76","L","3","","","43","main_expt",""
"","bandit","123","410030","0.0-84.0-0.0","39140001","wem/bandit_either_3","A1RDRK3QTM7U96","either","2","379","","","","","","","1","0","0","0.7584360225","","0.2","0.4","0.6","0.8","","","","","0.5708139437","0.7725207311","0.1573065196","0.7584360225","","","","","","","","76","L","3","","","44","main_expt",""
"","bandit","124","411941","0.0-85.0-0.0","39140001","wem/bandit_either_3","A1RDRK3QTM7U96","either","2","402","","","","","","","1","0","0","0.816959585","","0.2","0.4","0.6","0.8","","","","","0.5703812278","0.8399140445","0.1743203636","0.816959585","","","","","","","","76","L","3","","","45","main_expt",""
"","bandit","125","413757","0.0-86.0-0.0","39140001","wem/bandit_either_3","A1RDRK3QTM7U96","either","2","307","","","","","","","1","0","0","0.7571269921","","0.2","0.4","0.6","0.8","","","","","0.4520700595","0.7830678696","0.1234040722","0.7571269921","","","","","","","","76","L","3","","","46","main_expt",""
"","bandit","126","415654","0.0-87.0-0.0","39140001","wem/bandit_either_3","A1RDRK3QTM7U96","either","2","386","","","","","","","1","0","0","0.7086567283","","0.2","0.4","0.6","0.8","","","","","0.4953600952","0.8255209912","0.1592846429","0.7086567283","","","","","","","","76","L","3","","","47","main_expt",""
"","bandit","127","417574","0.0-88.0-0.0","39140001","wem/bandit_either_3","A1RDRK3QTM7U96","either","2","411","","","","","","","1","0","0","0.6428227569","","0.2","0.4","0.6","0.8","","","","","0.4912921637","0.7728754614","0.1880090658","0.6428227569","","","","","","","","76","L","3","","","48","main_expt",""
"","bandit","128","419646","0.0-89.0-0.0","39140001","wem/bandit_either_3","A1RDRK3QTM7U96","either","2","561","","","","","","","1","0","0","0.7004196772","","0.2","0.4","0.6","0.8","","","","","0.4694413912","0.8607162984","0.3190576765","0.7004196772","","","","","","","","76","L","3","","","49","main_expt",""
"","bandit","129","449220","0.0-90.0-0.0","39140001","wem/bandit_either_3","A1RDRK3QTM7U96","either","2","28064","","","","","","","0","0","1","0.6418514465","","0.2","0.4","0.6","0.8","","","","","0.5835687148","0.8526113732","0.277770718","0.6418514465","","","","","","","","76","L","3","","","50","main_expt",""
"","bandit","130","451261","0.0-91.0-0.0","39140001","wem/bandit_either_3","A1RDRK3QTM7U96","either","2","532","","","","","","","1","0","0","0.6322169777","","0.2","0.4","0.6","0.8","","","","","0.581499138","0.8630835666","0.3304163056","0.6322169777","","","","","","","","76","L","3","","","51","main_expt",""
"","bandit","131","453158","0.0-92.0-0.0","39140001","wem/bandit_either_3","A1RDRK3QTM7U96","either","2","386","","","","","","","1","0","0","0.6160259873","","0.2","0.4","0.6","0.8","","","","","0.6521379128","0.8689990829","0.3074301744","0.6160259873","","","","","","","","76","L","3","","","52","main_expt",""
"","bandit","132","455189","0.0-93.0-0.0","39140001","wem/bandit_either_3","A1RDRK3QTM7U96","either","2","521","","","","","","","0","1","0","","0.6635838846","0.2","0.4","0.6","0.8","0.5743957808","0.8829627288","0.3292402402","0.6635838846","","","","","","","","","","","","76","L","3","","","53","main_expt",""
"","bandit","133","461998","0.0-94.0-0.0","39140001","wem/bandit_either_3","A1RDRK3QTM7U96","either","2","5299","","","","","","","1","0","0","0.7334380463","","0.2","0.4","0.6","0.8","","","","","0.4765250731","0.8577096669","0.3701383524","0.7334380463","","","","","","","","76","L","3","","","54","main_expt",""
"","bandit","134","463892","0.0-95.0-0.0","39140001","wem/bandit_either_3","A1RDRK3QTM7U96","either","2","386","","","","","","","1","0","0","0.6625049704","","0.2","0.4","0.6","0.8","","","","","0.472038817","0.7951355038","0.4023440482","0.6625049704","","","","","","","","76","L","3","","","55","main_expt",""
"","bandit","135","465933","0.0-96.0-0.0","39140001","wem/bandit_either_3","A1RDRK3QTM7U96","either","2","531","","","","","","","0","0","1","0.6244126183","","0.2","0.4","0.6","0.8","","","","","0.6060805283","0.7832403428","0.3320470731","0.6244126183","","","","","","","","76","L","3","","","56","main_expt",""
"","bandit","136","481589","0.0-97.0-0.0","39140001","wem/bandit_either_3","A1RDRK3QTM7U96","either","2","14145","","","","","","","1","0","0","0.693445159","","0.2","0.4","0.6","0.8","","","","","0.5733746242","0.7165346004","0.3398704556","0.693445159","","","","","","","","76","L","3","","","57","main_expt",""
"","bandit","137","483580","0.0-98.0-0.0","39140001","wem/bandit_either_3","A1RDRK3QTM7U96","either","2","482","","","","","","","1","0","0","0.6603141298","","0.2","0.4","0.6","0.8","","","","","0.5268086549","0.7840704931","0.3171476707","0.6603141298","","","","","","","","76","L","3","","","58","main_expt",""
"","bandit","138","485350","0.0-99.0-0.0","39140001","wem/bandit_either_3","A1RDRK3QTM7U96","either","2","261","","","","","","","1","0","0","0.6435133917","","0.2","0.4","0.6","0.8","","","","","0.5298916697","0.7166558068","0.1868584885","0.6435133917","","","","","","","","76","L","3","","","59","main_expt",""
"","bandit","139","487125","0.0-100.0-0.0","39140001","wem/bandit_either_3","A1RDRK3QTM7U96","either","2","266","","","","","","","0","0","1","0.6720075741","","0.2","0.4","0.6","0.8","","","","","0.5547432704","0.6505055492","0.2163153633","0.6720075741","","","","","","","","76","L","3","","","60","main_expt",""
"","bandit","140","488909","0.0-101.0-0.0","39140001","wem/bandit_either_3","A1RDRK3QTM7U96","either","2","276","","","","","","","1","0","0","0.6703611074","","0.2","0.4","0.6","0.8","","","","","0.5407031957","0.6465946667","0.2086512551","0.6703611074","","","","","","","","76","L","3","","","61","main_expt",""
"","bandit","141","490694","0.0-102.0-0.0","39140001","wem/bandit_either_3","A1RDRK3QTM7U96","either","2","274","","","","","","","0","1","0","","0.64477312","0.2","0.4","0.6","0.8","0.6993449034","0.709990362","0.2250062338","0.64477312","","","","","","","","","","","","76","L","3","","","62","main_expt",""
"","bandit","142","492518","0.0-103.0-0.0","39140001","wem/bandit_either_3","A1RDRK3QTM7U96","either","2","314","","","","","","","1","0","0","0.509049177","","0.2","0.4","0.6","0.8","","","","","0.6342967703","0.7542168012","0.2739380208","0.509049177","","","","","","","","76","L","3","","","63","main_expt",""
"","bandit","143","494326","0.0-104.0-0.0","39140001","wem/bandit_either_3","A1RDRK3QTM7U96","either","2","298","","","","","","","0","0","1","0.5535424332","","0.2","0.4","0.6","0.8","","","","","0.5961490325","0.7660604158","0.3449536465","0.5535424332","","","","","","","","76","L","3","","","64","main_expt",""
"","bandit","144","496118","0.0-105.0-0.0","39140001","wem/bandit_either_3","A1RDRK3QTM7U96","either","2","283","","","","","","","1","0","0","0.6608621899","","0.2","0.4","0.6","0.8","","","","","0.5771190674","0.7572602099","0.34640195","0.6608621899","","","","","","","","76","L","3","","","65","main_expt",""
"","bandit","145","497940","0.0-106.0-0.0","39140001","wem/bandit_either_3","A1RDRK3QTM7U96","either","2","313","","","","","","","0","0","1","","0.6535341977","0.2","0.4","0.6","0.8","0.4765921407","0.686926195","0.5266288285","0.6535341977","","","","","","","","","","","","76","L","3","","","66","main_expt",""
"","bandit","146","499620","0.0-107.0-0.0","39140001","wem/bandit_either_3","A1RDRK3QTM7U96","either","2","174","","","","","","","1","0","0","0.5588671697","","0.2","0.4","0.6","0.8","","","","","0.5714361875","0.7334195653","0.5588671697","0.6592628399","","","","","","","","75","K","2","","","67","main_expt",""
"","bandit","147","501412","0.0-108.0-0.0","39140001","wem/bandit_either_3","A1RDRK3QTM7U96","either","2","282","","","","","","","0","0","1","0.6097536784","","0.2","0.4","0.6","0.8","","","","","0.6231829193","0.6114245881","0.6097536784","0.6735013879","","","","","","","","75","K","2","","","68","main_expt",""
"","bandit","148","503477","0.0-109.0-0.0","39140001","wem/bandit_either_3","A1RDRK3QTM7U96","either","2","555","","","","","","","0","1","0","","0.533457584","0.2","0.4","0.6","0.8","0.5130256365","0.6460921668","0.533457584","0.7209687993","","","","","","","","","","","","75","K","2","","","69","main_expt",""
"","bandit","149","505278","0.0-110.0-0.0","39140001","wem/bandit_either_3","A1RDRK3QTM7U96","either","2","290","","","","","","","0","0","1","0.4124750721","","0.2","0.4","0.6","0.8","","","","","0.5167166","0.6700702736","0.4124750721","0.690528825","","","","","","","","75","K","2","","","70","main_expt",""
"","bandit","150","507023","0.0-111.0-0.0","39140001","wem/bandit_either_3","A1RDRK3QTM7U96","either","2","236","","","","","","","1","0","0","0.4486526525","","0.2","0.4","0.6","0.8","","","","","0.6448170737","0.6388012411","0.4486526525","0.6453310316","","","","","","","","75","K","2","","","71","main_expt",""
"","bandit","151","508829","0.0-112.0-0.0","39140001","wem/bandit_either_3","A1RDRK3QTM7U96","either","2","298","","","","","","","0","1","0","","0.4313602212","0.2","0.4","0.6","0.8","0.5640434706","0.6046900378","0.4313602212","0.8140348339","","","","","","","","","","","","75","K","2","","","72","main_expt",""
"","bandit","152","510603","0.0-113.0-0.0","39140001","wem/bandit_either_3","A1RDRK3QTM7U96","either","2","264","","","","","","","0","0","1","0.3639072561","","0.2","0.4","0.6","0.8","","","","","0.6296110197","0.6062428704","0.3639072561","0.820931829","","","","","","","","75","K","2","","","73","main_expt",""
"","bandit","153","512579","0.0-114.0-0.0","39140001","wem/bandit_either_3","A1RDRK3QTM7U96","either","2","468","","","","","","","0","1","0","","0.6237194739","0.2","0.4","0.6","0.8","0.6730210969","0.6237194739","0.2882181569","0.8096233945","","","","","","","","","","","","74","J","1","","","74","main_expt",""
"","bandit","154","514268","0.0-115.0-0.0","39140001","wem/bandit_either_3","A1RDRK3QTM7U96","either","2","178","","","","","","","1","0","0","0.5971007372","","0.2","0.4","0.6","0.8","","","","","0.5720403827","0.5971007372","0.3561187133","0.7615001707","","","","","","","","74","J","1","","","75","main_expt",""
"","bandit","155","516051","0.0-116.0-0.0","39140001","wem/bandit_either_3","A1RDRK3QTM7U96","either","2","276","","","","","","","0","0","1","0.5810032438","","0.2","0.4","0.6","0.8","","","","","0.6303512149","0.5810032438","0.4480894403","0.8147365981","","","","","","","","74","J","1","","","76","main_expt",""
"","bandit","156","517891","0.0-117.0-0.0","39140001","wem/bandit_either_3","A1RDRK3QTM7U96","either","2","329","","","","","","","1","0","0","0.5792233978","","0.2","0.4","0.6","0.8","","","","","0.5531797874","0.5792233978","0.3220850356","0.8926338818","","","","","","","","74","J","1","","","77","main_expt",""
"","bandit","157","519676","0.0-118.0-0.0","39140001","wem/bandit_either_3","A1RDRK3QTM7U96","either","2","274","","","","","","","0","1","0","","0.692511921","0.2","0.4","0.6","0.8","0.5449672882","0.692511921","0.3281133775","0.8669072201","","","","","","","","","","","","74","J","1","","","78","main_expt",""
"","bandit","158","521476","0.0-119.0-0.0","39140001","wem/bandit_either_3","A1RDRK3QTM7U96","either","2","290","","","","","","","0","0","1","","0.7019625083","0.2","0.4","0.6","0.8","0.4484013318","0.7019625083","0.3814329202","0.9114006046","","","","","","","","","","","","74","J","1","","","79","main_expt",""
"","bandit","159","523452","0.0-120.0-0.0","39140001","wem/bandit_either_3","A1RDRK3QTM7U96","either","2","465","","","","","","","0","1","0","","0.5041425745","0.2","0.4","0.6","0.8","0.5041425745","0.6785675641","0.3512572076","0.9268398106","","","","","","","","","","","","72","H","0","img/none_selected.jpg","","80","main_expt",""
"","bandit","160","525356","0.0-121.0-0.0","39140001","wem/bandit_either_3","A1RDRK3QTM7U96","either","2","397","","","","","","","0","1","0","","0.3462078978","0.2","0.4","0.6","0.8","0.3462078978","0.7101061672","0.3624285329","0.9582858862","","","","","","","","","","","","72","H","0","img/none_selected.jpg","","81","main_expt",""
"","bandit","161","527151","0.0-122.0-0.0","39140001","wem/bandit_either_3","A1RDRK3QTM7U96","either","2","284","","","","","","","0","0","1","","0.3226795418","0.2","0.4","0.6","0.8","0.3226795418","0.7217376576","0.3111883408","0.9590071975","","","","","","","","","","","","72","H","0","img/none_selected.jpg","","82","main_expt",""
"","bandit","162","528956","0.0-123.0-0.0","39140001","wem/bandit_either_3","A1RDRK3QTM7U96","either","2","294","","","","","","","0","1","0","","0.3023868023","0.2","0.4","0.6","0.8","0.3023868023","0.6437777395","0.243162563","0.9379973093","","","","","","","","","","","","72","H","0","img/none_selected.jpg","","83","main_expt",""
"","bandit","163","530740","0.0-124.0-0.0","39140001","wem/bandit_either_3","A1RDRK3QTM7U96","either","2","273","","","","","","","0","1","0","","0.4040419094","0.2","0.4","0.6","0.8","0.4040419094","0.6533183273","0.347146949","0.9411979228","","","","","","","","","","","","72","H","0","img/none_selected.jpg","","84","main_expt",""
"","bandit","164","532604","0.0-125.0-0.0","39140001","wem/bandit_either_3","A1RDRK3QTM7U96","either","2","353","","","","","","","0","1","0","","0.4716136817","0.2","0.4","0.6","0.8","0.4716136817","0.7469548387","0.4416309426","0.9441700551","","","","","","","","","","","","72","H","0","img/none_selected.jpg","","85","main_expt",""
"","bandit","165","534435","0.0-126.0-0.0","39140001","wem/bandit_either_3","A1RDRK3QTM7U96","either","2","322","","","","","","","0","1","0","","0.4455883603","0.2","0.4","0.6","0.8","0.4455883603","0.7366570046","0.4523797492","0.9323605113","","","","","","","","","","","","72","H","0","img/none_selected.jpg","","86","main_expt",""
"","bandit","166","536317","0.0-127.0-0.0","39140001","wem/bandit_either_3","A1RDRK3QTM7U96","either","2","371","","","","","","","0","1","0","","0.5952575165","0.2","0.4","0.6","0.8","0.5952575165","0.7142428019","0.4621103264","0.8871332711","","","","","","","","","","","","72","H","0","img/none_selected.jpg","","87","main_expt",""
"","bandit","167","538132","0.0-128.0-0.0","39140001","wem/bandit_either_3","A1RDRK3QTM7U96","either","2","306","","","","","","","0","1","0","","0.5333825583","0.2","0.4","0.6","0.8","0.5333825583","0.7057172343","0.3800084876","0.8520973281","","","","","","","","","","","","72","H","0","img/none_selected.jpg","","88","main_expt",""
"","bandit","168","540052","0.0-129.0-0.0","39140001","wem/bandit_either_3","A1RDRK3QTM7U96","either","2","413","","","","","","","0","0","1","0.4583166828","","0.2","0.4","0.6","0.8","","","","","0.4583166828","0.7289934888","0.2354372355","0.7882210871","","","","","","","","72","H","0","img/none_selected.jpg","","89","main_expt",""
"","bandit","169","576676","0.0-130.0-0.0","39140001","wem/bandit_either_3","A1RDRK3QTM7U96","either","2","35112","","","","","","","0","0","1","","0.4782349553","0.2","0.4","0.6","0.8","0.4782349553","0.7475354559","0.2978482647","0.720110267","","","","","","","","","","","","72","H","0","img/none_selected.jpg","","90","main_expt",""
"","bandit","170","578755","0.0-131.0-0.0","39140001","wem/bandit_either_3","A1RDRK3QTM7U96","either","2","569","","","","","","","0","0","1","","0.464138054","0.2","0.4","0.6","0.8","0.464138054","0.6316706059","0.3723871884","0.7390342074","","","","","","","","","","","","72","H","0","img/none_selected.jpg","","91","main_expt",""
"","bandit","171","581116","0.0-132.0-0.0","39140001","wem/bandit_either_3","A1RDRK3QTM7U96","either","2","849","","","","","","","1","0","0","0.8135224625","","0.2","0.4","0.6","0.8","","","","","0.5084128334","0.6957908828","0.5400298203","0.8135224625","","","","","","","","76","L","3","","","92","main_expt",""
"","bandit","172","582763","0.0-133.0-0.0","39140001","wem/bandit_either_3","A1RDRK3QTM7U96","either","2","136","","","","","","","1","0","0","0.7814404678","","0.2","0.4","0.6","0.8","","","","","0.5211356389","0.6812665662","0.5134744583","0.7814404678","","","","","","","","76","L","3","","","93","main_expt",""
"","bandit","173","584740","0.0-134.0-0.0","39140001","wem/bandit_either_3","A1RDRK3QTM7U96","either","2","466","","","","","","","0","0","1","0.7672416568","","0.2","0.4","0.6","0.8","","","","","0.4554037602","0.6412933588","0.4101580275","0.7672416568","","","","","","","","76","L","3","","","94","main_expt",""
"","bandit","174","586684","0.0-135.0-0.0","39140001","wem/bandit_either_3","A1RDRK3QTM7U96","either","2","434","","","","","","","1","0","0","0.7573973965","","0.2","0.4","0.6","0.8","","","","","0.4195046205","0.5696630174","0.2995167601","0.7573973965","","","","","","","","76","L","3","","","95","main_expt",""
"","bandit","175","588485","0.0-136.0-0.0","39140001","wem/bandit_either_3","A1RDRK3QTM7U96","either","2","279","","","","","","","1","0","0","0.8177369732","","0.2","0.4","0.6","0.8","","","","","0.3638478563","0.6076398096","0.2934894425","0.8177369732","","","","","","","","76","L","3","","","96","main_expt",""
"","bandit","176","590324","0.0-137.0-0.0","39140001","wem/bandit_either_3","A1RDRK3QTM7U96","either","2","331","","","","","","","0","1","0","","0.8124666872","0.2","0.4","0.6","0.8","0.2839735208","0.5551612935","0.2802715202","0.8124666872","","","","","","","","","","","","76","L","3","","","97","main_expt",""
"","bandit","177","592140","0.0-138.0-0.0","39140001","wem/bandit_either_3","A1RDRK3QTM7U96","either","2","304","","","","","","","1","0","0","0.881496875","","0.2","0.4","0.6","0.8","","","","","0.2109275999","0.6354974245","0.2703087955","0.881496875","","","","","","","","76","L","3","","","98","main_expt",""
"","bandit","178","593948","0.0-139.0-0.0","39140001","wem/bandit_either_3","A1RDRK3QTM7U96","either","2","298","","","","","","","1","0","0","0.8785981907","","0.2","0.4","0.6","0.8","","","","","0.1531506719","0.5945745664","0.3027543159","0.8785981907","","","","","","","","76","L","3","","","99","main_expt",""
"","bandit","179","595932","0.0-140.0-0.0","39140001","wem/bandit_either_3","A1RDRK3QTM7U96","either","2","472","","","","","","","1","0","0","0.8494581726","","0.2","0.4","0.6","0.8","","","","","0.1262108991","0.5679097985","0.3645318829","0.8494581726","","","","","","","","76","L","3","","","100","main_expt",""
"","bandit","180","597716","0.0-141.0-0.0","39140001","wem/bandit_either_3","A1RDRK3QTM7U96","either","2","274","","","","","","","1","0","0","0.7754784616","","0.2","0.4","0.6","0.8","","","","","0.1340220502","0.6430580454","0.4315832637","0.7754784616","","","","","","","","76","L","3","","","101","main_expt",""
"","bandit","181","599548","0.0-142.0-0.0","39140001","wem/bandit_either_3","A1RDRK3QTM7U96","either","2","323","","","","","","","0","1","0","","0.7626736499","0.2","0.4","0.6","0.8","0.2167126086","0.6340200926","0.3608531129","0.7626736499","","","","","","","","","","","","76","L","3","","","102","main_expt",""
"","bandit","182","601299","0.0-143.0-0.0","39140001","wem/bandit_either_3","A1RDRK3QTM7U96","either","2","240","","","","","","","0","0","1","","0.7329996306","0.2","0.4","0.6","0.8","0.2796352144","0.6377668076","0.3688981903","0.7329996306","","","","","","","","","","","","76","L","3","","","103","main_expt",""
"","bandit","183","603138","0.0-144.0-0.0","39140001","wem/bandit_either_3","A1RDRK3QTM7U96","either","2","330","","","","","","","1","0","0","0.7467689404","","0.2","0.4","0.6","0.8","","","","","0.3556406549","0.6578341575","0.3758155051","0.7467689404","","","","","","","","76","L","3","","","104","main_expt",""
"","bandit","184","604970","0.0-145.0-0.0","39140001","wem/bandit_either_3","A1RDRK3QTM7U96","either","2","323","","","","","","","1","0","0","0.737018723","","0.2","0.4","0.6","0.8","","","","","0.3233911601","0.6727034752","0.4508947075","0.737018723","","","","","","","","76","L","3","","","105","main_expt",""
"","bandit","185","606771","0.0-146.0-0.0","39140001","wem/bandit_either_3","A1RDRK3QTM7U96","either","2","289","","","","","","","0","0","1","0.655194185","","0.2","0.4","0.6","0.8","","","","","0.2024631506","0.6386482702","0.4132181144","0.655194185","","","","","","","","76","L","3","","","106","main_expt",""
"","bandit","186","608462","0.0-147.0-0.0","39140001","wem/bandit_either_3","A1RDRK3QTM7U96","either","2","177","","","","","","","0","0","1","0.4393512677","","0.2","0.4","0.6","0.8","","","","","0.2290393164","0.6788938686","0.4393512677","0.7122819559","","","","","","","","75","K","2","","","107","main_expt",""
"","bandit","187","610596","0.0-148.0-0.0","39140001","wem/bandit_either_3","A1RDRK3QTM7U96","either","2","623","","","","","","","0","0","1","","0.7076498576","0.2","0.4","0.6","0.8","0.2217712157","0.7076498576","0.4964319729","0.7326995505","","","","","","","","","","","","74","J","1","","","108","main_expt",""
"","bandit","188","612669","0.0-149.0-0.0","39140001","wem/bandit_either_3","A1RDRK3QTM7U96","either","2","561","","","","","","","0","1","0","","0.1566860935","0.2","0.4","0.6","0.8","0.1566860935","0.6932550908","0.4790921069","0.7165499475","","","","","","","","","","","","72","H","0","img/none_selected.jpg","","109","main_expt",""
"","bandit","189","614556","0.0-150.0-0.0","39140001","wem/bandit_either_3","A1RDRK3QTM7U96","either","2","377","","","","","","","0","0","1","","0.1083987113","0.2","0.4","0.6","0.8","0.1083987113","0.7436061547","0.5856434505","0.6058017554","","","","","","","","","","","","72","H","0","img/none_selected.jpg","","110","main_expt",""
"","bandit","190","616307","0.0-151.0-0.0","39140001","wem/bandit_either_3","A1RDRK3QTM7U96","either","2","240","","","","","","","0","0","1","","0.217828795","0.2","0.4","0.6","0.8","0.217828795","0.657194241","0.6444230696","0.5476823758","","","","","","","","","","","","72","H","0","img/none_selected.jpg","","111","main_expt",""
"","bandit","191","618139","0.0-152.0-0.0","39140001","wem/bandit_either_3","A1RDRK3QTM7U96","either","2","321","","","","","","","1","0","0","0.5688313193","","0.2","0.4","0.6","0.8","","","","","0.2212119155","0.6317228327","0.603417252","0.5688313193","","","","","","","","76","L","3","","","112","main_expt",""
"","bandit","192","619939","0.0-153.0-0.0","39140001","wem/bandit_either_3","A1RDRK3QTM7U96","either","2","290","","","","","","","0","1","0","","0.50852785","0.2","0.4","0.6","0.8","0.2374112476","0.4985892417","0.420613871","0.50852785","","","","","","","","","","","","76","L","3","","","113","main_expt",""
"","bandit","193","621755","0.0-154.0-0.0","39140001","wem/bandit_either_3","A1RDRK3QTM7U96","either","2","305","","","","","","","0","0","1","0.5711084253","","0.2","0.4","0.6","0.8","","","","","0.2703699348","0.579071345","0.2851569533","0.5711084253","","","","","","","","76","L","3","","","114","main_expt",""
"","bandit","194","623491","0.0-155.0-0.0","39140001","wem/bandit_either_3","A1RDRK3QTM7U96","either","2","224","","","","","","","0","0","1","0.4177754351","","0.2","0.4","0.6","0.8","","","","","0.1928485376","0.4595939904","0.3166589884","0.4177754351","","","","","","","","76","L","3","","","115","main_expt",""
"","bandit","195","625307","0.0-156.0-0.0","39140001","wem/bandit_either_3","A1RDRK3QTM7U96","either","2","305","","","","","","","1","0","0","0.387840809","","0.2","0.4","0.6","0.8","","","","","0.136356343","0.3744567546","0.3928451607","0.387840809","","","","","","","","76","L","3","","","116","main_expt",""
"","bandit","196","627155","0.0-157.0-0.0","39140001","wem/bandit_either_3","A1RDRK3QTM7U96","either","2","339","","","","","","","0","0","1","0.4456731606","","0.2","0.4","0.6","0.8","","","","","0.2193113504","0.302145019","0.560845346","0.4456731606","","","","","","","","76","L","3","","","117","main_expt",""
"","bandit","197","628995","0.0-158.0-0.0","39140001","wem/bandit_either_3","A1RDRK3QTM7U96","either","2","330","","","","","","","0","1","0","","0.5536818424","0.2","0.4","0.6","0.8","0.2686792008","0.3522466686","0.5536818424","0.3045880574","","","","","","","","","","","","75","K","2","","","118","main_expt",""
"","bandit","198","630805","0.0-159.0-0.0","39140001","wem/bandit_either_3","A1RDRK3QTM7U96","either","2","298","","","","","","","0","1","0","","0.3617659687","0.2","0.4","0.6","0.8","0.2668270476","0.4425542362","0.3617659687","0.3994134075","","","","","","","","","","","","75","K","2","","","119","main_expt",""
"","bandit","199","632620","0.0-160.0-0.0","39140001","wem/bandit_either_3","A1RDRK3QTM7U96","either","2","305","","","","","","","0","0","1","","0.3454740543","0.2","0.4","0.6","0.8","0.3723992114","0.3377532805","0.3454740543","0.351449483","","","","","","","","","","","","75","K","2","","","120","main_expt",""
"","bandit","200","634445","0.0-161.0-0.0","39140001","wem/bandit_either_3","A1RDRK3QTM7U96","either","2","312","","","","","","","0","0","1","","0.2798257893","0.2","0.4","0.6","0.8","0.4001238515","0.2929504356","0.2798257893","0.3641911367","","","","","","","","","","","","75","K","2","","","121","main_expt",""
"","bandit","201","636645","0.0-162.0-0.0","39140001","wem/bandit_either_3","A1RDRK3QTM7U96","either","2","689","","","","","","","0","0","1","","0.2504028886","0.2","0.4","0.6","0.8","0.4090120715","0.2504028886","0.2261540995","0.2673706252","","","","","","","","","","","","74","J","1","","","122","main_expt",""
"","bandit","202","638388","0.0-163.0-0.0","39140001","wem/bandit_either_3","A1RDRK3QTM7U96","either","2","231","","","","","","","0","0","1","0.2414849785","","0.2","0.4","0.6","0.8","","","","","0.4746108064","0.2414849785","0.2766663047","0.3455372181","","","","","","","","74","J","1","","","123","main_expt",""
"","bandit","203","640251","0.0-164.0-0.0","39140001","wem/bandit_either_3","A1RDRK3QTM7U96","either","2","353","","","","","","","0","1","0","","0.453231646","0.2","0.4","0.6","0.8","0.453231646","0.1791255979","0.3126864395","0.3524137631","","","","","","","","","","","","72","H","0","img/none_selected.jpg","","124","main_expt",""
"","bandit","204","642032","0.0-165.0-0.0","39140001","wem/bandit_either_3","A1RDRK3QTM7U96","either","2","266","","","","","","","0","1","0","","0.4888945922","0.2","0.4","0.6","0.8","0.4888945922","0.1952456852","0.2772507379","0.3680881866","","","","","","","","","","","","72","H","0","img/none_selected.jpg","","125","main_expt",""
"","bandit","205","643900","0.0-166.0-0.0","39140001","wem/bandit_either_3","A1RDRK3QTM7U96","either","2","357","","","","","","","0","0","1","","0.396932523","0.2","0.4","0.6","0.8","0.396932523","0.2614303707","0.2441417391","0.2884444508","","","","","","","","","","","","72","H","0","img/none_selected.jpg","","126","main_expt",""
"","bandit","206","645653","0.0-167.0-0.0","39140001","wem/bandit_either_3","A1RDRK3QTM7U96","either","2","240","","","","","","","0","0","1","","0.4026562496","0.2","0.4","0.6","0.8","0.4026562496","0.267511235","0.2304038214","0.2931854252","","","","","","","","","","","","72","H","0","img/none_selected.jpg","","127","main_expt",""
"","bandit","207","647436","0.0-168.0-0.0","39140001","wem/bandit_either_3","A1RDRK3QTM7U96","either","2","272","","","","","","","0","0","1","","0.3072143153","0.2","0.4","0.6","0.8","0.3072143153","0.2582460394","0.2463692943","0.3115494401","","","","","","","","","","","","72","H","0","img/none_selected.jpg","","128","main_expt",""
"","bandit","208","649204","0.0-169.0-0.0","39140001","wem/bandit_either_3","A1RDRK3QTM7U96","either","2","256","","","","","","","0","0","1","","0.287093163","0.2","0.4","0.6","0.8","0.3024431642","0.249100023","0.262841392","0.287093163","","","","","","","","","","","","76","L","3","","","129","main_expt",""
"","bandit","209","651027","0.0-170.0-0.0","39140001","wem/bandit_either_3","A1RDRK3QTM7U96","either","2","312","","","","","","","0","0","1","0.242368994","","0.2","0.4","0.6","0.8","","","","","0.383823705","0.2014680341","0.3044503748","0.242368994","","","","","","","","76","L","3","","","130","main_expt",""
"","bandit","210","652837","0.0-171.0-0.0","39140001","wem/bandit_either_3","A1RDRK3QTM7U96","either","2","296","","","","","","","0","0","1","","0.2231782293","0.2","0.4","0.6","0.8","0.5448185218","0.2514612397","0.2231782293","0.3141093292","","","","","","","","","","","","75","K","2","","","131","main_expt",""
"","bandit","211","654643","0.0-172.0-0.0","39140001","wem/bandit_either_3","A1RDRK3QTM7U96","either","2","295","","","","","","","0","0","1","0.265126842","","0.2","0.4","0.6","0.8","","","","","0.5741986762","0.1719215191","0.265126842","0.3186943837","","","","","","","","75","K","2","","","132","main_expt",""
"","bandit","212","656427","0.0-173.0-0.0","39140001","wem/bandit_either_3","A1RDRK3QTM7U96","either","2","273","","","","","","","1","0","0","0.151851594","","0.2","0.4","0.6","0.8","","","","","0.54298015","0.151851594","0.1996467811","0.3218599317","","","","","","","","74","J","1","","","133","main_expt",""
"","bandit","213","658195","0.0-174.0-0.0","39140001","wem/bandit_either_3","A1RDRK3QTM7U96","either","2","257","","","","","","","0","0","1","","0.1693242304","0.2","0.4","0.6","0.8","0.5504084981","0.1693242304","0.1900899503","0.3372263261","","","","","","","","","","","","74","J","1","","","134","main_expt",""
"","bandit","214","659933","0.0-175.0-0.0","39140001","wem/bandit_either_3","A1RDRK3QTM7U96","either","2","224","","","","","","","0","0","1","","0.1541174352","0.2","0.4","0.6","0.8","0.4874659601","0.1541174352","0.172295534","0.3515125386","","","","","","","","","","","","74","J","1","","","135","main_expt",""
"","bandit","215","661876","0.0-176.0-0.0","39140001","wem/bandit_either_3","A1RDRK3QTM7U96","either","2","434","","","","","","","0","0","1","0.1374012581","","0.2","0.4","0.6","0.8","","","","","0.3677382912","0.1374012581","0.1171098277","0.2312583875","","","","","","","","74","J","1","","","136","main_expt",""
"","bandit","216","664101","0.0-177.0-0.0","39140001","wem/bandit_either_3","A1RDRK3QTM7U96","either","2","713","","","","","","","0","0","1","0.2944012193","","0.2","0.4","0.6","0.8","","","","","0.2944012193","0.2889288236","0.1390909791","0.3496768842","","","","","","","","72","H","0","img/none_selected.jpg","","137","main_expt",""
"","bandit","217","665827","0.0-178.0-0.0","39140001","wem/bandit_either_3","A1RDRK3QTM7U96","either","2","215","","","","","","","1","0","0","0.4217982028","","0.2","0.4","0.6","0.8","","","","","0.3020033879","0.2177367931","0.1209370274","0.4217982028","","","","","","","","76","L","3","","","138","main_expt",""
"","bandit","218","667651","0.0-179.0-0.0","39140001","wem/bandit_either_3","A1RDRK3QTM7U96","either","2","314","","","","","","","1","0","0","0.5123523738","","0.2","0.4","0.6","0.8","","","","","0.2908104057","0.1704259453","0.1441291996","0.5123523738","","","","","","","","76","L","3","","","139","main_expt",""
"","bandit","219","669588","0.0-180.0-0.0","39140001","wem/bandit_either_3","A1RDRK3QTM7U96","either","2","424","","","","","","","0","0","1","","0.3892042576","0.2","0.4","0.6","0.8","0.2738290205","0.1827322183","0.1380406349","0.3892042576","","","","","","","","","","","","76","L","3","","","140","main_expt",""
"","bandit","220","671131","0.0-181.0-0.0","39140001","wem/bandit_either_3","A1RDRK3QTM7U96","either","2","32","","","","","","","0","0","1","","0.4680147771","0.2","0.4","0.6","0.8","0.3865798498","0.2030288612","0.1312769784","0.4680147771","","","","","","","","","","","","76","L","3","","","141","main_expt",""
"","bandit","221","672931","0.0-182.0-0.0","39140001","wem/bandit_either_3","A1RDRK3QTM7U96","either","2","289","","","","","","","1","0","0","0.3970866904","","0.2","0.4","0.6","0.8","","","","","0.3507917403","0.1760536641","0.1880730553","0.3970866904","","","","","","","","76","L","3","","","142","main_expt",""
"","bandit","222","674748","0.0-183.0-0.0","39140001","wem/bandit_either_3","A1RDRK3QTM7U96","either","2","305","","","","","","","1","0","0","0.3609481858","","0.2","0.4","0.6","0.8","","","","","0.2787839286","0.1428921374","0.1798266991","0.3609481858","","","","","","","","76","L","3","","","143","main_expt",""
"","bandit","223","676660","0.0-184.0-0.0","39140001","wem/bandit_either_3","A1RDRK3QTM7U96","either","2","399","","","","","","","1","0","0","0.3701270871","","0.2","0.4","0.6","0.8","","","","","0.2106619402","0.1260474704","0.1881666754","0.3701270871","","","","","","","","76","L","3","","","144","main_expt",""
"","bandit","224","678596","0.0-185.0-0.0","39140001","wem/bandit_either_3","A1RDRK3QTM7U96","either","2","425","","","","","","","1","0","0","0.3110645609","","0.2","0.4","0.6","0.8","","","","","0.3211677341","0.151337539","0.1683386122","0.3110645609","","","","","","","","76","L","3","","","145","main_expt",""
"","bandit","225","680387","0.0-186.0-0.0","39140001","wem/bandit_either_3","A1RDRK3QTM7U96","either","2","281","","","","","","","1","0","0","0.356964637","","0.2","0.4","0.6","0.8","","","","","0.4417580917","0.1600114734","0.2609121533","0.356964637","","","","","","","","76","L","3","","","146","main_expt",""
"","bandit","226","682221","0.0-187.0-0.0","39140001","wem/bandit_either_3","A1RDRK3QTM7U96","either","2","322","","","","","","","1","0","0","0.5143633813","","0.2","0.4","0.6","0.8","","","","","0.278611551","0.1262446547","0.280259565","0.5143633813","","","","","","","","76","L","3","","","147","main_expt",""
"","bandit","227","684107","0.0-188.0-0.0","39140001","wem/bandit_either_3","A1RDRK3QTM7U96","either","2","377","","","","","","","0","0","1","0.5086187798","","0.2","0.4","0.6","0.8","","","","","0.2811332351","0.1030311585","0.2972918914","0.5086187798","","","","","","","","76","L","3","","","148","main_expt",""
"","bandit","228","686748","0.0-189.0-0.0","39140001","wem/bandit_either_3","A1RDRK3QTM7U96","either","2","1128","","","","","","","0","0","1","0.4676315778","","0.2","0.4","0.6","0.8","","","","","0.2606345315","0.123834606","0.3284309668","0.4676315778","","","","","","","","76","L","3","","","149","main_expt",""
"","bandit","229","689396","0.0-190.0-0.0","39140001","wem/bandit_either_3","A1RDRK3QTM7U96","either","2","1135","","","","","","","1","0","0","0.4737351686","","0.2","0.4","0.6","0.8","","","","","0.260677327","0.06566206942","0.3186890608","0.4737351686","","","","","","","","76","L","3","","","150","main_expt",""
"","bandit","230","708817","0.0-191.0-0.0","39140001","wem/bandit_either_3","A1RDRK3QTM7U96","either","2","17913","","","","","","","0","1","0","","0.5387476985","0.2","0.4","0.6","0.8","0.2579624968","0.06342121736","0.3331747037","0.5387476985","","","","","","","","","","","","76","L","3","","","151","main_expt",""
"","bandit","231","710411","0.0-192.0-0.0","39140001","wem/bandit_either_3","A1RDRK3QTM7U96","either","2","81","","","","","","","1","0","0","0.5065138565","","0.2","0.4","0.6","0.8","","","","","0.2536911072","0.1162046696","0.364096089","0.5065138565","","","","","","","","76","L","3","","","152","main_expt",""
"","bandit","232","712315","0.0-193.0-0.0","39140001","wem/bandit_either_3","A1RDRK3QTM7U96","either","2","391","","","","","","","0","1","0","","0.5190676077","0.2","0.4","0.6","0.8","0.1427943183","0.1388943584","0.3189440566","0.5190676077","","","","","","","","","","","","76","L","3","","","153","main_expt",""
"","bandit","233","714106","0.0-194.0-0.0","39140001","wem/bandit_either_3","A1RDRK3QTM7U96","either","2","282","","","","","","","0","0","1","0.4944482457","","0.2","0.4","0.6","0.8","","","","","0.08934943386","0.1188489222","0.486858514","0.4944482457","","","","","","","","76","L","3","","","154","main_expt",""
"","bandit","234","715851","0.0-195.0-0.0","39140001","wem/bandit_either_3","A1RDRK3QTM7U96","either","2","236","","","","","","","0","0","1","0.4987902374","","0.2","0.4","0.6","0.8","","","","","0.1048919666","0.1255079792","0.398958755","0.4987902374","","","","","","","","76","L","3","","","155","main_expt",""
"","bandit","235","717643","0.0-196.0-0.0","39140001","wem/bandit_either_3","A1RDRK3QTM7U96","either","2","281","","","","","","","0","0","1","0.4151199053","","0.2","0.4","0.6","0.8","","","","","0.1348874752","0.1705129017","0.3508932217","0.4151199053","","","","","","","","76","L","3","","","156","main_expt",""
"","bandit","236","719450","0.0-197.0-0.0","39140001","wem/bandit_either_3","A1RDRK3QTM7U96","either","2","296","","","","","","","1","0","0","0.3736640956","","0.2","0.4","0.6","0.8","","","","","0.1197456909","0.1892203872","0.3736640956","0.4215128153","","","","","","","","75","K","2","","","157","main_expt",""
"","bandit","237","721298","0.0-198.0-0.0","39140001","wem/bandit_either_3","A1RDRK3QTM7U96","either","2","336","","","","","","","0","0","1","0.3215678611","","0.2","0.4","0.6","0.8","","","","","0.1343935597","0.1589595026","0.3215678611","0.3666899102","","","","","","","","75","K","2","","","158","main_expt",""
"","bandit","238","723052","0.0-199.0-0.0","39140001","wem/bandit_either_3","A1RDRK3QTM7U96","either","2","244","","","","","","","0","0","1","","0.2732838962","0.2","0.4","0.6","0.8","0.04604274909","0.1426383857","0.2732838962","0.3906786657","","","","","","","","","","","","75","K","2","","","159","main_expt",""
"","bandit","239","724834","0.0-200.0-0.0","39140001","wem/bandit_either_3","A1RDRK3QTM7U96","either","2","271","","","","","","","0","0","1","","0.2323229575","0.2","0.4","0.6","0.8","0.08927965808","0.2747613825","0.2323229575","0.4769972016","","","","","","","","","","","","75","K","2","","","160","main_expt",""
"","bandit","240","726417","0.0-201.0-0.0","39140001","wem/bandit_either_3","A1RDRK3QTM7U96","either","2","72","","","","","","","1","0","0","0.2046882866","","0.2","0.4","0.6","0.8","","","","","0.1038156196","0.2046882866","0.399022808","0.4405879513","","","","","","","","74","J","1","","","161","main_expt",""
"","bandit","241","728147","0.0-202.0-0.0","39140001","wem/bandit_either_3","A1RDRK3QTM7U96","either","2","216","","","","","","","0","0","1","","0.1715152701","0.2","0.4","0.6","0.8","0.1470739062","0.1715152701","0.4967313539","0.44055992","","","","","","","","","","","","74","J","1","","","162","main_expt",""
"","bandit","242","729971","0.0-203.0-0.0","39140001","wem/bandit_either_3","A1RDRK3QTM7U96","either","2","311","","","","","","","0","0","1","","0.2396687428","0.2","0.4","0.6","0.8","0.1214264794","0.2396687428","0.5245029489","0.3434222481","","","","","","","","","","","","74","J","1","","","163","main_expt",""
"","bandit","243","731867","0.0-204.0-0.0","39140001","wem/bandit_either_3","A1RDRK3QTM7U96","either","2","384","","","","","","","0","0","1","","0.3359744524","0.2","0.4","0.6","0.8","0.1563758897","0.3359744524","0.5808119749","0.3862652833","","","","","","","","","","","","74","J","1","","","164","main_expt",""
"","bandit","244","733738","0.0-205.0-0.0","39140001","wem/bandit_either_3","A1RDRK3QTM7U96","either","2","360","","","","","","","0","0","1","","0.1311500467","0.2","0.4","0.6","0.8","0.1311500467","0.4940159592","0.6473032069","0.4270444342","","","","","","","","","","","","72","H","0","img/none_selected.jpg","","165","main_expt",""
"","bandit","245","735530","0.0-206.0-0.0","39140001","wem/bandit_either_3","A1RDRK3QTM7U96","either","2","280","","","","","","","0","0","1","","0.1419689761","0.2","0.4","0.6","0.8","0.1419689761","0.5922229292","0.6790689848","0.5073102058","","","","","","","","","","","","72","H","0","img/none_selected.jpg","","166","main_expt",""
"","bandit","246","737370","0.0-207.0-0.0","39140001","wem/bandit_either_3","A1RDRK3QTM7U96","either","2","328","","","","","","","0","0","1","0.150246256","","0.2","0.4","0.6","0.8","","","","","0.150246256","0.5562626425","0.5959653185","0.5417092253","","","","","","","","72","H","0","img/none_selected.jpg","","167","main_expt",""
"","bandit","247","739234","0.0-208.0-0.0","39140001","wem/bandit_either_3","A1RDRK3QTM7U96","either","2","352","","","","","","","0","0","1","","0.6505471885","0.2","0.4","0.6","0.8","0.2070971521","0.6489587791","0.361841396","0.6505471885","","","","","","","","","","","","76","L","3","","","168","main_expt",""
"","bandit","248","741074","0.0-209.0-0.0","39140001","wem/bandit_either_3","A1RDRK3QTM7U96","either","2","328","","","","","","","1","0","0","0.6226729341","","0.2","0.4","0.6","0.8","","","","","0.2564452127","0.5652428614","0.2594844845","0.6226729341","","","","","","","","76","L","3","","","169","main_expt",""
"","bandit","249","742906","0.0-210.0-0.0","39140001","wem/bandit_either_3","A1RDRK3QTM7U96","either","2","319","","","","","","","0","0","1","0.7574543886","","0.2","0.4","0.6","0.8","","","","","0.2845729388","0.5344749526","0.1987556041","0.7574543886","","","","","","","","76","L","3","","","170","main_expt",""
"","bandit","250","744770","0.0-211.0-0.0","39140001","wem/bandit_either_3","A1RDRK3QTM7U96","either","2","351","","","","","","","1","0","0","0.774201251","","0.2","0.4","0.6","0.8","","","","","0.2360657399","0.6364900983","0.1583585206","0.774201251","","","","","","","","76","L","3","","","171","main_expt",""
"","bandit","251","746563","0.0-212.0-0.0","39140001","wem/bandit_either_3","A1RDRK3QTM7U96","either","2","280","","","","","","","1","0","0","0.7739789177","","0.2","0.4","0.6","0.8","","","","","0.3453554921","0.5516193693","0.1494938987","0.7739789177","","","","","","","","76","L","3","","","172","main_expt",""
"","bandit","252","748379","0.0-213.0-0.0","39140001","wem/bandit_either_3","A1RDRK3QTM7U96","either","2","304","","","","","","","0","0","1","0.7146420849","","0.2","0.4","0.6","0.8","","","","","0.2909261263","0.5081608063","0.1996494969","0.7146420849","","","","","","","","76","L","3","","","173","main_expt",""
"","bandit","253","750211","0.0-214.0-0.0","39140001","wem/bandit_either_3","A1RDRK3QTM7U96","either","2","319","","","","","","","1","0","0","0.683245412","","0.2","0.4","0.6","0.8","","","","","0.3807546558","0.5247340446","0.2200767262","0.683245412","","","","","","","","76","L","3","","","174","main_expt",""
"","bandit","254","752170","0.0-215.0-0.0","39140001","wem/bandit_either_3","A1RDRK3QTM7U96","either","2","448","","","","","","","1","0","0","0.7163731774","","0.2","0.4","0.6","0.8","","","","","0.3889518003","0.5823110366","0.1929710708","0.7163731774","","","","","","","","76","L","3","","","175","main_expt",""
"","bandit","255","754028","0.0-216.0-0.0","39140001","wem/bandit_either_3","A1RDRK3QTM7U96","either","2","342","","","","","","","0","1","0","","0.6676116703","0.2","0.4","0.6","0.8","0.3662842853","0.7693722391","0.1756556012","0.6676116703","","","","","","","","","","","","76","L","3","","","176","main_expt",""
"","bandit","256","776101","0.0-217.0-0.0","39140001","wem/bandit_either_3","A1RDRK3QTM7U96","either","2","20563","","","","","","","0","1","0","","0.711116056","0.2","0.4","0.6","0.8","0.3102656016","0.8048595062","0.2404611203","0.711116056","","","","","","","","","","","","76","L","3","","","177","main_expt",""
"","bandit","257","779428","0.0-218.0-0.0","39140001","wem/bandit_either_3","A1RDRK3QTM7U96","either","2","1813","","","","","","","1","0","0","0.6541247318","","0.2","0.4","0.6","0.8","","","","","0.3272385177","0.8147320782","0.1651874793","0.6541247318","","","","","","","","76","L","3","","","178","main_expt",""
"","bandit","258","781604","0.0-219.0-0.0","39140001","wem/bandit_either_3","A1RDRK3QTM7U96","either","2","661","","","","","","","1","0","0","0.600925469","","0.2","0.4","0.6","0.8","","","","","0.3185807274","0.7755432213","0.1297692321","0.600925469","","","","","","","","76","L","3","","","179","main_expt",""
"","bandit","259","796286","0.0-220.0-0.0","39140001","wem/bandit_either_3","A1RDRK3QTM7U96","either","2","13159","","","","","","","0","0","1","0.6321701674","","0.2","0.4","0.6","0.8","","","","","0.3896265469","0.7309951384","0.1311169289","0.6321701674","","","","","","","","76","L","3","","","180","main_expt",""
"","bandit","260","806290","0.0-221.0-0.0","39140001","wem/bandit_either_3","A1RDRK3QTM7U96","either","2","8492","","","","","","","1","0","0","0.7040606398","","0.2","0.4","0.6","0.8","","","","","0.4381139349","0.8068071681","0.2184653543","0.7040606398","","","","","","","","76","L","3","","","181","main_expt",""
"","bandit","261","807867","0.0-222.0-0.0","39140001","wem/bandit_either_3","A1RDRK3QTM7U96","either","2","67","","","","","","","1","0","0","0.6551517927","","0.2","0.4","0.6","0.8","","","","","0.4339703771","0.8096694819","0.156745214","0.6551517927","","","","","","","","76","L","3","","","182","main_expt",""
"","bandit","262","809835","0.0-223.0-0.0","39140001","wem/bandit_either_3","A1RDRK3QTM7U96","either","2","454","","","","","","","1","0","0","0.7709035389","","0.2","0.4","0.6","0.8","","","","","0.5270594011","0.8522040983","0.07710569088","0.7709035389","","","","","","","","76","L","3","","","183","main_expt",""
"","bandit","263","811979","0.0-224.0-0.0","39140001","wem/bandit_either_3","A1RDRK3QTM7U96","either","2","633","","","","","","","1","0","0","0.7869666122","","0.2","0.4","0.6","0.8","","","","","0.4791569234","0.8636776132","0.07901501252","0.7869666122","","","","","","","","76","L","3","","","184","main_expt",""
"","bandit","264","814067","0.0-225.0-0.0","39140001","wem/bandit_either_3","A1RDRK3QTM7U96","either","2","574","","","","","","","1","0","0","0.804571828","","0.2","0.4","0.6","0.8","","","","","0.464074867","0.8605951951","0.05695362571","0.804571828","","","","","","","","76","L","3","","","185","main_expt",""
"","bandit","265","816235","0.0-226.0-0.0","39140001","wem/bandit_either_3","A1RDRK3QTM7U96","either","2","655","","","","","","","1","0","0","0.7866627628","","0.2","0.4","0.6","0.8","","","","","0.4654947356","0.8578427848","0.03796608352","0.7866627628","","","","","","","","76","L","3","","","186","main_expt",""
"","bandit","266","818084","0.0-227.0-0.0","39140001","wem/bandit_either_3","A1RDRK3QTM7U96","either","2","335","","","","","","","1","0","0","0.8006736442","","0.2","0.4","0.6","0.8","","","","","0.4338668179","0.8253306036","0.05986429342","0.8006736442","","","","","","","","76","L","3","","","187","main_expt",""
"","bandit","267","819898","0.0-228.0-0.0","39140001","wem/bandit_either_3","A1RDRK3QTM7U96","either","2","302","","","","","","","0","0","1","0.7687627789","","0.2","0.4","0.6","0.8","","","","","0.4679469354","0.8118593573","0.05827831728","0.7687627789","","","","","","","","76","L","3","","","188","main_expt",""
"","bandit","268","821747","0.0-229.0-0.0","39140001","wem/bandit_either_3","A1RDRK3QTM7U96","either","2","332","","","","","","","1","0","0","0.7009429779","","0.2","0.4","0.6","0.8","","","","","0.4645116859","0.8319104568","0.06499387038","0.7009429779","","","","","","","","76","L","3","","","189","main_expt",""
"","bandit","269","823635","0.0-230.0-0.0","39140001","wem/bandit_either_3","A1RDRK3QTM7U96","either","2","375","","","","","","","0","0","1","0.7531121838","","0.2","0.4","0.6","0.8","","","","","0.4260553166","0.8949986836","0.0878029059","0.7531121838","","","","","","","","76","L","3","","","190","main_expt",""
"","bandit","270","825395","0.0-231.0-0.0","39140001","wem/bandit_either_3","A1RDRK3QTM7U96","either","2","245","","","","","","","1","0","0","0.6174616994","","0.2","0.4","0.6","0.8","","","","","0.5323747461","0.9258368343","0.1101088583","0.6174616994","","","","","","","","76","L","3","","","191","main_expt",""
"","bandit","271","827474","0.0-232.0-0.0","39140001","wem/bandit_either_3","A1RDRK3QTM7U96","either","2","566","","","","","","","1","0","0","0.6331996982","","0.2","0.4","0.6","0.8","","","","","0.6013900654","0.9221438833","0.1559643099","0.6331996982","","","","","","","","76","L","3","","","192","main_expt",""
"","bandit","272","829370","0.0-233.0-0.0","39140001","wem/bandit_either_3","A1RDRK3QTM7U96","either","2","381","","","","","","","1","0","0","0.5596167322","","0.2","0.4","0.6","0.8","","","","","0.5332063066","0.878376231","0.1348882638","0.5596167322","","","","","","","","76","L","3","","","193","main_expt",""
"","bandit","273","831251","0.0-234.0-0.0","39140001","wem/bandit_either_3","A1RDRK3QTM7U96","either","2","367","","","","","","","1","0","0","0.5887018809","","0.2","0.4","0.6","0.8","","","","","0.5499496643","0.7914694382","0.243093686","0.5887018809","","","","","","","","76","L","3","","","194","main_expt",""
"","bandit","274","833146","0.0-235.0-0.0","39140001","wem/bandit_either_3","A1RDRK3QTM7U96","either","2","381","","","","","","","1","0","0","0.561552955","","0.2","0.4","0.6","0.8","","","","","0.4170732774","0.7843027812","0.2792315856","0.561552955","","","","","","","","76","L","3","","","195","main_expt",""
"","bandit","275","835010","0.0-236.0-0.0","39140001","wem/bandit_either_3","A1RDRK3QTM7U96","either","2","351","","","","","","","1","0","0","0.6199522587","","0.2","0.4","0.6","0.8","","","","","0.4050854298","0.7888241066","0.2075419965","0.6199522587","","","","","","","","76","L","3","","","196","main_expt",""
"","bandit","276","837098","0.0-237.0-0.0","39140001","wem/bandit_either_3","A1RDRK3QTM7U96","either","2","574","","","","","","","0","0","1","0.6886125155","","0.2","0.4","0.6","0.8","","","","","0.4522405917","0.8145025162","0.1899284635","0.6886125155","","","","","","","","76","L","3","","","197","main_expt",""
"","bandit","277","838884","0.0-238.0-0.0","39140001","wem/bandit_either_3","A1RDRK3QTM7U96","either","2","270","","","","","","","1","0","0","0.6468609917","","0.2","0.4","0.6","0.8","","","","","0.4547961131","0.8795467387","0.1632143895","0.6468609917","","","","","","","","76","L","3","","","198","main_expt",""
"","bandit","278","840794","0.0-239.0-0.0","39140001","wem/bandit_either_3","A1RDRK3QTM7U96","either","2","396","","","","","","","1","0","0","0.7134983028","","0.2","0.4","0.6","0.8","","","","","0.456709553","0.8716255916","0.1580048483","0.7134983028","","","","","","","","76","L","3","","","199","main_expt",""
"","bandit","279","842585","0.0-240.0-0.0","39140001","wem/bandit_either_3","A1RDRK3QTM7U96","either","2","277","","","","","","","0","0","1","0.6545285445","","0.2","0.4","0.6","0.8","","","","","0.4197111003","0.8596876402","0.1815025648","0.6545285445","","","","","","","","76","L","3","","","200","main_expt",""
"","bandit","280","844401","0.0-241.0-0.0","39140001","wem/bandit_either_3","A1RDRK3QTM7U96","either","2","303","","","","","","","0","0","1","0.6827561938","","0.2","0.4","0.6","0.8","","","","","0.4468864226","0.8714244785","0.1453003075","0.6827561938","","","","","","","","76","L","3","","","201","main_expt",""
"","bandit","281","846369","0.0-242.0-0.0","39140001","wem/bandit_either_3","A1RDRK3QTM7U96","either","2","455","","","","","","","0","0","1","0.6590680519","","0.2","0.4","0.6","0.8","","","","","0.3852152277","0.8679491409","0.1061510446","0.6590680519","","","","","","","","76","L","3","","","202","main_expt",""
"","bandit","282","848193","0.0-243.0-0.0","39140001","wem/bandit_either_3","A1RDRK3QTM7U96","either","2","310","","","","","","","0","0","1","0.09667757311","","0.2","0.4","0.6","0.8","","","","","0.3481501846","0.8421855008","0.09667757311","0.67998256","","","","","","","","75","K","2","","","203","main_expt",""
"","bandit","283","849985","0.0-244.0-0.0","39140001","wem/bandit_either_3","A1RDRK3QTM7U96","either","2","278","","","","","","","0","0","1","0.109576977","","0.2","0.4","0.6","0.8","","","","","0.3688904748","0.8741547355","0.109576977","0.7157802034","","","","","","","","75","K","2","","","204","main_expt",""
"","bandit","284","851811","0.0-245.0-0.0","39140001","wem/bandit_either_3","A1RDRK3QTM7U96","either","2","313","","","","","","","1","0","0","0.8589537271","","0.2","0.4","0.6","0.8","","","","","0.4196025605","0.8589537271","0.1370524017","0.6750594522","","","","","","","","74","J","1","","","205","main_expt",""
"","bandit","285","853595","0.0-246.0-0.0","39140001","wem/bandit_either_3","A1RDRK3QTM7U96","either","2","270","","","","","","","1","0","0","0.8009191088","","0.2","0.4","0.6","0.8","","","","","0.3558717694","0.8009191088","0.1005848846","0.7170784861","","","","","","","","74","J","1","","","206","main_expt",""
"","bandit","286","855417","0.0-247.0-0.0","39140001","wem/bandit_either_3","A1RDRK3QTM7U96","either","2","309","","","","","","","0","1","0","","0.8146279372","0.2","0.4","0.6","0.8","0.3978287694","0.8146279372","0.1100528349","0.6886550294","","","","","","","","","","","","74","J","1","","","207","main_expt",""
"","bandit","287","857618","0.0-248.0-0.0","39140001","wem/bandit_either_3","A1RDRK3QTM7U96","either","2","687","","","","","","","0","0","1","0.7498886323","","0.2","0.4","0.6","0.8","","","","","0.3647175361","0.7498886323","0.1165568201","0.7340041914","","","","","","","","74","J","1","","","208","main_expt",""
"","bandit","288","860362","0.0-249.0-0.0","39140001","wem/bandit_either_3","A1RDRK3QTM7U96","either","2","1235","","","","","","","0","1","0","","0.781298432","0.2","0.4","0.6","0.8","0.2942091963","0.781298432","0.1607141963","0.7108339061","","","","","","","","","","","","74","J","1","","","209","main_expt",""
"","bandit","289","864075","0.0-250.0-0.0","39140001","wem/bandit_either_3","A1RDRK3QTM7U96","either","2","2197","","","","","","","0","0","1","0.8374694261","","0.2","0.4","0.6","0.8","","","","","0.3228874634","0.8374694261","0.2005879304","0.7322658343","","","","","","","","74","J","1","","","210","main_expt",""
"","bandit","290","867131","0.0-251.0-0.0","39140001","wem/bandit_either_3","A1RDRK3QTM7U96","either","2","1542","","","","","","","1","0","0","0.7461264045","","0.2","0.4","0.6","0.8","","","","","0.3300931135","0.7461264045","0.1999716741","0.6220956771","","","","","","","","74","J","1","","","211","main_expt",""
"","bandit","291","869241","0.0-252.0-0.0","39140001","wem/bandit_either_3","A1RDRK3QTM7U96","either","2","597","","","","","","","0","1","0","","0.7267359419","0.2","0.4","0.6","0.8","0.4044608811","0.7267359419","0.2135957141","0.5400145011","","","","","","","","","","","","74","J","1","","","212","main_expt",""
"","bandit","292","871859","0.0-253.0-0.0","39140001","wem/bandit_either_3","A1RDRK3QTM7U96","either","2","1102","","","","","","","1","0","0","0.6529835343","","0.2","0.4","0.6","0.8","","","","","0.4916994921","0.6529835343","0.2041793084","0.5419994818","","","","","","","","74","J","1","","","213","main_expt",""
"","bandit","293","877626","0.0-254.0-0.0","39140001","wem/bandit_either_3","A1RDRK3QTM7U96","either","2","4253","","","","","","","1","0","0","0.5734554779","","0.2","0.4","0.6","0.8","","","","","0.5387088508","0.5734554779","0.2563089198","0.6195319152","","","","","","","","74","J","1","","","214","main_expt",""
"","bandit","294","879474","0.0-255.0-0.0","39140001","wem/bandit_either_3","A1RDRK3QTM7U96","either","2","333","","","","","","","0","1","0","","0.7056003711","0.2","0.4","0.6","0.8","0.567041903","0.7056003711","0.2870699064","0.7405966814","","","","","","","","","","","","74","J","1","","","215","main_expt",""
"","bandit","295","881376","0.0-256.0-0.0","39140001","wem/bandit_either_3","A1RDRK3QTM7U96","either","2","389","","","","","","","0","1","0","","0.7717913507","0.2","0.4","0.6","0.8","0.539749723","0.7717913507","0.2715554895","0.8005734678","","","","","","","","","","","","74","J","1","","","216","main_expt",""
"","bandit","296","883306","0.0-257.0-0.0","39140001","wem/bandit_either_3","A1RDRK3QTM7U96","either","2","415","","","","","","","0","1","0","","0.834894728","0.2","0.4","0.6","0.8","0.3803352486","0.834894728","0.2027777883","0.8392159132","","","","","","","","","","","","74","J","1","","","217","main_expt",""
"","bandit","297","885153","0.0-258.0-0.0","39140001","wem/bandit_either_3","A1RDRK3QTM7U96","either","2","334","","","","","","","0","1","0","","0.868580258","0.2","0.4","0.6","0.8","0.3236333655","0.868580258","0.2169787163","0.7445585264","","","","","","","","","","","","74","J","1","","","218","main_expt",""
"","bandit","298","886937","0.0-259.0-0.0","39140001","wem/bandit_either_3","A1RDRK3QTM7U96","either","2","270","","","","","","","0","1","0","","0.8236231074","0.2","0.4","0.6","0.8","0.2612589469","0.8236231074","0.2292932202","0.7174829008","","","","","","","","","","","","74","J","1","","","219","main_expt",""
"","bandit","299","888825","0.0-260.0-0.0","39140001","wem/bandit_either_3","A1RDRK3QTM7U96","either","2","373","","","","","","","0","1","0","","0.7719294443","0.2","0.4","0.6","0.8","0.2228319794","0.7719294443","0.2829053382","0.6601767392","","","","","","","","","","","","74","J","1","","","220","main_expt",""
"","bandit","300","890641","0.0-261.0-0.0","39140001","wem/bandit_either_3","A1RDRK3QTM7U96","either","2","302","","","","","","","0","1","0","","0.7609360252","0.2","0.4","0.6","0.8","0.2204856404","0.7609360252","0.2691731019","0.703996204","","","","","","","","","","","","74","J","1","","","221","main_expt",""
"","bandit","301","892425","0.0-262.0-0.0","39140001","wem/bandit_either_3","A1RDRK3QTM7U96","either","2","269","","","","","","","0","0","1","","0.7319851961","0.2","0.4","0.6","0.8","0.2269951902","0.7319851961","0.1974112065","0.6188024556","","","","","","","","","","","","74","J","1","","","222","main_expt",""
"","bandit","302","894202","0.0-263.0-0.0","39140001","wem/bandit_either_3","A1RDRK3QTM7U96","either","2","261","","","","","","","0","0","1","","0.6994646324","0.2","0.4","0.6","0.8","0.3417830843","0.6994646324","0.08486155027","0.5695888615","","","","","","","","","","","","74","J","1","","","223","main_expt",""
"","bandit","303","896417","0.0-264.0-0.0","39140001","wem/bandit_either_3","A1RDRK3QTM7U96","either","2","701","","","","","","","0","0","1","0.6817307813","","0.2","0.4","0.6","0.8","","","","","0.4057490183","0.6817307813","0.1930609847","0.6590173842","","","","","","","","74","J","1","","","224","main_expt",""
"","bandit","304","898249","0.0-265.0-0.0","39140001","wem/bandit_either_3","A1RDRK3QTM7U96","either","2","318","","","","","","","0","0","1","","0.4266979185","0.2","0.4","0.6","0.8","0.4266979185","0.67394888","0.2026087193","0.6779124893","","","","","","","","","","","","72","H","0","img/none_selected.jpg","","225","main_expt",""
"","bandit","305","900146","0.0-266.0-0.0","39140001","wem/bandit_either_3","A1RDRK3QTM7U96","either","2","386","","","","","","","0","0","1","","0.4723095555","0.2","0.4","0.6","0.8","0.4723095555","0.6520670614","0.1295559036","0.6433757785","","","","","","","","","","","","72","H","0","img/none_selected.jpg","","226","main_expt",""
"","bandit","306","901897","0.0-267.0-0.0","39140001","wem/bandit_either_3","A1RDRK3QTM7U96","either","2","238","","","","","","","0","0","1","","0.1014701128","0.2","0.4","0.6","0.8","0.4396274322","0.6598054912","0.1014701128","0.6050090536","","","","","","","","","","","","75","K","2","","","227","main_expt",""
"","bandit","307","903705","0.0-268.0-0.0","39140001","wem/bandit_either_3","A1RDRK3QTM7U96","either","2","294","","","","","","","0","0","1","0.1374428951","","0.2","0.4","0.6","0.8","","","","","0.4581465293","0.7313296172","0.1374428951","0.5614220587","","","","","","","","75","K","2","","","228","main_expt",""
"","bandit","308","905516","0.0-269.0-0.0","39140001","wem/bandit_either_3","A1RDRK3QTM7U96","either","2","295","","","","","","","1","0","0","0.536938762","","0.2","0.4","0.6","0.8","","","","","0.3635076811","0.5771612872","0.2147377822","0.536938762","","","","","","","","76","L","3","","","229","main_expt",""
"","bandit","309","907337","0.0-270.0-0.0","39140001","wem/bandit_either_3","A1RDRK3QTM7U96","either","2","306","","","","","","","1","0","0","0.4691369301","","0.2","0.4","0.6","0.8","","","","","0.4109812081","0.6474737632","0.2128984172","0.4691369301","","","","","","","","76","L","3","","","230","main_expt",""
"","bandit","310","909170","0.0-271.0-0.0","39140001","wem/bandit_either_3","A1RDRK3QTM7U96","either","2","319","","","","","","","0","0","1","","0.3801843724","0.2","0.4","0.6","0.8","0.3769467169","0.77083729","0.2566260117","0.3801843724","","","","","","","","","","","","76","L","3","","","231","main_expt",""
"","bandit","311","910965","0.0-272.0-0.0","39140001","wem/bandit_either_3","A1RDRK3QTM7U96","either","2","278","","","","","","","0","0","1","0.4401380948","","0.2","0.4","0.6","0.8","","","","","0.4489681289","0.7372448464","0.307190163","0.4401380948","","","","","","","","76","L","3","","","232","main_expt",""
"","bandit","312","912826","0.0-273.0-0.0","39140001","wem/bandit_either_3","A1RDRK3QTM7U96","either","2","348","","","","","","","1","0","0","0.4589823784","","0.2","0.4","0.6","0.8","","","","","0.5191563331","0.8061851957","0.3235632008","0.4589823784","","","","","","","","76","L","3","","","233","main_expt",""
"","bandit","313","914866","0.0-274.0-0.0","39140001","wem/bandit_either_3","A1RDRK3QTM7U96","either","2","526","","","","","","","0","0","1","","0.412850409","0.2","0.4","0.6","0.8","0.5635532962","0.7628128465","0.2229472669","0.412850409","","","","","","","","","","","","76","L","3","","","234","main_expt",""
"","bandit","314","1046250","0.0-275.0-0.0","39140001","wem/bandit_either_3","A1RDRK3QTM7U96","either","2","129866","","","","","","","1","0","0","0.7139354314","","0.2","0.4","0.6","0.8","","","","","0.6059211115","0.7139354314","0.3245092944","0.3071086281","","","","","","","","74","J","1","","","235","main_expt",""
"","bandit","315","1048066","0.0-276.0-0.0","39140001","wem/bandit_either_3","A1RDRK3QTM7U96","either","2","302","","","","","","","0","1","0","","0.8459685894","0.2","0.4","0.6","0.8","0.5767319418","0.8459685894","0.3817813951","0.3088172556","","","","","","","","","","","","74","J","1","","","236","main_expt",""
"","bandit","316","1049953","0.0-277.0-0.0","39140001","wem/bandit_either_3","A1RDRK3QTM7U96","either","2","374","","","","","","","0","1","0","","0.8258062243","0.2","0.4","0.6","0.8","0.6195352853","0.8258062243","0.5108794425","0.2725525041","","","","","","","","","","","","74","J","1","","","237","main_expt",""
"","bandit","317","1051873","0.0-278.0-0.0","39140001","wem/bandit_either_3","A1RDRK3QTM7U96","either","2","411","","","","","","","0","0","1","0.7390020401","","0.2","0.4","0.6","0.8","","","","","0.7504070514","0.7390020401","0.545868674","0.2929581335","","","","","","","","74","J","1","","","238","main_expt",""
"","bandit","318","1053728","0.0-279.0-0.0","39140001","wem/bandit_either_3","A1RDRK3QTM7U96","either","2","341","","","","","","","1","0","0","0.7159327665","","0.2","0.4","0.6","0.8","","","","","0.7863609923","0.7159327665","0.5696008367","0.3009301418","","","","","","","","74","J","1","","","239","main_expt",""
"","bandit","319","1055585","0.0-280.0-0.0","39140001","wem/bandit_either_3","A1RDRK3QTM7U96","either","2","348","","","","","","","0","0","1","","0.7704913736","0.2","0.4","0.6","0.8","0.7472107855","0.7704913736","0.7175907516","0.1757133805","","","","","","","","","","","","74","J","1","","","240","main_expt",""
"","bandit","320","1057936","0.0-281.0-0.0","39140001","wem/bandit_either_3","A1RDRK3QTM7U96","either","2","837","","","","","","","0","0","1","","0.7832900934","0.2","0.4","0.6","0.8","0.7633099306","0.7832900934","0.8333566257","0.1490953818","","","","","","","","","","","","74","J","1","","","241","main_expt",""
"","bandit","321","1059841","0.0-282.0-0.0","39140001","wem/bandit_either_3","A1RDRK3QTM7U96","either","2","392","","","","","","","1","0","0","0.746364214","","0.2","0.4","0.6","0.8","","","","","0.8192624891","0.746364214","0.8661582331","0.1187436938","","","","","","","","74","J","1","","","242","main_expt",""
"","bandit","322","1061825","0.0-283.0-0.0","39140001","wem/bandit_either_3","A1RDRK3QTM7U96","either","2","469","","","","","","","1","0","0","0.7014576998","","0.2","0.4","0.6","0.8","","","","","0.7500708258","0.7014576998","0.8970489214","0.07814629235","","","","","","","","74","J","1","","","243","main_expt",""
"","bandit","323","1063673","0.0-284.0-0.0","39140001","wem/bandit_either_3","A1RDRK3QTM7U96","either","2","334","","","","","","","1","0","0","0.6810302351","","0.2","0.4","0.6","0.8","","","","","0.7656319196","0.6810302351","0.8760308497","0.06497313331","","","","","","","","74","J","1","","","244","main_expt",""
"","bandit","324","1065793","0.0-285.0-0.0","39140001","wem/bandit_either_3","A1RDRK3QTM7U96","either","2","607","","","","","","","1","0","0","0.5349569219","","0.2","0.4","0.6","0.8","","","","","0.7726297554","0.5349569219","0.9080051643","0.1053527342","","","","","","","","74","J","1","","","245","main_expt",""
"","bandit","325","1067563","0.0-286.0-0.0","39140001","wem/bandit_either_3","A1RDRK3QTM7U96","either","2","257","","","","","","","0","1","0","","0.4945526892","0.2","0.4","0.6","0.8","0.8033922047","0.4945526892","0.8951486804","0.1410713538","","","","","","","","","","","","74","J","1","","","246","main_expt",""
