"consent","trial_type","trial_index","time_elapsed","internal_node_id","subjID","study","MID","cond","drift","rt","responses","key_press","expt_phase","like","value","connected","gems","bombs","no_reward","GemPrChosen","BombPrChosen","GainOverPainPr_0","GainOverPainPr_1","GainOverPainPr_2","GainOverPainPr_3","LosePr_0","LosePr_1","LosePr_2","LosePr_3","WinPr_0","WinPr_1","WinPr_2","WinPr_3","Q0","Q1","Q2","gender","age","ethnicity","target","respCharCode","respKey","respChoiceNum","respChoice","practice","trial_counter","trial_label","button_pressed"
"INL_behavioral_consent_30min_online.html","consent","0","9144","0.0-0.0","40122129","wem/bandit_either_3","A2FXD55FJV1RSV","either","1","","","","","","","","","","","","","","","","","","","","","","","","","","","","","","","","","","","","","","",""
"","survey-text","1","15039","0.0-1.0","40122129","wem/bandit_either_3","A2FXD55FJV1RSV","either","1","4881","{""Q0"":""A2FXD55FJV1RSV""}","","","","","","","","","","","","","","","","","","","","","","","","","","","","","","","","","","","","",""
"","text","2","23693","0.0-2.0","40122129","wem/bandit_either_3","A2FXD55FJV1RSV","either","1","7650","","32","","","","","","","","","","","","","","","","","","","","","","","","","","","","","","","","","","","",""
"","text","3","29882","0.0-3.0","40122129","wem/bandit_either_3","A2FXD55FJV1RSV","either","1","6187","","32","","","","","","","","","","","","","","","","","","","","","","","","","","","","","","","","","","","",""
"","text","4","46068","0.0-4.0","40122129","wem/bandit_either_3","A2FXD55FJV1RSV","either","1","16184","","32","","","","","","","","","","","","","","","","","","","","","","","","","","","","","","","","","","","",""
"","text","5","80748","0.0-5.0","40122129","wem/bandit_either_3","A2FXD55FJV1RSV","either","1","34678","","32","","","","","","","","","","","","","","","","","","","","","","","","","","","","","","","","","","","",""
"","text","6","103404","0.0-6.0","40122129","wem/bandit_either_3","A2FXD55FJV1RSV","either","1","22654","","32","","","","","","","","","","","","","","","","","","","","","","","","","","","","","","","","","","","",""
"","text","7","114420","0.0-7.0","40122129","wem/bandit_either_3","A2FXD55FJV1RSV","either","1","11014","","32","","","","","","","","","","","","","","","","","","","","","","","","","","","","","","","","","","","",""
"","text","8","157101","0.0-8.0","40122129","wem/bandit_either_3","A2FXD55FJV1RSV","either","1","42679","","32","","","","","","","","","","","","","","","","","","","","","","","","","","","","","","","","","","","",""
"","identification","9","166067","0.0-9.0-0.0","40122129","wem/bandit_either_3","A2FXD55FJV1RSV","either","1","8938","","","","4","5","6","","","","","","","","","","","","","","","","","","","","","","","","the village of Zur","","","","","","","",""
"","identification","10","174157","0.0-9.0-1.0","40122129","wem/bandit_either_3","A2FXD55FJV1RSV","either","1","7064","","","","0","1","0","","","","","","","","","","","","","","","","","","","","","","","","the village of Nyx","","","","","","","",""
"","text","11","182218","0.0-10.0","40122129","wem/bandit_either_3","A2FXD55FJV1RSV","either","1","7058","","32","","","","","","","","","","","","","","","","","","","","","","","","","","","","","","","","","","","",""
"","text","12","184618","0.0-11.0","40122129","wem/bandit_either_3","A2FXD55FJV1RSV","either","1","2398","","32","","","","","","","","","","","","","","","","","","","","","","","","","","","","","","","","","","","",""
"","text","13","186387","0.0-12.0","40122129","wem/bandit_either_3","A2FXD55FJV1RSV","either","1","1767","","32","","","","","","","","","","","","","","","","","","","","","","","","","","","","","","","","","","","",""
"","text","14","194173","0.0-13.0","40122129","wem/bandit_either_3","A2FXD55FJV1RSV","either","1","7784","","32","","","","","","","","","","","","","","","","","","","","","","","","","","","","","","","","","","","",""
"","bandit","15","199531","0.0-14.0-0.0","40122129","wem/bandit_either_3","A2FXD55FJV1RSV","either","1","3847","","","","","","","0","0","1","0","0","","","","","0","","","","0","","","","","","","","","","","74","J","0","img/none_selected_demo.jpg","true","0","",""
"","bandit","16","202697","0.0-15.0-0.0","40122129","wem/bandit_either_3","A2FXD55FJV1RSV","either","1","1658","","","","","","","0","0","1","0","0","","","","","0","","","","0","","","","","","","","","","","75","K","0","img/none_selected_demo.jpg","true","0","",""
"","text","17","210205","0.0-16.0","40122129","wem/bandit_either_3","A2FXD55FJV1RSV","either","1","7506","","32","","","","","","","","","","","","","","","","","","","","","","","","","","","","","","","","","","","",""
"","text","18","219146","0.0-17.0","40122129","wem/bandit_either_3","A2FXD55FJV1RSV","either","1","8936","","32","","","","","","","","","","","","","","","","","","","","","","","","","","","","","","","","","","","",""
"","text","19","226021","0.0-18.0","40122129","wem/bandit_either_3","A2FXD55FJV1RSV","either","1","6873","","32","","","","","","","","","","","","","","","","","","","","","","","","","","","","","","","","","","","",""
"","text","20","229178","0.0-19.0","40122129","wem/bandit_either_3","A2FXD55FJV1RSV","either","1","3155","","32","","","","","","","","","","","","","","","","","","","","","","","","","","","","","","","","","","","",""
"","bandit","21","232313","0.0-20.0-0.0","40122129","wem/bandit_either_3","A2FXD55FJV1RSV","either","1","1628","","","","","","","1","0","0","0.8","","0.5","0.5","","","","","","","0.8","0.2","","","","","","","","","","74","J","0","img/none_selected_demo.jpg","true","0","80_20_practice",""
"","bandit","22","234442","0.0-20.0-1.0","40122129","wem/bandit_either_3","A2FXD55FJV1RSV","either","1","620","","","","","","","0","0","1","","0.8","0.5","0.5","","","0.8","0.2","","","","","","","","","","","","","","74","J","0","img/none_selected_demo.jpg","true","0","80_20_practice",""
"","bandit","23","236666","0.0-20.0-2.0","40122129","wem/bandit_either_3","A2FXD55FJV1RSV","either","1","715","","","","","","","0","1","0","","0.8","0.5","0.5","","","0.8","0.2","","","","","","","","","","","","","","74","J","0","img/none_selected_demo.jpg","true","0","80_20_practice",""
"","bandit","24","238885","0.0-20.0-3.0","40122129","wem/bandit_either_3","A2FXD55FJV1RSV","either","1","712","","","","","","","1","0","0","0.8","","0.5","0.5","","","","","","","0.8","0.2","","","","","","","","","","74","J","0","img/none_selected_demo.jpg","true","0","80_20_practice",""
"","bandit","25","240833","0.0-20.0-4.0","40122129","wem/bandit_either_3","A2FXD55FJV1RSV","either","1","442","","","","","","","0","0","1","","0.2","0.5","0.5","","","0.8","0.2","","","","","","","","","","","","","","75","K","1","","true","0","80_20_practice",""
"","bandit","26","242785","0.0-20.0-5.0","40122129","wem/bandit_either_3","A2FXD55FJV1RSV","either","1","446","","","","","","","0","0","1","","0.2","0.5","0.5","","","0.8","0.2","","","","","","","","","","","","","","75","K","1","","true","0","80_20_practice",""
"","bandit","27","244985","0.0-20.0-6.0","40122129","wem/bandit_either_3","A2FXD55FJV1RSV","either","1","694","","","","","","","0","0","1","","0.2","0.5","0.5","","","0.8","0.2","","","","","","","","","","","","","","75","K","1","","true","0","80_20_practice",""
"","bandit","28","247265","0.0-20.0-7.0","40122129","wem/bandit_either_3","A2FXD55FJV1RSV","either","1","773","","","","","","","0","0","1","0.2","","0.5","0.5","","","","","","","0.8","0.2","","","","","","","","","","75","K","1","","true","0","80_20_practice",""
"","bandit","29","249364","0.0-20.0-8.0","40122129","wem/bandit_either_3","A2FXD55FJV1RSV","either","1","591","","","","","","","1","0","0","0.8","","0.5","0.5","","","","","","","0.8","0.2","","","","","","","","","","74","J","0","img/none_selected_demo.jpg","true","0","80_20_practice",""
"","bandit","30","251584","0.0-20.0-9.0","40122129","wem/bandit_either_3","A2FXD55FJV1RSV","either","1","713","","","","","","","0","1","0","","0.8","0.5","0.5","","","0.8","0.2","","","","","","","","","","","","","","74","J","0","img/none_selected_demo.jpg","true","0","80_20_practice",""
"","bandit","31","253512","0.0-20.0-10.0","40122129","wem/bandit_either_3","A2FXD55FJV1RSV","either","1","420","","","","","","","0","0","1","0.8","","0.5","0.5","","","","","","","0.8","0.2","","","","","","","","","","74","J","0","img/none_selected_demo.jpg","true","0","80_20_practice",""
"","bandit","32","255409","0.0-20.0-11.0","40122129","wem/bandit_either_3","A2FXD55FJV1RSV","either","1","389","","","","","","","0","1","0","","0.8","0.5","0.5","","","0.8","0.2","","","","","","","","","","","","","","74","J","0","img/none_selected_demo.jpg","true","0","80_20_practice",""
"","bandit","33","257265","0.0-20.0-12.0","40122129","wem/bandit_either_3","A2FXD55FJV1RSV","either","1","348","","","","","","","0","0","1","0.8","","0.5","0.5","","","","","","","0.8","0.2","","","","","","","","","","74","J","0","img/none_selected_demo.jpg","true","0","80_20_practice",""
"","bandit","34","259209","0.0-20.0-13.0","40122129","wem/bandit_either_3","A2FXD55FJV1RSV","either","1","437","","","","","","","0","1","0","","0.8","0.5","0.5","","","0.8","0.2","","","","","","","","","","","","","","74","J","0","img/none_selected_demo.jpg","true","0","80_20_practice",""
"","bandit","35","261164","0.0-20.0-14.0","40122129","wem/bandit_either_3","A2FXD55FJV1RSV","either","1","448","","","","","","","0","1","0","","0.8","0.5","0.5","","","0.8","0.2","","","","","","","","","","","","","","74","J","0","img/none_selected_demo.jpg","true","0","80_20_practice",""
"","bandit","36","263113","0.0-20.0-15.0","40122129","wem/bandit_either_3","A2FXD55FJV1RSV","either","1","441","","","","","","","0","0","1","0.8","","0.5","0.5","","","","","","","0.8","0.2","","","","","","","","","","74","J","0","img/none_selected_demo.jpg","true","0","80_20_practice",""
"","bandit","37","264953","0.0-20.0-16.0","40122129","wem/bandit_either_3","A2FXD55FJV1RSV","either","1","332","","","","","","","0","1","0","","0.8","0.5","0.5","","","0.8","0.2","","","","","","","","","","","","","","74","J","0","img/none_selected_demo.jpg","true","0","80_20_practice",""
"","bandit","38","266817","0.0-20.0-17.0","40122129","wem/bandit_either_3","A2FXD55FJV1RSV","either","1","355","","","","","","","0","1","0","","0.8","0.5","0.5","","","0.8","0.2","","","","","","","","","","","","","","74","J","0","img/none_selected_demo.jpg","true","0","80_20_practice",""
"","bandit","39","268457","0.0-20.0-18.0","40122129","wem/bandit_either_3","A2FXD55FJV1RSV","either","1","133","","","","","","","0","0","1","","0.2","0.5","0.5","","","0.8","0.2","","","","","","","","","","","","","","75","K","1","","true","0","80_20_practice",""
"","bandit","40","270249","0.0-20.0-19.0","40122129","wem/bandit_either_3","A2FXD55FJV1RSV","either","1","284","","","","","","","0","0","1","0.2","","0.5","0.5","","","","","","","0.8","0.2","","","","","","","","","","75","K","1","","true","0","80_20_practice",""
"","text","41","276450","0.0-21.0","40122129","wem/bandit_either_3","A2FXD55FJV1RSV","either","1","6199","","32","","","","","","","","","","","","","","","","","","","","","","","","","","","","","","","","","","","",""
"","bandit","42","280177","0.0-22.0-0.0","40122129","wem/bandit_either_3","A2FXD55FJV1RSV","either","1","2219","","","","","","","1","0","0","1","0","","","","","0","1","","","1","0","","","","","","","","","","74","J","0","img/none_selected_demo.jpg","true","0","",""
"","text","43","298805","0.0-23.0","40122129","wem/bandit_either_3","A2FXD55FJV1RSV","either","1","18625","","32","","","","","","","","","","","","","","","","","","","","","","","","","","","","","","","","","","","",""
"","text","44","301698","0.0-24.0","40122129","wem/bandit_either_3","A2FXD55FJV1RSV","either","1","2889","","32","","","","","","","","","","","","","","","","","","","","","","","","","","","","","","","","","","","",""
"","text","45","304290","0.0-25.0","40122129","wem/bandit_either_3","A2FXD55FJV1RSV","either","1","2589","","32","","","","","","","","","","","","","","","","","","","","","","","","","","","","","","","","","","","",""
"","text","46","324590","0.0-26.0","40122129","wem/bandit_either_3","A2FXD55FJV1RSV","either","1","20297","","32","","","","","","","","","","","","","","","","","","","","","","","","","","","","","","","","","","","",""
"","text","47","376228","0.0-27.0","40122129","wem/bandit_either_3","A2FXD55FJV1RSV","either","1","51636","","32","","","","","","","","","","","","","","","","","","","","","","","","","","","","","","","","","","","",""
"","text","48","379274","0.0-28.0","40122129","wem/bandit_either_3","A2FXD55FJV1RSV","either","1","3044","","32","","","","","","","","","","","","","","","","","","","","","","","","","","","","","","","","","","","",""
"","text","49","383514","0.0-29.0","40122129","wem/bandit_either_3","A2FXD55FJV1RSV","either","1","4238","","32","","","","","","","","","","","","","","","","","","","","","","","","","","","","","","","","","","","",""
"","text","50","386741","0.0-30.0","40122129","wem/bandit_either_3","A2FXD55FJV1RSV","either","1","3223","","32","","","","","","","","","","","","","","","","","","","","","","","","","","","","","","","","","","","",""
"","text","51","390306","0.0-31.0","40122129","wem/bandit_either_3","A2FXD55FJV1RSV","either","1","3562","","32","","","","","","","","","","","","","","","","","","","","","","","","","","","","","","","","","","","",""
"","text","52","392586","0.0-32.0","40122129","wem/bandit_either_3","A2FXD55FJV1RSV","either","1","2278","","32","","","","","","","","","","","","","","","","","","","","","","","","","","","","","","","","","","","",""
"","text","53","401498","0.0-33.0","40122129","wem/bandit_either_3","A2FXD55FJV1RSV","either","1","8909","","32","","","","","","","","","","","","","","","","","","","","","","","","","","","","","","","","","","","",""
"","bandit","54","403770","0.0-34.0-0.0","40122129","wem/bandit_either_3","A2FXD55FJV1RSV","either","1","762","","","","","","","0","1","0","","0.8","0.5","0.5","0.5","0.5","0.8","0.2","0.6","0.2","","","","","","","","","","","","72","H","0","img/none_selected.jpg","true","0","full_practice",""
"","bandit","55","406018","0.0-34.0-1.0","40122129","wem/bandit_either_3","A2FXD55FJV1RSV","either","1","738","","","","","","","0","0","1","","0.2","0.5","0.5","0.5","0.5","0.8","0.2","0.6","0.2","","","","","","","","","","","","74","J","1","","true","0","full_practice",""
"","bandit","56","407888","0.0-34.0-2.0","40122129","wem/bandit_either_3","A2FXD55FJV1RSV","either","1","362","","","","","","","0","1","0","","0.6","0.5","0.5","0.5","0.5","0.8","0.2","0.6","0.2","","","","","","","","","","","","75","K","2","","true","0","full_practice",""
"","bandit","57","409851","0.0-34.0-3.0","40122129","wem/bandit_either_3","A2FXD55FJV1RSV","either","1","456","","","","","","","0","1","0","","0.2","0.5","0.5","0.5","0.5","0.8","0.2","0.6","0.2","","","","","","","","","","","","76","L","3","","true","0","full_practice",""
"","bandit","58","411681","0.0-34.0-4.0","40122129","wem/bandit_either_3","A2FXD55FJV1RSV","either","1","322","","","","","","","1","0","0","0.8","","0.5","0.5","0.5","0.5","","","","","0.8","0.2","0.6","0.2","","","","","","","","72","H","0","img/none_selected.jpg","true","0","full_practice",""
"","bandit","59","413593","0.0-34.0-5.0","40122129","wem/bandit_either_3","A2FXD55FJV1RSV","either","1","404","","","","","","","0","0","1","0.2","","0.5","0.5","0.5","0.5","","","","","0.8","0.2","0.6","0.2","","","","","","","","74","J","1","","true","0","full_practice",""
"","bandit","60","415521","0.0-34.0-6.0","40122129","wem/bandit_either_3","A2FXD55FJV1RSV","either","1","421","","","","","","","1","0","0","0.6","","0.5","0.5","0.5","0.5","","","","","0.8","0.2","0.6","0.2","","","","","","","","75","K","2","","true","0","full_practice",""
"","bandit","61","417538","0.0-34.0-7.0","40122129","wem/bandit_either_3","A2FXD55FJV1RSV","either","1","507","","","","","","","1","0","0","0.2","","0.5","0.5","0.5","0.5","","","","","0.8","0.2","0.6","0.2","","","","","","","","76","L","3","","true","0","full_practice",""
"","bandit","62","419560","0.0-34.0-8.0","40122129","wem/bandit_either_3","A2FXD55FJV1RSV","either","1","516","","","","","","","0","1","0","","0.8","0.5","0.5","0.5","0.5","0.8","0.2","0.6","0.2","","","","","","","","","","","","72","H","0","img/none_selected.jpg","true","0","full_practice",""
"","bandit","63","421612","0.0-34.0-9.0","40122129","wem/bandit_either_3","A2FXD55FJV1RSV","either","1","544","","","","","","","0","1","0","","0.6","0.5","0.5","0.5","0.5","0.8","0.2","0.6","0.2","","","","","","","","","","","","75","K","2","","true","0","full_practice",""
"","bandit","64","423449","0.0-34.0-10.0","40122129","wem/bandit_either_3","A2FXD55FJV1RSV","either","1","328","","","","","","","0","0","1","","0.2","0.5","0.5","0.5","0.5","0.8","0.2","0.6","0.2","","","","","","","","","","","","76","L","3","","true","0","full_practice",""
"","bandit","65","425465","0.0-34.0-11.0","40122129","wem/bandit_either_3","A2FXD55FJV1RSV","either","1","506","","","","","","","1","0","0","0.8","","0.5","0.5","0.5","0.5","","","","","0.8","0.2","0.6","0.2","","","","","","","","72","H","0","img/none_selected.jpg","true","0","full_practice",""
"","bandit","66","427312","0.0-34.0-12.0","40122129","wem/bandit_either_3","A2FXD55FJV1RSV","either","1","339","","","","","","","1","0","0","0.6","","0.5","0.5","0.5","0.5","","","","","0.8","0.2","0.6","0.2","","","","","","","","75","K","2","","true","0","full_practice",""
"","bandit","67","429129","0.0-34.0-13.0","40122129","wem/bandit_either_3","A2FXD55FJV1RSV","either","1","308","","","","","","","0","0","1","","0.2","0.5","0.5","0.5","0.5","0.8","0.2","0.6","0.2","","","","","","","","","","","","76","L","3","","true","0","full_practice",""
"","bandit","68","431025","0.0-34.0-14.0","40122129","wem/bandit_either_3","A2FXD55FJV1RSV","either","1","388","","","","","","","0","1","0","","0.8","0.5","0.5","0.5","0.5","0.8","0.2","0.6","0.2","","","","","","","","","","","","72","H","0","img/none_selected.jpg","true","0","full_practice",""
"","bandit","69","432827","0.0-34.0-15.0","40122129","wem/bandit_either_3","A2FXD55FJV1RSV","either","1","294","","","","","","","1","0","0","0.6","","0.5","0.5","0.5","0.5","","","","","0.8","0.2","0.6","0.2","","","","","","","","75","K","2","","true","0","full_practice",""
"","bandit","70","434617","0.0-34.0-16.0","40122129","wem/bandit_either_3","A2FXD55FJV1RSV","either","1","282","","","","","","","0","0","1","","0.8","0.5","0.5","0.5","0.5","0.8","0.2","0.6","0.2","","","","","","","","","","","","72","H","0","img/none_selected.jpg","true","0","full_practice",""
"","bandit","71","436433","0.0-34.0-17.0","40122129","wem/bandit_either_3","A2FXD55FJV1RSV","either","1","302","","","","","","","0","1","0","","0.6","0.5","0.5","0.5","0.5","0.8","0.2","0.6","0.2","","","","","","","","","","","","75","K","2","","true","0","full_practice",""
"","bandit","72","438243","0.0-34.0-18.0","40122129","wem/bandit_either_3","A2FXD55FJV1RSV","either","1","299","","","","","","","0","1","0","","0.8","0.5","0.5","0.5","0.5","0.8","0.2","0.6","0.2","","","","","","","","","","","","72","H","0","img/none_selected.jpg","true","0","full_practice",""
"","bandit","73","440017","0.0-34.0-19.0","40122129","wem/bandit_either_3","A2FXD55FJV1RSV","either","1","265","","","","","","","0","0","1","0.6","","0.5","0.5","0.5","0.5","","","","","0.8","0.2","0.6","0.2","","","","","","","","75","K","2","","true","0","full_practice",""
"","text","74","442685","0.0-35.0","40122129","wem/bandit_either_3","A2FXD55FJV1RSV","either","1","2658","","32","","","","","","","","","","","","","","","","","","","","","","","","","","","","","","","","","","","",""
"","text","75","456549","0.0-36.0","40122129","wem/bandit_either_3","A2FXD55FJV1RSV","either","1","12858","","32","","","","","","","","","","","","","","","","","","","","","","","","","","","","","","","","","","","",""
"","text","76","467070","0.0-37.0","40122129","wem/bandit_either_3","A2FXD55FJV1RSV","either","1","10517","","32","","","","","","","","","","","","","","","","","","","","","","","","","","","","","","","","","","","",""
"","text","77","472890","0.0-38.0","40122129","wem/bandit_either_3","A2FXD55FJV1RSV","either","1","5816","","32","","","","","","","","","","","","","","","","","","","","","","","","","","","","","","","","","","","",""
"","text","78","479924","0.0-39.0","40122129","wem/bandit_either_3","A2FXD55FJV1RSV","either","1","7031","","32","","","","","","","","","","","","","","","","","","","","","","","","","","","","","","","","","","","",""
"","text","79","490093","0.0-40.0","40122129","wem/bandit_either_3","A2FXD55FJV1RSV","either","1","10164","","32","","","","","","","","","","","","","","","","","","","","","","","","","","","","","","","","","","","",""
"","bandit","80","492594","0.0-41.0-0.0","40122129","wem/bandit_either_3","A2FXD55FJV1RSV","either","1","991","","","","","","","1","0","0","0.4995060561","","0.4","0.8","0.2","0.6","","","","","0.4995060561","0.8101107889","0.7674833066","0.5202783506","","","","","","","","72","H","0","img/none_selected.jpg","","1","main_expt",""
"","bandit","81","494673","0.0-42.0-0.0","40122129","wem/bandit_either_3","A2FXD55FJV1RSV","either","1","570","","","","","","","1","0","0","0.8827976921","","0.4","0.8","0.2","0.6","","","","","0.4452888422","0.8827976921","0.7786696111","0.4559554218","","","","","","","","74","J","1","","","2","main_expt",""
"","bandit","82","496682","0.0-43.0-0.0","40122129","wem/bandit_either_3","A2FXD55FJV1RSV","either","1","499","","","","","","","0","1","0","","0.7883912796","0.4","0.8","0.2","0.6","0.4956599627","0.918633781","0.7883912796","0.3791335739","","","","","","","","","","","","75","K","2","","","3","main_expt",""
"","bandit","83","498656","0.0-44.0-0.0","40122129","wem/bandit_either_3","A2FXD55FJV1RSV","either","1","465","","","","","","","0","0","1","","0.362446662","0.4","0.8","0.2","0.6","0.3939226057","0.8961075186","0.8311681014","0.362446662","","","","","","","","","","","","76","L","3","","","4","main_expt",""
"","bandit","84","500649","0.0-45.0-0.0","40122129","wem/bandit_either_3","A2FXD55FJV1RSV","either","1","484","","","","","","","0","1","0","","0.4737796053","0.4","0.8","0.2","0.6","0.4737796053","0.9065038385","0.706748425","0.4337427147","","","","","","","","","","","","72","H","0","img/none_selected.jpg","","5","main_expt",""
"","bandit","85","502540","0.0-46.0-0.0","40122129","wem/bandit_either_3","A2FXD55FJV1RSV","either","1","382","","","","","","","1","0","0","0.9628954729","","0.4","0.8","0.2","0.6","","","","","0.5798080576","0.9628954729","0.7246132019","0.4260566605","","","","","","","","74","J","1","","","6","main_expt",""
"","bandit","86","504673","0.0-47.0-0.0","40122129","wem/bandit_either_3","A2FXD55FJV1RSV","either","1","623","","","","","","","0","1","0","","0.822103072","0.4","0.8","0.2","0.6","0.6184433593","0.9244273404","0.822103072","0.5595739282","","","","","","","","","","","","75","K","2","","","7","main_expt",""
"","bandit","87","506729","0.0-48.0-0.0","40122129","wem/bandit_either_3","A2FXD55FJV1RSV","either","1","547","","","","","","","1","0","0","0.5757792393","","0.4","0.8","0.2","0.6","","","","","0.5380809204","0.9214665689","0.8176183596","0.5757792393","","","","","","","","76","L","3","","","8","main_expt",""
"","bandit","88","508777","0.0-49.0-0.0","40122129","wem/bandit_either_3","A2FXD55FJV1RSV","either","1","539","","","","","","","0","0","1","0.4884558296","","0.4","0.8","0.2","0.6","","","","","0.4884558296","0.9604963414","0.7421782695","0.5508288143","","","","","","","","72","H","0","img/none_selected.jpg","","9","main_expt",""
"","bandit","89","510753","0.0-50.0-0.0","40122129","wem/bandit_either_3","A2FXD55FJV1RSV","either","1","466","","","","","","","1","0","0","0.973544224","","0.4","0.8","0.2","0.6","","","","","0.6062827564","0.973544224","0.7112185725","0.4615344473","","","","","","","","74","J","1","","","10","main_expt",""
"","bandit","90","512723","0.0-51.0-0.0","40122129","wem/bandit_either_3","A2FXD55FJV1RSV","either","1","462","","","","","","","0","0","1","","0.6656122322","0.4","0.8","0.2","0.6","0.6618996933","0.9756729976","0.6656122322","0.4731032433","","","","","","","","","","","","75","K","2","","","11","main_expt",""
"","bandit","91","514752","0.0-52.0-0.0","40122129","wem/bandit_either_3","A2FXD55FJV1RSV","either","1","521","","","","","","","0","0","1","0.5028989732","","0.4","0.8","0.2","0.6","","","","","0.6589688621","0.9824084628","0.632951522","0.5028989732","","","","","","","","76","L","3","","","12","main_expt",""
"","bandit","92","516751","0.0-53.0-0.0","40122129","wem/bandit_either_3","A2FXD55FJV1RSV","either","1","490","","","","","","","1","0","0","0.7483501345","","0.4","0.8","0.2","0.6","","","","","0.7483501345","0.9852841122","0.6428643634","0.5252386458","","","","","","","","72","H","0","img/none_selected.jpg","","13","main_expt",""
"","bandit","93","518609","0.0-54.0-0.0","40122129","wem/bandit_either_3","A2FXD55FJV1RSV","either","1","350","","","","","","","1","0","0","0.9844185579","","0.4","0.8","0.2","0.6","","","","","0.7642220585","0.9844185579","0.5693663763","0.4883642101","","","","","","","","74","J","1","","","14","main_expt",""
"","bandit","94","520505","0.0-55.0-0.0","40122129","wem/bandit_either_3","A2FXD55FJV1RSV","either","1","387","","","","","","","0","1","0","","0.6354763258","0.4","0.8","0.2","0.6","0.8255663415","0.9716790186","0.6354763258","0.5125695872","","","","","","","","","","","","75","K","2","","","15","main_expt",""
"","bandit","95","522320","0.0-56.0-0.0","40122129","wem/bandit_either_3","A2FXD55FJV1RSV","either","1","307","","","","","","","1","0","0","0.8262734196","","0.4","0.8","0.2","0.6","","","","","0.8262734196","0.9724226268","0.6074668868","0.483313844","","","","","","","","72","H","0","img/none_selected.jpg","","16","main_expt",""
"","bandit","96","524124","0.0-57.0-0.0","40122129","wem/bandit_either_3","A2FXD55FJV1RSV","either","1","295","","","","","","","1","0","0","0.969397438","","0.4","0.8","0.2","0.6","","","","","0.8957105494","0.969397438","0.634379517","0.4764119597","","","","","","","","74","J","1","","","17","main_expt",""
"","bandit","97","526113","0.0-58.0-0.0","40122129","wem/bandit_either_3","A2FXD55FJV1RSV","either","1","479","","","","","","","0","0","1","0.7399013172","","0.4","0.8","0.2","0.6","","","","","0.8243017832","0.9487821198","0.7399013172","0.4742144938","","","","","","","","75","K","2","","","18","main_expt",""
"","bandit","98","527962","0.0-59.0-0.0","40122129","wem/bandit_either_3","A2FXD55FJV1RSV","either","1","337","","","","","","","0","1","0","","0.8174393347","0.4","0.8","0.2","0.6","0.8174393347","0.8822386923","0.6892422428","0.5445729057","","","","","","","","","","","","72","H","0","img/none_selected.jpg","","19","main_expt",""
"","bandit","99","529889","0.0-60.0-0.0","40122129","wem/bandit_either_3","A2FXD55FJV1RSV","either","1","412","","","","","","","0","1","0","","0.8658452863","0.4","0.8","0.2","0.6","0.8457625901","0.8658452863","0.5544472153","0.5114357523","","","","","","","","","","","","74","J","1","","","20","main_expt",""
"","bandit","100","531810","0.0-61.0-0.0","40122129","wem/bandit_either_3","A2FXD55FJV1RSV","either","1","407","","","","","","","0","1","0","","0.4705077418","0.4","0.8","0.2","0.6","0.8565453533","0.8597265301","0.4705077418","0.4948626968","","","","","","","","","","","","75","K","2","","","21","main_expt",""
"","bandit","101","533656","0.0-62.0-0.0","40122129","wem/bandit_either_3","A2FXD55FJV1RSV","either","1","337","","","","","","","0","0","1","","0.8821281293","0.4","0.8","0.2","0.6","0.8821281293","0.929530396","0.5364913494","0.3750889156","","","","","","","","","","","","72","H","0","img/none_selected.jpg","","22","main_expt",""
"","bandit","102","535508","0.0-63.0-0.0","40122129","wem/bandit_either_3","A2FXD55FJV1RSV","either","1","342","","","","","","","0","1","0","","0.9149061772","0.4","0.8","0.2","0.6","0.8253896901","0.9149061772","0.5450887529","0.3874093852","","","","","","","","","","","","74","J","1","","","23","main_expt",""
"","bandit","103","537513","0.0-64.0-0.0","40122129","wem/bandit_either_3","A2FXD55FJV1RSV","either","1","495","","","","","","","0","1","0","","0.6013055931","0.4","0.8","0.2","0.6","0.8682133559","0.9389899916","0.6013055931","0.4126546177","","","","","","","","","","","","75","K","2","","","24","main_expt",""
"","bandit","104","539353","0.0-65.0-0.0","40122129","wem/bandit_either_3","A2FXD55FJV1RSV","either","1","331","","","","","","","0","1","0","","0.9583062328","0.4","0.8","0.2","0.6","0.8186134727","0.9583062328","0.7116226269","0.3871809826","","","","","","","","","","","","74","J","1","","","25","main_expt",""
"","bandit","105","541169","0.0-66.0-0.0","40122129","wem/bandit_either_3","A2FXD55FJV1RSV","either","1","306","","","","","","","0","0","1","0.7284905038","","0.4","0.8","0.2","0.6","","","","","0.841170918","0.9349434311","0.7284905038","0.4162773602","","","","","","","","75","K","2","","","26","main_expt",""
"","bandit","106","543041","0.0-67.0-0.0","40122129","wem/bandit_either_3","A2FXD55FJV1RSV","either","1","361","","","","","","","1","0","0","0.9147743466","","0.4","0.8","0.2","0.6","","","","","0.8332298301","0.9147743466","0.7007901837","0.4153433109","","","","","","","","74","J","1","","","27","main_expt",""
"","bandit","107","545049","0.0-68.0-0.0","40122129","wem/bandit_either_3","A2FXD55FJV1RSV","either","1","498","","","","","","","0","1","0","","0.8913744663","0.4","0.8","0.2","0.6","0.8340804883","0.8913744663","0.7197690037","0.3083156359","","","","","","","","","","","","74","J","1","","","28","main_expt",""
"","bandit","108","547107","0.0-69.0-0.0","40122129","wem/bandit_either_3","A2FXD55FJV1RSV","either","1","548","","","","","","","1","0","0","0.9004815278","","0.4","0.8","0.2","0.6","","","","","0.8800986549","0.9004815278","0.7569205749","0.4048150761","","","","","","","","74","J","1","","","29","main_expt",""
"","bandit","109","549272","0.0-70.0-0.0","40122129","wem/bandit_either_3","A2FXD55FJV1RSV","either","1","656","","","","","","","1","0","0","0.8335499875","","0.4","0.8","0.2","0.6","","","","","0.800988266","0.8335499875","0.7007062976","0.5604470694","","","","","","","","74","J","1","","","30","main_expt",""
"","bandit","110","551431","0.0-71.0-0.0","40122129","wem/bandit_either_3","A2FXD55FJV1RSV","either","1","651","","","","","","","1","0","0","0.7904098286","","0.4","0.8","0.2","0.6","","","","","0.8092707987","0.7904098286","0.6218809145","0.5114456598","","","","","","","","74","J","1","","","31","main_expt",""
"","bandit","111","553498","0.0-72.0-0.0","40122129","wem/bandit_either_3","A2FXD55FJV1RSV","either","1","556","","","","","","","1","0","0","0.8156470634","","0.4","0.8","0.2","0.6","","","","","0.7600689364","0.8156470634","0.5448888872","0.5195843055","","","","","","","","74","J","1","","","32","main_expt",""
"","bandit","112","555529","0.0-73.0-0.0","40122129","wem/bandit_either_3","A2FXD55FJV1RSV","either","1","522","","","","","","","1","0","0","0.7458483223","","0.4","0.8","0.2","0.6","","","","","0.7268405739","0.7458483223","0.4396040002","0.4278216128","","","","","","","","74","J","1","","","33","main_expt",""
"","bandit","113","557507","0.0-74.0-0.0","40122129","wem/bandit_either_3","A2FXD55FJV1RSV","either","1","467","","","","","","","1","0","0","0.8745519215","","0.4","0.8","0.2","0.6","","","","","0.7867385379","0.8745519215","0.3418027302","0.4581725564","","","","","","","","74","J","1","","","34","main_expt",""
"","bandit","114","559496","0.0-75.0-0.0","40122129","wem/bandit_either_3","A2FXD55FJV1RSV","either","1","480","","","","","","","0","0","1","0.8761773117","","0.4","0.8","0.2","0.6","","","","","0.7776722478","0.8761773117","0.3770378826","0.5170179058","","","","","","","","74","J","1","","","35","main_expt",""
"","bandit","115","561448","0.0-76.0-0.0","40122129","wem/bandit_either_3","A2FXD55FJV1RSV","either","1","441","","","","","","","1","0","0","0.8898579413","","0.4","0.8","0.2","0.6","","","","","0.8110731924","0.8898579413","0.3264650107","0.5761285305","","","","","","","","74","J","1","","","36","main_expt",""
"","bandit","116","563488","0.0-77.0-0.0","40122129","wem/bandit_either_3","A2FXD55FJV1RSV","either","1","530","","","","","","","1","0","0","0.9189960073","","0.4","0.8","0.2","0.6","","","","","0.8371501114","0.9189960073","0.1696248696","0.5824592389","","","","","","","","74","J","1","","","37","main_expt",""
"","bandit","117","565472","0.0-78.0-0.0","40122129","wem/bandit_either_3","A2FXD55FJV1RSV","either","1","473","","","","","","","1","0","0","0.9429067042","","0.4","0.8","0.2","0.6","","","","","0.801984358","0.9429067042","0.3008725236","0.5039158184","","","","","","","","74","J","1","","","38","main_expt",""
"","bandit","118","567595","0.0-79.0-0.0","40122129","wem/bandit_either_3","A2FXD55FJV1RSV","either","1","613","","","","","","","0","1","0","","0.836760671","0.4","0.8","0.2","0.6","0.836760671","0.8860185862","0.3612597963","0.4906961915","","","","","","","","","","","","72","H","0","img/none_selected.jpg","","39","main_expt",""
"","bandit","119","569522","0.0-80.0-0.0","40122129","wem/bandit_either_3","A2FXD55FJV1RSV","either","1","409","","","","","","","1","0","0","0.3316001813","","0.4","0.8","0.2","0.6","","","","","0.7930168878","0.8958725565","0.3316001813","0.5118773476","","","","","","","","75","K","2","","","40","main_expt",""
"","bandit","120","571544","0.0-81.0-0.0","40122129","wem/bandit_either_3","A2FXD55FJV1RSV","either","1","512","","","","","","","1","0","0","0.5207000815","","0.4","0.8","0.2","0.6","","","","","0.6758505439","0.8369757826","0.251761063","0.5207000815","","","","","","","","76","L","3","","","41","main_expt",""
"","bandit","121","573432","0.0-82.0-0.0","40122129","wem/bandit_either_3","A2FXD55FJV1RSV","either","1","379","","","","","","","1","0","0","0.669091732","","0.4","0.8","0.2","0.6","","","","","0.669091732","0.8724413244","0.3764367217","0.6208632684","","","","","","","","72","H","0","img/none_selected.jpg","","42","main_expt",""
"","bandit","122","575208","0.0-83.0-0.0","40122129","wem/bandit_either_3","A2FXD55FJV1RSV","either","1","266","","","","","","","0","0","1","","0.8721156492","0.4","0.8","0.2","0.6","0.5774386383","0.8721156492","0.4280411123","0.6736877605","","","","","","","","","","","","74","J","1","","","43","main_expt",""
"","bandit","123","577024","0.0-84.0-0.0","40122129","wem/bandit_either_3","A2FXD55FJV1RSV","either","1","306","","","","","","","0","1","0","","0.4250007774","0.4","0.8","0.2","0.6","0.5402750746","0.874486911","0.4250007774","0.6770598463","","","","","","","","","","","","75","K","2","","","44","main_expt",""
"","bandit","124","578971","0.0-85.0-0.0","40122129","wem/bandit_either_3","A2FXD55FJV1RSV","either","1","436","","","","","","","0","0","1","0.6811336834","","0.4","0.8","0.2","0.6","","","","","0.4769525635","0.7653026016","0.3964774122","0.6811336834","","","","","","","","76","L","3","","","45","main_expt",""
"","bandit","125","580960","0.0-86.0-0.0","40122129","wem/bandit_either_3","A2FXD55FJV1RSV","either","1","478","","","","","","","0","0","1","","0.460739512","0.4","0.8","0.2","0.6","0.460739512","0.6884850605","0.3755541509","0.7409040253","","","","","","","","","","","","72","H","0","img/none_selected.jpg","","46","main_expt",""
"","bandit","126","583088","0.0-87.0-0.0","40122129","wem/bandit_either_3","A2FXD55FJV1RSV","either","1","617","","","","","","","0","1","0","","0.3953603582","0.4","0.8","0.2","0.6","0.3953603582","0.6869729855","0.3698766084","0.8602274841","","","","","","","","","","","","72","H","0","img/none_selected.jpg","","47","main_expt",""
"","bandit","127","585495","0.0-88.0-0.0","40122129","wem/bandit_either_3","A2FXD55FJV1RSV","either","1","897","","","","","","","0","0","1","0.5194217752","","0.4","0.8","0.2","0.6","","","","","0.5194217752","0.624749708","0.2924141828","0.8947369126","","","","","","","","72","H","0","img/none_selected.jpg","","48","main_expt",""
"","bandit","128","587216","0.0-89.0-0.0","40122129","wem/bandit_either_3","A2FXD55FJV1RSV","either","1","209","","","","","","","0","1","0","","0.2506794134","0.4","0.8","0.2","0.6","0.5015721984","0.6269608649","0.2506794134","0.9071052574","","","","","","","","","","","","75","K","2","","","49","main_expt",""
"","bandit","129","589451","0.0-90.0-0.0","40122129","wem/bandit_either_3","A2FXD55FJV1RSV","either","1","725","","","","","","","0","0","1","","0.2200095001","0.4","0.8","0.2","0.6","0.4427204185","0.5394470416","0.2200095001","0.8569531155","","","","","","","","","","","","75","K","2","","","50","main_expt",""
"","bandit","130","591784","0.0-91.0-0.0","40122129","wem/bandit_either_3","A2FXD55FJV1RSV","either","1","822","","","","","","","1","0","0","0.8728609703","","0.4","0.8","0.2","0.6","","","","","0.5194544998","0.4991806479","0.2703780474","0.8728609703","","","","","","","","76","L","3","","","51","main_expt",""
"","bandit","131","593784","0.0-92.0-0.0","40122129","wem/bandit_either_3","A2FXD55FJV1RSV","either","1","490","","","","","","","0","1","0","","0.902184381","0.4","0.8","0.2","0.6","0.4420680866","0.5431464126","0.3215640211","0.902184381","","","","","","","","","","","","76","L","3","","","52","main_expt",""
"","bandit","132","595872","0.0-93.0-0.0","40122129","wem/bandit_either_3","A2FXD55FJV1RSV","either","1","576","","","","","","","1","0","0","0.8975054296","","0.4","0.8","0.2","0.6","","","","","0.5541791803","0.4799783957","0.2918797996","0.8975054296","","","","","","","","76","L","3","","","53","main_expt",""
"","bandit","133","597832","0.0-94.0-0.0","40122129","wem/bandit_either_3","A2FXD55FJV1RSV","either","1","449","","","","","","","0","0","1","0.9436546011","","0.4","0.8","0.2","0.6","","","","","0.6187664305","0.3946877269","0.2432815539","0.9436546011","","","","","","","","76","L","3","","","54","main_expt",""
"","bandit","134","599715","0.0-95.0-0.0","40122129","wem/bandit_either_3","A2FXD55FJV1RSV","either","1","371","","","","","","","0","0","1","0.3892466866","","0.4","0.8","0.2","0.6","","","","","0.538030076","0.3892466866","0.1993500609","0.9411334538","","","","","","","","74","J","1","","","55","main_expt",""
"","bandit","135","601880","0.0-96.0-0.0","40122129","wem/bandit_either_3","A2FXD55FJV1RSV","either","1","654","","","","","","","0","0","1","","0.1832364248","0.4","0.8","0.2","0.6","0.5137881872","0.347268188","0.1832364248","0.862285227","","","","","","","","","","","","75","K","2","","","56","main_expt",""
"","bandit","136","603703","0.0-97.0-0.0","40122129","wem/bandit_either_3","A2FXD55FJV1RSV","either","1","312","","","","","","","0","0","1","0.6274604021","","0.4","0.8","0.2","0.6","","","","","0.6274604021","0.3462231845","0.1703919496","0.9034803314","","","","","","","","72","H","0","img/none_selected.jpg","","57","main_expt",""
"","bandit","137","605623","0.0-98.0-0.0","40122129","wem/bandit_either_3","A2FXD55FJV1RSV","either","1","409","","","","","","","1","0","0","0.3707442777","","0.4","0.8","0.2","0.6","","","","","0.5636132077","0.3707442777","0.2146973212","0.9062052911","","","","","","","","74","J","1","","","58","main_expt",""
"","bandit","138","607424","0.0-99.0-0.0","40122129","wem/bandit_either_3","A2FXD55FJV1RSV","either","1","292","","","","","","","0","0","1","0.4530366532","","0.4","0.8","0.2","0.6","","","","","0.6555757088","0.4530366532","0.2118107272","0.9169546289","","","","","","","","74","J","1","","","59","main_expt",""
"","bandit","139","609664","0.0-100.0-0.0","40122129","wem/bandit_either_3","A2FXD55FJV1RSV","either","1","729","","","","","","","0","0","1","","0.9048679239","0.4","0.8","0.2","0.6","0.6555481193","0.4335409142","0.2096036334","0.9048679239","","","","","","","","","","","","76","L","3","","","60","main_expt",""
"","bandit","140","611963","0.0-101.0-0.0","40122129","wem/bandit_either_3","A2FXD55FJV1RSV","either","1","788","","","","","","","0","0","1","","0.1985607356","0.4","0.8","0.2","0.6","0.6988977931","0.3601573371","0.1985607356","0.9346572725","","","","","","","","","","","","75","K","2","","","61","main_expt",""
"","bandit","141","613776","0.0-102.0-0.0","40122129","wem/bandit_either_3","A2FXD55FJV1RSV","either","1","300","","","","","","","0","0","1","0.6124712875","","0.4","0.8","0.2","0.6","","","","","0.6124712875","0.3187004912","0.2352246004","0.9332729597","","","","","","","","72","H","0","img/none_selected.jpg","","62","main_expt",""
"","bandit","142","615831","0.0-103.0-0.0","40122129","wem/bandit_either_3","A2FXD55FJV1RSV","either","1","545","","","","","","","0","0","1","0.4881994696","","0.4","0.8","0.2","0.6","","","","","0.4881994696","0.331276396","0.1989126294","0.9300142507","","","","","","","","72","H","0","img/none_selected.jpg","","63","main_expt",""
"","bandit","143","617640","0.0-104.0-0.0","40122129","wem/bandit_either_3","A2FXD55FJV1RSV","either","1","297","","","","","","","0","0","1","","0.5007509184","0.4","0.8","0.2","0.6","0.5007509184","0.3984677","0.2231035509","0.8992917639","","","","","","","","","","","","72","H","0","img/none_selected.jpg","","64","main_expt",""
"","bandit","144","619327","0.0-105.0-0.0","40122129","wem/bandit_either_3","A2FXD55FJV1RSV","either","1","178","","","","","","","0","1","0","","0.6077525222","0.4","0.8","0.2","0.6","0.6077525222","0.3012021372","0.174077904","0.7939475476","","","","","","","","","","","","72","H","0","img/none_selected.jpg","","65","main_expt",""
"","bandit","145","621183","0.0-106.0-0.0","40122129","wem/bandit_either_3","A2FXD55FJV1RSV","either","1","348","","","","","","","0","0","1","0.2848395029","","0.4","0.8","0.2","0.6","","","","","0.4876759876","0.2848395029","0.1505104035","0.7848839068","","","","","","","","74","J","1","","","66","main_expt",""
"","bandit","146","623257","0.0-107.0-0.0","40122129","wem/bandit_either_3","A2FXD55FJV1RSV","either","1","562","","","","","","","0","0","1","0.2908363747","","0.4","0.8","0.2","0.6","","","","","0.4705728971","0.2908363747","0.1706094741","0.7712869283","","","","","","","","74","J","1","","","67","main_expt",""
"","bandit","147","625074","0.0-108.0-0.0","40122129","wem/bandit_either_3","A2FXD55FJV1RSV","either","1","305","","","","","","","0","0","1","0.3226378352","","0.4","0.8","0.2","0.6","","","","","0.5822594153","0.3226378352","0.193375558","0.7426915226","","","","","","","","74","J","1","","","68","main_expt",""
"","bandit","148","626713","0.0-109.0-0.0","40122129","wem/bandit_either_3","A2FXD55FJV1RSV","either","1","129","","","","","","","0","0","1","0.4490581071","","0.4","0.8","0.2","0.6","","","","","0.6189715015","0.4490581071","0.226811003","0.592712881","","","","","","","","74","J","1","","","69","main_expt",""
"","bandit","149","628601","0.0-110.0-0.0","40122129","wem/bandit_either_3","A2FXD55FJV1RSV","either","1","375","","","","","","","0","0","1","0.191142909","","0.4","0.8","0.2","0.6","","","","","0.5307799745","0.42365523","0.191142909","0.6587085967","","","","","","","","75","K","2","","","70","main_expt",""
"","bandit","150","630409","0.0-111.0-0.0","40122129","wem/bandit_either_3","A2FXD55FJV1RSV","either","1","296","","","","","","","0","0","1","","0.2371486809","0.4","0.8","0.2","0.6","0.5205551237","0.427101634","0.2371486809","0.7562029562","","","","","","","","","","","","75","K","2","","","71","main_expt",""
"","bandit","151","632281","0.0-112.0-0.0","40122129","wem/bandit_either_3","A2FXD55FJV1RSV","either","1","360","","","","","","","0","1","0","","0.2602117984","0.4","0.8","0.2","0.6","0.5913901284","0.5387899421","0.2602117984","0.670676276","","","","","","","","","","","","75","K","2","","","72","main_expt",""
"","bandit","152","634324","0.0-113.0-0.0","40122129","wem/bandit_either_3","A2FXD55FJV1RSV","either","1","530","","","","","","","0","0","1","","0.1837165363","0.4","0.8","0.2","0.6","0.7127465592","0.4931252492","0.1837165363","0.6870219419","","","","","","","","","","","","75","K","2","","","73","main_expt",""
"","bandit","153","636313","0.0-114.0-0.0","40122129","wem/bandit_either_3","A2FXD55FJV1RSV","either","1","480","","","","","","","1","0","0","0.582898469","","0.4","0.8","0.2","0.6","","","","","0.7804212289","0.3888626504","0.2032334464","0.582898469","","","","","","","","76","L","3","","","74","main_expt",""
"","bandit","154","638272","0.0-115.0-0.0","40122129","wem/bandit_either_3","A2FXD55FJV1RSV","either","1","449","","","","","","","1","0","0","0.6452442043","","0.4","0.8","0.2","0.6","","","","","0.7966502287","0.3866429177","0.2782751631","0.6452442043","","","","","","","","76","L","3","","","75","main_expt",""
"","bandit","155","640273","0.0-116.0-0.0","40122129","wem/bandit_either_3","A2FXD55FJV1RSV","either","1","488","","","","","","","0","1","0","","0.7031137023","0.4","0.8","0.2","0.6","0.7775959854","0.3948468247","0.3318782676","0.7031137023","","","","","","","","","","","","76","L","3","","","76","main_expt",""
"","bandit","156","642265","0.0-117.0-0.0","40122129","wem/bandit_either_3","A2FXD55FJV1RSV","either","1","481","","","","","","","1","0","0","0.6096498107","","0.4","0.8","0.2","0.6","","","","","0.8523583745","0.4853082722","0.312607664","0.6096498107","","","","","","","","76","L","3","","","77","main_expt",""
"","bandit","157","644208","0.0-118.0-0.0","40122129","wem/bandit_either_3","A2FXD55FJV1RSV","either","1","432","","","","","","","1","0","0","0.532302087","","0.4","0.8","0.2","0.6","","","","","0.7707034136","0.4971609959","0.3250695504","0.532302087","","","","","","","","76","L","3","","","78","main_expt",""
"","bandit","158","646028","0.0-119.0-0.0","40122129","wem/bandit_either_3","A2FXD55FJV1RSV","either","1","311","","","","","","","0","0","1","","0.4448734945","0.4","0.8","0.2","0.6","0.7919080975","0.5349041547","0.277144637","0.4448734945","","","","","","","","","","","","76","L","3","","","79","main_expt",""
"","bandit","159","647801","0.0-120.0-0.0","40122129","wem/bandit_either_3","A2FXD55FJV1RSV","either","1","260","","","","","","","1","0","0","0.34513516","","0.4","0.8","0.2","0.6","","","","","0.8107458935","0.4713204996","0.293018971","0.34513516","","","","","","","","76","L","3","","","80","main_expt",""
"","bandit","160","649649","0.0-121.0-0.0","40122129","wem/bandit_either_3","A2FXD55FJV1RSV","either","1","336","","","","","","","0","0","1","0.406584365","","0.4","0.8","0.2","0.6","","","","","0.7851591746","0.4132476049","0.2730851157","0.406584365","","","","","","","","76","L","3","","","81","main_expt",""
"","bandit","161","651513","0.0-122.0-0.0","40122129","wem/bandit_either_3","A2FXD55FJV1RSV","either","1","352","","","","","","","0","1","0","","0.5068312928","0.4","0.8","0.2","0.6","0.8067558171","0.4640808921","0.2436011542","0.5068312928","","","","","","","","","","","","76","L","3","","","82","main_expt",""
"","bandit","162","653312","0.0-123.0-0.0","40122129","wem/bandit_either_3","A2FXD55FJV1RSV","either","1","287","","","","","","","0","1","0","","0.5209063211","0.4","0.8","0.2","0.6","0.7777816444","0.442115463","0.2009218657","0.5209063211","","","","","","","","","","","","76","L","3","","","83","main_expt",""
"","bandit","163","655777","0.0-124.0-0.0","40122129","wem/bandit_either_3","A2FXD55FJV1RSV","either","1","952","","","","","","","0","1","0","","0.6221591745","0.4","0.8","0.2","0.6","0.7801041195","0.5117806844","0.1550904625","0.6221591745","","","","","","","","","","","","76","L","3","","","84","main_expt",""
"","bandit","164","657380","0.0-125.0-0.0","40122129","wem/bandit_either_3","A2FXD55FJV1RSV","either","1","91","","","","","","","1","0","0","0.6939346182","","0.4","0.8","0.2","0.6","","","","","0.7593249252","0.5309627618","0.1193398435","0.6939346182","","","","","","","","76","L","3","","","85","main_expt",""
"","bandit","165","667089","0.0-126.0-0.0","40122129","wem/bandit_either_3","A2FXD55FJV1RSV","either","1","8196","","","","","","","0","0","1","0.7533471596","","0.4","0.8","0.2","0.6","","","","","0.7911667705","0.5482659382","0.1398572341","0.7533471596","","","","","","","","76","L","3","","","86","main_expt",""
"","bandit","166","668756","0.0-127.0-0.0","40122129","wem/bandit_either_3","A2FXD55FJV1RSV","either","1","153","","","","","","","0","1","0","","0.4772076429","0.4","0.8","0.2","0.6","0.8480662183","0.4772076429","0.1941505275","0.8040573679","","","","","","","","","","","","74","J","1","","","87","main_expt",""
"","bandit","167","680555","0.0-128.0-0.0","40122129","wem/bandit_either_3","A2FXD55FJV1RSV","either","1","10288","","","","","","","1","0","0","0.8110462569","","0.4","0.8","0.2","0.6","","","","","0.8110462569","0.5202977678","0.09645570925","0.7800800897","","","","","","","","72","H","0","img/none_selected.jpg","","88","main_expt",""
"","bandit","168","682720","0.0-129.0-0.0","40122129","wem/bandit_either_3","A2FXD55FJV1RSV","either","1","652","","","","","","","0","0","1","0.7924414871","","0.4","0.8","0.2","0.6","","","","","0.7924414871","0.4970482359","0.1304326216","0.7329239748","","","","","","","","72","H","0","img/none_selected.jpg","","89","main_expt",""
"","bandit","169","684688","0.0-130.0-0.0","40122129","wem/bandit_either_3","A2FXD55FJV1RSV","either","1","456","","","","","","","1","0","0","0.8190855249","","0.4","0.8","0.2","0.6","","","","","0.8190855249","0.4671205494","0.1410434261","0.7202813078","","","","","","","","72","H","0","img/none_selected.jpg","","90","main_expt",""
"","bandit","170","687240","0.0-131.0-0.0","40122129","wem/bandit_either_3","A2FXD55FJV1RSV","either","1","1039","","","","","","","0","0","1","0.858270253","","0.4","0.8","0.2","0.6","","","","","0.858270253","0.5518401665","0.1277095213","0.698586111","","","","","","","","72","H","0","img/none_selected.jpg","","91","main_expt",""
"","bandit","171","689447","0.0-132.0-0.0","40122129","wem/bandit_either_3","A2FXD55FJV1RSV","either","1","696","","","","","","","1","0","0","0.620788192","","0.4","0.8","0.2","0.6","","","","","0.8583259383","0.620788192","0.08596821216","0.6054304462","","","","","","","","74","J","1","","","92","main_expt",""
"","bandit","172","691459","0.0-133.0-0.0","40122129","wem/bandit_either_3","A2FXD55FJV1RSV","either","1","500","","","","","","","1","0","0","0.679669404","","0.4","0.8","0.2","0.6","","","","","0.8335107661","0.679669404","0.05652587691","0.6829204303","","","","","","","","74","J","1","","","93","main_expt",""
"","bandit","173","693392","0.0-134.0-0.0","40122129","wem/bandit_either_3","A2FXD55FJV1RSV","either","1","421","","","","","","","1","0","0","0.6726581754","","0.4","0.8","0.2","0.6","","","","","0.8849423118","0.6726581754","0.07490457358","0.6084783934","","","","","","","","74","J","1","","","94","main_expt",""
"","bandit","174","695344","0.0-135.0-0.0","40122129","wem/bandit_either_3","A2FXD55FJV1RSV","either","1","440","","","","","","","1","0","0","0.5983950962","","0.4","0.8","0.2","0.6","","","","","0.9175662658","0.5983950962","0.05201682933","0.51962455","","","","","","","","74","J","1","","","95","main_expt",""
"","bandit","175","697224","0.0-136.0-0.0","40122129","wem/bandit_either_3","A2FXD55FJV1RSV","either","1","367","","","","","","","1","0","0","0.6316158747","","0.4","0.8","0.2","0.6","","","","","0.8726153548","0.6316158747","0.0353667714","0.453067158","","","","","","","","74","J","1","","","96","main_expt",""
"","bandit","176","699104","0.0-137.0-0.0","40122129","wem/bandit_either_3","A2FXD55FJV1RSV","either","1","366","","","","","","","0","0","1","0.6660601513","","0.4","0.8","0.2","0.6","","","","","0.7260562137","0.6660601513","0.04301306848","0.4090095009","","","","","","","","74","J","1","","","97","main_expt",""
"","bandit","177","701016","0.0-138.0-0.0","40122129","wem/bandit_either_3","A2FXD55FJV1RSV","either","1","399","","","","","","","0","0","1","","0.03950067624","0.4","0.8","0.2","0.6","0.6506148609","0.6185462561","0.03950067624","0.360727585","","","","","","","","","","","","75","K","2","","","98","main_expt",""
"","bandit","178","702944","0.0-139.0-0.0","40122129","wem/bandit_either_3","A2FXD55FJV1RSV","either","1","415","","","","","","","1","0","0","0.3351327477","","0.4","0.8","0.2","0.6","","","","","0.5816342488","0.581128502","0.03156699585","0.3351327477","","","","","","","","76","L","3","","","99","main_expt",""
"","bandit","179","705032","0.0-140.0-0.0","40122129","wem/bandit_either_3","A2FXD55FJV1RSV","either","1","575","","","","","","","1","0","0","0.3491912274","","0.4","0.8","0.2","0.6","","","","","0.5521464449","0.479775063","0.0248161238","0.3491912274","","","","","","","","76","L","3","","","100","main_expt",""
"","bandit","180","707016","0.0-141.0-0.0","40122129","wem/bandit_either_3","A2FXD55FJV1RSV","either","1","470","","","","","","","0","0","1","0.4105375765","","0.4","0.8","0.2","0.6","","","","","0.6063232436","0.5114647241","0.02218075004","0.4105375765","","","","","","","","76","L","3","","","101","main_expt",""
"","bandit","181","708911","0.0-142.0-0.0","40122129","wem/bandit_either_3","A2FXD55FJV1RSV","either","1","383","","","","","","","1","0","0","0.4718740674","","0.4","0.8","0.2","0.6","","","","","0.5636213764","0.4718740674","0.01802152149","0.438632671","","","","","","","","74","J","1","","","102","main_expt",""
"","bandit","182","710704","0.0-143.0-0.0","40122129","wem/bandit_either_3","A2FXD55FJV1RSV","either","1","280","","","","","","","1","0","0","0.5245129891","","0.4","0.8","0.2","0.6","","","","","0.5370473259","0.5245129891","0.01877214671","0.372838406","","","","","","","","74","J","1","","","103","main_expt",""
"","bandit","183","712579","0.0-144.0-0.0","40122129","wem/bandit_either_3","A2FXD55FJV1RSV","either","1","362","","","","","","","0","0","1","0.5170751474","","0.4","0.8","0.2","0.6","","","","","0.549647281","0.5170751474","0.01556743346","0.3057692375","","","","","","","","74","J","1","","","104","main_expt",""
"","bandit","184","714328","0.0-145.0-0.0","40122129","wem/bandit_either_3","A2FXD55FJV1RSV","either","1","237","","","","","","","1","0","0","0.37369274","","0.4","0.8","0.2","0.6","","","","","0.4225976111","0.472330124","0.03717147126","0.37369274","","","","","","","","76","L","3","","","105","main_expt",""
"","bandit","185","716376","0.0-146.0-0.0","40122129","wem/bandit_either_3","A2FXD55FJV1RSV","either","1","536","","","","","","","0","0","1","0.568133852","","0.4","0.8","0.2","0.6","","","","","0.5005163425","0.568133852","0.07687033395","0.3179799449","","","","","","","","74","J","1","","","106","main_expt",""
"","bandit","186","717976","0.0-147.0-0.0","40122129","wem/bandit_either_3","A2FXD55FJV1RSV","either","1","86","","","","","","","0","0","1","0.3053765494","","0.4","0.8","0.2","0.6","","","","","0.3995396385","0.536018559","0.07659049968","0.3053765494","","","","","","","","76","L","3","","","107","main_expt",""
"","bandit","187","719880","0.0-148.0-0.0","40122129","wem/bandit_either_3","A2FXD55FJV1RSV","either","1","391","","","","","","","0","1","0","","0.3855926336","0.4","0.8","0.2","0.6","0.3855926336","0.3880888981","0.07827602418","0.2732860947","","","","","","","","","","","","72","H","0","img/none_selected.jpg","","108","main_expt",""
"","bandit","188","721808","0.0-149.0-0.0","40122129","wem/bandit_either_3","A2FXD55FJV1RSV","either","1","416","","","","","","","0","0","1","0.3059937163","","0.4","0.8","0.2","0.6","","","","","0.3059937163","0.3675045314","0.1352418701","0.2624197952","","","","","","","","72","H","0","img/none_selected.jpg","","109","main_expt",""
"","bandit","189","723618","0.0-150.0-0.0","40122129","wem/bandit_either_3","A2FXD55FJV1RSV","either","1","296","","","","","","","0","0","1","","0.1705666919","0.4","0.8","0.2","0.6","0.2752892785","0.4560700489","0.1705666919","0.3303210632","","","","","","","","","","","","75","K","2","","","110","main_expt",""
"","bandit","190","725775","0.0-151.0-0.0","40122129","wem/bandit_either_3","A2FXD55FJV1RSV","either","1","645","","","","","","","1","0","0","0.5366389876","","0.4","0.8","0.2","0.6","","","","","0.3038626008","0.5366389876","0.2202970635","0.3541452024","","","","","","","","74","J","1","","","111","main_expt",""
"","bandit","191","727952","0.0-152.0-0.0","40122129","wem/bandit_either_3","A2FXD55FJV1RSV","either","1","663","","","","","","","1","0","0","0.5742054707","","0.4","0.8","0.2","0.6","","","","","0.2308866464","0.5742054707","0.2368742277","0.4468573219","","","","","","","","74","J","1","","","112","main_expt",""
"","bandit","192","730008","0.0-153.0-0.0","40122129","wem/bandit_either_3","A2FXD55FJV1RSV","either","1","543","","","","","","","1","0","0","0.6014260319","","0.4","0.8","0.2","0.6","","","","","0.2420052043","0.6014260319","0.2487241586","0.5163231944","","","","","","","","74","J","1","","","113","main_expt",""
"","bandit","193","732024","0.0-154.0-0.0","40122129","wem/bandit_either_3","A2FXD55FJV1RSV","either","1","504","","","","","","","0","0","1","","0.5398035654","0.4","0.8","0.2","0.6","0.3277817495","0.5398035654","0.238824581","0.4064640458","","","","","","","","","","","","74","J","1","","","114","main_expt",""
"","bandit","194","734243","0.0-155.0-0.0","40122129","wem/bandit_either_3","A2FXD55FJV1RSV","either","1","706","","","","","","","1","0","0","0.4085425191","","0.4","0.8","0.2","0.6","","","","","0.3280884562","0.5008208772","0.1480638281","0.4085425191","","","","","","","","76","L","3","","","115","main_expt",""
"","bandit","195","736408","0.0-156.0-0.0","40122129","wem/bandit_either_3","A2FXD55FJV1RSV","either","1","651","","","","","","","0","1","0","","0.4412864427","0.4","0.8","0.2","0.6","0.4137256642","0.4200837231","0.1246447603","0.4412864427","","","","","","","","","","","","76","L","3","","","116","main_expt",""
"","bandit","196","738376","0.0-157.0-0.0","40122129","wem/bandit_either_3","A2FXD55FJV1RSV","either","1","454","","","","","","","0","1","0","","0.5188885271","0.4","0.8","0.2","0.6","0.372751341","0.4094987027","0.1308085784","0.5188885271","","","","","","","","","","","","76","L","3","","","117","main_expt",""
"","bandit","197","768212","0.0-158.0-0.0","40122129","wem/bandit_either_3","A2FXD55FJV1RSV","either","1","28323","","","","","","","0","0","1","0.09076242324","","0.4","0.8","0.2","0.6","","","","","0.4225631273","0.3862907493","0.09076242324","0.5728151575","","","","","","","","75","K","2","","","118","main_expt",""
"","bandit","198","770600","0.0-159.0-0.0","40122129","wem/bandit_either_3","A2FXD55FJV1RSV","either","1","874","","","","","","","0","0","1","0.4437318585","","0.4","0.8","0.2","0.6","","","","","0.4188482812","0.4437318585","0.09057925276","0.5065624602","","","","","","","","74","J","1","","","119","main_expt",""
"","bandit","199","773448","0.0-160.0-0.0","40122129","wem/bandit_either_3","A2FXD55FJV1RSV","either","1","1334","","","","","","","1","0","0","0.293469011","","0.4","0.8","0.2","0.6","","","","","0.3729077829","0.293469011","0.1288926122","0.4064427813","","","","","","","","74","J","1","","","120","main_expt",""
"","bandit","200","775425","0.0-161.0-0.0","40122129","wem/bandit_either_3","A2FXD55FJV1RSV","either","1","461","","","","","","","1","0","0","0.2141601759","","0.4","0.8","0.2","0.6","","","","","0.3817262037","0.2141601759","0.1479701512","0.3948988447","","","","","","","","74","J","1","","","121","main_expt",""
"","bandit","201","777439","0.0-162.0-0.0","40122129","wem/bandit_either_3","A2FXD55FJV1RSV","either","1","502","","","","","","","0","0","1","0.2594293103","","0.4","0.8","0.2","0.6","","","","","0.3537210734","0.2594293103","0.1663524813","0.316823658","","","","","","","","74","J","1","","","122","main_expt",""
"","bandit","202","779435","0.0-163.0-0.0","40122129","wem/bandit_either_3","A2FXD55FJV1RSV","either","1","481","","","","","","","0","0","1","0.1519240937","","0.4","0.8","0.2","0.6","","","","","0.3633727708","0.1519240937","0.1993917655","0.3045978244","","","","","","","","74","J","1","","","123","main_expt",""
"","bandit","203","781761","0.0-164.0-0.0","40122129","wem/bandit_either_3","A2FXD55FJV1RSV","either","1","812","","","","","","","0","0","1","","0.2311656533","0.4","0.8","0.2","0.6","0.4139908316","0.2311656533","0.2948689786","0.2389028675","","","","","","","","","","","","74","J","1","","","124","main_expt",""
"","bandit","204","784553","0.0-165.0-0.0","40122129","wem/bandit_either_3","A2FXD55FJV1RSV","either","1","1277","","","","","","","0","1","0","","0.3619800754","0.4","0.8","0.2","0.6","0.3619800754","0.1956748967","0.4054398129","0.2166803268","","","","","","","","","","","","72","H","0","img/none_selected.jpg","","125","main_expt",""
"","bandit","205","787488","0.0-166.0-0.0","40122129","wem/bandit_either_3","A2FXD55FJV1RSV","either","1","1422","","","","","","","0","1","0","","0.353362548","0.4","0.8","0.2","0.6","0.353362548","0.1419383156","0.5337661481","0.1613674106","","","","","","","","","","","","72","H","0","img/none_selected.jpg","","126","main_expt",""
"","bandit","206","789826","0.0-167.0-0.0","40122129","wem/bandit_either_3","A2FXD55FJV1RSV","either","1","823","","","","","","","0","0","1","","0.2888217425","0.4","0.8","0.2","0.6","0.2888217425","0.1768105291","0.5510518781","0.1682412955","","","","","","","","","","","","72","H","0","img/none_selected.jpg","","127","main_expt",""
"","bandit","207","791664","0.0-168.0-0.0","40122129","wem/bandit_either_3","A2FXD55FJV1RSV","either","1","324","","","","","","","0","0","1","0.1655910943","","0.4","0.8","0.2","0.6","","","","","0.3131893798","0.1187699492","0.4746642732","0.1655910943","","","","","","","","76","L","3","","","128","main_expt",""
"","bandit","208","793272","0.0-169.0-0.0","40122129","wem/bandit_either_3","A2FXD55FJV1RSV","either","1","93","","","","","","","0","0","1","0.1860330609","","0.4","0.8","0.2","0.6","","","","","0.2826861836","0.1860330609","0.5345142674","0.1845506081","","","","","","","","74","J","1","","","129","main_expt",""
"","bandit","209","795104","0.0-170.0-0.0","40122129","wem/bandit_either_3","A2FXD55FJV1RSV","either","1","318","","","","","","","0","0","1","","0.6617219445","0.4","0.8","0.2","0.6","0.3434973012","0.09722607165","0.6617219445","0.1548240476","","","","","","","","","","","","75","K","2","","","130","main_expt",""
"","bandit","210","797448","0.0-171.0-0.0","40122129","wem/bandit_either_3","A2FXD55FJV1RSV","either","1","829","","","","","","","0","0","1","0.3848082556","","0.4","0.8","0.2","0.6","","","","","0.3848082556","0.05626421391","0.6183560712","0.1503989","","","","","","","","72","H","0","img/none_selected.jpg","","131","main_expt",""
"","bandit","211","799915","0.0-172.0-0.0","40122129","wem/bandit_either_3","A2FXD55FJV1RSV","either","1","953","","","","","","","1","0","0","0.1149854728","","0.4","0.8","0.2","0.6","","","","","0.4140069858","0.1149854728","0.7009512511","0.1199593994","","","","","","","","74","J","1","","","132","main_expt",""
"","bandit","212","802240","0.0-173.0-0.0","40122129","wem/bandit_either_3","A2FXD55FJV1RSV","either","1","811","","","","","","","0","0","1","0.1698175541","","0.4","0.8","0.2","0.6","","","","","0.3745017877","0.1698175541","0.5838974895","0.1518383839","","","","","","","","74","J","1","","","133","main_expt",""
"","bandit","213","805184","0.0-174.0-0.0","40122129","wem/bandit_either_3","A2FXD55FJV1RSV","either","1","1430","","","","","","","0","0","1","","0.1855528241","0.4","0.8","0.2","0.6","0.3918835711","0.1925371395","0.6628563986","0.1855528241","","","","","","","","","","","","76","L","3","","","134","main_expt",""
"","bandit","214","808040","0.0-175.0-0.0","40122129","wem/bandit_either_3","A2FXD55FJV1RSV","either","1","1341","","","","","","","0","0","1","","0.2187769305","0.4","0.8","0.2","0.6","0.3405764209","0.246136332","0.5610912218","0.2187769305","","","","","","","","","","","","76","L","3","","","135","main_expt",""
"","bandit","215","810290","0.0-176.0-0.0","40122129","wem/bandit_either_3","A2FXD55FJV1RSV","either","1","737","","","","","","","0","0","1","","0.2277518718","0.4","0.8","0.2","0.6","0.4155430462","0.2277518718","0.4834649218","0.2001534018","","","","","","","","","","","","74","J","1","","","136","main_expt",""
"","bandit","216","812199","0.0-177.0-0.0","40122129","wem/bandit_either_3","A2FXD55FJV1RSV","either","1","395","","","","","","","0","0","1","","0.513072369","0.4","0.8","0.2","0.6","0.3389252929","0.252962458","0.513072369","0.176995917","","","","","","","","","","","","75","K","2","","","137","main_expt",""
"","bandit","217","822707","0.0-178.0-0.0","40122129","wem/bandit_either_3","A2FXD55FJV1RSV","either","1","8993","","","","","","","0","0","1","","0.2698753193","0.4","0.8","0.2","0.6","0.2698753193","0.3018696236","0.5502636267","0.1460019238","","","","","","","","","","","","72","H","0","img/none_selected.jpg","","138","main_expt",""
"","bandit","218","841388","0.0-179.0-0.0","40122129","wem/bandit_either_3","A2FXD55FJV1RSV","either","1","17166","","","","","","","1","0","0","0.347353107","","0.4","0.8","0.2","0.6","","","","","0.2821570394","0.347353107","0.4564922144","0.06707115951","","","","","","","","74","J","1","","","139","main_expt",""
"","bandit","219","845121","0.0-180.0-0.0","40122129","wem/bandit_either_3","A2FXD55FJV1RSV","either","1","2219","","","","","","","0","0","1","","0.2477375586","0.4","0.8","0.2","0.6","0.3577533322","0.2477375586","0.4116013625","0.1071331831","","","","","","","","","","","","74","J","1","","","140","main_expt",""
"","bandit","220","846777","0.0-181.0-0.0","40122129","wem/bandit_either_3","A2FXD55FJV1RSV","either","1","140","","","","","","","0","1","0","","0.4250900652","0.4","0.8","0.2","0.6","0.4250900652","0.2880826197","0.4498847811","0.1224459691","","","","","","","","","","","","72","H","0","img/none_selected.jpg","","141","main_expt",""
"","bandit","221","848953","0.0-182.0-0.0","40122129","wem/bandit_either_3","A2FXD55FJV1RSV","either","1","662","","","","","","","0","0","1","","0.3451055681","0.4","0.8","0.2","0.6","0.3451055681","0.2287108423","0.4822150968","0.1127900777","","","","","","","","","","","","72","H","0","img/none_selected.jpg","","142","main_expt",""
"","bandit","222","850617","0.0-183.0-0.0","40122129","wem/bandit_either_3","A2FXD55FJV1RSV","either","1","149","","","","","","","0","1","0","","0.513506041","0.4","0.8","0.2","0.6","0.4661026996","0.2096850542","0.513506041","0.1736101882","","","","","","","","","","","","75","K","2","","","143","main_expt",""
"","bandit","223","859260","0.0-184.0-0.0","40122129","wem/bandit_either_3","A2FXD55FJV1RSV","either","1","7129","","","","","","","0","0","1","","0.556822441","0.4","0.8","0.2","0.6","0.4683168179","0.2214165798","0.556822441","0.1231714597","","","","","","","","","","","","75","K","2","","","144","main_expt",""
"","bandit","224","862024","0.0-185.0-0.0","40122129","wem/bandit_either_3","A2FXD55FJV1RSV","either","1","1250","","","","","","","0","0","1","","0.10514291","0.4","0.8","0.2","0.6","0.448697065","0.2412424024","0.5633269006","0.10514291","","","","","","","","","","","","76","L","3","","","145","main_expt",""
"","bandit","225","868041","0.0-186.0-0.0","40122129","wem/bandit_either_3","A2FXD55FJV1RSV","either","1","4502","","","","","","","0","1","0","","0.6482805244","0.4","0.8","0.2","0.6","0.4560677512","0.1841611904","0.6482805244","0.0972381369","","","","","","","","","","","","75","K","2","","","146","main_expt",""
"","bandit","226","871644","0.0-187.0-0.0","40122129","wem/bandit_either_3","A2FXD55FJV1RSV","either","1","2088","","","","","","","0","1","0","","0.6036290043","0.4","0.8","0.2","0.6","0.513472809","0.1577922033","0.6036290043","0.1897119627","","","","","","","","","","","","75","K","2","","","147","main_expt",""
"","bandit","227","873841","0.0-188.0-0.0","40122129","wem/bandit_either_3","A2FXD55FJV1RSV","either","1","683","","","","","","","0","1","0","","0.6110248825","0.4","0.8","0.2","0.6","0.3820674583","0.1663963597","0.6110248825","0.1759094881","","","","","","","","","","","","75","K","2","","","148","main_expt",""
"","bandit","228","876553","0.0-189.0-0.0","40122129","wem/bandit_either_3","A2FXD55FJV1RSV","either","1","1196","","","","","","","0","1","0","","0.6453676348","0.4","0.8","0.2","0.6","0.3116557105","0.319747154","0.6453676348","0.2204336569","","","","","","","","","","","","75","K","2","","","149","main_expt",""
"","bandit","229","878649","0.0-190.0-0.0","40122129","wem/bandit_either_3","A2FXD55FJV1RSV","either","1","582","","","","","","","0","0","1","","0.66235511","0.4","0.8","0.2","0.6","0.3039338698","0.5410110608","0.66235511","0.2328853871","","","","","","","","","","","","75","K","2","","","150","main_expt",""
"","bandit","230","880721","0.0-191.0-0.0","40122129","wem/bandit_either_3","A2FXD55FJV1RSV","either","1","556","","","","","","","0","0","1","0.2652525627","","0.4","0.8","0.2","0.6","","","","","0.3092958796","0.5584745132","0.5547575852","0.2652525627","","","","","","","","76","L","3","","","151","main_expt",""
"","bandit","231","882691","0.0-192.0-0.0","40122129","wem/bandit_either_3","A2FXD55FJV1RSV","either","1","457","","","","","","","0","0","1","0.5709378499","","0.4","0.8","0.2","0.6","","","","","0.3097370874","0.5709378499","0.5223098228","0.2654363334","","","","","","","","74","J","1","","","152","main_expt",""
"","bandit","232","887185","0.0-193.0-0.0","40122129","wem/bandit_either_3","A2FXD55FJV1RSV","either","1","2979","","","","","","","0","0","1","","0.2955649657","0.4","0.8","0.2","0.6","0.2955649657","0.6314515046","0.5137303037","0.3505589273","","","","","","","","","","","","72","H","0","img/none_selected.jpg","","153","main_expt",""
"","bandit","233","889921","0.0-194.0-0.0","40122129","wem/bandit_either_3","A2FXD55FJV1RSV","either","1","1222","","","","","","","1","0","0","0.6734276465","","0.4","0.8","0.2","0.6","","","","","0.221553637","0.6734276465","0.5193194566","0.39889796","","","","","","","","74","J","1","","","154","main_expt",""
"","bandit","234","892249","0.0-195.0-0.0","40122129","wem/bandit_either_3","A2FXD55FJV1RSV","either","1","812","","","","","","","1","0","0","0.7019144477","","0.4","0.8","0.2","0.6","","","","","0.2231547498","0.7019144477","0.4736812385","0.4202606707","","","","","","","","74","J","1","","","155","main_expt",""
"","bandit","235","894156","0.0-196.0-0.0","40122129","wem/bandit_either_3","A2FXD55FJV1RSV","either","1","392","","","","","","","0","0","1","0.6695455193","","0.4","0.8","0.2","0.6","","","","","0.2750957943","0.6695455193","0.4616442501","0.4814159609","","","","","","","","74","J","1","","","156","main_expt",""
"","bandit","236","896145","0.0-197.0-0.0","40122129","wem/bandit_either_3","A2FXD55FJV1RSV","either","1","473","","","","","","","0","0","1","","0.5316807058","0.4","0.8","0.2","0.6","0.2005793054","0.6179864128","0.5025740222","0.5316807058","","","","","","","","","","","","76","L","3","","","157","main_expt",""
"","bandit","237","898897","0.0-198.0-0.0","40122129","wem/bandit_either_3","A2FXD55FJV1RSV","either","1","1237","","","","","","","0","1","0","","0.4548105643","0.4","0.8","0.2","0.6","0.2502080146","0.7380689997","0.4548105643","0.5429668589","","","","","","","","","","","","75","K","2","","","158","main_expt",""
"","bandit","238","900912","0.0-199.0-0.0","40122129","wem/bandit_either_3","A2FXD55FJV1RSV","either","1","499","","","","","","","0","0","1","","0.4622667215","0.4","0.8","0.2","0.6","0.2729805177","0.7632184112","0.4622667215","0.5991419929","","","","","","","","","","","","75","K","2","","","159","main_expt",""
"","bandit","239","902985","0.0-200.0-0.0","40122129","wem/bandit_either_3","A2FXD55FJV1RSV","either","1","558","","","","","","","0","1","0","","0.6917664031","0.4","0.8","0.2","0.6","0.2801697818","0.6917664031","0.4600517474","0.6480894682","","","","","","","","","","","","74","J","1","","","160","main_expt",""
"","bandit","240","906635","0.0-201.0-0.0","40122129","wem/bandit_either_3","A2FXD55FJV1RSV","either","1","2135","","","","","","","1","0","0","0.7106531984","","0.4","0.8","0.2","0.6","","","","","0.2437938608","0.7106531984","0.481388234","0.6776161973","","","","","","","","74","J","1","","","161","main_expt",""
"","bandit","241","908633","0.0-202.0-0.0","40122129","wem/bandit_either_3","A2FXD55FJV1RSV","either","1","487","","","","","","","0","0","1","0.809310282","","0.4","0.8","0.2","0.6","","","","","0.2687553501","0.809310282","0.3850106192","0.7134031715","","","","","","","","74","J","1","","","162","main_expt",""
"","bandit","242","910713","0.0-203.0-0.0","40122129","wem/bandit_either_3","A2FXD55FJV1RSV","either","1","564","","","","","","","0","0","1","","0.245991677","0.4","0.8","0.2","0.6","0.245991677","0.7492875705","0.3498723973","0.6215635068","","","","","","","","","","","","72","H","0","img/none_selected.jpg","","163","main_expt",""
"","bandit","243","912425","0.0-204.0-0.0","40122129","wem/bandit_either_3","A2FXD55FJV1RSV","either","1","199","","","","","","","0","1","0","","0.4287417444","0.4","0.8","0.2","0.6","0.270385563","0.7561394707","0.4287417444","0.5219240024","","","","","","","","","","","","75","K","2","","","164","main_expt",""
"","bandit","244","914442","0.0-205.0-0.0","40122129","wem/bandit_either_3","A2FXD55FJV1RSV","either","1","500","","","","","","","0","0","1","","0.3150145745","0.4","0.8","0.2","0.6","0.3037855967","0.8111415702","0.3150145745","0.4727302842","","","","","","","","","","","","75","K","2","","","165","main_expt",""
"","bandit","245","916152","0.0-206.0-0.0","40122129","wem/bandit_either_3","A2FXD55FJV1RSV","either","1","195","","","","","","","1","0","0","0.7759938205","","0.4","0.8","0.2","0.6","","","","","0.3395577104","0.7759938205","0.2927018344","0.5181018645","","","","","","","","74","J","1","","","166","main_expt",""
"","bandit","246","918195","0.0-207.0-0.0","40122129","wem/bandit_either_3","A2FXD55FJV1RSV","either","1","527","","","","","","","1","0","0","0.8267633335","","0.4","0.8","0.2","0.6","","","","","0.3443901906","0.8267633335","0.3610256338","0.5280433419","","","","","","","","74","J","1","","","167","main_expt",""
"","bandit","247","920154","0.0-208.0-0.0","40122129","wem/bandit_either_3","A2FXD55FJV1RSV","either","1","443","","","","","","","0","0","1","","0.8136073627","0.4","0.8","0.2","0.6","0.2552323567","0.8136073627","0.3137127159","0.5470010145","","","","","","","","","","","","74","J","1","","","168","main_expt",""
"","bandit","248","921714","0.0-209.0-0.0","40122129","wem/bandit_either_3","A2FXD55FJV1RSV","either","1","44","","","","","","","0","1","0","","0.5558845962","0.4","0.8","0.2","0.6","0.289352286","0.7308533614","0.2292796242","0.5558845962","","","","","","","","","","","","76","L","3","","","169","main_expt",""
"","bandit","249","923658","0.0-210.0-0.0","40122129","wem/bandit_either_3","A2FXD55FJV1RSV","either","1","427","","","","","","","0","0","1","","0.5799309324","0.4","0.8","0.2","0.6","0.2262743404","0.7090730391","0.221948569","0.5799309324","","","","","","","","","","","","76","L","3","","","170","main_expt",""
"","bandit","250","925578","0.0-211.0-0.0","40122129","wem/bandit_either_3","A2FXD55FJV1RSV","either","1","404","","","","","","","1","0","0","0.7229684446","","0.4","0.8","0.2","0.6","","","","","0.2644351609","0.7229684446","0.159615594","0.6643953266","","","","","","","","74","J","1","","","171","main_expt",""
"","bandit","251","927570","0.0-212.0-0.0","40122129","wem/bandit_either_3","A2FXD55FJV1RSV","either","1","471","","","","","","","1","0","0","0.6612043244","","0.4","0.8","0.2","0.6","","","","","0.4136296373","0.6612043244","0.1303854457","0.7610666705","","","","","","","","74","J","1","","","172","main_expt",""
"","bandit","252","929586","0.0-213.0-0.0","40122129","wem/bandit_either_3","A2FXD55FJV1RSV","either","1","504","","","","","","","1","0","0","0.7669021743","","0.4","0.8","0.2","0.6","","","","","0.491318492","0.7669021743","0.07729024622","0.8006149786","","","","","","","","74","J","1","","","173","main_expt",""
"","bandit","253","931697","0.0-214.0-0.0","40122129","wem/bandit_either_3","A2FXD55FJV1RSV","either","1","597","","","","","","","1","0","0","0.8111867287","","0.4","0.8","0.2","0.6","","","","","0.4966763124","0.8111867287","0.1227026474","0.791095403","","","","","","","","74","J","1","","","174","main_expt",""
"","bandit","254","933752","0.0-215.0-0.0","40122129","wem/bandit_either_3","A2FXD55FJV1RSV","either","1","538","","","","","","","1","0","0","0.8192498968","","0.4","0.8","0.2","0.6","","","","","0.5109350621","0.8192498968","0.09483306355","0.8572088762","","","","","","","","74","J","1","","","175","main_expt",""
"","bandit","255","943548","0.0-216.0-0.0","40122129","wem/bandit_either_3","A2FXD55FJV1RSV","either","1","8278","","","","","","","1","0","0","0.8371283275","","0.4","0.8","0.2","0.6","","","","","0.6321295754","0.8371283275","0.143069758","0.8576080684","","","","","","","","74","J","1","","","176","main_expt",""
"","bandit","256","946305","0.0-217.0-0.0","40122129","wem/bandit_either_3","A2FXD55FJV1RSV","either","1","1241","","","","","","","0","0","1","0.8545140947","","0.4","0.8","0.2","0.6","","","","","0.5515755996","0.8545140947","0.1741656422","0.8678158231","","","","","","","","74","J","1","","","177","main_expt",""
"","bandit","257","956941","0.0-218.0-0.0","40122129","wem/bandit_either_3","A2FXD55FJV1RSV","either","1","9116","","","","","","","0","1","0","","0.5086275016","0.4","0.8","0.2","0.6","0.5086275016","0.8794893657","0.1904086474","0.8820542777","","","","","","","","","","","","72","H","0","img/none_selected.jpg","","178","main_expt",""
"","bandit","258","959306","0.0-219.0-0.0","40122129","wem/bandit_either_3","A2FXD55FJV1RSV","either","1","848","","","","","","","0","0","1","","0.5215192908","0.4","0.8","0.2","0.6","0.5215192908","0.8939587296","0.1778905233","0.8907334788","","","","","","","","","","","","72","H","0","img/none_selected.jpg","","179","main_expt",""
"","bandit","259","961145","0.0-220.0-0.0","40122129","wem/bandit_either_3","A2FXD55FJV1RSV","either","1","321","","","","","","","1","0","0","0.868077767","","0.4","0.8","0.2","0.6","","","","","0.5193414217","0.868077767","0.2112817454","0.9161653667","","","","","","","","74","J","1","","","180","main_expt",""
"","bandit","260","963201","0.0-221.0-0.0","40122129","wem/bandit_either_3","A2FXD55FJV1RSV","either","1","538","","","","","","","1","0","0","0.9295405476","","0.4","0.8","0.2","0.6","","","","","0.4613460131","0.9295405476","0.2236312472","0.9327112184","","","","","","","","74","J","1","","","181","main_expt",""
"","bandit","261","965353","0.0-222.0-0.0","40122129","wem/bandit_either_3","A2FXD55FJV1RSV","either","1","634","","","","","","","1","0","0","0.9213574857","","0.4","0.8","0.2","0.6","","","","","0.4468633868","0.9213574857","0.264467441","0.9284398706","","","","","","","","74","J","1","","","182","main_expt",""
"","bandit","262","967484","0.0-223.0-0.0","40122129","wem/bandit_either_3","A2FXD55FJV1RSV","either","1","614","","","","","","","0","1","0","","0.9374560388","0.4","0.8","0.2","0.6","0.4985091709","0.9374560388","0.2240632979","0.89591471","","","","","","","","","","","","74","J","1","","","183","main_expt",""
"","bandit","263","969545","0.0-224.0-0.0","40122129","wem/bandit_either_3","A2FXD55FJV1RSV","either","1","543","","","","","","","1","0","0","0.9120054929","","0.4","0.8","0.2","0.6","","","","","0.6057575335","0.9120054929","0.1671404848","0.9146434193","","","","","","","","74","J","1","","","184","main_expt",""
"","bandit","264","971633","0.0-225.0-0.0","40122129","wem/bandit_either_3","A2FXD55FJV1RSV","either","1","573","","","","","","","1","0","0","0.8428471033","","0.4","0.8","0.2","0.6","","","","","0.4915456485","0.8428471033","0.1932257563","0.8575823977","","","","","","","","74","J","1","","","185","main_expt",""
"","bandit","265","973785","0.0-226.0-0.0","40122129","wem/bandit_either_3","A2FXD55FJV1RSV","either","1","635","","","","","","","0","0","1","0.7734335662","","0.4","0.8","0.2","0.6","","","","","0.5976273718","0.7734335662","0.155472597","0.8487952361","","","","","","","","74","J","1","","","186","main_expt",""
"","bandit","266","975825","0.0-227.0-0.0","40122129","wem/bandit_either_3","A2FXD55FJV1RSV","either","1","523","","","","","","","1","0","0","0.8603972339","","0.4","0.8","0.2","0.6","","","","","0.5743595779","0.7667319261","0.1895871356","0.8603972339","","","","","","","","76","L","3","","","187","main_expt",""
"","bandit","267","977932","0.0-228.0-0.0","40122129","wem/bandit_either_3","A2FXD55FJV1RSV","either","1","589","","","","","","","1","0","0","0.8834510925","","0.4","0.8","0.2","0.6","","","","","0.6833173747","0.5945875292","0.2119556673","0.8834510925","","","","","","","","76","L","3","","","188","main_expt",""
"","bandit","268","980025","0.0-229.0-0.0","40122129","wem/bandit_either_3","A2FXD55FJV1RSV","either","1","576","","","","","","","1","0","0","0.8973947779","","0.4","0.8","0.2","0.6","","","","","0.651089354","0.7406569186","0.2255007403","0.8973947779","","","","","","","","76","L","3","","","189","main_expt",""
"","bandit","269","982177","0.0-230.0-0.0","40122129","wem/bandit_either_3","A2FXD55FJV1RSV","either","1","634","","","","","","","0","1","0","","0.8824587855","0.4","0.8","0.2","0.6","0.6599652607","0.7371931777","0.1754842532","0.8824587855","","","","","","","","","","","","76","L","3","","","190","main_expt",""
"","bandit","270","984201","0.0-231.0-0.0","40122129","wem/bandit_either_3","A2FXD55FJV1RSV","either","1","506","","","","","","","1","0","0","0.9076431997","","0.4","0.8","0.2","0.6","","","","","0.6960236584","0.7019705866","0.1936311571","0.9076431997","","","","","","","","76","L","3","","","191","main_expt",""
"","bandit","271","986177","0.0-232.0-0.0","40122129","wem/bandit_either_3","A2FXD55FJV1RSV","either","1","458","","","","","","","1","0","0","0.8673165995","","0.4","0.8","0.2","0.6","","","","","0.6713911156","0.6198122665","0.215612591","0.8673165995","","","","","","","","76","L","3","","","192","main_expt",""
"","bandit","272","988043","0.0-233.0-0.0","40122129","wem/bandit_either_3","A2FXD55FJV1RSV","either","1","349","","","","","","","0","1","0","","0.8264401474","0.4","0.8","0.2","0.6","0.7244072205","0.6100930929","0.2818734505","0.8264401474","","","","","","","","","","","","76","L","3","","","193","main_expt",""
"","bandit","273","989970","0.0-234.0-0.0","40122129","wem/bandit_either_3","A2FXD55FJV1RSV","either","1","408","","","","","","","0","0","1","0.6332739585","","0.4","0.8","0.2","0.6","","","","","0.7397798508","0.6332739585","0.3616108755","0.8546086414","","","","","","","","74","J","1","","","194","main_expt",""
"","bandit","274","991857","0.0-235.0-0.0","40122129","wem/bandit_either_3","A2FXD55FJV1RSV","either","1","372","","","","","","","1","0","0","0.7914914872","","0.4","0.8","0.2","0.6","","","","","0.7602069811","0.609207161","0.3979961615","0.7914914872","","","","","","","","76","L","3","","","195","main_expt",""
"","bandit","275","1007099","0.0-236.0-0.0","40122129","wem/bandit_either_3","A2FXD55FJV1RSV","either","1","13725","","","","","","","0","0","1","","0.7608346536","0.4","0.8","0.2","0.6","0.7114092524","0.6560649547","0.4366641927","0.7608346536","","","","","","","","","","","","76","L","3","","","196","main_expt",""
"","bandit","276","1009162","0.0-237.0-0.0","40122129","wem/bandit_either_3","A2FXD55FJV1RSV","either","1","547","","","","","","","0","1","0","","0.560782874","0.4","0.8","0.2","0.6","0.6917424169","0.6656533059","0.560782874","0.7003784325","","","","","","","","","","","","75","K","2","","","197","main_expt",""
"","bandit","277","1011344","0.0-238.0-0.0","40122129","wem/bandit_either_3","A2FXD55FJV1RSV","either","1","666","","","","","","","0","0","1","","0.5649388288","0.4","0.8","0.2","0.6","0.6561069913","0.6841747727","0.5649388288","0.6036075577","","","","","","","","","","","","75","K","2","","","198","main_expt",""
"","bandit","278","1013328","0.0-239.0-0.0","40122129","wem/bandit_either_3","A2FXD55FJV1RSV","either","1","470","","","","","","","0","0","1","0.6948346643","","0.4","0.8","0.2","0.6","","","","","0.6948346643","0.7105065455","0.5375892324","0.5843314555","","","","","","","","72","H","0","img/none_selected.jpg","","199","main_expt",""
"","bandit","279","1015344","0.0-240.0-0.0","40122129","wem/bandit_either_3","A2FXD55FJV1RSV","either","1","503","","","","","","","1","0","0","0.7380433654","","0.4","0.8","0.2","0.6","","","","","0.7369743936","0.7380433654","0.5625167851","0.539414212","","","","","","","","74","J","1","","","200","main_expt",""
"","bandit","280","1017299","0.0-241.0-0.0","40122129","wem/bandit_either_3","A2FXD55FJV1RSV","either","1","443","","","","","","","1","0","0","0.6432951689","","0.4","0.8","0.2","0.6","","","","","0.8347268415","0.6432951689","0.6266810217","0.3774065742","","","","","","","","74","J","1","","","201","main_expt",""
"","bandit","281","1019553","0.0-242.0-0.0","40122129","wem/bandit_either_3","A2FXD55FJV1RSV","either","1","736","","","","","","","0","0","1","0.4995879772","","0.4","0.8","0.2","0.6","","","","","0.7612264534","0.4995879772","0.6661075828","0.2824615609","","","","","","","","74","J","1","","","202","main_expt",""
"","bandit","282","1023016","0.0-243.0-0.0","40122129","wem/bandit_either_3","A2FXD55FJV1RSV","either","1","1946","","","","","","","1","0","0","0.210170224","","0.4","0.8","0.2","0.6","","","","","0.6904596671","0.4767352753","0.7534099026","0.210170224","","","","","","","","76","L","3","","","203","main_expt",""
"","bandit","283","1025713","0.0-244.0-0.0","40122129","wem/bandit_either_3","A2FXD55FJV1RSV","either","1","1179","","","","","","","0","1","0","","0.2708138581","0.4","0.8","0.2","0.6","0.6855485072","0.3680612217","0.7033522103","0.2708138581","","","","","","","","","","","","76","L","3","","","204","main_expt",""
"","bandit","284","1032236","0.0-245.0-0.0","40122129","wem/bandit_either_3","A2FXD55FJV1RSV","either","1","5005","","","","","","","0","0","1","0.3319820794","","0.4","0.8","0.2","0.6","","","","","0.7006332368","0.3404512965","0.6105989365","0.3319820794","","","","","","","","76","L","3","","","205","main_expt",""
"","bandit","285","1034537","0.0-246.0-0.0","40122129","wem/bandit_either_3","A2FXD55FJV1RSV","either","1","784","","","","","","","0","0","1","0.2774568564","","0.4","0.8","0.2","0.6","","","","","0.7533130943","0.2774568564","0.725137222","0.3517339603","","","","","","","","74","J","1","","","206","main_expt",""
"","bandit","286","1036417","0.0-247.0-0.0","40122129","wem/bandit_either_3","A2FXD55FJV1RSV","either","1","361","","","","","","","0","1","0","","0.5888984072","0.4","0.8","0.2","0.6","0.7191760557","0.2228883469","0.5888984072","0.2871079035","","","","","","","","","","","","75","K","2","","","207","main_expt",""
"","bandit","287","1038351","0.0-248.0-0.0","40122129","wem/bandit_either_3","A2FXD55FJV1RSV","either","1","417","","","","","","","0","0","1","","0.4650323514","0.4","0.8","0.2","0.6","0.6264293856","0.2829247412","0.4650323514","0.2642306377","","","","","","","","","","","","75","K","2","","","208","main_expt",""
"","bandit","288","1040137","0.0-249.0-0.0","40122129","wem/bandit_either_3","A2FXD55FJV1RSV","either","1","273","","","","","","","0","0","1","0.6500478562","","0.4","0.8","0.2","0.6","","","","","0.6500478562","0.3169104167","0.4100719568","0.3587725811","","","","","","","","72","H","0","img/none_selected.jpg","","209","main_expt",""
"","bandit","289","1041961","0.0-250.0-0.0","40122129","wem/bandit_either_3","A2FXD55FJV1RSV","either","1","305","","","","","","","1","0","0","0.5177296744","","0.4","0.8","0.2","0.6","","","","","0.6498865343","0.2090062306","0.5177296744","0.3103342645","","","","","","","","75","K","2","","","210","main_expt",""
"","bandit","290","1044604","0.0-251.0-0.0","40122129","wem/bandit_either_3","A2FXD55FJV1RSV","either","1","1127","","","","","","","0","0","1","0.5950812693","","0.4","0.8","0.2","0.6","","","","","0.6056301442","0.1481662818","0.5950812693","0.3760595068","","","","","","","","75","K","2","","","211","main_expt",""
"","bandit","291","1046817","0.0-252.0-0.0","40122129","wem/bandit_either_3","A2FXD55FJV1RSV","either","1","691","","","","","","","0","0","1","0.2114888193","","0.4","0.8","0.2","0.6","","","","","0.5524844402","0.2114888193","0.7169745983","0.447023013","","","","","","","","74","J","1","","","212","main_expt",""
"","bandit","292","1048729","0.0-253.0-0.0","40122129","wem/bandit_either_3","A2FXD55FJV1RSV","either","1","396","","","","","","","0","0","1","0.4529182837","","0.4","0.8","0.2","0.6","","","","","0.6984249358","0.2234642754","0.6766124197","0.4529182837","","","","","","","","76","L","3","","","213","main_expt",""
"","bandit","293","1050561","0.0-254.0-0.0","40122129","wem/bandit_either_3","A2FXD55FJV1RSV","either","1","313","","","","","","","0","0","1","","0.8005648136","0.4","0.8","0.2","0.6","0.5996975418","0.2315139555","0.8005648136","0.4306534983","","","","","","","","","","","","75","K","2","","","214","main_expt",""
"","bandit","294","1052489","0.0-255.0-0.0","40122129","wem/bandit_either_3","A2FXD55FJV1RSV","either","1","409","","","","","","","0","0","1","0.6067129047","","0.4","0.8","0.2","0.6","","","","","0.6067129047","0.1949488974","0.8487964291","0.4314469479","","","","","","","","72","H","0","img/none_selected.jpg","","215","main_expt",""
"","bandit","295","1054369","0.0-256.0-0.0","40122129","wem/bandit_either_3","A2FXD55FJV1RSV","either","1","363","","","","","","","0","0","1","0.2333303883","","0.4","0.8","0.2","0.6","","","","","0.6297976658","0.2333303883","0.8674123454","0.45439575","","","","","","","","74","J","1","","","216","main_expt",""
"","bandit","296","1056204","0.0-257.0-0.0","40122129","wem/bandit_either_3","A2FXD55FJV1RSV","either","1","316","","","","","","","1","0","0","0.6095272491","","0.4","0.8","0.2","0.6","","","","","0.6095272491","0.2027763819","0.8774404243","0.5228861726","","","","","","","","72","H","0","img/none_selected.jpg","","217","main_expt",""
"","bandit","297","1057952","0.0-258.0-0.0","40122129","wem/bandit_either_3","A2FXD55FJV1RSV","either","1","231","","","","","","","0","1","0","","0.7058099393","0.4","0.8","0.2","0.6","0.7058099393","0.1895874514","0.8836448068","0.463703458","","","","","","","","","","","","72","H","0","img/none_selected.jpg","","218","main_expt",""
"","bandit","298","1059729","0.0-259.0-0.0","40122129","wem/bandit_either_3","A2FXD55FJV1RSV","either","1","257","","","","","","","0","1","0","","0.7396246451","0.4","0.8","0.2","0.6","0.7396246451","0.1537120117","0.880498508","0.4522864467","","","","","","","","","","","","72","H","0","img/none_selected.jpg","","219","main_expt",""
"","bandit","299","1061777","0.0-260.0-0.0","40122129","wem/bandit_either_3","A2FXD55FJV1RSV","either","1","530","","","","","","","1","0","0","0.7091968036","","0.4","0.8","0.2","0.6","","","","","0.7091968036","0.2022747423","0.8740874997","0.4561576612","","","","","","","","72","H","0","img/none_selected.jpg","","220","main_expt",""
"","bandit","300","1069179","0.0-261.0-0.0","40122129","wem/bandit_either_3","A2FXD55FJV1RSV","either","1","5884","","","","","","","0","1","0","","0.7116308873","0.4","0.8","0.2","0.6","0.7116308873","0.3174413427","0.8527830905","0.4264657168","","","","","","","","","","","","72","H","0","img/none_selected.jpg","","221","main_expt",""
"","bandit","301","1073785","0.0-262.0-0.0","40122129","wem/bandit_either_3","A2FXD55FJV1RSV","either","1","3087","","","","","","","1","0","0","0.769465391","","0.4","0.8","0.2","0.6","","","","","0.769465391","0.2315667073","0.7717907476","0.3055141729","","","","","","","","72","H","0","img/none_selected.jpg","","222","main_expt",""
"","bandit","302","1080659","0.0-263.0-0.0","40122129","wem/bandit_either_3","A2FXD55FJV1RSV","either","1","5357","","","","","","","1","0","0","0.7509006974","","0.4","0.8","0.2","0.6","","","","","0.7509006974","0.2261006122","0.8359700354","0.2868954791","","","","","","","","72","H","0","img/none_selected.jpg","","223","main_expt",""
"","bandit","303","1084873","0.0-264.0-0.0","40122129","wem/bandit_either_3","A2FXD55FJV1RSV","either","1","2701","","","","","","","0","1","0","","0.7007688409","0.4","0.8","0.2","0.6","0.7007688409","0.2662378096","0.819670806","0.2698185242","","","","","","","","","","","","72","H","0","img/none_selected.jpg","","224","main_expt",""
"","bandit","304","1091115","0.0-265.0-0.0","40122129","wem/bandit_either_3","A2FXD55FJV1RSV","either","1","4723","","","","","","","0","0","1","","0.7409020096","0.4","0.8","0.2","0.6","0.7409020096","0.2163280173","0.8512382749","0.213842325","","","","","","","","","","","","72","H","0","img/none_selected.jpg","","225","main_expt",""
"","bandit","305","1093200","0.0-266.0-0.0","40122129","wem/bandit_either_3","A2FXD55FJV1RSV","either","1","566","","","","","","","0","0","1","0.2809353625","","0.4","0.8","0.2","0.6","","","","","0.7052945704","0.2809353625","0.8342861847","0.1616408491","","","","","","","","74","J","1","","","226","main_expt",""
"","bandit","306","1095562","0.0-267.0-0.0","40122129","wem/bandit_either_3","A2FXD55FJV1RSV","either","1","846","","","","","","","0","1","0","","0.7736041865","0.4","0.8","0.2","0.6","0.606091252","0.2396571279","0.7736041865","0.1777599287","","","","","","","","","","","","75","K","2","","","227","main_expt",""
"","bandit","307","1098017","0.0-268.0-0.0","40122129","wem/bandit_either_3","A2FXD55FJV1RSV","either","1","936","","","","","","","0","1","0","","0.8094350608","0.4","0.8","0.2","0.6","0.5834203199","0.3430446928","0.8094350608","0.2866543064","","","","","","","","","","","","75","K","2","","","228","main_expt",""
"","bandit","308","1101113","0.0-269.0-0.0","40122129","wem/bandit_either_3","A2FXD55FJV1RSV","either","1","1577","","","","","","","0","1","0","","0.8078722129","0.4","0.8","0.2","0.6","0.5466214007","0.2886233194","0.8078722129","0.3948293382","","","","","","","","","","","","75","K","2","","","229","main_expt",""
"","bandit","309","1110243","0.0-270.0-0.0","40122129","wem/bandit_either_3","A2FXD55FJV1RSV","either","1","7612","","","","","","","0","0","1","","0.7719043616","0.4","0.8","0.2","0.6","0.5519014059","0.3213731463","0.7719043616","0.3291786684","","","","","","","","","","","","75","K","2","","","230","main_expt",""
"","bandit","310","1112145","0.0-271.0-0.0","40122129","wem/bandit_either_3","A2FXD55FJV1RSV","either","1","382","","","","","","","0","1","0","","0.2378236032","0.4","0.8","0.2","0.6","0.4527164215","0.2771614906","0.8049264475","0.2378236032","","","","","","","","","","","","76","L","3","","","231","main_expt",""
"","bandit","311","1114425","0.0-272.0-0.0","40122129","wem/bandit_either_3","A2FXD55FJV1RSV","either","1","761","","","","","","","0","0","1","0.246393804","","0.4","0.8","0.2","0.6","","","","","0.5135082398","0.2249105956","0.8850589997","0.246393804","","","","","","","","76","L","3","","","232","main_expt",""
"","bandit","312","1116369","0.0-273.0-0.0","40122129","wem/bandit_either_3","A2FXD55FJV1RSV","either","1","426","","","","","","","0","0","1","0.2447973041","","0.4","0.8","0.2","0.6","","","","","0.5502454751","0.2447973041","0.9183615156","0.2141634692","","","","","","","","74","J","1","","","233","main_expt",""
"","bandit","313","1118297","0.0-274.0-0.0","40122129","wem/bandit_either_3","A2FXD55FJV1RSV","either","1","416","","","","","","","0","0","1","","0.3783923662","0.4","0.8","0.2","0.6","0.3783923662","0.24601643","0.9639410842","0.2876436191","","","","","","","","","","","","72","H","0","img/none_selected.jpg","","234","main_expt",""
"","bandit","314","1120732","0.0-275.0-0.0","40122129","wem/bandit_either_3","A2FXD55FJV1RSV","either","1","915","","","","","","","0","0","1","0.1629844561","","0.4","0.8","0.2","0.6","","","","","0.2814299379","0.1629844561","0.9697187448","0.2769077257","","","","","","","","74","J","1","","","235","main_expt",""
"","bandit","315","1123281","0.0-276.0-0.0","40122129","wem/bandit_either_3","A2FXD55FJV1RSV","either","1","1029","","","","","","","0","1","0","","0.9571573523","0.4","0.8","0.2","0.6","0.3106100538","0.1929455839","0.9571573523","0.136865198","","","","","","","","","","","","75","K","2","","","236","main_expt",""
"","bandit","316","1125505","0.0-277.0-0.0","40122129","wem/bandit_either_3","A2FXD55FJV1RSV","either","1","704","","","","","","","0","1","0","","0.9170696074","0.4","0.8","0.2","0.6","0.3152445528","0.1497712966","0.9170696074","0.1123790732","","","","","","","","","","","","75","K","2","","","237","main_expt",""
"","bandit","317","1127640","0.0-278.0-0.0","40122129","wem/bandit_either_3","A2FXD55FJV1RSV","either","1","618","","","","","","","0","1","0","","0.9207491077","0.4","0.8","0.2","0.6","0.2637175197","0.1526491196","0.9207491077","0.09027024906","","","","","","","","","","","","75","K","2","","","238","main_expt",""
"","bandit","318","1129769","0.0-279.0-0.0","40122129","wem/bandit_either_3","A2FXD55FJV1RSV","either","1","609","","","","","","","0","1","0","","0.9211301165","0.4","0.8","0.2","0.6","0.1889878372","0.1745924244","0.9211301165","0.08323179304","","","","","","","","","","","","75","K","2","","","239","main_expt",""
"","bandit","319","1131940","0.0-280.0-0.0","40122129","wem/bandit_either_3","A2FXD55FJV1RSV","either","1","654","","","","","","","0","1","0","","0.8992774771","0.4","0.8","0.2","0.6","0.1710885746","0.1159399908","0.8992774771","0.08130265934","","","","","","","","","","","","75","K","2","","","240","main_expt",""
"","bandit","320","1134049","0.0-281.0-0.0","40122129","wem/bandit_either_3","A2FXD55FJV1RSV","either","1","591","","","","","","","0","1","0","","0.8977441673","0.4","0.8","0.2","0.6","0.1232632504","0.1682101231","0.8977441673","0.1424736114","","","","","","","","","","","","75","K","2","","","241","main_expt",""
"","bandit","321","1136153","0.0-282.0-0.0","40122129","wem/bandit_either_3","A2FXD55FJV1RSV","either","1","584","","","","","","","0","1","0","","0.853076495","0.4","0.8","0.2","0.6","0.210295675","0.1643169396","0.853076495","0.2433221762","","","","","","","","","","","","75","K","2","","","242","main_expt",""
"","bandit","322","1138249","0.0-283.0-0.0","40122129","wem/bandit_either_3","A2FXD55FJV1RSV","either","1","577","","","","","","","0","0","1","","0.8942427246","0.4","0.8","0.2","0.6","0.289349801","0.1355776028","0.8942427246","0.3185073654","","","","","","","","","","","","75","K","2","","","243","main_expt",""
"","bandit","323","1140329","0.0-284.0-0.0","40122129","wem/bandit_either_3","A2FXD55FJV1RSV","either","1","559","","","","","","","0","0","1","0.3533170098","","0.4","0.8","0.2","0.6","","","","","0.4071614743","0.1311829495","0.8701402288","0.3533170098","","","","","","","","76","L","3","","","244","main_expt",""
"","bandit","324","1142284","0.0-285.0-0.0","40122129","wem/bandit_either_3","A2FXD55FJV1RSV","either","1","439","","","","","","","0","1","0","","0.8552475109","0.4","0.8","0.2","0.6","0.453462755","0.1273238","0.8552475109","0.3482220419","","","","","","","","","","","","75","K","2","","","245","main_expt",""
