"consent","trial_type","trial_index","time_elapsed","internal_node_id","subjID","study","MID","cond","drift","rt","responses","key_press","expt_phase","like","value","connected","gems","bombs","no_reward","GemPrChosen","BombPrChosen","GainOverPainPr_0","GainOverPainPr_1","GainOverPainPr_2","GainOverPainPr_3","LosePr_0","LosePr_1","LosePr_2","LosePr_3","WinPr_0","WinPr_1","WinPr_2","WinPr_3","Q0","Q1","Q2","gender","age","ethnicity","target","respCharCode","respKey","respChoiceNum","respChoice","practice","trial_counter","trial_label","button_pressed"
"INL_behavioral_consent_30min_online.html","consent","0","15495","0.0-0.0","40443417","wem/bandit_either_3","AB1X97ASE626Q","either","4","","","","","","","","","","","","","","","","","","","","","","","","","","","","","","","","","","","","","","",""
"","survey-text","1","24320","0.0-1.0","40443417","wem/bandit_either_3","AB1X97ASE626Q","either","4","7812","{""Q0"":""AB1X97ASE626Q""}","","","","","","","","","","","","","","","","","","","","","","","","","","","","","","","","","","","","",""
"","text","2","40698","0.0-2.0","40443417","wem/bandit_either_3","AB1X97ASE626Q","either","4","15373","","32","","","","","","","","","","","","","","","","","","","","","","","","","","","","","","","","","","","",""
"","text","3","54155","0.0-3.0","40443417","wem/bandit_either_3","AB1X97ASE626Q","either","4","13455","","32","","","","","","","","","","","","","","","","","","","","","","","","","","","","","","","","","","","",""
"","text","4","78010","0.0-4.0","40443417","wem/bandit_either_3","AB1X97ASE626Q","either","4","23853","","32","","","","","","","","","","","","","","","","","","","","","","","","","","","","","","","","","","","",""
"","text","5","96685","0.0-5.0","40443417","wem/bandit_either_3","AB1X97ASE626Q","either","4","18673","","32","","","","","","","","","","","","","","","","","","","","","","","","","","","","","","","","","","","",""
"","text","6","115209","0.0-6.0","40443417","wem/bandit_either_3","AB1X97ASE626Q","either","4","18522","","32","","","","","","","","","","","","","","","","","","","","","","","","","","","","","","","","","","","",""
"","text","7","128756","0.0-7.0","40443417","wem/bandit_either_3","AB1X97ASE626Q","either","4","13545","","32","","","","","","","","","","","","","","","","","","","","","","","","","","","","","","","","","","","",""
"","text","8","137783","0.0-8.0","40443417","wem/bandit_either_3","AB1X97ASE626Q","either","4","9023","","32","","","","","","","","","","","","","","","","","","","","","","","","","","","","","","","","","","","",""
"","identification","9","148631","0.0-9.0-0.0","40443417","wem/bandit_either_3","AB1X97ASE626Q","either","4","10817","","","","6","6","6","","","","","","","","","","","","","","","","","","","","","","","","the village of Zur","","","","","","","",""
"","identification","10","160702","0.0-9.0-1.0","40443417","wem/bandit_either_3","AB1X97ASE626Q","either","4","11059","","","","0","0","0","","","","","","","","","","","","","","","","","","","","","","","","the village of Nyx","","","","","","","",""
"","text","11","170897","0.0-10.0","40443417","wem/bandit_either_3","AB1X97ASE626Q","either","4","9192","","32","","","","","","","","","","","","","","","","","","","","","","","","","","","","","","","","","","","",""
"","text","12","178932","0.0-11.0","40443417","wem/bandit_either_3","AB1X97ASE626Q","either","4","8032","","32","","","","","","","","","","","","","","","","","","","","","","","","","","","","","","","","","","","",""
"","text","13","184162","0.0-12.0","40443417","wem/bandit_either_3","AB1X97ASE626Q","either","4","5226","","32","","","","","","","","","","","","","","","","","","","","","","","","","","","","","","","","","","","",""
"","text","14","189832","0.0-13.0","40443417","wem/bandit_either_3","AB1X97ASE626Q","either","4","5668","","32","","","","","","","","","","","","","","","","","","","","","","","","","","","","","","","","","","","",""
"","bandit","15","197309","0.0-14.0-0.0","40443417","wem/bandit_either_3","AB1X97ASE626Q","either","4","5963","","","","","","","0","0","1","0","0","","","","","0","","","","0","","","","","","","","","","","74","J","0","img/none_selected_demo.jpg","true","0","",""
"","bandit","16","201888","0.0-15.0-0.0","40443417","wem/bandit_either_3","AB1X97ASE626Q","either","4","3069","","","","","","","0","0","1","0","0","","","","","0","","","","0","","","","","","","","","","","75","K","0","img/none_selected_demo.jpg","true","0","",""
"","text","17","217806","0.0-16.0","40443417","wem/bandit_either_3","AB1X97ASE626Q","either","4","15915","","32","","","","","","","","","","","","","","","","","","","","","","","","","","","","","","","","","","","",""
"","text","18","230558","0.0-17.0","40443417","wem/bandit_either_3","AB1X97ASE626Q","either","4","12750","","32","","","","","","","","","","","","","","","","","","","","","","","","","","","","","","","","","","","",""
"","text","19","245035","0.0-18.0","40443417","wem/bandit_either_3","AB1X97ASE626Q","either","4","14476","","32","","","","","","","","","","","","","","","","","","","","","","","","","","","","","","","","","","","",""
"","text","20","256131","0.0-19.0","40443417","wem/bandit_either_3","AB1X97ASE626Q","either","4","11093","","32","","","","","","","","","","","","","","","","","","","","","","","","","","","","","","","","","","","",""
"","bandit","21","259389","0.0-20.0-0.0","40443417","wem/bandit_either_3","AB1X97ASE626Q","either","4","1750","","","","","","","1","0","0","0.8","","0.5","0.5","","","","","","","0.8","0.2","","","","","","","","","","74","J","0","img/none_selected_demo.jpg","true","0","80_20_practice",""
"","bandit","22","262474","0.0-20.0-1.0","40443417","wem/bandit_either_3","AB1X97ASE626Q","either","4","1576","","","","","","","1","0","0","0.8","","0.5","0.5","","","","","","","0.8","0.2","","","","","","","","","","74","J","0","img/none_selected_demo.jpg","true","0","80_20_practice",""
"","bandit","23","265628","0.0-20.0-2.0","40443417","wem/bandit_either_3","AB1X97ASE626Q","either","4","1645","","","","","","","0","0","1","0.8","","0.5","0.5","","","","","","","0.8","0.2","","","","","","","","","","74","J","0","img/none_selected_demo.jpg","true","0","80_20_practice",""
"","bandit","24","268180","0.0-20.0-3.0","40443417","wem/bandit_either_3","AB1X97ASE626Q","either","4","1041","","","","","","","1","0","0","0.8","","0.5","0.5","","","","","","","0.8","0.2","","","","","","","","","","74","J","0","img/none_selected_demo.jpg","true","0","80_20_practice",""
"","bandit","25","270534","0.0-20.0-4.0","40443417","wem/bandit_either_3","AB1X97ASE626Q","either","4","844","","","","","","","1","0","0","0.2","","0.5","0.5","","","","","","","0.8","0.2","","","","","","","","","","75","K","1","","true","0","80_20_practice",""
"","bandit","26","273001","0.0-20.0-5.0","40443417","wem/bandit_either_3","AB1X97ASE626Q","either","4","958","","","","","","","0","0","1","0.2","","0.5","0.5","","","","","","","0.8","0.2","","","","","","","","","","75","K","1","","true","0","80_20_practice",""
"","bandit","27","276241","0.0-20.0-6.0","40443417","wem/bandit_either_3","AB1X97ASE626Q","either","4","1730","","","","","","","1","0","0","0.2","","0.5","0.5","","","","","","","0.8","0.2","","","","","","","","","","75","K","1","","true","0","80_20_practice",""
"","bandit","28","279240","0.0-20.0-7.0","40443417","wem/bandit_either_3","AB1X97ASE626Q","either","4","1490","","","","","","","0","0","1","","0.2","0.5","0.5","","","0.8","0.2","","","","","","","","","","","","","","75","K","1","","true","0","80_20_practice",""
"","bandit","29","281629","0.0-20.0-8.0","40443417","wem/bandit_either_3","AB1X97ASE626Q","either","4","876","","","","","","","0","0","1","0.2","","0.5","0.5","","","","","","","0.8","0.2","","","","","","","","","","75","K","1","","true","0","80_20_practice",""
"","bandit","30","283446","0.0-20.0-9.0","40443417","wem/bandit_either_3","AB1X97ASE626Q","either","4","308","","","","","","","1","0","0","0.8","","0.5","0.5","","","","","","","0.8","0.2","","","","","","","","","","74","J","0","img/none_selected_demo.jpg","true","0","80_20_practice",""
"","bandit","31","285714","0.0-20.0-10.0","40443417","wem/bandit_either_3","AB1X97ASE626Q","either","4","759","","","","","","","0","1","0","","0.8","0.5","0.5","","","0.8","0.2","","","","","","","","","","","","","","74","J","0","img/none_selected_demo.jpg","true","0","80_20_practice",""
"","bandit","32","287770","0.0-20.0-11.0","40443417","wem/bandit_either_3","AB1X97ASE626Q","either","4","546","","","","","","","0","1","0","","0.8","0.5","0.5","","","0.8","0.2","","","","","","","","","","","","","","74","J","0","img/none_selected_demo.jpg","true","0","80_20_practice",""
"","bandit","33","290215","0.0-20.0-12.0","40443417","wem/bandit_either_3","AB1X97ASE626Q","either","4","937","","","","","","","1","0","0","0.8","","0.5","0.5","","","","","","","0.8","0.2","","","","","","","","","","74","J","0","img/none_selected_demo.jpg","true","0","80_20_practice",""
"","bandit","34","292297","0.0-20.0-13.0","40443417","wem/bandit_either_3","AB1X97ASE626Q","either","4","573","","","","","","","1","0","0","0.8","","0.5","0.5","","","","","","","0.8","0.2","","","","","","","","","","74","J","0","img/none_selected_demo.jpg","true","0","80_20_practice",""
"","bandit","35","294144","0.0-20.0-14.0","40443417","wem/bandit_either_3","AB1X97ASE626Q","either","4","335","","","","","","","0","1","0","","0.8","0.5","0.5","","","0.8","0.2","","","","","","","","","","","","","","74","J","0","img/none_selected_demo.jpg","true","0","80_20_practice",""
"","bandit","36","296064","0.0-20.0-15.0","40443417","wem/bandit_either_3","AB1X97ASE626Q","either","4","411","","","","","","","1","0","0","0.8","","0.5","0.5","","","","","","","0.8","0.2","","","","","","","","","","74","J","0","img/none_selected_demo.jpg","true","0","80_20_practice",""
"","bandit","37","297877","0.0-20.0-16.0","40443417","wem/bandit_either_3","AB1X97ASE626Q","either","4","303","","","","","","","1","0","0","0.8","","0.5","0.5","","","","","","","0.8","0.2","","","","","","","","","","74","J","0","img/none_selected_demo.jpg","true","0","80_20_practice",""
"","bandit","38","299704","0.0-20.0-17.0","40443417","wem/bandit_either_3","AB1X97ASE626Q","either","4","320","","","","","","","1","0","0","0.8","","0.5","0.5","","","","","","","0.8","0.2","","","","","","","","","","74","J","0","img/none_selected_demo.jpg","true","0","80_20_practice",""
"","bandit","39","301474","0.0-20.0-18.0","40443417","wem/bandit_either_3","AB1X97ASE626Q","either","4","261","","","","","","","0","0","1","","0.8","0.5","0.5","","","0.8","0.2","","","","","","","","","","","","","","74","J","0","img/none_selected_demo.jpg","true","0","80_20_practice",""
"","bandit","40","303239","0.0-20.0-19.0","40443417","wem/bandit_either_3","AB1X97ASE626Q","either","4","254","","","","","","","0","0","1","","0.2","0.5","0.5","","","0.8","0.2","","","","","","","","","","","","","","75","K","1","","true","0","80_20_practice",""
"","text","41","312170","0.0-21.0","40443417","wem/bandit_either_3","AB1X97ASE626Q","either","4","8927","","32","","","","","","","","","","","","","","","","","","","","","","","","","","","","","","","","","","","",""
"","bandit","42","315607","0.0-22.0-0.0","40443417","wem/bandit_either_3","AB1X97ASE626Q","either","4","1928","","","","","","","1","0","0","1","0","","","","","0","1","","","1","0","","","","","","","","","","74","J","0","img/none_selected_demo.jpg","true","0","",""
"","text","43","319614","0.0-23.0","40443417","wem/bandit_either_3","AB1X97ASE626Q","either","4","4003","","17","","","","","","","","","","","","","","","","","","","","","","","","","","","","","","","","","","","",""
"","text","44","330637","0.0-24.0","40443417","wem/bandit_either_3","AB1X97ASE626Q","either","4","11020","","32","","","","","","","","","","","","","","","","","","","","","","","","","","","","","","","","","","","",""
"","text","45","341543","0.0-25.0","40443417","wem/bandit_either_3","AB1X97ASE626Q","either","4","10902","","32","","","","","","","","","","","","","","","","","","","","","","","","","","","","","","","","","","","",""
"","text","46","350980","0.0-26.0","40443417","wem/bandit_either_3","AB1X97ASE626Q","either","4","9434","","32","","","","","","","","","","","","","","","","","","","","","","","","","","","","","","","","","","","",""
"","text","47","366196","0.0-27.0","40443417","wem/bandit_either_3","AB1X97ASE626Q","either","4","15210","","32","","","","","","","","","","","","","","","","","","","","","","","","","","","","","","","","","","","",""
"","text","48","369680","0.0-28.0","40443417","wem/bandit_either_3","AB1X97ASE626Q","either","4","3480","","32","","","","","","","","","","","","","","","","","","","","","","","","","","","","","","","","","","","",""
"","text","49","381918","0.0-29.0","40443417","wem/bandit_either_3","AB1X97ASE626Q","either","4","12234","","32","","","","","","","","","","","","","","","","","","","","","","","","","","","","","","","","","","","",""
"","text","50","392653","0.0-30.0","40443417","wem/bandit_either_3","AB1X97ASE626Q","either","4","10732","","32","","","","","","","","","","","","","","","","","","","","","","","","","","","","","","","","","","","",""
"","text","51","399973","0.0-31.0","40443417","wem/bandit_either_3","AB1X97ASE626Q","either","4","7317","","32","","","","","","","","","","","","","","","","","","","","","","","","","","","","","","","","","","","",""
"","text","52","410388","0.0-32.0","40443417","wem/bandit_either_3","AB1X97ASE626Q","either","4","10411","","32","","","","","","","","","","","","","","","","","","","","","","","","","","","","","","","","","","","",""
"","text","53","415768","0.0-33.0","40443417","wem/bandit_either_3","AB1X97ASE626Q","either","4","5376","","32","","","","","","","","","","","","","","","","","","","","","","","","","","","","","","","","","","","",""
"","bandit","54","419104","0.0-34.0-0.0","40443417","wem/bandit_either_3","AB1X97ASE626Q","either","4","1825","","","","","","","1","0","0","0.8","","0.5","0.5","0.5","0.5","","","","","0.8","0.2","0.6","0.2","","","","","","","","72","H","0","img/none_selected.jpg","true","0","full_practice",""
"","bandit","55","421167","0.0-34.0-1.0","40443417","wem/bandit_either_3","AB1X97ASE626Q","either","4","556","","","","","","","0","0","1","","0.8","0.5","0.5","0.5","0.5","0.8","0.2","0.6","0.2","","","","","","","","","","","","72","H","0","img/none_selected.jpg","true","0","full_practice",""
"","bandit","56","423029","0.0-34.0-2.0","40443417","wem/bandit_either_3","AB1X97ASE626Q","either","4","349","","","","","","","0","0","1","","0.8","0.5","0.5","0.5","0.5","0.8","0.2","0.6","0.2","","","","","","","","","","","","72","H","0","img/none_selected.jpg","true","0","full_practice",""
"","bandit","57","424904","0.0-34.0-3.0","40443417","wem/bandit_either_3","AB1X97ASE626Q","either","4","366","","","","","","","0","0","1","0.2","","0.5","0.5","0.5","0.5","","","","","0.8","0.2","0.6","0.2","","","","","","","","74","J","1","","true","0","full_practice",""
"","bandit","58","426711","0.0-34.0-4.0","40443417","wem/bandit_either_3","AB1X97ASE626Q","either","4","299","","","","","","","0","0","1","","0.2","0.5","0.5","0.5","0.5","0.8","0.2","0.6","0.2","","","","","","","","","","","","74","J","1","","true","0","full_practice",""
"","bandit","59","428604","0.0-34.0-5.0","40443417","wem/bandit_either_3","AB1X97ASE626Q","either","4","383","","","","","","","0","0","1","0.6","","0.5","0.5","0.5","0.5","","","","","0.8","0.2","0.6","0.2","","","","","","","","75","K","2","","true","0","full_practice",""
"","bandit","60","430369","0.0-34.0-6.0","40443417","wem/bandit_either_3","AB1X97ASE626Q","either","4","255","","","","","","","1","0","0","0.6","","0.5","0.5","0.5","0.5","","","","","0.8","0.2","0.6","0.2","","","","","","","","75","K","2","","true","0","full_practice",""
"","bandit","61","432267","0.0-34.0-7.0","40443417","wem/bandit_either_3","AB1X97ASE626Q","either","4","384","","","","","","","0","0","1","","0.6","0.5","0.5","0.5","0.5","0.8","0.2","0.6","0.2","","","","","","","","","","","","75","K","2","","true","0","full_practice",""
"","bandit","62","434013","0.0-34.0-8.0","40443417","wem/bandit_either_3","AB1X97ASE626Q","either","4","236","","","","","","","1","0","0","0.6","","0.5","0.5","0.5","0.5","","","","","0.8","0.2","0.6","0.2","","","","","","","","75","K","2","","true","0","full_practice",""
"","bandit","63","435942","0.0-34.0-9.0","40443417","wem/bandit_either_3","AB1X97ASE626Q","either","4","419","","","","","","","0","0","1","0.2","","0.5","0.5","0.5","0.5","","","","","0.8","0.2","0.6","0.2","","","","","","","","76","L","3","","true","0","full_practice",""
"","bandit","64","437680","0.0-34.0-10.0","40443417","wem/bandit_either_3","AB1X97ASE626Q","either","4","227","","","","","","","1","0","0","0.2","","0.5","0.5","0.5","0.5","","","","","0.8","0.2","0.6","0.2","","","","","","","","76","L","3","","true","0","full_practice",""
"","bandit","65","439597","0.0-34.0-11.0","40443417","wem/bandit_either_3","AB1X97ASE626Q","either","4","407","","","","","","","1","0","0","0.2","","0.5","0.5","0.5","0.5","","","","","0.8","0.2","0.6","0.2","","","","","","","","76","L","3","","true","0","full_practice",""
"","bandit","66","441423","0.0-34.0-12.0","40443417","wem/bandit_either_3","AB1X97ASE626Q","either","4","314","","","","","","","0","0","1","","0.2","0.5","0.5","0.5","0.5","0.8","0.2","0.6","0.2","","","","","","","","","","","","76","L","3","","true","0","full_practice",""
"","bandit","67","443248","0.0-34.0-13.0","40443417","wem/bandit_either_3","AB1X97ASE626Q","either","4","315","","","","","","","0","0","1","0.2","","0.5","0.5","0.5","0.5","","","","","0.8","0.2","0.6","0.2","","","","","","","","76","L","3","","true","0","full_practice",""
"","bandit","68","445188","0.0-34.0-14.0","40443417","wem/bandit_either_3","AB1X97ASE626Q","either","4","428","","","","","","","1","0","0","0.6","","0.5","0.5","0.5","0.5","","","","","0.8","0.2","0.6","0.2","","","","","","","","75","K","2","","true","0","full_practice",""
"","bandit","69","447001","0.0-34.0-15.0","40443417","wem/bandit_either_3","AB1X97ASE626Q","either","4","305","","","","","","","0","0","1","0.6","","0.5","0.5","0.5","0.5","","","","","0.8","0.2","0.6","0.2","","","","","","","","75","K","2","","true","0","full_practice",""
"","bandit","70","448771","0.0-34.0-16.0","40443417","wem/bandit_either_3","AB1X97ASE626Q","either","4","252","","","","","","","1","0","0","0.6","","0.5","0.5","0.5","0.5","","","","","0.8","0.2","0.6","0.2","","","","","","","","75","K","2","","true","0","full_practice",""
"","bandit","71","450592","0.0-34.0-17.0","40443417","wem/bandit_either_3","AB1X97ASE626Q","either","4","310","","","","","","","1","0","0","0.6","","0.5","0.5","0.5","0.5","","","","","0.8","0.2","0.6","0.2","","","","","","","","75","K","2","","true","0","full_practice",""
"","bandit","72","452395","0.0-34.0-18.0","40443417","wem/bandit_either_3","AB1X97ASE626Q","either","4","296","","","","","","","0","0","1","0.6","","0.5","0.5","0.5","0.5","","","","","0.8","0.2","0.6","0.2","","","","","","","","75","K","2","","true","0","full_practice",""
"","bandit","73","454266","0.0-34.0-19.0","40443417","wem/bandit_either_3","AB1X97ASE626Q","either","4","364","","","","","","","0","0","1","","0.2","0.5","0.5","0.5","0.5","0.8","0.2","0.6","0.2","","","","","","","","","","","","74","J","1","","true","0","full_practice",""
"","text","74","460161","0.0-35.0","40443417","wem/bandit_either_3","AB1X97ASE626Q","either","4","5883","","32","","","","","","","","","","","","","","","","","","","","","","","","","","","","","","","","","","","",""
"","text","75","481739","0.0-36.0","40443417","wem/bandit_either_3","AB1X97ASE626Q","either","4","20573","","32","","","","","","","","","","","","","","","","","","","","","","","","","","","","","","","","","","","",""
"","text","76","500422","0.0-37.0","40443417","wem/bandit_either_3","AB1X97ASE626Q","either","4","18677","","32","","","","","","","","","","","","","","","","","","","","","","","","","","","","","","","","","","","",""
"","text","77","510999","0.0-38.0","40443417","wem/bandit_either_3","AB1X97ASE626Q","either","4","10571","","32","","","","","","","","","","","","","","","","","","","","","","","","","","","","","","","","","","","",""
"","text","78","523384","0.0-39.0","40443417","wem/bandit_either_3","AB1X97ASE626Q","either","4","12381","","32","","","","","","","","","","","","","","","","","","","","","","","","","","","","","","","","","","","",""
"","text","79","533576","0.0-40.0","40443417","wem/bandit_either_3","AB1X97ASE626Q","either","4","10190","","32","","","","","","","","","","","","","","","","","","","","","","","","","","","","","","","","","","","",""
"","bandit","80","538948","0.0-41.0-0.0","40443417","wem/bandit_either_3","AB1X97ASE626Q","either","4","3862","","","","","","","1","0","0","0.9858900825","","0.6","0.4","0.8","0.2","","","","","0.2887693562","0.7267404998","0.9858900825","0.8209843215","","","","","","","","75","K","2","","","1","main_expt",""
"","bandit","81","541007","0.0-42.0-0.0","40443417","wem/bandit_either_3","AB1X97ASE626Q","either","4","550","","","","","","","1","0","0","0.9854924354","","0.6","0.4","0.8","0.2","","","","","0.2986217167","0.7034907646","0.9854924354","0.8179122382","","","","","","","","75","K","2","","","2","main_expt",""
"","bandit","82","543131","0.0-43.0-0.0","40443417","wem/bandit_either_3","AB1X97ASE626Q","either","4","614","","","","","","","1","0","0","0.9789624529","","0.6","0.4","0.8","0.2","","","","","0.261346942","0.6574847675","0.9789624529","0.8301291561","","","","","","","","75","K","2","","","3","main_expt",""
"","bandit","83","545120","0.0-44.0-0.0","40443417","wem/bandit_either_3","AB1X97ASE626Q","either","4","477","","","","","","","1","0","0","0.9565345184","","0.6","0.4","0.8","0.2","","","","","0.2757740293","0.5092805277","0.9565345184","0.8219157537","","","","","","","","75","K","2","","","4","main_expt",""
"","bandit","84","547052","0.0-45.0-0.0","40443417","wem/bandit_either_3","AB1X97ASE626Q","either","4","420","","","","","","","1","0","0","0.941194936","","0.6","0.4","0.8","0.2","","","","","0.3329857669","0.5952926025","0.941194936","0.7759220463","","","","","","","","75","K","2","","","5","main_expt",""
"","bandit","85","548877","0.0-46.0-0.0","40443417","wem/bandit_either_3","AB1X97ASE626Q","either","4","313","","","","","","","1","0","0","0.9305219143","","0.6","0.4","0.8","0.2","","","","","0.331878758","0.6160758637","0.9305219143","0.7495930044","","","","","","","","75","K","2","","","6","main_expt",""
"","bandit","86","550822","0.0-47.0-0.0","40443417","wem/bandit_either_3","AB1X97ASE626Q","either","4","437","","","","","","","1","0","0","0.937738562","","0.6","0.4","0.8","0.2","","","","","0.3863389794","0.6381806331","0.937738562","0.7078030286","","","","","","","","75","K","2","","","7","main_expt",""
"","bandit","87","552894","0.0-48.0-0.0","40443417","wem/bandit_either_3","AB1X97ASE626Q","either","4","561","","","","","","","1","0","0","0.8269671957","","0.6","0.4","0.8","0.2","","","","","0.4242016385","0.7047831713","0.8269671957","0.689407674","","","","","","","","75","K","2","","","8","main_expt",""
"","bandit","88","555058","0.0-49.0-0.0","40443417","wem/bandit_either_3","AB1X97ASE626Q","either","4","653","","","","","","","1","0","0","0.7696709776","","0.6","0.4","0.8","0.2","","","","","0.379169242","0.6222923336","0.7696709776","0.7848236408","","","","","","","","75","K","2","","","9","main_expt",""
"","bandit","89","557007","0.0-50.0-0.0","40443417","wem/bandit_either_3","AB1X97ASE626Q","either","4","438","","","","","","","1","0","0","0.7313552403","","0.6","0.4","0.8","0.2","","","","","0.40569916","0.5629201009","0.7313552403","0.791363481","","","","","","","","75","K","2","","","10","main_expt",""
"","bandit","90","559030","0.0-51.0-0.0","40443417","wem/bandit_either_3","AB1X97ASE626Q","either","4","509","","","","","","","0","1","0","","0.8129169819","0.6","0.4","0.8","0.2","0.4188021694","0.644159789","0.8129169819","0.7800632456","","","","","","","","","","","","75","K","2","","","11","main_expt",""
"","bandit","91","560963","0.0-52.0-0.0","40443417","wem/bandit_either_3","AB1X97ASE626Q","either","4","421","","","","","","","1","0","0","0.7611571711","","0.6","0.4","0.8","0.2","","","","","0.3689559917","0.6840372722","0.7611571711","0.7559884596","","","","","","","","75","K","2","","","12","main_expt",""
"","bandit","92","563025","0.0-53.0-0.0","40443417","wem/bandit_either_3","AB1X97ASE626Q","either","4","550","","","","","","","0","1","0","","0.7628417147","0.6","0.4","0.8","0.2","0.4584943612","0.6236151953","0.7628417147","0.7695577991","","","","","","","","","","","","75","K","2","","","13","main_expt",""
"","bandit","93","565041","0.0-54.0-0.0","40443417","wem/bandit_either_3","AB1X97ASE626Q","either","4","503","","","","","","","1","0","0","0.7436451733","","0.6","0.4","0.8","0.2","","","","","0.455083938","0.5388331182","0.7436451733","0.8509931145","","","","","","","","75","K","2","","","14","main_expt",""
"","bandit","94","566979","0.0-55.0-0.0","40443417","wem/bandit_either_3","AB1X97ASE626Q","either","4","427","","","","","","","1","0","0","0.8256008488","","0.6","0.4","0.8","0.2","","","","","0.5360112786","0.4802769188","0.8256008488","0.7745856811","","","","","","","","75","K","2","","","15","main_expt",""
"","bandit","95","568896","0.0-56.0-0.0","40443417","wem/bandit_either_3","AB1X97ASE626Q","either","4","406","","","","","","","1","0","0","0.7683027423","","0.6","0.4","0.8","0.2","","","","","0.4791571541","0.4688000192","0.7683027423","0.7576521113","","","","","","","","75","K","2","","","16","main_expt",""
"","bandit","96","570959","0.0-57.0-0.0","40443417","wem/bandit_either_3","AB1X97ASE626Q","either","4","554","","","","","","","0","0","1","","0.7857675768","0.6","0.4","0.8","0.2","0.5263630166","0.6000602573","0.7857675768","0.8099558365","","","","","","","","","","","","75","K","2","","","17","main_expt",""
"","bandit","97","572937","0.0-58.0-0.0","40443417","wem/bandit_either_3","AB1X97ASE626Q","either","4","465","","","","","","","1","0","0","0.7303419725","","0.6","0.4","0.8","0.2","","","","","0.543945959","0.6046592687","0.7303419725","0.7535280451","","","","","","","","75","K","2","","","18","main_expt",""
"","bandit","98","574907","0.0-59.0-0.0","40443417","wem/bandit_either_3","AB1X97ASE626Q","either","4","458","","","","","","","1","0","0","0.7243255268","","0.6","0.4","0.8","0.2","","","","","0.4579801682","0.6177236116","0.7243255268","0.7206444799","","","","","","","","75","K","2","","","19","main_expt",""
"","bandit","99","576850","0.0-60.0-0.0","40443417","wem/bandit_either_3","AB1X97ASE626Q","either","4","424","","","","","","","1","0","0","0.7691283854","","0.6","0.4","0.8","0.2","","","","","0.5439896582","0.5484637992","0.7691283854","0.6388551968","","","","","","","","75","K","2","","","20","main_expt",""
"","bandit","100","578822","0.0-61.0-0.0","40443417","wem/bandit_either_3","AB1X97ASE626Q","either","4","460","","","","","","","1","0","0","0.7068464658","","0.6","0.4","0.8","0.2","","","","","0.5796019833","0.6646151354","0.7068464658","0.4956822649","","","","","","","","75","K","2","","","21","main_expt",""
"","bandit","101","580918","0.0-62.0-0.0","40443417","wem/bandit_either_3","AB1X97ASE626Q","either","4","584","","","","","","","0","0","1","0.7407239748","","0.6","0.4","0.8","0.2","","","","","0.5885929095","0.7223938077","0.7407239748","0.4316307404","","","","","","","","75","K","2","","","22","main_expt",""
"","bandit","102","582860","0.0-63.0-0.0","40443417","wem/bandit_either_3","AB1X97ASE626Q","either","4","432","","","","","","","0","1","0","","0.7300920021","0.6","0.4","0.8","0.2","0.4899642796","0.7548690184","0.7300920021","0.4158022912","","","","","","","","","","","","75","K","2","","","23","main_expt",""
"","bandit","103","584820","0.0-64.0-0.0","40443417","wem/bandit_either_3","AB1X97ASE626Q","either","4","450","","","","","","","1","0","0","0.7074307303","","0.6","0.4","0.8","0.2","","","","","0.4984159311","0.7794954679","0.7074307303","0.4099928258","","","","","","","","75","K","2","","","24","main_expt",""
"","bandit","104","586677","0.0-65.0-0.0","40443417","wem/bandit_either_3","AB1X97ASE626Q","either","4","344","","","","","","","0","0","1","","0.6228099684","0.6","0.4","0.8","0.2","0.5885503773","0.8029664172","0.6228099684","0.4303724308","","","","","","","","","","","","75","K","2","","","25","main_expt",""
"","bandit","105","588529","0.0-66.0-0.0","40443417","wem/bandit_either_3","AB1X97ASE626Q","either","4","341","","","","","","","1","0","0","0.5588879168","","0.6","0.4","0.8","0.2","","","","","0.6978100054","0.6980766755","0.5588879168","0.3291624114","","","","","","","","75","K","2","","","26","main_expt",""
"","bandit","106","590438","0.0-67.0-0.0","40443417","wem/bandit_either_3","AB1X97ASE626Q","either","4","395","","","","","","","1","0","0","0.5033257713","","0.6","0.4","0.8","0.2","","","","","0.6442468271","0.7021498626","0.5033257713","0.3795789415","","","","","","","","75","K","2","","","27","main_expt",""
"","bandit","107","592316","0.0-68.0-0.0","40443417","wem/bandit_either_3","AB1X97ASE626Q","either","4","371","","","","","","","0","0","1","0.4915102133","","0.6","0.4","0.8","0.2","","","","","0.7399213538","0.7802436781","0.4915102133","0.3208573938","","","","","","","","75","K","2","","","28","main_expt",""
"","bandit","108","594136","0.0-69.0-0.0","40443417","wem/bandit_either_3","AB1X97ASE626Q","either","4","311","","","","","","","1","0","0","0.4291187576","","0.6","0.4","0.8","0.2","","","","","0.7520253205","0.6907923131","0.4291187576","0.3352919619","","","","","","","","75","K","2","","","29","main_expt",""
"","bandit","109","595976","0.0-70.0-0.0","40443417","wem/bandit_either_3","AB1X97ASE626Q","either","4","328","","","","","","","0","0","1","0.5379907803","","0.6","0.4","0.8","0.2","","","","","0.7528469829","0.6771306444","0.5379907803","0.3452717309","","","","","","","","75","K","2","","","30","main_expt",""
"","bandit","110","597926","0.0-71.0-0.0","40443417","wem/bandit_either_3","AB1X97ASE626Q","either","4","438","","","","","","","1","0","0","0.646046857","","0.6","0.4","0.8","0.2","","","","","0.7571908429","0.7130915948","0.646046857","0.2967094522","","","","","","","","75","K","2","","","31","main_expt",""
"","bandit","111","600049","0.0-72.0-0.0","40443417","wem/bandit_either_3","AB1X97ASE626Q","either","4","611","","","","","","","1","0","0","0.5608885347","","0.6","0.4","0.8","0.2","","","","","0.7530934884","0.6849190202","0.5608885347","0.255781972","","","","","","","","75","K","2","","","32","main_expt",""
"","bandit","112","601954","0.0-73.0-0.0","40443417","wem/bandit_either_3","AB1X97ASE626Q","either","4","393","","","","","","","1","0","0","0.5952322697","","0.6","0.4","0.8","0.2","","","","","0.7163673585","0.7392612035","0.5952322697","0.2703771925","","","","","","","","75","K","2","","","33","main_expt",""
"","bandit","113","603861","0.0-74.0-0.0","40443417","wem/bandit_either_3","AB1X97ASE626Q","either","4","397","","","","","","","1","0","0","0.6206609301","","0.6","0.4","0.8","0.2","","","","","0.6817248107","0.7026009082","0.6206609301","0.3572673824","","","","","","","","75","K","2","","","34","main_expt",""
"","bandit","114","605635","0.0-75.0-0.0","40443417","wem/bandit_either_3","AB1X97ASE626Q","either","4","266","","","","","","","0","0","1","0.6223058769","","0.6","0.4","0.8","0.2","","","","","0.6903641832","0.632003728","0.6223058769","0.3237575066","","","","","","","","75","K","2","","","35","main_expt",""
"","bandit","115","607524","0.0-76.0-0.0","40443417","wem/bandit_either_3","AB1X97ASE626Q","either","4","375","","","","","","","0","0","1","","0.6953747248","0.6","0.4","0.8","0.2","0.6953747248","0.7266912659","0.7304722347","0.3724209237","","","","","","","","","","","","72","H","0","img/none_selected.jpg","","36","main_expt",""
"","bandit","116","609389","0.0-77.0-0.0","40443417","wem/bandit_either_3","AB1X97ASE626Q","either","4","354","","","","","","","0","1","0","","0.5512211225","0.6","0.4","0.8","0.2","0.7552078918","0.5512211225","0.6789706255","0.3848591071","","","","","","","","","","","","74","J","1","","","37","main_expt",""
"","bandit","117","611415","0.0-78.0-0.0","40443417","wem/bandit_either_3","AB1X97ASE626Q","either","4","517","","","","","","","0","0","1","0.5888446875","","0.6","0.4","0.8","0.2","","","","","0.7095976639","0.5888446875","0.6758320082","0.4026628424","","","","","","","","74","J","1","","","38","main_expt",""
"","bandit","118","613273","0.0-79.0-0.0","40443417","wem/bandit_either_3","AB1X97ASE626Q","either","4","336","","","","","","","1","0","0","0.753286291","","0.6","0.4","0.8","0.2","","","","","0.7813817897","0.7349010221","0.753286291","0.460229008","","","","","","","","75","K","2","","","39","main_expt",""
"","bandit","119","615249","0.0-80.0-0.0","40443417","wem/bandit_either_3","AB1X97ASE626Q","either","4","464","","","","","","","1","0","0","0.7527041006","","0.6","0.4","0.8","0.2","","","","","0.7604460558","0.6715391024","0.7527041006","0.3392787789","","","","","","","","75","K","2","","","40","main_expt",""
"","bandit","120","617110","0.0-81.0-0.0","40443417","wem/bandit_either_3","AB1X97ASE626Q","either","4","352","","","","","","","1","0","0","0.7900808451","","0.6","0.4","0.8","0.2","","","","","0.7588214983","0.688235262","0.7900808451","0.2983701942","","","","","","","","75","K","2","","","41","main_expt",""
"","bandit","121","619014","0.0-82.0-0.0","40443417","wem/bandit_either_3","AB1X97ASE626Q","either","4","390","","","","","","","0","1","0","","0.7261157662","0.6","0.4","0.8","0.2","0.8204813903","0.750516412","0.7261157662","0.2390858253","","","","","","","","","","","","75","K","2","","","42","main_expt",""
"","bandit","122","620838","0.0-83.0-0.0","40443417","wem/bandit_either_3","AB1X97ASE626Q","either","4","315","","","","","","","1","0","0","0.772887471","","0.6","0.4","0.8","0.2","","","","","0.8310219988","0.775378891","0.772887471","0.1877526289","","","","","","","","75","K","2","","","43","main_expt",""
"","bandit","123","622822","0.0-84.0-0.0","40443417","wem/bandit_either_3","AB1X97ASE626Q","either","4","468","","","","","","","0","1","0","","0.7359848823","0.6","0.4","0.8","0.2","0.8165903167","0.5983035632","0.7359848823","0.2713877418","","","","","","","","","","","","75","K","2","","","44","main_expt",""
"","bandit","124","624725","0.0-85.0-0.0","40443417","wem/bandit_either_3","AB1X97ASE626Q","either","4","392","","","","","","","0","0","1","0.6223954065","","0.6","0.4","0.8","0.2","","","","","0.6765015189","0.6453890447","0.6223954065","0.2600408605","","","","","","","","75","K","2","","","45","main_expt",""
"","bandit","125","626649","0.0-86.0-0.0","40443417","wem/bandit_either_3","AB1X97ASE626Q","either","4","411","","","","","","","1","0","0","0.5963379238","","0.6","0.4","0.8","0.2","","","","","0.6613510417","0.4979639723","0.5963379238","0.2435580982","","","","","","","","75","K","2","","","46","main_expt",""
"","bandit","126","628479","0.0-87.0-0.0","40443417","wem/bandit_either_3","AB1X97ASE626Q","either","4","317","","","","","","","0","0","1","","0.6161308884","0.6","0.4","0.8","0.2","0.7373034573","0.4475739324","0.6161308884","0.3258971046","","","","","","","","","","","","75","K","2","","","47","main_expt",""
"","bandit","127","630316","0.0-88.0-0.0","40443417","wem/bandit_either_3","AB1X97ASE626Q","either","4","323","","","","","","","1","0","0","0.6354722558","","0.6","0.4","0.8","0.2","","","","","0.6580913366","0.570942939","0.6354722558","0.2934977076","","","","","","","","75","K","2","","","48","main_expt",""
"","bandit","128","632019","0.0-89.0-0.0","40443417","wem/bandit_either_3","AB1X97ASE626Q","either","4","192","","","","","","","0","0","1","0.5941747261","","0.6","0.4","0.8","0.2","","","","","0.6518545324","0.5943858444","0.5941747261","0.3381222087","","","","","","","","75","K","2","","","49","main_expt",""
"","bandit","129","634138","0.0-90.0-0.0","40443417","wem/bandit_either_3","AB1X97ASE626Q","either","4","606","","","","","","","1","0","0","0.5510631732","","0.6","0.4","0.8","0.2","","","","","0.6362385309","0.72156704","0.5510631732","0.4149653651","","","","","","","","75","K","2","","","50","main_expt",""
"","bandit","130","635950","0.0-91.0-0.0","40443417","wem/bandit_either_3","AB1X97ASE626Q","either","4","300","","","","","","","0","0","1","","0.315936401","0.6","0.4","0.8","0.2","0.6673370403","0.6453884322","0.5580995271","0.315936401","","","","","","","","","","","","76","L","3","","","51","main_expt",""
"","bandit","131","637552","0.0-92.0-0.0","40443417","wem/bandit_either_3","AB1X97ASE626Q","either","4","89","","","","","","","1","0","0","0.4492126091","","0.6","0.4","0.8","0.2","","","","","0.6614759556","0.635653338","0.4492126091","0.34776451","","","","","","","","75","K","2","","","52","main_expt",""
"","bandit","132","639525","0.0-93.0-0.0","40443417","wem/bandit_either_3","AB1X97ASE626Q","either","4","462","","","","","","","1","0","0","0.4600129001","","0.6","0.4","0.8","0.2","","","","","0.5099009019","0.5700640027","0.4600129001","0.2946288454","","","","","","","","75","K","2","","","53","main_expt",""
"","bandit","133","641530","0.0-94.0-0.0","40443417","wem/bandit_either_3","AB1X97ASE626Q","either","4","496","","","","","","","0","0","1","0.4005354829","","0.6","0.4","0.8","0.2","","","","","0.5323874036","0.4535518587","0.4005354829","0.3757560715","","","","","","","","75","K","2","","","54","main_expt",""
"","bandit","134","643640","0.0-95.0-0.0","40443417","wem/bandit_either_3","AB1X97ASE626Q","either","4","597","","","","","","","0","0","1","0.3305694417","","0.6","0.4","0.8","0.2","","","","","0.5410243768","0.4271895083","0.3305694417","0.3258455482","","","","","","","","75","K","2","","","55","main_expt",""
"","bandit","135","645641","0.0-96.0-0.0","40443417","wem/bandit_either_3","AB1X97ASE626Q","either","4","488","","","","","","","0","0","1","0.3506641683","","0.6","0.4","0.8","0.2","","","","","0.5594159285","0.3506641683","0.3443449075","0.4350401219","","","","","","","","74","J","1","","","56","main_expt",""
"","bandit","136","647982","0.0-97.0-0.0","40443417","wem/bandit_either_3","AB1X97ASE626Q","either","4","829","","","","","","","0","0","1","0.5057935102","","0.6","0.4","0.8","0.2","","","","","0.5057935102","0.3266461122","0.3719720486","0.3707313189","","","","","","","","72","H","0","img/none_selected.jpg","","57","main_expt",""
"","bandit","137","649817","0.0-98.0-0.0","40443417","wem/bandit_either_3","AB1X97ASE626Q","either","4","327","","","","","","","1","0","0","0.4921421838","","0.6","0.4","0.8","0.2","","","","","0.4921421838","0.3024401834","0.2230753252","0.5588799977","","","","","","","","72","H","0","img/none_selected.jpg","","58","main_expt",""
"","bandit","138","651713","0.0-99.0-0.0","40443417","wem/bandit_either_3","AB1X97ASE626Q","either","4","382","","","","","","","0","0","1","0.4740341295","","0.6","0.4","0.8","0.2","","","","","0.4740341295","0.4306619987","0.2255195526","0.6863198467","","","","","","","","72","H","0","img/none_selected.jpg","","59","main_expt",""
"","bandit","139","653592","0.0-100.0-0.0","40443417","wem/bandit_either_3","AB1X97ASE626Q","either","4","370","","","","","","","0","1","0","","0.6998437478","0.6","0.4","0.8","0.2","0.4853159436","0.4710521126","0.2150487889","0.6998437478","","","","","","","","","","","","76","L","3","","","60","main_expt",""
"","bandit","140","655456","0.0-101.0-0.0","40443417","wem/bandit_either_3","AB1X97ASE626Q","either","4","351","","","","","","","0","1","0","","0.7027468204","0.6","0.4","0.8","0.2","0.4843563089","0.4797168847","0.2670703017","0.7027468204","","","","","","","","","","","","76","L","3","","","61","main_expt",""
"","bandit","141","657315","0.0-102.0-0.0","40443417","wem/bandit_either_3","AB1X97ASE626Q","either","4","346","","","","","","","0","0","1","","0.7461433662","0.6","0.4","0.8","0.2","0.4970562682","0.441351191","0.1622034337","0.7461433662","","","","","","","","","","","","76","L","3","","","62","main_expt",""
"","bandit","142","659193","0.0-103.0-0.0","40443417","wem/bandit_either_3","AB1X97ASE626Q","either","4","365","","","","","","","1","0","0","0.7956877632","","0.6","0.4","0.8","0.2","","","","","0.4870743105","0.6405696824","0.1872430185","0.7956877632","","","","","","","","76","L","3","","","63","main_expt",""
"","bandit","143","661147","0.0-104.0-0.0","40443417","wem/bandit_either_3","AB1X97ASE626Q","either","4","439","","","","","","","1","0","0","0.7533911137","","0.6","0.4","0.8","0.2","","","","","0.5297884171","0.5093225209","0.1921602407","0.7533911137","","","","","","","","76","L","3","","","64","main_expt",""
"","bandit","144","663004","0.0-105.0-0.0","40443417","wem/bandit_either_3","AB1X97ASE626Q","either","4","345","","","","","","","0","0","1","","0.8407665504","0.6","0.4","0.8","0.2","0.5510281753","0.5190422554","0.1747679693","0.8407665504","","","","","","","","","","","","76","L","3","","","65","main_expt",""
"","bandit","145","664866","0.0-106.0-0.0","40443417","wem/bandit_either_3","AB1X97ASE626Q","either","4","351","","","","","","","0","0","1","0.149475979","","0.6","0.4","0.8","0.2","","","","","0.6548378986","0.4367989657","0.149475979","0.8392190168","","","","","","","","75","K","2","","","66","main_expt",""
"","bandit","146","666576","0.0-107.0-0.0","40443417","wem/bandit_either_3","AB1X97ASE626Q","either","4","197","","","","","","","0","0","1","0.4515976155","","0.6","0.4","0.8","0.2","","","","","0.7873643744","0.4515976155","0.1340316754","0.7998105719","","","","","","","","74","J","1","","","67","main_expt",""
"","bandit","147","668364","0.0-108.0-0.0","40443417","wem/bandit_either_3","AB1X97ASE626Q","either","4","274","","","","","","","0","0","1","","0.4605235732","0.6","0.4","0.8","0.2","0.8374830125","0.4605235732","0.1635100664","0.8055175736","","","","","","","","","","","","74","J","1","","","68","main_expt",""
"","bandit","148","670195","0.0-109.0-0.0","40443417","wem/bandit_either_3","AB1X97ASE626Q","either","4","316","","","","","","","0","1","0","","0.9157616325","0.6","0.4","0.8","0.2","0.7948054761","0.3799115548","0.1227365859","0.9157616325","","","","","","","","","","","","76","L","3","","","69","main_expt",""
"","bandit","149","672103","0.0-110.0-0.0","40443417","wem/bandit_either_3","AB1X97ASE626Q","either","4","395","","","","","","","0","1","0","","0.9575411193","0.6","0.4","0.8","0.2","0.8257183208","0.4215965018","0.1248437045","0.9575411193","","","","","","","","","","","","76","L","3","","","70","main_expt",""
"","bandit","150","673845","0.0-111.0-0.0","40443417","wem/bandit_either_3","AB1X97ASE626Q","either","4","227","","","","","","","0","1","0","","0.9604429572","0.6","0.4","0.8","0.2","0.7378076352","0.4069040491","0.1153860856","0.9604429572","","","","","","","","","","","","76","L","3","","","71","main_expt",""
"","bandit","151","675776","0.0-112.0-0.0","40443417","wem/bandit_either_3","AB1X97ASE626Q","either","4","416","","","","","","","0","1","0","","0.9598545795","0.6","0.4","0.8","0.2","0.7402058239","0.4396577013","0.1355011504","0.9598545795","","","","","","","","","","","","76","L","3","","","72","main_expt",""
"","bandit","152","677810","0.0-113.0-0.0","40443417","wem/bandit_either_3","AB1X97ASE626Q","either","4","522","","","","","","","1","0","0","0.944667289","","0.6","0.4","0.8","0.2","","","","","0.6976791507","0.6562772762","0.05996807606","0.944667289","","","","","","","","76","L","3","","","73","main_expt",""
"","bandit","153","679972","0.0-114.0-0.0","40443417","wem/bandit_either_3","AB1X97ASE626Q","either","4","653","","","","","","","0","1","0","","0.9226304804","0.6","0.4","0.8","0.2","0.7918365236","0.6973429816","0.05405538329","0.9226304804","","","","","","","","","","","","76","L","3","","","74","main_expt",""
"","bandit","154","682047","0.0-115.0-0.0","40443417","wem/bandit_either_3","AB1X97ASE626Q","either","4","563","","","","","","","0","1","0","","0.9398646798","0.6","0.4","0.8","0.2","0.7822783488","0.7736122178","0.02989929625","0.9398646798","","","","","","","","","","","","76","L","3","","","75","main_expt",""
"","bandit","155","684333","0.0-116.0-0.0","40443417","wem/bandit_either_3","AB1X97ASE626Q","either","4","773","","","","","","","0","1","0","","0.9344412274","0.6","0.4","0.8","0.2","0.7290889389","0.8130420724","0.0563551135","0.9344412274","","","","","","","","","","","","76","L","3","","","76","main_expt",""
"","bandit","156","686350","0.0-117.0-0.0","40443417","wem/bandit_either_3","AB1X97ASE626Q","either","4","502","","","","","","","0","0","1","0.7903383215","","0.6","0.4","0.8","0.2","","","","","0.7903383215","0.8182773084","0.0510075381","0.9512527415","","","","","","","","72","H","0","img/none_selected.jpg","","77","main_expt",""
"","bandit","157","688227","0.0-118.0-0.0","40443417","wem/bandit_either_3","AB1X97ASE626Q","either","4","363","","","","","","","0","1","0","","0.945324638","0.6","0.4","0.8","0.2","0.8093770606","0.910984946","0.07280641377","0.945324638","","","","","","","","","","","","76","L","3","","","78","main_expt",""
"","bandit","158","690148","0.0-119.0-0.0","40443417","wem/bandit_either_3","AB1X97ASE626Q","either","4","406","","","","","","","0","0","1","","0.06591604593","0.6","0.4","0.8","0.2","0.7310189459","0.9303795674","0.06591604593","0.9313693401","","","","","","","","","","","","75","K","2","","","79","main_expt",""
"","bandit","159","692007","0.0-120.0-0.0","40443417","wem/bandit_either_3","AB1X97ASE626Q","either","4","343","","","","","","","0","1","0","","0.9272018461","0.6","0.4","0.8","0.2","0.7915113188","0.9581515868","0.02790121052","0.9272018461","","","","","","","","","","","","76","L","3","","","80","main_expt",""
"","bandit","160","694011","0.0-121.0-0.0","40443417","wem/bandit_either_3","AB1X97ASE626Q","either","4","490","","","","","","","0","1","0","","0.9340165544","0.6","0.4","0.8","0.2","0.8463201033","0.9107397581","0.03997429631","0.9340165544","","","","","","","","","","","","76","L","3","","","81","main_expt",""
"","bandit","161","695903","0.0-122.0-0.0","40443417","wem/bandit_either_3","AB1X97ASE626Q","either","4","376","","","","","","","1","0","0","0.9778602254","","0.6","0.4","0.8","0.2","","","","","0.9043915002","0.9531247327","0.03692483048","0.9778602254","","","","","","","","76","L","3","","","82","main_expt",""
"","bandit","162","697888","0.0-123.0-0.0","40443417","wem/bandit_either_3","AB1X97ASE626Q","either","4","471","","","","","","","1","0","0","0.9593015187","","0.6","0.4","0.8","0.2","","","","","0.922294541","0.91574064","0.04167024954","0.9593015187","","","","","","","","76","L","3","","","83","main_expt",""
"","bandit","163","699744","0.0-124.0-0.0","40443417","wem/bandit_either_3","AB1X97ASE626Q","either","4","340","","","","","","","1","0","0","0.9398758864","","0.6","0.4","0.8","0.2","","","","","0.9079954767","0.9287460716","0.03449326924","0.9398758864","","","","","","","","76","L","3","","","84","main_expt",""
"","bandit","164","701925","0.0-125.0-0.0","40443417","wem/bandit_either_3","AB1X97ASE626Q","either","4","667","","","","","","","0","1","0","","0.9256746213","0.6","0.4","0.8","0.2","0.92293493","0.9817994773","0.07382848834","0.9256746213","","","","","","","","","","","","76","L","3","","","85","main_expt",""
"","bandit","165","703916","0.0-126.0-0.0","40443417","wem/bandit_either_3","AB1X97ASE626Q","either","4","476","","","","","","","1","0","0","0.8910640916","","0.6","0.4","0.8","0.2","","","","","0.8831043051","0.9651028603","0.08839198485","0.8910640916","","","","","","","","76","L","3","","","86","main_expt",""
"","bandit","166","706036","0.0-127.0-0.0","40443417","wem/bandit_either_3","AB1X97ASE626Q","either","4","611","","","","","","","0","1","0","","0.8729480744","0.6","0.4","0.8","0.2","0.876749115","0.9364705545","0.08767612821","0.8729480744","","","","","","","","","","","","76","L","3","","","87","main_expt",""
"","bandit","167","707751","0.0-128.0-0.0","40443417","wem/bandit_either_3","AB1X97ASE626Q","either","4","201","","","","","","","0","1","0","","0.8780151739","0.6","0.4","0.8","0.2","0.9189432589","0.9235767634","0.1606359608","0.8780151739","","","","","","","","","","","","76","L","3","","","88","main_expt",""
"","bandit","168","710317","0.0-129.0-0.0","40443417","wem/bandit_either_3","AB1X97ASE626Q","either","4","1050","","","","","","","0","1","0","","0.8856980863","0.6","0.4","0.8","0.2","0.8770582065","0.9375107972","0.2051996915","0.8856980863","","","","","","","","","","","","76","L","3","","","89","main_expt",""
"","bandit","169","712423","0.0-130.0-0.0","40443417","wem/bandit_either_3","AB1X97ASE626Q","either","4","591","","","","","","","0","0","1","","0.1757431166","0.6","0.4","0.8","0.2","0.9303780437","0.9201099193","0.1757431166","0.8828292745","","","","","","","","","","","","75","K","2","","","90","main_expt",""
"","bandit","170","714312","0.0-131.0-0.0","40443417","wem/bandit_either_3","AB1X97ASE626Q","either","4","379","","","","","","","0","1","0","","0.9016480115","0.6","0.4","0.8","0.2","0.8870296602","0.9416722714","0.3470073597","0.9016480115","","","","","","","","","","","","76","L","3","","","91","main_expt",""
"","bandit","171","716500","0.0-132.0-0.0","40443417","wem/bandit_either_3","AB1X97ASE626Q","either","4","674","","","","","","","0","1","0","","0.943817784","0.6","0.4","0.8","0.2","0.8466670433","0.943817784","0.4969118024","0.9077272713","","","","","","","","","","","","74","J","1","","","92","main_expt",""
"","bandit","172","718478","0.0-133.0-0.0","40443417","wem/bandit_either_3","AB1X97ASE626Q","either","4","470","","","","","","","0","1","0","","0.9078517942","0.6","0.4","0.8","0.2","0.850017275","0.9078517942","0.5773598144","0.875936713","","","","","","","","","","","","74","J","1","","","93","main_expt",""
"","bandit","173","720478","0.0-134.0-0.0","40443417","wem/bandit_either_3","AB1X97ASE626Q","either","4","490","","","","","","","1","0","0","0.8983200186","","0.6","0.4","0.8","0.2","","","","","0.6893652978","0.8983200186","0.5513550223","0.8089346838","","","","","","","","74","J","1","","","94","main_expt",""
"","bandit","174","722441","0.0-135.0-0.0","40443417","wem/bandit_either_3","AB1X97ASE626Q","either","4","447","","","","","","","0","1","0","","0.8744309931","0.6","0.4","0.8","0.2","0.6025630118","0.8744309931","0.5461825447","0.7472177953","","","","","","","","","","","","74","J","1","","","95","main_expt",""
"","bandit","175","724286","0.0-136.0-0.0","40443417","wem/bandit_either_3","AB1X97ASE626Q","either","4","333","","","","","","","1","0","0","0.8894212924","","0.6","0.4","0.8","0.2","","","","","0.5565182624","0.8894212924","0.5564841108","0.631257407","","","","","","","","74","J","1","","","96","main_expt",""
"","bandit","176","726074","0.0-137.0-0.0","40443417","wem/bandit_either_3","AB1X97ASE626Q","either","4","275","","","","","","","0","1","0","","0.7474787878","0.6","0.4","0.8","0.2","0.4820287155","0.891162681","0.6513715187","0.7474787878","","","","","","","","","","","","76","L","3","","","97","main_expt",""
"","bandit","177","727924","0.0-138.0-0.0","40443417","wem/bandit_either_3","AB1X97ASE626Q","either","4","339","","","","","","","0","0","1","","0.8495400438","0.6","0.4","0.8","0.2","0.4599621431","0.8495400438","0.7004254565","0.7753317291","","","","","","","","","","","","74","J","1","","","98","main_expt",""
"","bandit","178","729636","0.0-139.0-0.0","40443417","wem/bandit_either_3","AB1X97ASE626Q","either","4","198","","","","","","","0","1","0","","0.7088399779","0.6","0.4","0.8","0.2","0.4109144258","0.8671572546","0.6473310623","0.7088399779","","","","","","","","","","","","76","L","3","","","99","main_expt",""
"","bandit","179","732004","0.0-140.0-0.0","40443417","wem/bandit_either_3","AB1X97ASE626Q","either","4","855","","","","","","","0","0","1","0.3466085394","","0.6","0.4","0.8","0.2","","","","","0.3466085394","0.8312294914","0.6160818326","0.7328055719","","","","","","","","72","H","0","img/none_selected.jpg","","100","main_expt",""
"","bandit","180","733675","0.0-141.0-0.0","40443417","wem/bandit_either_3","AB1X97ASE626Q","either","4","157","","","","","","","0","1","0","","0.8183789849","0.6","0.4","0.8","0.2","0.3712289037","0.8135240708","0.6963675268","0.8183789849","","","","","","","","","","","","76","L","3","","","101","main_expt",""
"","bandit","181","735659","0.0-142.0-0.0","40443417","wem/bandit_either_3","AB1X97ASE626Q","either","4","467","","","","","","","0","1","0","","0.7854635714","0.6","0.4","0.8","0.2","0.3626324234","0.8556055773","0.6339579424","0.7854635714","","","","","","","","","","","","76","L","3","","","102","main_expt",""
"","bandit","182","737726","0.0-143.0-0.0","40443417","wem/bandit_either_3","AB1X97ASE626Q","either","4","551","","","","","","","0","1","0","","0.8481411385","0.6","0.4","0.8","0.2","0.2748825764","0.7632006143","0.6908430899","0.8481411385","","","","","","","","","","","","76","L","3","","","103","main_expt",""
"","bandit","183","739586","0.0-144.0-0.0","40443417","wem/bandit_either_3","AB1X97ASE626Q","either","4","344","","","","","","","1","0","0","0.8273213265","","0.6","0.4","0.8","0.2","","","","","0.2381725209","0.8273213265","0.6866318891","0.8129446485","","","","","","","","74","J","1","","","104","main_expt",""
"","bandit","184","741414","0.0-145.0-0.0","40443417","wem/bandit_either_3","AB1X97ASE626Q","either","4","314","","","","","","","0","0","1","0.7930501456","","0.6","0.4","0.8","0.2","","","","","0.1939551764","0.7930501456","0.6749941214","0.7898688037","","","","","","","","74","J","1","","","105","main_expt",""
"","bandit","185","743240","0.0-146.0-0.0","40443417","wem/bandit_either_3","AB1X97ASE626Q","either","4","311","","","","","","","0","0","1","","0.7810744832","0.6","0.4","0.8","0.2","0.1884153881","0.7186603115","0.7300347885","0.7810744832","","","","","","","","","","","","76","L","3","","","106","main_expt",""
"","bandit","186","745108","0.0-147.0-0.0","40443417","wem/bandit_either_3","AB1X97ASE626Q","either","4","351","","","","","","","0","1","0","","0.7155595947","0.6","0.4","0.8","0.2","0.1011451677","0.7155595947","0.8133516847","0.7837395221","","","","","","","","","","","","74","J","1","","","107","main_expt",""
"","bandit","187","746980","0.0-148.0-0.0","40443417","wem/bandit_either_3","AB1X97ASE626Q","either","4","352","","","","","","","0","0","1","","0.7654707556","0.6","0.4","0.8","0.2","0.1500242655","0.7654707556","0.8009432675","0.787971135","","","","","","","","","","","","74","J","1","","","108","main_expt",""
"","bandit","188","748763","0.0-149.0-0.0","40443417","wem/bandit_either_3","AB1X97ASE626Q","either","4","271","","","","","","","0","1","0","","0.6866525704","0.6","0.4","0.8","0.2","0.1285750889","0.6288612937","0.7379370491","0.6866525704","","","","","","","","","","","","76","L","3","","","109","main_expt",""
"","bandit","189","750620","0.0-150.0-0.0","40443417","wem/bandit_either_3","AB1X97ASE626Q","either","4","341","","","","","","","0","0","1","","0.5824748378","0.6","0.4","0.8","0.2","0.06279291231","0.6309058105","0.7379992527","0.5824748378","","","","","","","","","","","","76","L","3","","","110","main_expt",""
"","bandit","190","752453","0.0-151.0-0.0","40443417","wem/bandit_either_3","AB1X97ASE626Q","either","4","317","","","","","","","1","0","0","0.7464430213","","0.6","0.4","0.8","0.2","","","","","0.07144278273","0.6218965746","0.7464430213","0.659702805","","","","","","","","75","K","2","","","111","main_expt",""
"","bandit","191","754359","0.0-152.0-0.0","40443417","wem/bandit_either_3","AB1X97ASE626Q","either","4","395","","","","","","","0","1","0","","0.7736339118","0.6","0.4","0.8","0.2","0.06013221683","0.6741482942","0.7736339118","0.5111205641","","","","","","","","","","","","75","K","2","","","112","main_expt",""
"","bandit","192","756272","0.0-153.0-0.0","40443417","wem/bandit_either_3","AB1X97ASE626Q","either","4","397","","","","","","","1","0","0","0.8480767854","","0.6","0.4","0.8","0.2","","","","","0.1442356489","0.7405202534","0.8480767854","0.4852392648","","","","","","","","75","K","2","","","113","main_expt",""
"","bandit","193","758161","0.0-154.0-0.0","40443417","wem/bandit_either_3","AB1X97ASE626Q","either","4","372","","","","","","","1","0","0","0.8016933152","","0.6","0.4","0.8","0.2","","","","","0.1733870882","0.743157628","0.8016933152","0.3531287621","","","","","","","","75","K","2","","","114","main_expt",""
"","bandit","194","760070","0.0-155.0-0.0","40443417","wem/bandit_either_3","AB1X97ASE626Q","either","4","395","","","","","","","1","0","0","0.8200260584","","0.6","0.4","0.8","0.2","","","","","0.2198725907","0.7732583829","0.8200260584","0.4090792957","","","","","","","","75","K","2","","","115","main_expt",""
"","bandit","195","762032","0.0-156.0-0.0","40443417","wem/bandit_either_3","AB1X97ASE626Q","either","4","447","","","","","","","1","0","0","0.7761954976","","0.6","0.4","0.8","0.2","","","","","0.2116870815","0.6224016225","0.7761954976","0.4927933112","","","","","","","","75","K","2","","","116","main_expt",""
"","bandit","196","763861","0.0-157.0-0.0","40443417","wem/bandit_either_3","AB1X97ASE626Q","either","4","311","","","","","","","0","1","0","","0.7722233998","0.6","0.4","0.8","0.2","0.1293815938","0.6784399158","0.7722233998","0.4255499736","","","","","","","","","","","","75","K","2","","","117","main_expt",""
"","bandit","197","765685","0.0-158.0-0.0","40443417","wem/bandit_either_3","AB1X97ASE626Q","either","4","308","","","","","","","1","0","0","0.8049831996","","0.6","0.4","0.8","0.2","","","","","0.1442073762","0.7499631032","0.8049831996","0.4073726931","","","","","","","","75","K","2","","","118","main_expt",""
"","bandit","198","767529","0.0-159.0-0.0","40443417","wem/bandit_either_3","AB1X97ASE626Q","either","4","334","","","","","","","1","0","0","0.8469405197","","0.6","0.4","0.8","0.2","","","","","0.2098334931","0.6258432538","0.8469405197","0.5447318884","","","","","","","","75","K","2","","","119","main_expt",""
"","bandit","199","769543","0.0-160.0-0.0","40443417","wem/bandit_either_3","AB1X97ASE626Q","either","4","498","","","","","","","1","0","0","0.783925966","","0.6","0.4","0.8","0.2","","","","","0.243218138","0.5602994123","0.783925966","0.5336717705","","","","","","","","75","K","2","","","120","main_expt",""
"","bandit","200","771880","0.0-161.0-0.0","40443417","wem/bandit_either_3","AB1X97ASE626Q","either","4","819","","","","","","","1","0","0","0.8031476983","","0.6","0.4","0.8","0.2","","","","","0.1595445902","0.5850644561","0.8031476983","0.5621279662","","","","","","","","75","K","2","","","121","main_expt",""
"","bandit","201","773957","0.0-162.0-0.0","40443417","wem/bandit_either_3","AB1X97ASE626Q","either","4","560","","","","","","","1","0","0","0.776878313","","0.6","0.4","0.8","0.2","","","","","0.1939767007","0.6205732407","0.776878313","0.5664238538","","","","","","","","75","K","2","","","122","main_expt",""
"","bandit","202","776749","0.0-163.0-0.0","40443417","wem/bandit_either_3","AB1X97ASE626Q","either","4","1278","","","","","","","1","0","0","0.7695343448","","0.6","0.4","0.8","0.2","","","","","0.2265728871","0.7954206102","0.7695343448","0.6501842916","","","","","","","","75","K","2","","","123","main_expt",""
"","bandit","203","778457","0.0-164.0-0.0","40443417","wem/bandit_either_3","AB1X97ASE626Q","either","4","198","","","","","","","0","0","1","0.6154230174","","0.6","0.4","0.8","0.2","","","","","0.2027469411","0.881213352","0.6154230174","0.5413703051","","","","","","","","75","K","2","","","124","main_expt",""
"","bandit","204","780751","0.0-165.0-0.0","40443417","wem/bandit_either_3","AB1X97ASE626Q","either","4","784","","","","","","","1","0","0","0.4710930195","","0.6","0.4","0.8","0.2","","","","","0.1506135949","0.8598562332","0.4710930195","0.5191338098","","","","","","","","75","K","2","","","125","main_expt",""
"","bandit","205","782712","0.0-166.0-0.0","40443417","wem/bandit_either_3","AB1X97ASE626Q","either","4","446","","","","","","","0","0","1","0.5258886302","","0.6","0.4","0.8","0.2","","","","","0.1875851228","0.867144728","0.5258886302","0.6232591378","","","","","","","","75","K","2","","","126","main_expt",""
"","bandit","206","784595","0.0-167.0-0.0","40443417","wem/bandit_either_3","AB1X97ASE626Q","either","4","367","","","","","","","0","1","0","","0.601333273","0.6","0.4","0.8","0.2","0.2106184636","0.8677917819","0.3996486754","0.601333273","","","","","","","","","","","","76","L","3","","","127","main_expt",""
"","bandit","207","786414","0.0-168.0-0.0","40443417","wem/bandit_either_3","AB1X97ASE626Q","either","4","302","","","","","","","0","0","1","0.3557241191","","0.6","0.4","0.8","0.2","","","","","0.1276240755","0.8194058857","0.3557241191","0.6312294041","","","","","","","","75","K","2","","","128","main_expt",""
"","bandit","208","788781","0.0-169.0-0.0","40443417","wem/bandit_either_3","AB1X97ASE626Q","either","4","851","","","","","","","0","1","0","","0.6655034733","0.6","0.4","0.8","0.2","0.2163335705","0.813940224","0.2432070908","0.6655034733","","","","","","","","","","","","76","L","3","","","129","main_expt",""
"","bandit","209","790887","0.0-170.0-0.0","40443417","wem/bandit_either_3","AB1X97ASE626Q","either","4","590","","","","","","","0","1","0","","0.6882303755","0.6","0.4","0.8","0.2","0.2448863899","0.7296764962","0.1722843937","0.6882303755","","","","","","","","","","","","76","L","3","","","130","main_expt",""
"","bandit","210","792896","0.0-171.0-0.0","40443417","wem/bandit_either_3","AB1X97ASE626Q","either","4","494","","","","","","","0","1","0","","0.6772884453","0.6","0.4","0.8","0.2","0.3447645787","0.614258276","0.1336027919","0.6772884453","","","","","","","","","","","","76","L","3","","","131","main_expt",""
"","bandit","211","794832","0.0-172.0-0.0","40443417","wem/bandit_either_3","AB1X97ASE626Q","either","4","418","","","","","","","1","0","0","0.3622527956","","0.6","0.4","0.8","0.2","","","","","0.3622527956","0.5349540706","0.1351629047","0.6773684555","","","","","","","","72","H","0","img/none_selected.jpg","","132","main_expt",""
"","bandit","212","796773","0.0-173.0-0.0","40443417","wem/bandit_either_3","AB1X97ASE626Q","either","4","425","","","","","","","0","1","0","","0.2961885878","0.6","0.4","0.8","0.2","0.2961885878","0.5449090787","0.2495029","0.7437755928","","","","","","","","","","","","72","H","0","img/none_selected.jpg","","133","main_expt",""
"","bandit","213","798769","0.0-174.0-0.0","40443417","wem/bandit_either_3","AB1X97ASE626Q","either","4","475","","","","","","","0","0","1","","0.2932126781","0.6","0.4","0.8","0.2","0.2932126781","0.5037108559","0.2118512663","0.7423545867","","","","","","","","","","","","72","H","0","img/none_selected.jpg","","134","main_expt",""
"","bandit","214","800799","0.0-175.0-0.0","40443417","wem/bandit_either_3","AB1X97ASE626Q","either","4","514","","","","","","","0","0","1","0.2836439675","","0.6","0.4","0.8","0.2","","","","","0.2836439675","0.5131336393","0.2474577379","0.7462440124","","","","","","","","72","H","0","img/none_selected.jpg","","135","main_expt",""
"","bandit","215","802775","0.0-176.0-0.0","40443417","wem/bandit_either_3","AB1X97ASE626Q","either","4","460","","","","","","","0","1","0","","0.5847952324","0.6","0.4","0.8","0.2","0.1985775905","0.5847952324","0.1496333288","0.6372772774","","","","","","","","","","","","74","J","1","","","136","main_expt",""
"","bandit","216","804771","0.0-177.0-0.0","40443417","wem/bandit_either_3","AB1X97ASE626Q","either","4","480","","","","","","","0","1","0","","0.5191620222","0.6","0.4","0.8","0.2","0.2655975","0.5191620222","0.164835495","0.6587707878","","","","","","","","","","","","74","J","1","","","137","main_expt",""
"","bandit","217","806953","0.0-178.0-0.0","40443417","wem/bandit_either_3","AB1X97ASE626Q","either","4","664","","","","","","","1","0","0","0.3830682141","","0.6","0.4","0.8","0.2","","","","","0.4066298912","0.3830682141","0.1629561883","0.6545472314","","","","","","","","74","J","1","","","138","main_expt",""
"","bandit","218","808928","0.0-179.0-0.0","40443417","wem/bandit_either_3","AB1X97ASE626Q","either","4","459","","","","","","","0","0","1","","0.3036015776","0.6","0.4","0.8","0.2","0.4537429859","0.3036015776","0.1162724323","0.5773899651","","","","","","","","","","","","74","J","1","","","139","main_expt",""
"","bandit","219","810900","0.0-180.0-0.0","40443417","wem/bandit_either_3","AB1X97ASE626Q","either","4","456","","","","","","","0","0","1","","0.2541790234","0.6","0.4","0.8","0.2","0.410026376","0.2541790234","0.1262651596","0.5786924042","","","","","","","","","","","","74","J","1","","","140","main_expt",""
"","bandit","220","812708","0.0-181.0-0.0","40443417","wem/bandit_either_3","AB1X97ASE626Q","either","4","298","","","","","","","0","0","1","","0.4589731036","0.6","0.4","0.8","0.2","0.3978668086","0.1899663758","0.1258799353","0.4589731036","","","","","","","","","","","","76","L","3","","","141","main_expt",""
"","bandit","221","814720","0.0-182.0-0.0","40443417","wem/bandit_either_3","AB1X97ASE626Q","either","4","494","","","","","","","0","0","1","","0.3667804619","0.6","0.4","0.8","0.2","0.4096738096","0.214868544","0.1220135665","0.3667804619","","","","","","","","","","","","76","L","3","","","142","main_expt",""
"","bandit","222","816552","0.0-183.0-0.0","40443417","wem/bandit_either_3","AB1X97ASE626Q","either","4","316","","","","","","","1","0","0","0.1600355681","","0.6","0.4","0.8","0.2","","","","","0.5422751762","0.1549416237","0.1600355681","0.3563831379","","","","","","","","75","K","2","","","143","main_expt",""
"","bandit","223","818432","0.0-184.0-0.0","40443417","wem/bandit_either_3","AB1X97ASE626Q","either","4","363","","","","","","","0","0","1","0.103653669","","0.6","0.4","0.8","0.2","","","","","0.6045197677","0.2142728447","0.103653669","0.3675361202","","","","","","","","75","K","2","","","144","main_expt",""
"","bandit","224","820265","0.0-185.0-0.0","40443417","wem/bandit_either_3","AB1X97ASE626Q","either","4","318","","","","","","","0","0","1","","0.1417267119","0.6","0.4","0.8","0.2","0.6140727406","0.2166472609","0.1417267119","0.3266856562","","","","","","","","","","","","75","K","2","","","145","main_expt",""
"","bandit","225","822680","0.0-186.0-0.0","40443417","wem/bandit_either_3","AB1X97ASE626Q","either","4","897","","","","","","","0","1","0","","0.5553742365","0.6","0.4","0.8","0.2","0.5553742365","0.2446047688","0.1508894681","0.2815179259","","","","","","","","","","","","72","H","0","img/none_selected.jpg","","146","main_expt",""
"","bandit","226","824622","0.0-187.0-0.0","40443417","wem/bandit_either_3","AB1X97ASE626Q","either","4","426","","","","","","","0","0","1","","0.52787167","0.6","0.4","0.8","0.2","0.52787167","0.3011136322","0.1207147728","0.3560244833","","","","","","","","","","","","72","H","0","img/none_selected.jpg","","147","main_expt",""
"","bandit","227","826626","0.0-188.0-0.0","40443417","wem/bandit_either_3","AB1X97ASE626Q","either","4","486","","","","","","","0","0","1","0.5053851794","","0.6","0.4","0.8","0.2","","","","","0.5053851794","0.2519777133","0.1362234148","0.3585854149","","","","","","","","72","H","0","img/none_selected.jpg","","148","main_expt",""
"","bandit","228","828673","0.0-189.0-0.0","40443417","wem/bandit_either_3","AB1X97ASE626Q","either","4","537","","","","","","","0","0","1","0.5431256022","","0.6","0.4","0.8","0.2","","","","","0.5431256022","0.2996109941","0.1244444975","0.284478414","","","","","","","","72","H","0","img/none_selected.jpg","","149","main_expt",""
"","bandit","229","830872","0.0-190.0-0.0","40443417","wem/bandit_either_3","AB1X97ASE626Q","either","4","682","","","","","","","0","1","0","","0.2963563975","0.6","0.4","0.8","0.2","0.422574086","0.2963563975","0.1109305632","0.2617238314","","","","","","","","","","","","74","J","1","","","150","main_expt",""
"","bandit","230","832918","0.0-191.0-0.0","40443417","wem/bandit_either_3","AB1X97ASE626Q","either","4","529","","","","","","","0","0","1","0.4327396174","","0.6","0.4","0.8","0.2","","","","","0.3907227364","0.4327396174","0.11412436","0.2709462114","","","","","","","","74","J","1","","","151","main_expt",""
"","bandit","231","834914","0.0-192.0-0.0","40443417","wem/bandit_either_3","AB1X97ASE626Q","either","4","478","","","","","","","0","0","1","0.1469045903","","0.6","0.4","0.8","0.2","","","","","0.5580814469","0.4303068123","0.1469045903","0.2993716907","","","","","","","","75","K","2","","","152","main_expt",""
"","bandit","232","836788","0.0-193.0-0.0","40443417","wem/bandit_either_3","AB1X97ASE626Q","either","4","359","","","","","","","0","1","0","","0.2733354782","0.6","0.4","0.8","0.2","0.51223936","0.455197397","0.1633028487","0.2733354782","","","","","","","","","","","","76","L","3","","","153","main_expt",""
"","bandit","233","838801","0.0-194.0-0.0","40443417","wem/bandit_either_3","AB1X97ASE626Q","either","4","492","","","","","","","1","0","0","0.3264007987","","0.6","0.4","0.8","0.2","","","","","0.4811601507","0.6184454144","0.1340882311","0.3264007987","","","","","","","","76","L","3","","","154","main_expt",""
"","bandit","234","840845","0.0-195.0-0.0","40443417","wem/bandit_either_3","AB1X97ASE626Q","either","4","528","","","","","","","0","0","1","","0.204433578","0.6","0.4","0.8","0.2","0.575425417","0.5833601464","0.1041462846","0.204433578","","","","","","","","","","","","76","L","3","","","155","main_expt",""
"","bandit","235","842867","0.0-196.0-0.0","40443417","wem/bandit_either_3","AB1X97ASE626Q","either","4","506","","","","","","","0","0","1","","0.07451572188","0.6","0.4","0.8","0.2","0.6109018817","0.646897734","0.08564190031","0.07451572188","","","","","","","","","","","","76","L","3","","","156","main_expt",""
"","bandit","236","844976","0.0-197.0-0.0","40443417","wem/bandit_either_3","AB1X97ASE626Q","either","4","598","","","","","","","0","0","1","0.06977116317","","0.6","0.4","0.8","0.2","","","","","0.6812883852","0.6912470103","0.06977116317","0.1251686374","","","","","","","","75","K","2","","","157","main_expt",""
"","bandit","237","846934","0.0-198.0-0.0","40443417","wem/bandit_either_3","AB1X97ASE626Q","either","4","442","","","","","","","0","0","1","0.7865398282","","0.6","0.4","0.8","0.2","","","","","0.73777041","0.7865398282","0.1504927074","0.1292052795","","","","","","","","74","J","1","","","158","main_expt",""
"","bandit","238","848872","0.0-199.0-0.0","40443417","wem/bandit_either_3","AB1X97ASE626Q","either","4","421","","","","","","","1","0","0","0.8388849062","","0.6","0.4","0.8","0.2","","","","","0.8388849062","0.7220910122","0.1429264201","0.1200050714","","","","","","","","72","H","0","img/none_selected.jpg","","159","main_expt",""
"","bandit","239","850719","0.0-200.0-0.0","40443417","wem/bandit_either_3","AB1X97ASE626Q","either","4","330","","","","","","","0","1","0","","0.8006667519","0.6","0.4","0.8","0.2","0.8006667519","0.710563805","0.1832893837","0.1156014834","","","","","","","","","","","","72","H","0","img/none_selected.jpg","","160","main_expt",""
"","bandit","240","852818","0.0-201.0-0.0","40443417","wem/bandit_either_3","AB1X97ASE626Q","either","4","584","","","","","","","0","0","1","0.7406956812","","0.6","0.4","0.8","0.2","","","","","0.7406956812","0.6205281072","0.2337310763","0.1425751263","","","","","","","","72","H","0","img/none_selected.jpg","","161","main_expt",""
"","bandit","241","855154","0.0-202.0-0.0","40443417","wem/bandit_either_3","AB1X97ASE626Q","either","4","825","","","","","","","1","0","0","0.775259894","","0.6","0.4","0.8","0.2","","","","","0.775259894","0.5246840185","0.2326198937","0.2108345254","","","","","","","","72","H","0","img/none_selected.jpg","","162","main_expt",""
"","bandit","242","857496","0.0-203.0-0.0","40443417","wem/bandit_either_3","AB1X97ASE626Q","either","4","826","","","","","","","0","1","0","","0.6539471222","0.6","0.4","0.8","0.2","0.6539471222","0.569340372","0.1584290897","0.1664621688","","","","","","","","","","","","72","H","0","img/none_selected.jpg","","163","main_expt",""
"","bandit","243","859722","0.0-204.0-0.0","40443417","wem/bandit_either_3","AB1X97ASE626Q","either","4","715","","","","","","","1","0","0","0.7914062868","","0.6","0.4","0.8","0.2","","","","","0.7914062868","0.5688323765","0.1417900361","0.1741279052","","","","","","","","72","H","0","img/none_selected.jpg","","164","main_expt",""
"","bandit","244","862026","0.0-205.0-0.0","40443417","wem/bandit_either_3","AB1X97ASE626Q","either","4","788","","","","","","","1","0","0","0.8415061218","","0.6","0.4","0.8","0.2","","","","","0.8415061218","0.5195648955","0.08849486786","0.1891196979","","","","","","","","72","H","0","img/none_selected.jpg","","165","main_expt",""
"","bandit","245","864561","0.0-206.0-0.0","40443417","wem/bandit_either_3","AB1X97ASE626Q","either","4","1019","","","","","","","0","1","0","","0.9084068317","0.6","0.4","0.8","0.2","0.9084068317","0.536500984","0.1010416226","0.3016440744","","","","","","","","","","","","72","H","0","img/none_selected.jpg","","166","main_expt",""
"","bandit","246","867599","0.0-207.0-0.0","40443417","wem/bandit_either_3","AB1X97ASE626Q","either","4","1519","","","","","","","0","1","0","","0.8857506799","0.6","0.4","0.8","0.2","0.8857506799","0.4243381616","0.1506776516","0.3427468607","","","","","","","","","","","","72","H","0","img/none_selected.jpg","","167","main_expt",""
"","bandit","247","870937","0.0-208.0-0.0","40443417","wem/bandit_either_3","AB1X97ASE626Q","either","4","1821","","","","","","","0","1","0","","0.9247721234","0.6","0.4","0.8","0.2","0.9247721234","0.4877327119","0.2532220847","0.3759001064","","","","","","","","","","","","72","H","0","img/none_selected.jpg","","168","main_expt",""
"","bandit","248","873340","0.0-209.0-0.0","40443417","wem/bandit_either_3","AB1X97ASE626Q","either","4","886","","","","","","","1","0","0","0.8870410368","","0.6","0.4","0.8","0.2","","","","","0.8870410368","0.5096331713","0.2223654062","0.3824832387","","","","","","","","72","H","0","img/none_selected.jpg","","169","main_expt",""
"","bandit","249","875771","0.0-210.0-0.0","40443417","wem/bandit_either_3","AB1X97ASE626Q","either","4","912","","","","","","","0","1","0","","0.8782412079","0.6","0.4","0.8","0.2","0.8782412079","0.6111595203","0.2161840498","0.3257043992","","","","","","","","","","","","72","H","0","img/none_selected.jpg","","170","main_expt",""
"","bandit","250","878522","0.0-211.0-0.0","40443417","wem/bandit_either_3","AB1X97ASE626Q","either","4","1239","","","","","","","0","1","0","","0.7978982074","0.6","0.4","0.8","0.2","0.7978982074","0.5888321224","0.1996440145","0.2943589708","","","","","","","","","","","","72","H","0","img/none_selected.jpg","","171","main_expt",""
"","bandit","251","882463","0.0-212.0-0.0","40443417","wem/bandit_either_3","AB1X97ASE626Q","either","4","2424","","","","","","","1","0","0","0.7896885826","","0.6","0.4","0.8","0.2","","","","","0.7896885826","0.6295404033","0.275753823","0.4298537702","","","","","","","","72","H","0","img/none_selected.jpg","","172","main_expt",""
"","bandit","252","884580","0.0-213.0-0.0","40443417","wem/bandit_either_3","AB1X97ASE626Q","either","4","605","","","","","","","1","0","0","0.7771385218","","0.6","0.4","0.8","0.2","","","","","0.7771385218","0.5976712981","0.2850946521","0.4196262671","","","","","","","","72","H","0","img/none_selected.jpg","","173","main_expt",""
"","bandit","253","887441","0.0-214.0-0.0","40443417","wem/bandit_either_3","AB1X97ASE626Q","either","4","1347","","","","","","","1","0","0","0.8412209493","","0.6","0.4","0.8","0.2","","","","","0.8412209493","0.5936331925","0.2836726952","0.4056978145","","","","","","","","72","H","0","img/none_selected.jpg","","174","main_expt",""
"","bandit","254","890273","0.0-215.0-0.0","40443417","wem/bandit_either_3","AB1X97ASE626Q","either","4","1313","","","","","","","0","1","0","","0.8433491626","0.6","0.4","0.8","0.2","0.8433491626","0.544145328","0.27413619","0.3323311207","","","","","","","","","","","","72","H","0","img/none_selected.jpg","","175","main_expt",""
"","bandit","255","892557","0.0-216.0-0.0","40443417","wem/bandit_either_3","AB1X97ASE626Q","either","4","765","","","","","","","0","1","0","","0.778586436","0.6","0.4","0.8","0.2","0.778586436","0.3584947592","0.2369491767","0.3087900888","","","","","","","","","","","","72","H","0","img/none_selected.jpg","","176","main_expt",""
"","bandit","256","894768","0.0-217.0-0.0","40443417","wem/bandit_either_3","AB1X97ASE626Q","either","4","688","","","","","","","0","0","1","0.7488794252","","0.6","0.4","0.8","0.2","","","","","0.7488794252","0.436171931","0.3440943848","0.3898613412","","","","","","","","72","H","0","img/none_selected.jpg","","177","main_expt",""
"","bandit","257","897041","0.0-218.0-0.0","40443417","wem/bandit_either_3","AB1X97ASE626Q","either","4","752","","","","","","","1","0","0","0.7738581751","","0.6","0.4","0.8","0.2","","","","","0.7738581751","0.5193680035","0.3529135521","0.5236321052","","","","","","","","72","H","0","img/none_selected.jpg","","178","main_expt",""
"","bandit","258","898920","0.0-219.0-0.0","40443417","wem/bandit_either_3","AB1X97ASE626Q","either","4","359","","","","","","","0","1","0","","0.7527820287","0.6","0.4","0.8","0.2","0.7527820287","0.3957798075","0.3787243664","0.2955080601","","","","","","","","","","","","72","H","0","img/none_selected.jpg","","179","main_expt",""
"","bandit","259","900998","0.0-220.0-0.0","40443417","wem/bandit_either_3","AB1X97ASE626Q","either","4","559","","","","","","","1","0","0","0.8022950929","","0.6","0.4","0.8","0.2","","","","","0.8022950929","0.4249873197","0.3092677326","0.3174151272","","","","","","","","72","H","0","img/none_selected.jpg","","180","main_expt",""
"","bandit","260","903223","0.0-221.0-0.0","40443417","wem/bandit_either_3","AB1X97ASE626Q","either","4","706","","","","","","","1","0","0","0.7505347306","","0.6","0.4","0.8","0.2","","","","","0.7505347306","0.4260342439","0.3701559146","0.3560995969","","","","","","","","72","H","0","img/none_selected.jpg","","181","main_expt",""
"","bandit","261","906366","0.0-222.0-0.0","40443417","wem/bandit_either_3","AB1X97ASE626Q","either","4","1621","","","","","","","1","0","0","0.603349844","","0.6","0.4","0.8","0.2","","","","","0.603349844","0.4305619521","0.2672844749","0.4649908644","","","","","","","","72","H","0","img/none_selected.jpg","","182","main_expt",""
"","bandit","262","909550","0.0-223.0-0.0","40443417","wem/bandit_either_3","AB1X97ASE626Q","either","4","1665","","","","","","","1","0","0","0.6464544124","","0.6","0.4","0.8","0.2","","","","","0.6464544124","0.4638513582","0.3046315644","0.4588174784","","","","","","","","72","H","0","img/none_selected.jpg","","183","main_expt",""
"","bandit","263","912170","0.0-224.0-0.0","40443417","wem/bandit_either_3","AB1X97ASE626Q","either","4","1111","","","","","","","0","0","1","","0.6606024443","0.6","0.4","0.8","0.2","0.6606024443","0.5084330557","0.3507685813","0.509799977","","","","","","","","","","","","72","H","0","img/none_selected.jpg","","184","main_expt",""
"","bandit","264","914927","0.0-225.0-0.0","40443417","wem/bandit_either_3","AB1X97ASE626Q","either","4","1247","","","","","","","1","0","0","0.7034535028","","0.6","0.4","0.8","0.2","","","","","0.7034535028","0.5853778332","0.3250269766","0.4557178443","","","","","","","","72","H","0","img/none_selected.jpg","","185","main_expt",""
"","bandit","265","918668","0.0-226.0-0.0","40443417","wem/bandit_either_3","AB1X97ASE626Q","either","4","2218","","","","","","","0","1","0","","0.7672503758","0.6","0.4","0.8","0.2","0.7672503758","0.5009207633","0.3636669497","0.3250172706","","","","","","","","","","","","72","H","0","img/none_selected.jpg","","186","main_expt",""
"","bandit","266","922004","0.0-227.0-0.0","40443417","wem/bandit_either_3","AB1X97ASE626Q","either","4","1814","","","","","","","0","1","0","","0.7505037824","0.6","0.4","0.8","0.2","0.7505037824","0.4376492532","0.4095027401","0.2982192525","","","","","","","","","","","","72","H","0","img/none_selected.jpg","","187","main_expt",""
"","bandit","267","924801","0.0-228.0-0.0","40443417","wem/bandit_either_3","AB1X97ASE626Q","either","4","1278","","","","","","","1","0","0","0.7458261356","","0.6","0.4","0.8","0.2","","","","","0.7458261356","0.317868257","0.3356624093","0.2647713636","","","","","","","","72","H","0","img/none_selected.jpg","","188","main_expt",""
"","bandit","268","927842","0.0-229.0-0.0","40443417","wem/bandit_either_3","AB1X97ASE626Q","either","4","1520","","","","","","","1","0","0","0.747965221","","0.6","0.4","0.8","0.2","","","","","0.747965221","0.3700786551","0.3717951419","0.2798663258","","","","","","","","72","H","0","img/none_selected.jpg","","189","main_expt",""
"","bandit","269","932202","0.0-230.0-0.0","40443417","wem/bandit_either_3","AB1X97ASE626Q","either","4","2840","","","","","","","0","0","1","","0.7459095382","0.6","0.4","0.8","0.2","0.7459095382","0.3423477616","0.3266606931","0.2146362806","","","","","","","","","","","","72","H","0","img/none_selected.jpg","","190","main_expt",""
"","bandit","270","934211","0.0-231.0-0.0","40443417","wem/bandit_either_3","AB1X97ASE626Q","either","4","489","","","","","","","0","0","1","0.6299055833","","0.6","0.4","0.8","0.2","","","","","0.6299055833","0.2488230813","0.4206899072","0.3132783624","","","","","","","","72","H","0","img/none_selected.jpg","","191","main_expt",""
"","bandit","271","936436","0.0-232.0-0.0","40443417","wem/bandit_either_3","AB1X97ASE626Q","either","4","704","","","","","","","0","0","1","0.2193108308","","0.6","0.4","0.8","0.2","","","","","0.688533977","0.2193108308","0.4982817076","0.2488083766","","","","","","","","74","J","1","","","192","main_expt",""
"","bandit","272","938167","0.0-233.0-0.0","40443417","wem/bandit_either_3","AB1X97ASE626Q","either","4","212","","","","","","","1","0","0","0.4820211017","","0.6","0.4","0.8","0.2","","","","","0.7176496952","0.4057276106","0.4820211017","0.225611763","","","","","","","","75","K","2","","","193","main_expt",""
"","bandit","273","940031","0.0-234.0-0.0","40443417","wem/bandit_either_3","AB1X97ASE626Q","either","4","343","","","","","","","0","0","1","0.5373891537","","0.6","0.4","0.8","0.2","","","","","0.746212457","0.3826056333","0.5373891537","0.2159393038","","","","","","","","75","K","2","","","194","main_expt",""
"","bandit","274","941925","0.0-235.0-0.0","40443417","wem/bandit_either_3","AB1X97ASE626Q","either","4","374","","","","","","","0","0","1","","0.3112228701","0.6","0.4","0.8","0.2","0.6800784202","0.4922935908","0.3890275207","0.3112228701","","","","","","","","","","","","76","L","3","","","195","main_expt",""
"","bandit","275","943789","0.0-236.0-0.0","40443417","wem/bandit_either_3","AB1X97ASE626Q","either","4","344","","","","","","","0","0","1","","0.3249051539","0.6","0.4","0.8","0.2","0.5986295964","0.5475793877","0.4329462643","0.3249051539","","","","","","","","","","","","76","L","3","","","196","main_expt",""
"","bandit","276","946083","0.0-237.0-0.0","40443417","wem/bandit_either_3","AB1X97ASE626Q","either","4","774","","","","","","","0","0","1","0.416825946","","0.6","0.4","0.8","0.2","","","","","0.5323622673","0.6069385875","0.416825946","0.2985018541","","","","","","","","75","K","2","","","197","main_expt",""
"","bandit","277","949037","0.0-238.0-0.0","40443417","wem/bandit_either_3","AB1X97ASE626Q","either","4","1438","","","","","","","1","0","0","0.5348043844","","0.6","0.4","0.8","0.2","","","","","0.5348043844","0.4946816555","0.4063336836","0.3109366799","","","","","","","","72","H","0","img/none_selected.jpg","","198","main_expt",""
"","bandit","278","951155","0.0-239.0-0.0","40443417","wem/bandit_either_3","AB1X97ASE626Q","either","4","606","","","","","","","0","1","0","","0.4534403339","0.6","0.4","0.8","0.2","0.4534403339","0.479635203","0.361264989","0.3143364341","","","","","","","","","","","","72","H","0","img/none_selected.jpg","","199","main_expt",""
"","bandit","279","953373","0.0-240.0-0.0","40443417","wem/bandit_either_3","AB1X97ASE626Q","either","4","697","","","","","","","0","1","0","","0.4185876589","0.6","0.4","0.8","0.2","0.4185876589","0.4969837249","0.4700223374","0.3176919365","","","","","","","","","","","","72","H","0","img/none_selected.jpg","","200","main_expt",""
"","bandit","280","956214","0.0-241.0-0.0","40443417","wem/bandit_either_3","AB1X97ASE626Q","either","4","1320","","","","","","","0","0","1","0.3812211227","","0.6","0.4","0.8","0.2","","","","","0.3812211227","0.4548125401","0.4751543938","0.2848283651","","","","","","","","72","H","0","img/none_selected.jpg","","201","main_expt",""
"","bandit","281","958269","0.0-242.0-0.0","40443417","wem/bandit_either_3","AB1X97ASE626Q","either","4","533","","","","","","","1","0","0","0.4414728031","","0.6","0.4","0.8","0.2","","","","","0.4414728031","0.5767771981","0.4044794657","0.2439676923","","","","","","","","72","H","0","img/none_selected.jpg","","202","main_expt",""
"","bandit","282","960565","0.0-243.0-0.0","40443417","wem/bandit_either_3","AB1X97ASE626Q","either","4","777","","","","","","","0","0","1","0.3698030662","","0.6","0.4","0.8","0.2","","","","","0.3698030662","0.6118171827","0.3321077444","0.2582922662","","","","","","","","72","H","0","img/none_selected.jpg","","203","main_expt",""
"","bandit","283","962555","0.0-244.0-0.0","40443417","wem/bandit_either_3","AB1X97ASE626Q","either","4","470","","","","","","","0","0","1","0.4899087748","","0.6","0.4","0.8","0.2","","","","","0.4899087748","0.5373194108","0.3697340749","0.3799793739","","","","","","","","72","H","0","img/none_selected.jpg","","204","main_expt",""
"","bandit","284","964961","0.0-245.0-0.0","40443417","wem/bandit_either_3","AB1X97ASE626Q","either","4","884","","","","","","","0","0","1","","0.5501461309","0.6","0.4","0.8","0.2","0.4310108402","0.5501461309","0.3998168993","0.4441528059","","","","","","","","","","","","74","J","1","","","205","main_expt",""
"","bandit","285","966948","0.0-246.0-0.0","40443417","wem/bandit_either_3","AB1X97ASE626Q","either","4","466","","","","","","","0","1","0","","0.3912115078","0.6","0.4","0.8","0.2","0.3912115078","0.5094027242","0.4929909192","0.4468516792","","","","","","","","","","","","72","H","0","img/none_selected.jpg","","206","main_expt",""
"","bandit","286","969217","0.0-247.0-0.0","40443417","wem/bandit_either_3","AB1X97ASE626Q","either","4","748","","","","","","","0","1","0","","0.3195818707","0.6","0.4","0.8","0.2","0.3195818707","0.6449696869","0.4960693894","0.399366085","","","","","","","","","","","","72","H","0","img/none_selected.jpg","","207","main_expt",""
"","bandit","287","971951","0.0-248.0-0.0","40443417","wem/bandit_either_3","AB1X97ASE626Q","either","4","1212","","","","","","","1","0","0","0.2378171997","","0.6","0.4","0.8","0.2","","","","","0.2378171997","0.549996868","0.3912862986","0.4206610772","","","","","","","","72","H","0","img/none_selected.jpg","","208","main_expt",""
"","bandit","288","974527","0.0-249.0-0.0","40443417","wem/bandit_either_3","AB1X97ASE626Q","either","4","1057","","","","","","","0","0","1","0.2339104391","","0.6","0.4","0.8","0.2","","","","","0.2339104391","0.5258833792","0.4218938049","0.5145499259","","","","","","","","72","H","0","img/none_selected.jpg","","209","main_expt",""
"","bandit","289","977334","0.0-250.0-0.0","40443417","wem/bandit_either_3","AB1X97ASE626Q","either","4","1286","","","","","","","0","1","0","","0.5453980868","0.6","0.4","0.8","0.2","0.2506558306","0.5453980868","0.6003160005","0.3497539355","","","","","","","","","","","","74","J","1","","","210","main_expt",""
"","bandit","290","979584","0.0-251.0-0.0","40443417","wem/bandit_either_3","AB1X97ASE626Q","either","4","738","","","","","","","0","0","1","","0.5370950561","0.6","0.4","0.8","0.2","0.3466578502","0.5370950561","0.5481562991","0.3335821388","","","","","","","","","","","","74","J","1","","","211","main_expt",""
"","bandit","291","981663","0.0-252.0-0.0","40443417","wem/bandit_either_3","AB1X97ASE626Q","either","4","559","","","","","","","0","1","0","","0.6210595125","0.6","0.4","0.8","0.2","0.4162959965","0.5774996514","0.6210595125","0.2778022227","","","","","","","","","","","","75","K","2","","","212","main_expt",""
"","bandit","292","984679","0.0-253.0-0.0","40443417","wem/bandit_either_3","AB1X97ASE626Q","either","4","1499","","","","","","","1","0","0","0.7732161257","","0.6","0.4","0.8","0.2","","","","","0.545788555","0.4826056363","0.7732161257","0.2949104287","","","","","","","","75","K","2","","","213","main_expt",""
"","bandit","293","986922","0.0-254.0-0.0","40443417","wem/bandit_either_3","AB1X97ASE626Q","either","4","719","","","","","","","0","0","1","0.7689771773","","0.6","0.4","0.8","0.2","","","","","0.6077749924","0.4913277851","0.7689771773","0.2443343027","","","","","","","","75","K","2","","","214","main_expt",""
"","bandit","294","989068","0.0-255.0-0.0","40443417","wem/bandit_either_3","AB1X97ASE626Q","either","4","627","","","","","","","0","0","1","0.6841712945","","0.6","0.4","0.8","0.2","","","","","0.4883429648","0.5415006571","0.6841712945","0.2232989174","","","","","","","","75","K","2","","","215","main_expt",""
"","bandit","295","991452","0.0-256.0-0.0","40443417","wem/bandit_either_3","AB1X97ASE626Q","either","4","871","","","","","","","0","0","1","","0.3309854328","0.6","0.4","0.8","0.2","0.3309854328","0.5198015267","0.7019934296","0.2918619336","","","","","","","","","","","","72","H","0","img/none_selected.jpg","","216","main_expt",""
"","bandit","296","993479","0.0-257.0-0.0","40443417","wem/bandit_either_3","AB1X97ASE626Q","either","4","505","","","","","","","0","0","1","0.545097872","","0.6","0.4","0.8","0.2","","","","","0.3310528633","0.545097872","0.7537099884","0.3571058798","","","","","","","","74","J","1","","","217","main_expt",""
"","bandit","297","995408","0.0-258.0-0.0","40443417","wem/bandit_either_3","AB1X97ASE626Q","either","4","407","","","","","","","0","0","1","","0.3738303097","0.6","0.4","0.8","0.2","0.4147218791","0.5776025334","0.8428980993","0.3738303097","","","","","","","","","","","","76","L","3","","","218","main_expt",""
"","bandit","298","997375","0.0-259.0-0.0","40443417","wem/bandit_either_3","AB1X97ASE626Q","either","4","445","","","","","","","0","0","1","","0.4832874948","0.6","0.4","0.8","0.2","0.3402104323","0.5616346574","0.8007326434","0.4832874948","","","","","","","","","","","","76","L","3","","","219","main_expt",""
"","bandit","299","999265","0.0-260.0-0.0","40443417","wem/bandit_either_3","AB1X97ASE626Q","either","4","365","","","","","","","1","0","0","0.8518850648","","0.6","0.4","0.8","0.2","","","","","0.3448871422","0.6261942659","0.8518850648","0.475455537","","","","","","","","75","K","2","","","220","main_expt",""
"","bandit","300","1001433","0.0-261.0-0.0","40443417","wem/bandit_either_3","AB1X97ASE626Q","either","4","646","","","","","","","1","0","0","0.8488451861","","0.6","0.4","0.8","0.2","","","","","0.4438284365","0.6533416475","0.8488451861","0.3849790123","","","","","","","","75","K","2","","","221","main_expt",""
"","bandit","301","1003498","0.0-262.0-0.0","40443417","wem/bandit_either_3","AB1X97ASE626Q","either","4","545","","","","","","","1","0","0","0.8202185963","","0.6","0.4","0.8","0.2","","","","","0.3768672835","0.6780524799","0.8202185963","0.2708628555","","","","","","","","75","K","2","","","222","main_expt",""
"","bandit","302","1005601","0.0-263.0-0.0","40443417","wem/bandit_either_3","AB1X97ASE626Q","either","4","584","","","","","","","1","0","0","0.839196386","","0.6","0.4","0.8","0.2","","","","","0.4599748191","0.638470603","0.839196386","0.3886191555","","","","","","","","75","K","2","","","223","main_expt",""
"","bandit","303","1007672","0.0-264.0-0.0","40443417","wem/bandit_either_3","AB1X97ASE626Q","either","4","559","","","","","","","0","1","0","","0.8340435664","0.6","0.4","0.8","0.2","0.5868274652","0.560582988","0.8340435664","0.3352763987","","","","","","","","","","","","75","K","2","","","224","main_expt",""
"","bandit","304","1009724","0.0-265.0-0.0","40443417","wem/bandit_either_3","AB1X97ASE626Q","either","4","530","","","","","","","0","0","1","0.8229669419","","0.6","0.4","0.8","0.2","","","","","0.510759767","0.5004803289","0.8229669419","0.3948846532","","","","","","","","75","K","2","","","225","main_expt",""
"","bandit","305","1011855","0.0-266.0-0.0","40443417","wem/bandit_either_3","AB1X97ASE626Q","either","4","610","","","","","","","0","0","1","","0.5109709899","0.6","0.4","0.8","0.2","0.6026028704","0.5109709899","0.8326575293","0.385279681","","","","","","","","","","","","74","J","1","","","226","main_expt",""
"","bandit","306","1013885","0.0-267.0-0.0","40443417","wem/bandit_either_3","AB1X97ASE626Q","either","4","501","","","","","","","1","0","0","0.8904476858","","0.6","0.4","0.8","0.2","","","","","0.588132951","0.4271661703","0.8904476858","0.3296530349","","","","","","","","75","K","2","","","227","main_expt",""
"","bandit","307","1015877","0.0-268.0-0.0","40443417","wem/bandit_either_3","AB1X97ASE626Q","either","4","472","","","","","","","0","0","1","0.8877596604","","0.6","0.4","0.8","0.2","","","","","0.5754590721","0.374673526","0.8877596604","0.4227788413","","","","","","","","75","K","2","","","228","main_expt",""
"","bandit","308","1020538","0.0-269.0-0.0","40443417","wem/bandit_either_3","AB1X97ASE626Q","either","4","3147","","","","","","","1","0","0","0.8647697669","","0.6","0.4","0.8","0.2","","","","","0.6311951266","0.393435759","0.8647697669","0.4470353227","","","","","","","","75","K","2","","","229","main_expt",""
"","bandit","309","1024432","0.0-270.0-0.0","40443417","wem/bandit_either_3","AB1X97ASE626Q","either","4","2376","","","","","","","1","0","0","0.8704214291","","0.6","0.4","0.8","0.2","","","","","0.6164228117","0.3299431778","0.8704214291","0.2986819632","","","","","","","","75","K","2","","","230","main_expt",""
"","bandit","310","1026697","0.0-271.0-0.0","40443417","wem/bandit_either_3","AB1X97ASE626Q","either","4","743","","","","","","","0","1","0","","0.8598686354","0.6","0.4","0.8","0.2","0.5943568022","0.3477061432","0.8598686354","0.4508866759","","","","","","","","","","","","75","K","2","","","231","main_expt",""
"","bandit","311","1028734","0.0-272.0-0.0","40443417","wem/bandit_either_3","AB1X97ASE626Q","either","4","514","","","","","","","1","0","0","0.7939027672","","0.6","0.4","0.8","0.2","","","","","0.6032910051","0.3430234075","0.7939027672","0.5125968159","","","","","","","","75","K","2","","","232","main_expt",""
"","bandit","312","1030861","0.0-273.0-0.0","40443417","wem/bandit_either_3","AB1X97ASE626Q","either","4","606","","","","","","","0","0","1","0.7930400566","","0.6","0.4","0.8","0.2","","","","","0.7225660168","0.2812772396","0.7930400566","0.6020802482","","","","","","","","75","K","2","","","233","main_expt",""
"","bandit","313","1032850","0.0-274.0-0.0","40443417","wem/bandit_either_3","AB1X97ASE626Q","either","4","462","","","","","","","0","1","0","","0.7549101179","0.6","0.4","0.8","0.2","0.6718439238","0.2049555934","0.7549101179","0.5927943616","","","","","","","","","","","","75","K","2","","","234","main_expt",""
"","bandit","314","1034993","0.0-275.0-0.0","40443417","wem/bandit_either_3","AB1X97ASE626Q","either","4","622","","","","","","","0","0","1","0.7654291135","","0.6","0.4","0.8","0.2","","","","","0.6025803433","0.144612338","0.7654291135","0.5814417759","","","","","","","","75","K","2","","","235","main_expt",""
"","bandit","315","1037209","0.0-276.0-0.0","40443417","wem/bandit_either_3","AB1X97ASE626Q","either","4","695","","","","","","","1","0","0","0.6965918162","","0.6","0.4","0.8","0.2","","","","","0.6170166349","0.1509581517","0.6965918162","0.6530024001","","","","","","","","75","K","2","","","236","main_expt",""
"","bandit","316","1040319","0.0-277.0-0.0","40443417","wem/bandit_either_3","AB1X97ASE626Q","either","4","1589","","","","","","","1","0","0","0.8151927982","","0.6","0.4","0.8","0.2","","","","","0.6426153702","0.2267465707","0.8151927982","0.5861490443","","","","","","","","75","K","2","","","237","main_expt",""
"","bandit","317","1042465","0.0-278.0-0.0","40443417","wem/bandit_either_3","AB1X97ASE626Q","either","4","623","","","","","","","0","0","1","0.7696745118","","0.6","0.4","0.8","0.2","","","","","0.5421138037","0.1651127221","0.7696745118","0.6086881899","","","","","","","","75","K","2","","","238","main_expt",""
"","bandit","318","1044430","0.0-279.0-0.0","40443417","wem/bandit_either_3","AB1X97ASE626Q","either","4","444","","","","","","","1","0","0","0.7368178416","","0.6","0.4","0.8","0.2","","","","","0.5534077834","0.1587945469","0.7368178416","0.6323362843","","","","","","","","75","K","2","","","239","main_expt",""
"","bandit","319","1046482","0.0-280.0-0.0","40443417","wem/bandit_either_3","AB1X97ASE626Q","either","4","538","","","","","","","0","1","0","","0.6443792527","0.6","0.4","0.8","0.2","0.7267030345","0.08644000702","0.6443792527","0.5620837446","","","","","","","","","","","","75","K","2","","","240","main_expt",""
"","bandit","320","1048813","0.0-281.0-0.0","40443417","wem/bandit_either_3","AB1X97ASE626Q","either","4","810","","","","","","","0","0","1","","0.6467572307","0.6","0.4","0.8","0.2","0.7211407476","0.06677296221","0.6467572307","0.5571148452","","","","","","","","","","","","75","K","2","","","241","main_expt",""
"","bandit","321","1050751","0.0-282.0-0.0","40443417","wem/bandit_either_3","AB1X97ASE626Q","either","4","424","","","","","","","0","1","0","","0.6131120494","0.6","0.4","0.8","0.2","0.6764936995","0.08066643837","0.6131120494","0.4016720442","","","","","","","","","","","","75","K","2","","","242","main_expt",""
"","bandit","322","1052320","0.0-283.0-0.0","40443417","wem/bandit_either_3","AB1X97ASE626Q","either","4","54","","","","","","","1","0","0","0.7409975133","","0.6","0.4","0.8","0.2","","","","","0.6677952341","0.08086195374","0.7409975133","0.5389796081","","","","","","","","75","K","2","","","243","main_expt",""
"","bandit","323","1054640","0.0-284.0-0.0","40443417","wem/bandit_either_3","AB1X97ASE626Q","either","4","806","","","","","","","0","0","1","0.6582216966","","0.6","0.4","0.8","0.2","","","","","0.7284567303","0.1496534925","0.6582216966","0.5123058505","","","","","","","","75","K","2","","","244","main_expt",""
"","bandit","324","1056888","0.0-285.0-0.0","40443417","wem/bandit_either_3","AB1X97ASE626Q","either","4","723","","","","","","","1","0","0","0.7274682542","","0.6","0.4","0.8","0.2","","","","","0.7435316078","0.1788819116","0.7274682542","0.434346282","","","","","","","","75","K","2","","","245","main_expt",""
"","bandit","325","1058655","0.0-286.0-0.0","40443417","wem/bandit_either_3","AB1X97ASE626Q","either","4","241","","","","","","","1","0","0","0.7675378805","","0.6","0.4","0.8","0.2","","","","","0.7420547497","0.2147576294","0.7675378805","0.4080319695","","","","","","","","75","K","2","","","246","main_expt",""
