"consent","trial_type","trial_index","time_elapsed","internal_node_id","subjID","study","MID","cond","drift","rt","responses","key_press","expt_phase","like","value","connected","gems","bombs","no_reward","GemPrChosen","BombPrChosen","GainOverPainPr_0","GainOverPainPr_1","GainOverPainPr_2","GainOverPainPr_3","LosePr_0","LosePr_1","LosePr_2","LosePr_3","WinPr_0","WinPr_1","WinPr_2","WinPr_3","Q0","Q1","Q2","gender","age","ethnicity","target","respCharCode","respKey","respChoiceNum","respChoice","practice","trial_counter","trial_label","button_pressed"
"INL_behavioral_consent_30min_online.html","consent","0","25628","0.0-0.0","41165686","wem/bandit_either_3","A3H32595TVJ34Q","either","1","","","","","","","","","","","","","","","","","","","","","","","","","","","","","","","","","","","","","","",""
"","survey-text","1","40961","0.0-1.0","41165686","wem/bandit_either_3","A3H32595TVJ34Q","either","1","14322","{""Q0"":""A3H32595TVJ34Q""}","","","","","","","","","","","","","","","","","","","","","","","","","","","","","","","","","","","","",""
"","text","2","73439","0.0-2.0","41165686","wem/bandit_either_3","A3H32595TVJ34Q","either","1","31474","","32","","","","","","","","","","","","","","","","","","","","","","","","","","","","","","","","","","","",""
"","text","3","86254","0.0-3.0","41165686","wem/bandit_either_3","A3H32595TVJ34Q","either","1","12813","","32","","","","","","","","","","","","","","","","","","","","","","","","","","","","","","","","","","","",""
"","text","4","126879","0.0-4.0","41165686","wem/bandit_either_3","A3H32595TVJ34Q","either","1","40623","","32","","","","","","","","","","","","","","","","","","","","","","","","","","","","","","","","","","","",""
"","text","5","154054","0.0-5.0","41165686","wem/bandit_either_3","A3H32595TVJ34Q","either","1","27173","","32","","","","","","","","","","","","","","","","","","","","","","","","","","","","","","","","","","","",""
"","text","6","176815","0.0-6.0","41165686","wem/bandit_either_3","A3H32595TVJ34Q","either","1","22760","","32","","","","","","","","","","","","","","","","","","","","","","","","","","","","","","","","","","","",""
"","text","7","187653","0.0-7.0","41165686","wem/bandit_either_3","A3H32595TVJ34Q","either","1","10838","","32","","","","","","","","","","","","","","","","","","","","","","","","","","","","","","","","","","","",""
"","text","8","193940","0.0-8.0","41165686","wem/bandit_either_3","A3H32595TVJ34Q","either","1","6285","","32","","","","","","","","","","","","","","","","","","","","","","","","","","","","","","","","","","","",""
"","identification","9","209882","0.0-9.0-0.0","41165686","wem/bandit_either_3","A3H32595TVJ34Q","either","1","15918","","","","3","3","2","","","","","","","","","","","","","","","","","","","","","","","","the village of Zur","","","","","","","",""
"","identification","10","222864","0.0-9.0-1.0","41165686","wem/bandit_either_3","A3H32595TVJ34Q","either","1","11962","","","","0","1","1","","","","","","","","","","","","","","","","","","","","","","","","the village of Nyx","","","","","","","",""
"","text","11","230734","0.0-10.0","41165686","wem/bandit_either_3","A3H32595TVJ34Q","either","1","6868","","32","","","","","","","","","","","","","","","","","","","","","","","","","","","","","","","","","","","",""
"","text","12","235310","0.0-11.0","41165686","wem/bandit_either_3","A3H32595TVJ34Q","either","1","4573","","32","","","","","","","","","","","","","","","","","","","","","","","","","","","","","","","","","","","",""
"","text","13","238316","0.0-12.0","41165686","wem/bandit_either_3","A3H32595TVJ34Q","either","1","3006","","32","","","","","","","","","","","","","","","","","","","","","","","","","","","","","","","","","","","",""
"","text","14","243901","0.0-13.0","41165686","wem/bandit_either_3","A3H32595TVJ34Q","either","1","5584","","32","","","","","","","","","","","","","","","","","","","","","","","","","","","","","","","","","","","",""
"","bandit","15","247005","0.0-14.0-0.0","41165686","wem/bandit_either_3","A3H32595TVJ34Q","either","1","1597","","","","","","","0","0","1","0","0","","","","","0","","","","0","","","","","","","","","","","74","J","0","img/none_selected_demo.jpg","true","0","",""
"","bandit","16","249571","0.0-15.0-0.0","41165686","wem/bandit_either_3","A3H32595TVJ34Q","either","1","1059","","","","","","","0","0","1","0","0","","","","","0","","","","0","","","","","","","","","","","75","K","0","img/none_selected_demo.jpg","true","0","",""
"","text","17","265990","0.0-16.0","41165686","wem/bandit_either_3","A3H32595TVJ34Q","either","1","16417","","32","","","","","","","","","","","","","","","","","","","","","","","","","","","","","","","","","","","",""
"","text","18","280119","0.0-17.0","41165686","wem/bandit_either_3","A3H32595TVJ34Q","either","1","14127","","32","","","","","","","","","","","","","","","","","","","","","","","","","","","","","","","","","","","",""
"","text","19","293750","0.0-18.0","41165686","wem/bandit_either_3","A3H32595TVJ34Q","either","1","13631","","32","","","","","","","","","","","","","","","","","","","","","","","","","","","","","","","","","","","",""
"","text","20","300220","0.0-19.0","41165686","wem/bandit_either_3","A3H32595TVJ34Q","either","1","6468","","32","","","","","","","","","","","","","","","","","","","","","","","","","","","","","","","","","","","",""
"","bandit","21","302484","0.0-20.0-0.0","41165686","wem/bandit_either_3","A3H32595TVJ34Q","either","1","756","","","","","","","1","0","0","0.8","","0.5","0.5","","","","","","","0.8","0.2","","","","","","","","","","74","J","0","img/none_selected_demo.jpg","true","0","80_20_practice",""
"","bandit","22","304692","0.0-20.0-1.0","41165686","wem/bandit_either_3","A3H32595TVJ34Q","either","1","702","","","","","","","0","0","1","","0.2","0.5","0.5","","","0.8","0.2","","","","","","","","","","","","","","75","K","1","","true","0","80_20_practice",""
"","bandit","23","306579","0.0-20.0-2.0","41165686","wem/bandit_either_3","A3H32595TVJ34Q","either","1","381","","","","","","","1","0","0","0.8","","0.5","0.5","","","","","","","0.8","0.2","","","","","","","","","","74","J","0","img/none_selected_demo.jpg","true","0","80_20_practice",""
"","bandit","24","308850","0.0-20.0-3.0","41165686","wem/bandit_either_3","A3H32595TVJ34Q","either","1","767","","","","","","","1","0","0","0.8","","0.5","0.5","","","","","","","0.8","0.2","","","","","","","","","","74","J","0","img/none_selected_demo.jpg","true","0","80_20_practice",""
"","bandit","25","310699","0.0-20.0-4.0","41165686","wem/bandit_either_3","A3H32595TVJ34Q","either","1","343","","","","","","","1","0","0","0.8","","0.5","0.5","","","","","","","0.8","0.2","","","","","","","","","","74","J","0","img/none_selected_demo.jpg","true","0","80_20_practice",""
"","bandit","26","312378","0.0-20.0-5.0","41165686","wem/bandit_either_3","A3H32595TVJ34Q","either","1","175","","","","","","","1","0","0","0.8","","0.5","0.5","","","","","","","0.8","0.2","","","","","","","","","","74","J","0","img/none_selected_demo.jpg","true","0","80_20_practice",""
"","bandit","27","313922","0.0-20.0-6.0","41165686","wem/bandit_either_3","A3H32595TVJ34Q","either","1","40","","","","","","","0","1","0","","0.8","0.5","0.5","","","0.8","0.2","","","","","","","","","","","","","","74","J","0","img/none_selected_demo.jpg","true","0","80_20_practice",""
"","bandit","28","315709","0.0-20.0-7.0","41165686","wem/bandit_either_3","A3H32595TVJ34Q","either","1","281","","","","","","","1","0","0","0.8","","0.5","0.5","","","","","","","0.8","0.2","","","","","","","","","","74","J","0","img/none_selected_demo.jpg","true","0","80_20_practice",""
"","bandit","29","317475","0.0-20.0-8.0","41165686","wem/bandit_either_3","A3H32595TVJ34Q","either","1","260","","","","","","","0","1","0","","0.8","0.5","0.5","","","0.8","0.2","","","","","","","","","","","","","","74","J","0","img/none_selected_demo.jpg","true","0","80_20_practice",""
"","bandit","30","319130","0.0-20.0-9.0","41165686","wem/bandit_either_3","A3H32595TVJ34Q","either","1","150","","","","","","","0","1","0","","0.8","0.5","0.5","","","0.8","0.2","","","","","","","","","","","","","","74","J","0","img/none_selected_demo.jpg","true","0","80_20_practice",""
"","bandit","31","320772","0.0-20.0-10.0","41165686","wem/bandit_either_3","A3H32595TVJ34Q","either","1","135","","","","","","","0","1","0","","0.8","0.5","0.5","","","0.8","0.2","","","","","","","","","","","","","","74","J","0","img/none_selected_demo.jpg","true","0","80_20_practice",""
"","bandit","32","322411","0.0-20.0-11.0","41165686","wem/bandit_either_3","A3H32595TVJ34Q","either","1","134","","","","","","","0","0","1","0.8","","0.5","0.5","","","","","","","0.8","0.2","","","","","","","","","","74","J","0","img/none_selected_demo.jpg","true","0","80_20_practice",""
"","bandit","33","323962","0.0-20.0-12.0","41165686","wem/bandit_either_3","A3H32595TVJ34Q","either","1","48","","","","","","","0","0","1","","0.2","0.5","0.5","","","0.8","0.2","","","","","","","","","","","","","","75","K","1","","true","0","80_20_practice",""
"","bandit","34","325692","0.0-20.0-13.0","41165686","wem/bandit_either_3","A3H32595TVJ34Q","either","1","224","","","","","","","0","1","0","","0.8","0.5","0.5","","","0.8","0.2","","","","","","","","","","","","","","74","J","0","img/none_selected_demo.jpg","true","0","80_20_practice",""
"","bandit","35","327611","0.0-20.0-14.0","41165686","wem/bandit_either_3","A3H32595TVJ34Q","either","1","413","","","","","","","1","0","0","0.8","","0.5","0.5","","","","","","","0.8","0.2","","","","","","","","","","74","J","0","img/none_selected_demo.jpg","true","0","80_20_practice",""
"","bandit","36","329498","0.0-20.0-15.0","41165686","wem/bandit_either_3","A3H32595TVJ34Q","either","1","382","","","","","","","1","0","0","0.8","","0.5","0.5","","","","","","","0.8","0.2","","","","","","","","","","74","J","0","img/none_selected_demo.jpg","true","0","80_20_practice",""
"","bandit","37","331244","0.0-20.0-16.0","41165686","wem/bandit_either_3","A3H32595TVJ34Q","either","1","240","","","","","","","0","0","1","","0.8","0.5","0.5","","","0.8","0.2","","","","","","","","","","","","","","74","J","0","img/none_selected_demo.jpg","true","0","80_20_practice",""
"","bandit","38","332962","0.0-20.0-17.0","41165686","wem/bandit_either_3","A3H32595TVJ34Q","either","1","213","","","","","","","1","0","0","0.8","","0.5","0.5","","","","","","","0.8","0.2","","","","","","","","","","74","J","0","img/none_selected_demo.jpg","true","0","80_20_practice",""
"","bandit","39","334994","0.0-20.0-18.0","41165686","wem/bandit_either_3","A3H32595TVJ34Q","either","1","526","","","","","","","0","1","0","","0.8","0.5","0.5","","","0.8","0.2","","","","","","","","","","","","","","74","J","0","img/none_selected_demo.jpg","true","0","80_20_practice",""
"","bandit","40","337013","0.0-20.0-19.0","41165686","wem/bandit_either_3","A3H32595TVJ34Q","either","1","513","","","","","","","1","0","0","0.8","","0.5","0.5","","","","","","","0.8","0.2","","","","","","","","","","74","J","0","img/none_selected_demo.jpg","true","0","80_20_practice",""
"","text","41","348204","0.0-21.0","41165686","wem/bandit_either_3","A3H32595TVJ34Q","either","1","11189","","32","","","","","","","","","","","","","","","","","","","","","","","","","","","","","","","","","","","",""
"","bandit","42","352626","0.0-22.0-0.0","41165686","wem/bandit_either_3","A3H32595TVJ34Q","either","1","2917","","","","","","","1","0","0","1","0","","","","","0","1","","","1","0","","","","","","","","","","74","J","0","img/none_selected_demo.jpg","true","0","",""
"","text","43","361679","0.0-23.0","41165686","wem/bandit_either_3","A3H32595TVJ34Q","either","1","9050","","32","","","","","","","","","","","","","","","","","","","","","","","","","","","","","","","","","","","",""
"","text","44","367028","0.0-24.0","41165686","wem/bandit_either_3","A3H32595TVJ34Q","either","1","5348","","32","","","","","","","","","","","","","","","","","","","","","","","","","","","","","","","","","","","",""
"","text","45","372206","0.0-25.0","41165686","wem/bandit_either_3","A3H32595TVJ34Q","either","1","5176","","32","","","","","","","","","","","","","","","","","","","","","","","","","","","","","","","","","","","",""
"","text","46","377517","0.0-26.0","41165686","wem/bandit_either_3","A3H32595TVJ34Q","either","1","5309","","32","","","","","","","","","","","","","","","","","","","","","","","","","","","","","","","","","","","",""
"","text","47","392318","0.0-27.0","41165686","wem/bandit_either_3","A3H32595TVJ34Q","either","1","14799","","32","","","","","","","","","","","","","","","","","","","","","","","","","","","","","","","","","","","",""
"","text","48","398700","0.0-28.0","41165686","wem/bandit_either_3","A3H32595TVJ34Q","either","1","6382","","32","","","","","","","","","","","","","","","","","","","","","","","","","","","","","","","","","","","",""
"","text","49","408198","0.0-29.0","41165686","wem/bandit_either_3","A3H32595TVJ34Q","either","1","9496","","32","","","","","","","","","","","","","","","","","","","","","","","","","","","","","","","","","","","",""
"","text","50","415476","0.0-30.0","41165686","wem/bandit_either_3","A3H32595TVJ34Q","either","1","7277","","32","","","","","","","","","","","","","","","","","","","","","","","","","","","","","","","","","","","",""
"","text","51","423374","0.0-31.0","41165686","wem/bandit_either_3","A3H32595TVJ34Q","either","1","7896","","32","","","","","","","","","","","","","","","","","","","","","","","","","","","","","","","","","","","",""
"","text","52","430141","0.0-32.0","41165686","wem/bandit_either_3","A3H32595TVJ34Q","either","1","6765","","32","","","","","","","","","","","","","","","","","","","","","","","","","","","","","","","","","","","",""
"","text","53","435764","0.0-33.0","41165686","wem/bandit_either_3","A3H32595TVJ34Q","either","1","5622","","32","","","","","","","","","","","","","","","","","","","","","","","","","","","","","","","","","","","",""
"","bandit","54","438579","0.0-34.0-0.0","41165686","wem/bandit_either_3","A3H32595TVJ34Q","either","1","1309","","","","","","","0","1","0","","0.8","0.5","0.5","0.5","0.5","0.8","0.2","0.6","0.2","","","","","","","","","","","","72","H","0","img/none_selected.jpg","true","0","full_practice",""
"","bandit","55","440875","0.0-34.0-1.0","41165686","wem/bandit_either_3","A3H32595TVJ34Q","either","1","789","","","","","","","0","0","1","","0.2","0.5","0.5","0.5","0.5","0.8","0.2","0.6","0.2","","","","","","","","","","","","74","J","1","","true","0","full_practice",""
"","bandit","56","442524","0.0-34.0-2.0","41165686","wem/bandit_either_3","A3H32595TVJ34Q","either","1","140","","","","","","","1","0","0","0.6","","0.5","0.5","0.5","0.5","","","","","0.8","0.2","0.6","0.2","","","","","","","","75","K","2","","true","0","full_practice",""
"","bandit","57","444315","0.0-34.0-3.0","41165686","wem/bandit_either_3","A3H32595TVJ34Q","either","1","285","","","","","","","0","0","1","0.2","","0.5","0.5","0.5","0.5","","","","","0.8","0.2","0.6","0.2","","","","","","","","76","L","3","","true","0","full_practice",""
"","bandit","58","446275","0.0-34.0-4.0","41165686","wem/bandit_either_3","A3H32595TVJ34Q","either","1","455","","","","","","","0","0","1","0.8","","0.5","0.5","0.5","0.5","","","","","0.8","0.2","0.6","0.2","","","","","","","","72","H","0","img/none_selected.jpg","true","0","full_practice",""
"","bandit","59","448179","0.0-34.0-5.0","41165686","wem/bandit_either_3","A3H32595TVJ34Q","either","1","398","","","","","","","1","0","0","0.6","","0.5","0.5","0.5","0.5","","","","","0.8","0.2","0.6","0.2","","","","","","","","75","K","2","","true","0","full_practice",""
"","bandit","60","449851","0.0-34.0-6.0","41165686","wem/bandit_either_3","A3H32595TVJ34Q","either","1","164","","","","","","","0","0","1","","0.6","0.5","0.5","0.5","0.5","0.8","0.2","0.6","0.2","","","","","","","","","","","","75","K","2","","true","0","full_practice",""
"","bandit","61","451642","0.0-34.0-7.0","41165686","wem/bandit_either_3","A3H32595TVJ34Q","either","1","285","","","","","","","0","0","1","0.2","","0.5","0.5","0.5","0.5","","","","","0.8","0.2","0.6","0.2","","","","","","","","76","L","3","","true","0","full_practice",""
"","bandit","62","453236","0.0-34.0-8.0","41165686","wem/bandit_either_3","A3H32595TVJ34Q","either","1","86","","","","","","","0","0","1","0.2","","0.5","0.5","0.5","0.5","","","","","0.8","0.2","0.6","0.2","","","","","","","","74","J","1","","true","0","full_practice",""
"","bandit","63","455010","0.0-34.0-9.0","41165686","wem/bandit_either_3","A3H32595TVJ34Q","either","1","268","","","","","","","1","0","0","0.8","","0.5","0.5","0.5","0.5","","","","","0.8","0.2","0.6","0.2","","","","","","","","72","H","0","img/none_selected.jpg","true","0","full_practice",""
"","bandit","64","456802","0.0-34.0-10.0","41165686","wem/bandit_either_3","A3H32595TVJ34Q","either","1","284","","","","","","","0","1","0","","0.8","0.5","0.5","0.5","0.5","0.8","0.2","0.6","0.2","","","","","","","","","","","","72","H","0","img/none_selected.jpg","true","0","full_practice",""
"","bandit","65","458604","0.0-34.0-11.0","41165686","wem/bandit_either_3","A3H32595TVJ34Q","either","1","296","","","","","","","0","1","0","","0.8","0.5","0.5","0.5","0.5","0.8","0.2","0.6","0.2","","","","","","","","","","","","72","H","0","img/none_selected.jpg","true","0","full_practice",""
"","bandit","66","460539","0.0-34.0-12.0","41165686","wem/bandit_either_3","A3H32595TVJ34Q","either","1","429","","","","","","","0","0","1","","0.8","0.5","0.5","0.5","0.5","0.8","0.2","0.6","0.2","","","","","","","","","","","","72","H","0","img/none_selected.jpg","true","0","full_practice",""
"","bandit","67","462347","0.0-34.0-13.0","41165686","wem/bandit_either_3","A3H32595TVJ34Q","either","1","301","","","","","","","0","0","1","","0.8","0.5","0.5","0.5","0.5","0.8","0.2","0.6","0.2","","","","","","","","","","","","72","H","0","img/none_selected.jpg","true","0","full_practice",""
"","bandit","68","464171","0.0-34.0-14.0","41165686","wem/bandit_either_3","A3H32595TVJ34Q","either","1","316","","","","","","","1","0","0","0.6","","0.5","0.5","0.5","0.5","","","","","0.8","0.2","0.6","0.2","","","","","","","","75","K","2","","true","0","full_practice",""
"","bandit","69","465947","0.0-34.0-15.0","41165686","wem/bandit_either_3","A3H32595TVJ34Q","either","1","271","","","","","","","0","1","0","","0.8","0.5","0.5","0.5","0.5","0.8","0.2","0.6","0.2","","","","","","","","","","","","72","H","0","img/none_selected.jpg","true","0","full_practice",""
"","bandit","70","467642","0.0-34.0-16.0","41165686","wem/bandit_either_3","A3H32595TVJ34Q","either","1","191","","","","","","","0","0","1","","0.6","0.5","0.5","0.5","0.5","0.8","0.2","0.6","0.2","","","","","","","","","","","","75","K","2","","true","0","full_practice",""
"","bandit","71","469499","0.0-34.0-17.0","41165686","wem/bandit_either_3","A3H32595TVJ34Q","either","1","349","","","","","","","0","1","0","","0.8","0.5","0.5","0.5","0.5","0.8","0.2","0.6","0.2","","","","","","","","","","","","72","H","0","img/none_selected.jpg","true","0","full_practice",""
"","bandit","72","471467","0.0-34.0-18.0","41165686","wem/bandit_either_3","A3H32595TVJ34Q","either","1","463","","","","","","","0","1","0","","0.8","0.5","0.5","0.5","0.5","0.8","0.2","0.6","0.2","","","","","","","","","","","","72","H","0","img/none_selected.jpg","true","0","full_practice",""
"","bandit","73","472995","0.0-34.0-19.0","41165686","wem/bandit_either_3","A3H32595TVJ34Q","either","1","22","","","","","","","0","1","0","","0.8","0.5","0.5","0.5","0.5","0.8","0.2","0.6","0.2","","","","","","","","","","","","72","H","0","img/none_selected.jpg","true","0","full_practice",""
"","text","74","477141","0.0-35.0","41165686","wem/bandit_either_3","A3H32595TVJ34Q","either","1","4140","","32","","","","","","","","","","","","","","","","","","","","","","","","","","","","","","","","","","","",""
"","text","75","502423","0.0-36.0","41165686","wem/bandit_either_3","A3H32595TVJ34Q","either","1","24278","","32","","","","","","","","","","","","","","","","","","","","","","","","","","","","","","","","","","","",""
"","text","76","518751","0.0-37.0","41165686","wem/bandit_either_3","A3H32595TVJ34Q","either","1","16325","","32","","","","","","","","","","","","","","","","","","","","","","","","","","","","","","","","","","","",""
"","text","77","526508","0.0-38.0","41165686","wem/bandit_either_3","A3H32595TVJ34Q","either","1","7754","","32","","","","","","","","","","","","","","","","","","","","","","","","","","","","","","","","","","","",""
"","text","78","537701","0.0-39.0","41165686","wem/bandit_either_3","A3H32595TVJ34Q","either","1","11192","","32","","","","","","","","","","","","","","","","","","","","","","","","","","","","","","","","","","","",""
"","text","79","546829","0.0-40.0","41165686","wem/bandit_either_3","A3H32595TVJ34Q","either","1","9126","","32","","","","","","","","","","","","","","","","","","","","","","","","","","","","","","","","","","","",""
"","bandit","80","549270","0.0-41.0-0.0","41165686","wem/bandit_either_3","A3H32595TVJ34Q","either","1","935","","","","","","","0","0","1","0.4995060561","","0.4","0.6","0.2","0.8","","","","","0.4995060561","0.7674833066","0.5202783506","0.8101107889","","","","","","","","72","H","0","img/none_selected.jpg","","1","main_expt",""
"","bandit","81","550948","0.0-42.0-0.0","41165686","wem/bandit_either_3","A3H32595TVJ34Q","either","1","171","","","","","","","0","0","1","0.7786696111","","0.4","0.6","0.2","0.8","","","","","0.4452888422","0.7786696111","0.4559554218","0.8827976921","","","","","","","","74","J","1","","","2","main_expt",""
"","bandit","82","552579","0.0-43.0-0.0","41165686","wem/bandit_either_3","A3H32595TVJ34Q","either","1","124","","","","","","","0","1","0","","0.3791335739","0.4","0.6","0.2","0.8","0.4956599627","0.7883912796","0.3791335739","0.918633781","","","","","","","","","","","","75","K","2","","","3","main_expt",""
"","bandit","83","554474","0.0-44.0-0.0","41165686","wem/bandit_either_3","A3H32595TVJ34Q","either","1","389","","","","","","","0","0","1","","0.362446662","0.4","0.6","0.2","0.8","0.3939226057","0.8311681014","0.362446662","0.8961075186","","","","","","","","","","","","75","K","2","","","4","main_expt",""
"","bandit","84","556106","0.0-45.0-0.0","41165686","wem/bandit_either_3","A3H32595TVJ34Q","either","1","128","","","","","","","1","0","0","0.9065038385","","0.4","0.6","0.2","0.8","","","","","0.4737796053","0.706748425","0.4337427147","0.9065038385","","","","","","","","76","L","3","","","5","main_expt",""
"","bandit","85","558459","0.0-46.0-0.0","41165686","wem/bandit_either_3","A3H32595TVJ34Q","either","1","847","","","","","","","1","0","0","0.9628954729","","0.4","0.6","0.2","0.8","","","","","0.5798080576","0.7246132019","0.4260566605","0.9628954729","","","","","","","","76","L","3","","","6","main_expt",""
"","bandit","86","560620","0.0-47.0-0.0","41165686","wem/bandit_either_3","A3H32595TVJ34Q","either","1","654","","","","","","","1","0","0","0.9244273404","","0.4","0.6","0.2","0.8","","","","","0.6184433593","0.822103072","0.5595739282","0.9244273404","","","","","","","","76","L","3","","","7","main_expt",""
"","bandit","87","562450","0.0-48.0-0.0","41165686","wem/bandit_either_3","A3H32595TVJ34Q","either","1","323","","","","","","","1","0","0","0.9214665689","","0.4","0.6","0.2","0.8","","","","","0.5380809204","0.8176183596","0.5757792393","0.9214665689","","","","","","","","76","L","3","","","8","main_expt",""
"","bandit","88","564315","0.0-49.0-0.0","41165686","wem/bandit_either_3","A3H32595TVJ34Q","either","1","358","","","","","","","1","0","0","0.9604963414","","0.4","0.6","0.2","0.8","","","","","0.4884558296","0.7421782695","0.5508288143","0.9604963414","","","","","","","","76","L","3","","","9","main_expt",""
"","bandit","89","566139","0.0-50.0-0.0","41165686","wem/bandit_either_3","A3H32595TVJ34Q","either","1","319","","","","","","","1","0","0","0.973544224","","0.4","0.6","0.2","0.8","","","","","0.6062827564","0.7112185725","0.4615344473","0.973544224","","","","","","","","76","L","3","","","10","main_expt",""
"","bandit","90","568196","0.0-51.0-0.0","41165686","wem/bandit_either_3","A3H32595TVJ34Q","either","1","550","","","","","","","1","0","0","0.9756729976","","0.4","0.6","0.2","0.8","","","","","0.6618996933","0.6656122322","0.4731032433","0.9756729976","","","","","","","","76","L","3","","","11","main_expt",""
"","bandit","91","570299","0.0-52.0-0.0","41165686","wem/bandit_either_3","A3H32595TVJ34Q","either","1","595","","","","","","","1","0","0","0.9824084628","","0.4","0.6","0.2","0.8","","","","","0.6589688621","0.632951522","0.5028989732","0.9824084628","","","","","","","","76","L","3","","","12","main_expt",""
"","bandit","92","572245","0.0-53.0-0.0","41165686","wem/bandit_either_3","A3H32595TVJ34Q","either","1","440","","","","","","","1","0","0","0.9852841122","","0.4","0.6","0.2","0.8","","","","","0.7483501345","0.6428643634","0.5252386458","0.9852841122","","","","","","","","76","L","3","","","13","main_expt",""
"","bandit","93","574147","0.0-54.0-0.0","41165686","wem/bandit_either_3","A3H32595TVJ34Q","either","1","394","","","","","","","1","0","0","0.9844185579","","0.4","0.6","0.2","0.8","","","","","0.7642220585","0.5693663763","0.4883642101","0.9844185579","","","","","","","","76","L","3","","","14","main_expt",""
"","bandit","94","576147","0.0-55.0-0.0","41165686","wem/bandit_either_3","A3H32595TVJ34Q","either","1","492","","","","","","","1","0","0","0.9716790186","","0.4","0.6","0.2","0.8","","","","","0.8255663415","0.6354763258","0.5125695872","0.9716790186","","","","","","","","76","L","3","","","15","main_expt",""
"","bandit","95","578050","0.0-56.0-0.0","41165686","wem/bandit_either_3","A3H32595TVJ34Q","either","1","396","","","","","","","1","0","0","0.9724226268","","0.4","0.6","0.2","0.8","","","","","0.8262734196","0.6074668868","0.483313844","0.9724226268","","","","","","","","76","L","3","","","16","main_expt",""
"","bandit","96","580186","0.0-57.0-0.0","41165686","wem/bandit_either_3","A3H32595TVJ34Q","either","1","631","","","","","","","1","0","0","0.969397438","","0.4","0.6","0.2","0.8","","","","","0.8957105494","0.634379517","0.4764119597","0.969397438","","","","","","","","76","L","3","","","17","main_expt",""
"","bandit","97","582068","0.0-58.0-0.0","41165686","wem/bandit_either_3","A3H32595TVJ34Q","either","1","372","","","","","","","1","0","0","0.9487821198","","0.4","0.6","0.2","0.8","","","","","0.8243017832","0.7399013172","0.4742144938","0.9487821198","","","","","","","","76","L","3","","","18","main_expt",""
"","bandit","98","584221","0.0-59.0-0.0","41165686","wem/bandit_either_3","A3H32595TVJ34Q","either","1","646","","","","","","","1","0","0","0.8822386923","","0.4","0.6","0.2","0.8","","","","","0.8174393347","0.6892422428","0.5445729057","0.8822386923","","","","","","","","76","L","3","","","19","main_expt",""
"","bandit","99","586125","0.0-60.0-0.0","41165686","wem/bandit_either_3","A3H32595TVJ34Q","either","1","389","","","","","","","1","0","0","0.8658452863","","0.4","0.6","0.2","0.8","","","","","0.8457625901","0.5544472153","0.5114357523","0.8658452863","","","","","","","","76","L","3","","","20","main_expt",""
"","bandit","100","588131","0.0-61.0-0.0","41165686","wem/bandit_either_3","A3H32595TVJ34Q","either","1","495","","","","","","","1","0","0","0.8597265301","","0.4","0.6","0.2","0.8","","","","","0.8565453533","0.4705077418","0.4948626968","0.8597265301","","","","","","","","76","L","3","","","21","main_expt",""
"","bandit","101","590066","0.0-62.0-0.0","41165686","wem/bandit_either_3","A3H32595TVJ34Q","either","1","428","","","","","","","1","0","0","0.929530396","","0.4","0.6","0.2","0.8","","","","","0.8821281293","0.5364913494","0.3750889156","0.929530396","","","","","","","","76","L","3","","","22","main_expt",""
"","bandit","102","591915","0.0-63.0-0.0","41165686","wem/bandit_either_3","A3H32595TVJ34Q","either","1","341","","","","","","","1","0","0","0.9149061772","","0.4","0.6","0.2","0.8","","","","","0.8253896901","0.5450887529","0.3874093852","0.9149061772","","","","","","","","76","L","3","","","23","main_expt",""
"","bandit","103","593778","0.0-64.0-0.0","41165686","wem/bandit_either_3","A3H32595TVJ34Q","either","1","358","","","","","","","1","0","0","0.9389899916","","0.4","0.6","0.2","0.8","","","","","0.8682133559","0.6013055931","0.4126546177","0.9389899916","","","","","","","","76","L","3","","","24","main_expt",""
"","bandit","104","595715","0.0-65.0-0.0","41165686","wem/bandit_either_3","A3H32595TVJ34Q","either","1","431","","","","","","","1","0","0","0.9583062328","","0.4","0.6","0.2","0.8","","","","","0.8186134727","0.7116226269","0.3871809826","0.9583062328","","","","","","","","76","L","3","","","25","main_expt",""
"","bandit","105","597587","0.0-66.0-0.0","41165686","wem/bandit_either_3","A3H32595TVJ34Q","either","1","362","","","","","","","1","0","0","0.9349434311","","0.4","0.6","0.2","0.8","","","","","0.841170918","0.7284905038","0.4162773602","0.9349434311","","","","","","","","76","L","3","","","26","main_expt",""
"","bandit","106","599612","0.0-67.0-0.0","41165686","wem/bandit_either_3","A3H32595TVJ34Q","either","1","516","","","","","","","1","0","0","0.9147743466","","0.4","0.6","0.2","0.8","","","","","0.8332298301","0.7007901837","0.4153433109","0.9147743466","","","","","","","","76","L","3","","","27","main_expt",""
"","bandit","107","602235","0.0-68.0-0.0","41165686","wem/bandit_either_3","A3H32595TVJ34Q","either","1","1115","","","","","","","1","0","0","0.8913744663","","0.4","0.6","0.2","0.8","","","","","0.8340804883","0.7197690037","0.3083156359","0.8913744663","","","","","","","","76","L","3","","","28","main_expt",""
"","bandit","108","604171","0.0-69.0-0.0","41165686","wem/bandit_either_3","A3H32595TVJ34Q","either","1","428","","","","","","","1","0","0","0.9004815278","","0.4","0.6","0.2","0.8","","","","","0.8800986549","0.7569205749","0.4048150761","0.9004815278","","","","","","","","76","L","3","","","29","main_expt",""
"","bandit","109","606084","0.0-70.0-0.0","41165686","wem/bandit_either_3","A3H32595TVJ34Q","either","1","405","","","","","","","0","0","1","0.8335499875","","0.4","0.6","0.2","0.8","","","","","0.800988266","0.7007062976","0.5604470694","0.8335499875","","","","","","","","76","L","3","","","30","main_expt",""
"","bandit","110","607907","0.0-71.0-0.0","41165686","wem/bandit_either_3","A3H32595TVJ34Q","either","1","315","","","","","","","0","0","1","","0.5114456598","0.4","0.6","0.2","0.8","0.8092707987","0.6218809145","0.5114456598","0.7904098286","","","","","","","","","","","","75","K","2","","","31","main_expt",""
"","bandit","111","609459","0.0-72.0-0.0","41165686","wem/bandit_either_3","A3H32595TVJ34Q","either","1","43","","","","","","","1","0","0","0.7600689364","","0.4","0.6","0.2","0.8","","","","","0.7600689364","0.5448888872","0.5195843055","0.8156470634","","","","","","","","72","H","0","img/none_selected.jpg","","32","main_expt",""
"","bandit","112","611298","0.0-73.0-0.0","41165686","wem/bandit_either_3","A3H32595TVJ34Q","either","1","331","","","","","","","0","0","1","","0.7268405739","0.4","0.6","0.2","0.8","0.7268405739","0.4396040002","0.4278216128","0.7458483223","","","","","","","","","","","","72","H","0","img/none_selected.jpg","","33","main_expt",""
"","bandit","113","612987","0.0-74.0-0.0","41165686","wem/bandit_either_3","A3H32595TVJ34Q","either","1","183","","","","","","","0","1","0","","0.3418027302","0.4","0.6","0.2","0.8","0.7867385379","0.3418027302","0.4581725564","0.8745519215","","","","","","","","","","","","74","J","1","","","34","main_expt",""
"","bandit","114","614795","0.0-75.0-0.0","41165686","wem/bandit_either_3","A3H32595TVJ34Q","either","1","298","","","","","","","0","1","0","","0.3770378826","0.4","0.6","0.2","0.8","0.7776722478","0.3770378826","0.5170179058","0.8761773117","","","","","","","","","","","","74","J","1","","","35","main_expt",""
"","bandit","115","616589","0.0-76.0-0.0","41165686","wem/bandit_either_3","A3H32595TVJ34Q","either","1","285","","","","","","","0","0","1","0.3264650107","","0.4","0.6","0.2","0.8","","","","","0.8110731924","0.3264650107","0.5761285305","0.8898579413","","","","","","","","74","J","1","","","36","main_expt",""
"","bandit","116","618347","0.0-77.0-0.0","41165686","wem/bandit_either_3","A3H32595TVJ34Q","either","1","251","","","","","","","1","0","0","0.8371501114","","0.4","0.6","0.2","0.8","","","","","0.8371501114","0.1696248696","0.5824592389","0.9189960073","","","","","","","","72","H","0","img/none_selected.jpg","","37","main_expt",""
"","bandit","117","620123","0.0-78.0-0.0","41165686","wem/bandit_either_3","A3H32595TVJ34Q","either","1","270","","","","","","","0","1","0","","0.801984358","0.4","0.6","0.2","0.8","0.801984358","0.3008725236","0.5039158184","0.9429067042","","","","","","","","","","","","72","H","0","img/none_selected.jpg","","38","main_expt",""
"","bandit","118","622252","0.0-79.0-0.0","41165686","wem/bandit_either_3","A3H32595TVJ34Q","either","1","622","","","","","","","1","0","0","0.836760671","","0.4","0.6","0.2","0.8","","","","","0.836760671","0.3612597963","0.4906961915","0.8860185862","","","","","","","","72","H","0","img/none_selected.jpg","","39","main_expt",""
"","bandit","119","624323","0.0-80.0-0.0","41165686","wem/bandit_either_3","A3H32595TVJ34Q","either","1","562","","","","","","","0","1","0","","0.7930168878","0.4","0.6","0.2","0.8","0.7930168878","0.3316001813","0.5118773476","0.8958725565","","","","","","","","","","","","72","H","0","img/none_selected.jpg","","40","main_expt",""
"","bandit","120","626354","0.0-81.0-0.0","41165686","wem/bandit_either_3","A3H32595TVJ34Q","either","1","522","","","","","","","0","0","1","0.6758505439","","0.4","0.6","0.2","0.8","","","","","0.6758505439","0.251761063","0.5207000815","0.8369757826","","","","","","","","72","H","0","img/none_selected.jpg","","41","main_expt",""
"","bandit","121","628410","0.0-82.0-0.0","41165686","wem/bandit_either_3","A3H32595TVJ34Q","either","1","551","","","","","","","0","1","0","","0.8724413244","0.4","0.6","0.2","0.8","0.669091732","0.3764367217","0.6208632684","0.8724413244","","","","","","","","","","","","76","L","3","","","42","main_expt",""
"","bandit","122","630202","0.0-83.0-0.0","41165686","wem/bandit_either_3","A3H32595TVJ34Q","either","1","286","","","","","","","0","0","1","0.4280411123","","0.4","0.6","0.2","0.8","","","","","0.5774386383","0.4280411123","0.6736877605","0.8721156492","","","","","","","","74","J","1","","","43","main_expt",""
"","bandit","123","631962","0.0-84.0-0.0","41165686","wem/bandit_either_3","A3H32595TVJ34Q","either","1","251","","","","","","","1","0","0","0.874486911","","0.4","0.6","0.2","0.8","","","","","0.5402750746","0.4250007774","0.6770598463","0.874486911","","","","","","","","76","L","3","","","44","main_expt",""
"","bandit","124","633811","0.0-85.0-0.0","41165686","wem/bandit_either_3","A3H32595TVJ34Q","either","1","338","","","","","","","0","0","1","","0.7653026016","0.4","0.6","0.2","0.8","0.4769525635","0.3964774122","0.6811336834","0.7653026016","","","","","","","","","","","","76","L","3","","","45","main_expt",""
"","bandit","125","635747","0.0-86.0-0.0","41165686","wem/bandit_either_3","A3H32595TVJ34Q","either","1","428","","","","","","","0","0","1","0.460739512","","0.4","0.6","0.2","0.8","","","","","0.460739512","0.3755541509","0.7409040253","0.6884850605","","","","","","","","72","H","0","img/none_selected.jpg","","46","main_expt",""
"","bandit","126","637499","0.0-87.0-0.0","41165686","wem/bandit_either_3","A3H32595TVJ34Q","either","1","245","","","","","","","1","0","0","0.8602274841","","0.4","0.6","0.2","0.8","","","","","0.3953603582","0.3698766084","0.8602274841","0.6869729855","","","","","","","","75","K","2","","","47","main_expt",""
"","bandit","127","639348","0.0-88.0-0.0","41165686","wem/bandit_either_3","A3H32595TVJ34Q","either","1","341","","","","","","","0","1","0","","0.8947369126","0.4","0.6","0.2","0.8","0.5194217752","0.2924141828","0.8947369126","0.624749708","","","","","","","","","","","","75","K","2","","","48","main_expt",""
"","bandit","128","641155","0.0-89.0-0.0","41165686","wem/bandit_either_3","A3H32595TVJ34Q","either","1","301","","","","","","","0","0","1","","0.9071052574","0.4","0.6","0.2","0.8","0.5015721984","0.2506794134","0.9071052574","0.6269608649","","","","","","","","","","","","75","K","2","","","49","main_expt",""
"","bandit","129","642890","0.0-90.0-0.0","41165686","wem/bandit_either_3","A3H32595TVJ34Q","either","1","228","","","","","","","1","0","0","0.5394470416","","0.4","0.6","0.2","0.8","","","","","0.4427204185","0.2200095001","0.8569531155","0.5394470416","","","","","","","","76","L","3","","","50","main_expt",""
"","bandit","130","644675","0.0-91.0-0.0","41165686","wem/bandit_either_3","A3H32595TVJ34Q","either","1","275","","","","","","","0","0","1","0.4991806479","","0.4","0.6","0.2","0.8","","","","","0.5194544998","0.2703780474","0.8728609703","0.4991806479","","","","","","","","76","L","3","","","51","main_expt",""
"","bandit","131","646474","0.0-92.0-0.0","41165686","wem/bandit_either_3","A3H32595TVJ34Q","either","1","294","","","","","","","0","0","1","0.3215640211","","0.4","0.6","0.2","0.8","","","","","0.4420680866","0.3215640211","0.902184381","0.5431464126","","","","","","","","74","J","1","","","52","main_expt",""
"","bandit","132","648274","0.0-93.0-0.0","41165686","wem/bandit_either_3","A3H32595TVJ34Q","either","1","291","","","","","","","0","0","1","","0.5541791803","0.4","0.6","0.2","0.8","0.5541791803","0.2918797996","0.8975054296","0.4799783957","","","","","","","","","","","","72","H","0","img/none_selected.jpg","","53","main_expt",""
"","bandit","133","650116","0.0-94.0-0.0","41165686","wem/bandit_either_3","A3H32595TVJ34Q","either","1","336","","","","","","","1","0","0","0.9436546011","","0.4","0.6","0.2","0.8","","","","","0.6187664305","0.2432815539","0.9436546011","0.3946877269","","","","","","","","75","K","2","","","54","main_expt",""
"","bandit","134","651971","0.0-95.0-0.0","41165686","wem/bandit_either_3","A3H32595TVJ34Q","either","1","346","","","","","","","0","1","0","","0.9411334538","0.4","0.6","0.2","0.8","0.538030076","0.1993500609","0.9411334538","0.3892466866","","","","","","","","","","","","75","K","2","","","55","main_expt",""
"","bandit","135","653779","0.0-96.0-0.0","41165686","wem/bandit_either_3","A3H32595TVJ34Q","either","1","301","","","","","","","1","0","0","0.862285227","","0.4","0.6","0.2","0.8","","","","","0.5137881872","0.1832364248","0.862285227","0.347268188","","","","","","","","75","K","2","","","56","main_expt",""
"","bandit","136","655901","0.0-97.0-0.0","41165686","wem/bandit_either_3","A3H32595TVJ34Q","either","1","610","","","","","","","0","1","0","","0.9034803314","0.4","0.6","0.2","0.8","0.6274604021","0.1703919496","0.9034803314","0.3462231845","","","","","","","","","","","","75","K","2","","","57","main_expt",""
"","bandit","137","657876","0.0-98.0-0.0","41165686","wem/bandit_either_3","A3H32595TVJ34Q","either","1","466","","","","","","","0","0","1","0.9062052911","","0.4","0.6","0.2","0.8","","","","","0.5636132077","0.2146973212","0.9062052911","0.3707442777","","","","","","","","75","K","2","","","58","main_expt",""
"","bandit","138","659716","0.0-99.0-0.0","41165686","wem/bandit_either_3","A3H32595TVJ34Q","either","1","331","","","","","","","1","0","0","0.4530366532","","0.4","0.6","0.2","0.8","","","","","0.6555757088","0.2118107272","0.9169546289","0.4530366532","","","","","","","","76","L","3","","","59","main_expt",""
"","bandit","139","661566","0.0-100.0-0.0","41165686","wem/bandit_either_3","A3H32595TVJ34Q","either","1","339","","","","","","","0","1","0","","0.9048679239","0.4","0.6","0.2","0.8","0.6555481193","0.2096036334","0.9048679239","0.4335409142","","","","","","","","","","","","75","K","2","","","60","main_expt",""
"","bandit","140","663370","0.0-101.0-0.0","41165686","wem/bandit_either_3","A3H32595TVJ34Q","either","1","296","","","","","","","0","0","1","0.3601573371","","0.4","0.6","0.2","0.8","","","","","0.6988977931","0.1985607356","0.9346572725","0.3601573371","","","","","","","","76","L","3","","","61","main_expt",""
"","bandit","141","665122","0.0-102.0-0.0","41165686","wem/bandit_either_3","A3H32595TVJ34Q","either","1","243","","","","","","","0","1","0","","0.9332729597","0.4","0.6","0.2","0.8","0.6124712875","0.2352246004","0.9332729597","0.3187004912","","","","","","","","","","","","75","K","2","","","62","main_expt",""
"","bandit","142","666906","0.0-103.0-0.0","41165686","wem/bandit_either_3","A3H32595TVJ34Q","either","1","274","","","","","","","0","1","0","","0.9300142507","0.4","0.6","0.2","0.8","0.4881994696","0.1989126294","0.9300142507","0.331276396","","","","","","","","","","","","75","K","2","","","63","main_expt",""
"","bandit","143","668746","0.0-104.0-0.0","41165686","wem/bandit_either_3","A3H32595TVJ34Q","either","1","330","","","","","","","1","0","0","0.8992917639","","0.4","0.6","0.2","0.8","","","","","0.5007509184","0.2231035509","0.8992917639","0.3984677","","","","","","","","75","K","2","","","64","main_expt",""
"","bandit","144","670443","0.0-105.0-0.0","41165686","wem/bandit_either_3","A3H32595TVJ34Q","either","1","187","","","","","","","0","1","0","","0.7939475476","0.4","0.6","0.2","0.8","0.6077525222","0.174077904","0.7939475476","0.3012021372","","","","","","","","","","","","75","K","2","","","65","main_expt",""
"","bandit","145","672516","0.0-106.0-0.0","41165686","wem/bandit_either_3","A3H32595TVJ34Q","either","1","565","","","","","","","0","0","1","","0.7848839068","0.4","0.6","0.2","0.8","0.4876759876","0.1505104035","0.7848839068","0.2848395029","","","","","","","","","","","","75","K","2","","","66","main_expt",""
"","bandit","146","674548","0.0-107.0-0.0","41165686","wem/bandit_either_3","A3H32595TVJ34Q","either","1","525","","","","","","","0","0","1","0.2908363747","","0.4","0.6","0.2","0.8","","","","","0.4705728971","0.1706094741","0.7712869283","0.2908363747","","","","","","","","76","L","3","","","67","main_expt",""
"","bandit","147","676275","0.0-108.0-0.0","41165686","wem/bandit_either_3","A3H32595TVJ34Q","either","1","217","","","","","","","1","0","0","0.5822594153","","0.4","0.6","0.2","0.8","","","","","0.5822594153","0.193375558","0.7426915226","0.3226378352","","","","","","","","72","H","0","img/none_selected.jpg","","68","main_expt",""
"","bandit","148","677987","0.0-109.0-0.0","41165686","wem/bandit_either_3","A3H32595TVJ34Q","either","1","202","","","","","","","0","0","1","","0.6189715015","0.4","0.6","0.2","0.8","0.6189715015","0.226811003","0.592712881","0.4490581071","","","","","","","","","","","","72","H","0","img/none_selected.jpg","","69","main_expt",""
"","bandit","149","680042","0.0-110.0-0.0","41165686","wem/bandit_either_3","A3H32595TVJ34Q","either","1","549","","","","","","","0","0","1","0.191142909","","0.4","0.6","0.2","0.8","","","","","0.5307799745","0.191142909","0.6587085967","0.42365523","","","","","","","","74","J","1","","","70","main_expt",""
"","bandit","150","681842","0.0-111.0-0.0","41165686","wem/bandit_either_3","A3H32595TVJ34Q","either","1","294","","","","","","","0","1","0","","0.7562029562","0.4","0.6","0.2","0.8","0.5205551237","0.2371486809","0.7562029562","0.427101634","","","","","","","","","","","","75","K","2","","","71","main_expt",""
"","bandit","151","683372","0.0-112.0-0.0","41165686","wem/bandit_either_3","A3H32595TVJ34Q","either","1","20","","","","","","","0","0","1","","0.670676276","0.4","0.6","0.2","0.8","0.5913901284","0.2602117984","0.670676276","0.5387899421","","","","","","","","","","","","75","K","2","","","72","main_expt",""
"","bandit","152","685314","0.0-113.0-0.0","41165686","wem/bandit_either_3","A3H32595TVJ34Q","either","1","432","","","","","","","1","0","0","0.4931252492","","0.4","0.6","0.2","0.8","","","","","0.7127465592","0.1837165363","0.6870219419","0.4931252492","","","","","","","","76","L","3","","","73","main_expt",""
"","bandit","153","687195","0.0-114.0-0.0","41165686","wem/bandit_either_3","A3H32595TVJ34Q","either","1","375","","","","","","","0","1","0","","0.582898469","0.4","0.6","0.2","0.8","0.7804212289","0.2032334464","0.582898469","0.3888626504","","","","","","","","","","","","75","K","2","","","74","main_expt",""
"","bandit","154","689195","0.0-115.0-0.0","41165686","wem/bandit_either_3","A3H32595TVJ34Q","either","1","493","","","","","","","0","0","1","","0.6452442043","0.4","0.6","0.2","0.8","0.7966502287","0.2782751631","0.6452442043","0.3866429177","","","","","","","","","","","","75","K","2","","","75","main_expt",""
"","bandit","155","691059","0.0-116.0-0.0","41165686","wem/bandit_either_3","A3H32595TVJ34Q","either","1","355","","","","","","","0","0","1","0.3948468247","","0.4","0.6","0.2","0.8","","","","","0.7775959854","0.3318782676","0.7031137023","0.3948468247","","","","","","","","76","L","3","","","76","main_expt",""
"","bandit","156","692859","0.0-117.0-0.0","41165686","wem/bandit_either_3","A3H32595TVJ34Q","either","1","292","","","","","","","0","1","0","","0.8523583745","0.4","0.6","0.2","0.8","0.8523583745","0.312607664","0.6096498107","0.4853082722","","","","","","","","","","","","72","H","0","img/none_selected.jpg","","77","main_expt",""
"","bandit","157","694725","0.0-118.0-0.0","41165686","wem/bandit_either_3","A3H32595TVJ34Q","either","1","355","","","","","","","0","0","1","0.7707034136","","0.4","0.6","0.2","0.8","","","","","0.7707034136","0.3250695504","0.532302087","0.4971609959","","","","","","","","72","H","0","img/none_selected.jpg","","78","main_expt",""
"","bandit","158","696508","0.0-119.0-0.0","41165686","wem/bandit_either_3","A3H32595TVJ34Q","either","1","273","","","","","","","0","0","1","","0.7919080975","0.4","0.6","0.2","0.8","0.7919080975","0.277144637","0.4448734945","0.5349041547","","","","","","","","","","","","72","H","0","img/none_selected.jpg","","79","main_expt",""
"","bandit","159","698147","0.0-120.0-0.0","41165686","wem/bandit_either_3","A3H32595TVJ34Q","either","1","129","","","","","","","0","1","0","","0.34513516","0.4","0.6","0.2","0.8","0.8107458935","0.293018971","0.34513516","0.4713204996","","","","","","","","","","","","75","K","2","","","80","main_expt",""
"","bandit","160","699755","0.0-121.0-0.0","41165686","wem/bandit_either_3","A3H32595TVJ34Q","either","1","98","","","","","","","0","0","1","","0.406584365","0.4","0.6","0.2","0.8","0.7851591746","0.2730851157","0.406584365","0.4132476049","","","","","","","","","","","","75","K","2","","","81","main_expt",""
"","bandit","161","701379","0.0-122.0-0.0","41165686","wem/bandit_either_3","A3H32595TVJ34Q","either","1","114","","","","","","","0","1","0","","0.5068312928","0.4","0.6","0.2","0.8","0.8067558171","0.2436011542","0.5068312928","0.4640808921","","","","","","","","","","","","75","K","2","","","82","main_expt",""
"","bandit","162","703138","0.0-123.0-0.0","41165686","wem/bandit_either_3","A3H32595TVJ34Q","either","1","252","","","","","","","0","1","0","","0.442115463","0.4","0.6","0.2","0.8","0.7777816444","0.2009218657","0.5209063211","0.442115463","","","","","","","","","","","","76","L","3","","","83","main_expt",""
"","bandit","163","704877","0.0-124.0-0.0","41165686","wem/bandit_either_3","A3H32595TVJ34Q","either","1","226","","","","","","","0","0","1","","0.6221591745","0.4","0.6","0.2","0.8","0.7801041195","0.1550904625","0.6221591745","0.5117806844","","","","","","","","","","","","75","K","2","","","84","main_expt",""
"","bandit","164","706819","0.0-125.0-0.0","41165686","wem/bandit_either_3","A3H32595TVJ34Q","either","1","434","","","","","","","1","0","0","0.5309627618","","0.4","0.6","0.2","0.8","","","","","0.7593249252","0.1193398435","0.6939346182","0.5309627618","","","","","","","","76","L","3","","","85","main_expt",""
"","bandit","165","709075","0.0-126.0-0.0","41165686","wem/bandit_either_3","A3H32595TVJ34Q","either","1","749","","","","","","","1","0","0","0.5482659382","","0.4","0.6","0.2","0.8","","","","","0.7911667705","0.1398572341","0.7533471596","0.5482659382","","","","","","","","76","L","3","","","86","main_expt",""
"","bandit","166","710875","0.0-127.0-0.0","41165686","wem/bandit_either_3","A3H32595TVJ34Q","either","1","290","","","","","","","0","0","1","0.4772076429","","0.4","0.6","0.2","0.8","","","","","0.8480662183","0.1941505275","0.8040573679","0.4772076429","","","","","","","","76","L","3","","","87","main_expt",""
"","bandit","167","713004","0.0-128.0-0.0","41165686","wem/bandit_either_3","A3H32595TVJ34Q","either","1","620","","","","","","","0","0","1","","0.5202977678","0.4","0.6","0.2","0.8","0.8110462569","0.09645570925","0.7800800897","0.5202977678","","","","","","","","","","","","76","L","3","","","88","main_expt",""
"","bandit","168","714958","0.0-129.0-0.0","41165686","wem/bandit_either_3","A3H32595TVJ34Q","either","1","444","","","","","","","0","1","0","","0.7329239748","0.4","0.6","0.2","0.8","0.7924414871","0.1304326216","0.7329239748","0.4970482359","","","","","","","","","","","","75","K","2","","","89","main_expt",""
"","bandit","169","716939","0.0-130.0-0.0","41165686","wem/bandit_either_3","A3H32595TVJ34Q","either","1","471","","","","","","","0","1","0","","0.7202813078","0.4","0.6","0.2","0.8","0.8190855249","0.1410434261","0.7202813078","0.4671205494","","","","","","","","","","","","75","K","2","","","90","main_expt",""
"","bandit","170","718850","0.0-131.0-0.0","41165686","wem/bandit_either_3","A3H32595TVJ34Q","either","1","404","","","","","","","0","1","0","","0.698586111","0.4","0.6","0.2","0.8","0.858270253","0.1277095213","0.698586111","0.5518401665","","","","","","","","","","","","75","K","2","","","91","main_expt",""
"","bandit","171","720770","0.0-132.0-0.0","41165686","wem/bandit_either_3","A3H32595TVJ34Q","either","1","413","","","","","","","0","0","1","0.6054304462","","0.4","0.6","0.2","0.8","","","","","0.8583259383","0.08596821216","0.6054304462","0.620788192","","","","","","","","75","K","2","","","92","main_expt",""
"","bandit","172","722819","0.0-133.0-0.0","41165686","wem/bandit_either_3","A3H32595TVJ34Q","either","1","537","","","","","","","0","0","1","0.05652587691","","0.4","0.6","0.2","0.8","","","","","0.8335107661","0.05652587691","0.6829204303","0.679669404","","","","","","","","74","J","1","","","93","main_expt",""
"","bandit","173","724843","0.0-134.0-0.0","41165686","wem/bandit_either_3","A3H32595TVJ34Q","either","1","513","","","","","","","0","0","1","","0.8849423118","0.4","0.6","0.2","0.8","0.8849423118","0.07490457358","0.6084783934","0.6726581754","","","","","","","","","","","","72","H","0","img/none_selected.jpg","","94","main_expt",""
"","bandit","174","726539","0.0-135.0-0.0","41165686","wem/bandit_either_3","A3H32595TVJ34Q","either","1","186","","","","","","","0","1","0","","0.51962455","0.4","0.6","0.2","0.8","0.9175662658","0.05201682933","0.51962455","0.5983950962","","","","","","","","","","","","75","K","2","","","95","main_expt",""
"","bandit","175","728371","0.0-136.0-0.0","41165686","wem/bandit_either_3","A3H32595TVJ34Q","either","1","319","","","","","","","0","1","0","","0.453067158","0.4","0.6","0.2","0.8","0.8726153548","0.0353667714","0.453067158","0.6316158747","","","","","","","","","","","","75","K","2","","","96","main_expt",""
"","bandit","176","730339","0.0-137.0-0.0","41165686","wem/bandit_either_3","A3H32595TVJ34Q","either","1","460","","","","","","","1","0","0","0.6660601513","","0.4","0.6","0.2","0.8","","","","","0.7260562137","0.04301306848","0.4090095009","0.6660601513","","","","","","","","76","L","3","","","97","main_expt",""
"","bandit","177","732163","0.0-138.0-0.0","41165686","wem/bandit_either_3","A3H32595TVJ34Q","either","1","315","","","","","","","0","0","1","0.360727585","","0.4","0.6","0.2","0.8","","","","","0.6506148609","0.03950067624","0.360727585","0.6185462561","","","","","","","","75","K","2","","","98","main_expt",""
"","bandit","178","733682","0.0-139.0-0.0","41165686","wem/bandit_either_3","A3H32595TVJ34Q","either","1","12","","","","","","","0","0","1","0.581128502","","0.4","0.6","0.2","0.8","","","","","0.5816342488","0.03156699585","0.3351327477","0.581128502","","","","","","","","76","L","3","","","99","main_expt",""
"","bandit","179","735371","0.0-140.0-0.0","41165686","wem/bandit_either_3","A3H32595TVJ34Q","either","1","179","","","","","","","1","0","0","0.3491912274","","0.4","0.6","0.2","0.8","","","","","0.5521464449","0.0248161238","0.3491912274","0.479775063","","","","","","","","75","K","2","","","100","main_expt",""
"","bandit","180","737059","0.0-141.0-0.0","41165686","wem/bandit_either_3","A3H32595TVJ34Q","either","1","177","","","","","","","0","0","1","","0.4105375765","0.4","0.6","0.2","0.8","0.6063232436","0.02218075004","0.4105375765","0.5114647241","","","","","","","","","","","","75","K","2","","","101","main_expt",""
"","bandit","181","738868","0.0-142.0-0.0","41165686","wem/bandit_either_3","A3H32595TVJ34Q","either","1","301","","","","","","","0","0","1","","0.438632671","0.4","0.6","0.2","0.8","0.5636213764","0.01802152149","0.438632671","0.4718740674","","","","","","","","","","","","75","K","2","","","102","main_expt",""
"","bandit","182","740875","0.0-143.0-0.0","41165686","wem/bandit_either_3","A3H32595TVJ34Q","either","1","495","","","","","","","0","0","1","0.5245129891","","0.4","0.6","0.2","0.8","","","","","0.5370473259","0.01877214671","0.372838406","0.5245129891","","","","","","","","76","L","3","","","103","main_expt",""
"","bandit","183","742484","0.0-144.0-0.0","41165686","wem/bandit_either_3","A3H32595TVJ34Q","either","1","100","","","","","","","0","1","0","","0.549647281","0.4","0.6","0.2","0.8","0.549647281","0.01556743346","0.3057692375","0.5170751474","","","","","","","","","","","","72","H","0","img/none_selected.jpg","","104","main_expt",""
"","bandit","184","744531","0.0-145.0-0.0","41165686","wem/bandit_either_3","A3H32595TVJ34Q","either","1","537","","","","","","","1","0","0","0.472330124","","0.4","0.6","0.2","0.8","","","","","0.4225976111","0.03717147126","0.37369274","0.472330124","","","","","","","","76","L","3","","","105","main_expt",""
"","bandit","185","746571","0.0-146.0-0.0","41165686","wem/bandit_either_3","A3H32595TVJ34Q","either","1","530","","","","","","","1","0","0","0.568133852","","0.4","0.6","0.2","0.8","","","","","0.5005163425","0.07687033395","0.3179799449","0.568133852","","","","","","","","76","L","3","","","106","main_expt",""
"","bandit","186","748580","0.0-147.0-0.0","41165686","wem/bandit_either_3","A3H32595TVJ34Q","either","1","503","","","","","","","1","0","0","0.536018559","","0.4","0.6","0.2","0.8","","","","","0.3995396385","0.07659049968","0.3053765494","0.536018559","","","","","","","","76","L","3","","","107","main_expt",""
"","bandit","187","750787","0.0-148.0-0.0","41165686","wem/bandit_either_3","A3H32595TVJ34Q","either","1","692","","","","","","","1","0","0","0.3880888981","","0.4","0.6","0.2","0.8","","","","","0.3855926336","0.07827602418","0.2732860947","0.3880888981","","","","","","","","76","L","3","","","108","main_expt",""
"","bandit","188","752650","0.0-149.0-0.0","41165686","wem/bandit_either_3","A3H32595TVJ34Q","either","1","355","","","","","","","1","0","0","0.3675045314","","0.4","0.6","0.2","0.8","","","","","0.3059937163","0.1352418701","0.2624197952","0.3675045314","","","","","","","","76","L","3","","","109","main_expt",""
"","bandit","189","754522","0.0-150.0-0.0","41165686","wem/bandit_either_3","A3H32595TVJ34Q","either","1","363","","","","","","","0","0","1","0.4560700489","","0.4","0.6","0.2","0.8","","","","","0.2752892785","0.1705666919","0.3303210632","0.4560700489","","","","","","","","76","L","3","","","110","main_expt",""
"","bandit","190","756043","0.0-151.0-0.0","41165686","wem/bandit_either_3","A3H32595TVJ34Q","either","1","12","","","","","","","0","0","1","0.3541452024","","0.4","0.6","0.2","0.8","","","","","0.3038626008","0.2202970635","0.3541452024","0.5366389876","","","","","","","","75","K","2","","","111","main_expt",""
"","bandit","191","757996","0.0-152.0-0.0","41165686","wem/bandit_either_3","A3H32595TVJ34Q","either","1","445","","","","","","","0","0","1","","0.2308866464","0.4","0.6","0.2","0.8","0.2308866464","0.2368742277","0.4468573219","0.5742054707","","","","","","","","","","","","72","H","0","img/none_selected.jpg","","112","main_expt",""
"","bandit","192","759715","0.0-153.0-0.0","41165686","wem/bandit_either_3","A3H32595TVJ34Q","either","1","204","","","","","","","1","0","0","0.6014260319","","0.4","0.6","0.2","0.8","","","","","0.2420052043","0.2487241586","0.5163231944","0.6014260319","","","","","","","","76","L","3","","","113","main_expt",""
"","bandit","193","761579","0.0-154.0-0.0","41165686","wem/bandit_either_3","A3H32595TVJ34Q","either","1","353","","","","","","","1","0","0","0.5398035654","","0.4","0.6","0.2","0.8","","","","","0.3277817495","0.238824581","0.4064640458","0.5398035654","","","","","","","","76","L","3","","","114","main_expt",""
"","bandit","194","763450","0.0-155.0-0.0","41165686","wem/bandit_either_3","A3H32595TVJ34Q","either","1","361","","","","","","","1","0","0","0.5008208772","","0.4","0.6","0.2","0.8","","","","","0.3280884562","0.1480638281","0.4085425191","0.5008208772","","","","","","","","76","L","3","","","115","main_expt",""
"","bandit","195","765267","0.0-156.0-0.0","41165686","wem/bandit_either_3","A3H32595TVJ34Q","either","1","305","","","","","","","1","0","0","0.4200837231","","0.4","0.6","0.2","0.8","","","","","0.4137256642","0.1246447603","0.4412864427","0.4200837231","","","","","","","","76","L","3","","","116","main_expt",""
"","bandit","196","767178","0.0-157.0-0.0","41165686","wem/bandit_either_3","A3H32595TVJ34Q","either","1","405","","","","","","","1","0","0","0.4094987027","","0.4","0.6","0.2","0.8","","","","","0.372751341","0.1308085784","0.5188885271","0.4094987027","","","","","","","","76","L","3","","","117","main_expt",""
"","bandit","197","769308","0.0-158.0-0.0","41165686","wem/bandit_either_3","A3H32595TVJ34Q","either","1","619","","","","","","","0","1","0","","0.3862907493","0.4","0.6","0.2","0.8","0.4225631273","0.09076242324","0.5728151575","0.3862907493","","","","","","","","","","","","76","L","3","","","118","main_expt",""
"","bandit","198","771402","0.0-159.0-0.0","41165686","wem/bandit_either_3","A3H32595TVJ34Q","either","1","587","","","","","","","0","0","1","","0.5065624602","0.4","0.6","0.2","0.8","0.4188482812","0.09057925276","0.5065624602","0.4437318585","","","","","","","","","","","","75","K","2","","","119","main_expt",""
"","bandit","199","772962","0.0-160.0-0.0","41165686","wem/bandit_either_3","A3H32595TVJ34Q","either","1","47","","","","","","","1","0","0","0.293469011","","0.4","0.6","0.2","0.8","","","","","0.3729077829","0.1288926122","0.4064427813","0.293469011","","","","","","","","76","L","3","","","120","main_expt",""
"","bandit","200","774836","0.0-161.0-0.0","41165686","wem/bandit_either_3","A3H32595TVJ34Q","either","1","362","","","","","","","0","0","1","0.2141601759","","0.4","0.6","0.2","0.8","","","","","0.3817262037","0.1479701512","0.3948988447","0.2141601759","","","","","","","","76","L","3","","","121","main_expt",""
"","bandit","201","776707","0.0-162.0-0.0","41165686","wem/bandit_either_3","A3H32595TVJ34Q","either","1","363","","","","","","","0","0","1","0.3537210734","","0.4","0.6","0.2","0.8","","","","","0.3537210734","0.1663524813","0.316823658","0.2594293103","","","","","","","","72","H","0","img/none_selected.jpg","","122","main_expt",""
"","bandit","202","778387","0.0-163.0-0.0","41165686","wem/bandit_either_3","A3H32595TVJ34Q","either","1","170","","","","","","","0","0","1","","0.1519240937","0.4","0.6","0.2","0.8","0.3633727708","0.1993917655","0.3045978244","0.1519240937","","","","","","","","","","","","76","L","3","","","123","main_expt",""
"","bandit","203","780085","0.0-164.0-0.0","41165686","wem/bandit_either_3","A3H32595TVJ34Q","either","1","186","","","","","","","0","0","1","","0.2389028675","0.4","0.6","0.2","0.8","0.4139908316","0.2948689786","0.2389028675","0.2311656533","","","","","","","","","","","","75","K","2","","","124","main_expt",""
"","bandit","204","782226","0.0-165.0-0.0","41165686","wem/bandit_either_3","A3H32595TVJ34Q","either","1","635","","","","","","","1","0","0","0.1956748967","","0.4","0.6","0.2","0.8","","","","","0.3619800754","0.4054398129","0.2166803268","0.1956748967","","","","","","","","76","L","3","","","125","main_expt",""
"","bandit","205","783778","0.0-166.0-0.0","41165686","wem/bandit_either_3","A3H32595TVJ34Q","either","1","41","","","","","","","0","0","1","0.1419383156","","0.4","0.6","0.2","0.8","","","","","0.353362548","0.5337661481","0.1613674106","0.1419383156","","","","","","","","76","L","3","","","126","main_expt",""
"","bandit","206","785690","0.0-167.0-0.0","41165686","wem/bandit_either_3","A3H32595TVJ34Q","either","1","405","","","","","","","0","0","1","0.1768105291","","0.4","0.6","0.2","0.8","","","","","0.2888217425","0.5510518781","0.1682412955","0.1768105291","","","","","","","","76","L","3","","","127","main_expt",""
"","bandit","207","787523","0.0-168.0-0.0","41165686","wem/bandit_either_3","A3H32595TVJ34Q","either","1","321","","","","","","","0","0","1","","0.3131893798","0.4","0.6","0.2","0.8","0.3131893798","0.4746642732","0.1655910943","0.1187699492","","","","","","","","","","","","72","H","0","img/none_selected.jpg","","128","main_expt",""
"","bandit","208","789202","0.0-169.0-0.0","41165686","wem/bandit_either_3","A3H32595TVJ34Q","either","1","171","","","","","","","0","0","1","","0.1845506081","0.4","0.6","0.2","0.8","0.2826861836","0.5345142674","0.1845506081","0.1860330609","","","","","","","","","","","","75","K","2","","","129","main_expt",""
"","bandit","209","790764","0.0-170.0-0.0","41165686","wem/bandit_either_3","A3H32595TVJ34Q","either","1","49","","","","","","","0","0","1","0.6617219445","","0.4","0.6","0.2","0.8","","","","","0.3434973012","0.6617219445","0.1548240476","0.09722607165","","","","","","","","74","J","1","","","130","main_expt",""
"","bandit","210","792355","0.0-171.0-0.0","41165686","wem/bandit_either_3","A3H32595TVJ34Q","either","1","81","","","","","","","0","0","1","0.05626421391","","0.4","0.6","0.2","0.8","","","","","0.3848082556","0.6183560712","0.1503989","0.05626421391","","","","","","","","76","L","3","","","131","main_expt",""
"","bandit","211","794315","0.0-172.0-0.0","41165686","wem/bandit_either_3","A3H32595TVJ34Q","either","1","452","","","","","","","1","0","0","0.4140069858","","0.4","0.6","0.2","0.8","","","","","0.4140069858","0.7009512511","0.1199593994","0.1149854728","","","","","","","","72","H","0","img/none_selected.jpg","","132","main_expt",""
"","bandit","212","796163","0.0-173.0-0.0","41165686","wem/bandit_either_3","A3H32595TVJ34Q","either","1","336","","","","","","","0","0","1","","0.3745017877","0.4","0.6","0.2","0.8","0.3745017877","0.5838974895","0.1518383839","0.1698175541","","","","","","","","","","","","72","H","0","img/none_selected.jpg","","133","main_expt",""
"","bandit","213","797940","0.0-174.0-0.0","41165686","wem/bandit_either_3","A3H32595TVJ34Q","either","1","267","","","","","","","0","0","1","","0.1855528241","0.4","0.6","0.2","0.8","0.3918835711","0.6628563986","0.1855528241","0.1925371395","","","","","","","","","","","","75","K","2","","","134","main_expt",""
"","bandit","214","799779","0.0-175.0-0.0","41165686","wem/bandit_either_3","A3H32595TVJ34Q","either","1","328","","","","","","","0","0","1","","0.246136332","0.4","0.6","0.2","0.8","0.3405764209","0.5610912218","0.2187769305","0.246136332","","","","","","","","","","","","76","L","3","","","135","main_expt",""
"","bandit","215","801459","0.0-176.0-0.0","41165686","wem/bandit_either_3","A3H32595TVJ34Q","either","1","169","","","","","","","0","0","1","","0.4834649218","0.4","0.6","0.2","0.8","0.4155430462","0.4834649218","0.2001534018","0.2277518718","","","","","","","","","","","","74","J","1","","","136","main_expt",""
"","bandit","216","802968","0.0-177.0-0.0","41165686","wem/bandit_either_3","A3H32595TVJ34Q","either","1","1","","","","","","","0","0","1","0.176995917","","0.4","0.6","0.2","0.8","","","","","0.3389252929","0.513072369","0.176995917","0.252962458","","","","","","","","75","K","2","","","137","main_expt",""
"","bandit","217","804898","0.0-178.0-0.0","41165686","wem/bandit_either_3","A3H32595TVJ34Q","either","1","418","","","","","","","1","0","0","0.2698753193","","0.4","0.6","0.2","0.8","","","","","0.2698753193","0.5502636267","0.1460019238","0.3018696236","","","","","","","","72","H","0","img/none_selected.jpg","","138","main_expt",""
"","bandit","218","806770","0.0-179.0-0.0","41165686","wem/bandit_either_3","A3H32595TVJ34Q","either","1","363","","","","","","","0","0","1","0.347353107","","0.4","0.6","0.2","0.8","","","","","0.2821570394","0.4564922144","0.06707115951","0.347353107","","","","","","","","76","L","3","","","139","main_expt",""
"","bandit","219","808586","0.0-180.0-0.0","41165686","wem/bandit_either_3","A3H32595TVJ34Q","either","1","304","","","","","","","1","0","0","0.3577533322","","0.4","0.6","0.2","0.8","","","","","0.3577533322","0.4116013625","0.1071331831","0.2477375586","","","","","","","","72","H","0","img/none_selected.jpg","","140","main_expt",""
"","bandit","220","810356","0.0-181.0-0.0","41165686","wem/bandit_either_3","A3H32595TVJ34Q","either","1","261","","","","","","","0","1","0","","0.4250900652","0.4","0.6","0.2","0.8","0.4250900652","0.4498847811","0.1224459691","0.2880826197","","","","","","","","","","","","72","H","0","img/none_selected.jpg","","141","main_expt",""
"","bandit","221","812181","0.0-182.0-0.0","41165686","wem/bandit_either_3","A3H32595TVJ34Q","either","1","316","","","","","","","0","0","1","0.3451055681","","0.4","0.6","0.2","0.8","","","","","0.3451055681","0.4822150968","0.1127900777","0.2287108423","","","","","","","","72","H","0","img/none_selected.jpg","","142","main_expt",""
"","bandit","222","814275","0.0-183.0-0.0","41165686","wem/bandit_either_3","A3H32595TVJ34Q","either","1","585","","","","","","","0","0","1","","0.4661026996","0.4","0.6","0.2","0.8","0.4661026996","0.513506041","0.1736101882","0.2096850542","","","","","","","","","","","","72","H","0","img/none_selected.jpg","","143","main_expt",""
"","bandit","223","816147","0.0-184.0-0.0","41165686","wem/bandit_either_3","A3H32595TVJ34Q","either","1","362","","","","","","","1","0","0","0.2214165798","","0.4","0.6","0.2","0.8","","","","","0.4683168179","0.556822441","0.1231714597","0.2214165798","","","","","","","","76","L","3","","","144","main_expt",""
"","bandit","224","817962","0.0-185.0-0.0","41165686","wem/bandit_either_3","A3H32595TVJ34Q","either","1","306","","","","","","","0","0","1","","0.2412424024","0.4","0.6","0.2","0.8","0.448697065","0.5633269006","0.10514291","0.2412424024","","","","","","","","","","","","76","L","3","","","145","main_expt",""
"","bandit","225","819858","0.0-186.0-0.0","41165686","wem/bandit_either_3","A3H32595TVJ34Q","either","1","388","","","","","","","0","0","1","","0.4560677512","0.4","0.6","0.2","0.8","0.4560677512","0.6482805244","0.0972381369","0.1841611904","","","","","","","","","","","","72","H","0","img/none_selected.jpg","","146","main_expt",""
"","bandit","226","821461","0.0-187.0-0.0","41165686","wem/bandit_either_3","A3H32595TVJ34Q","either","1","93","","","","","","","0","0","1","0.1577922033","","0.4","0.6","0.2","0.8","","","","","0.513472809","0.6036290043","0.1897119627","0.1577922033","","","","","","","","76","L","3","","","147","main_expt",""
"","bandit","227","823148","0.0-188.0-0.0","41165686","wem/bandit_either_3","A3H32595TVJ34Q","either","1","179","","","","","","","0","0","1","","0.1759094881","0.4","0.6","0.2","0.8","0.3820674583","0.6110248825","0.1759094881","0.1663963597","","","","","","","","","","","","75","K","2","","","148","main_expt",""
"","bandit","228","825170","0.0-189.0-0.0","41165686","wem/bandit_either_3","A3H32595TVJ34Q","either","1","510","","","","","","","0","0","1","0.319747154","","0.4","0.6","0.2","0.8","","","","","0.3116557105","0.6453676348","0.2204336569","0.319747154","","","","","","","","76","L","3","","","149","main_expt",""
"","bandit","229","826779","0.0-190.0-0.0","41165686","wem/bandit_either_3","A3H32595TVJ34Q","either","1","97","","","","","","","0","1","0","","0.3039338698","0.4","0.6","0.2","0.8","0.3039338698","0.66235511","0.2328853871","0.5410110608","","","","","","","","","","","","72","H","0","img/none_selected.jpg","","150","main_expt",""
"","bandit","230","828395","0.0-191.0-0.0","41165686","wem/bandit_either_3","A3H32595TVJ34Q","either","1","104","","","","","","","0","0","1","0.3092958796","","0.4","0.6","0.2","0.8","","","","","0.3092958796","0.5547575852","0.2652525627","0.5584745132","","","","","","","","72","H","0","img/none_selected.jpg","","151","main_expt",""
"","bandit","231","830810","0.0-192.0-0.0","41165686","wem/bandit_either_3","A3H32595TVJ34Q","either","1","903","","","","","","","0","0","1","0.3097370874","","0.4","0.6","0.2","0.8","","","","","0.3097370874","0.5223098228","0.2654363334","0.5709378499","","","","","","","","72","H","0","img/none_selected.jpg","","152","main_expt",""
"","bandit","232","832490","0.0-193.0-0.0","41165686","wem/bandit_either_3","A3H32595TVJ34Q","either","1","169","","","","","","","0","0","1","0.2955649657","","0.4","0.6","0.2","0.8","","","","","0.2955649657","0.5137303037","0.3505589273","0.6314515046","","","","","","","","72","H","0","img/none_selected.jpg","","153","main_expt",""
"","bandit","233","834132","0.0-194.0-0.0","41165686","wem/bandit_either_3","A3H32595TVJ34Q","either","1","134","","","","","","","1","0","0","0.6734276465","","0.4","0.6","0.2","0.8","","","","","0.221553637","0.5193194566","0.39889796","0.6734276465","","","","","","","","76","L","3","","","154","main_expt",""
"","bandit","234","835674","0.0-195.0-0.0","41165686","wem/bandit_either_3","A3H32595TVJ34Q","either","1","35","","","","","","","0","0","1","0.7019144477","","0.4","0.6","0.2","0.8","","","","","0.2231547498","0.4736812385","0.4202606707","0.7019144477","","","","","","","","76","L","3","","","155","main_expt",""
"","bandit","235","838125","0.0-196.0-0.0","41165686","wem/bandit_either_3","A3H32595TVJ34Q","either","1","941","","","","","","","0","0","1","","0.4814159609","0.4","0.6","0.2","0.8","0.2750957943","0.4616442501","0.4814159609","0.6695455193","","","","","","","","","","","","75","K","2","","","156","main_expt",""
"","bandit","236","840658","0.0-197.0-0.0","41165686","wem/bandit_either_3","A3H32595TVJ34Q","either","1","1018","","","","","","","0","0","1","0.6179864128","","0.4","0.6","0.2","0.8","","","","","0.2005793054","0.5025740222","0.5316807058","0.6179864128","","","","","","","","76","L","3","","","157","main_expt",""
"","bandit","237","842491","0.0-198.0-0.0","41165686","wem/bandit_either_3","A3H32595TVJ34Q","either","1","323","","","","","","","1","0","0","0.7380689997","","0.4","0.6","0.2","0.8","","","","","0.2502080146","0.4548105643","0.5429668589","0.7380689997","","","","","","","","76","L","3","","","158","main_expt",""
"","bandit","238","844115","0.0-199.0-0.0","41165686","wem/bandit_either_3","A3H32595TVJ34Q","either","1","110","","","","","","","0","1","0","","0.7632184112","0.4","0.6","0.2","0.8","0.2729805177","0.4622667215","0.5991419929","0.7632184112","","","","","","","","","","","","76","L","3","","","159","main_expt",""
"","bandit","239","846061","0.0-200.0-0.0","41165686","wem/bandit_either_3","A3H32595TVJ34Q","either","1","434","","","","","","","0","0","1","","0.6917664031","0.4","0.6","0.2","0.8","0.2801697818","0.4600517474","0.6480894682","0.6917664031","","","","","","","","","","","","76","L","3","","","160","main_expt",""
"","bandit","240","847818","0.0-201.0-0.0","41165686","wem/bandit_either_3","A3H32595TVJ34Q","either","1","250","","","","","","","0","0","1","0.2437938608","","0.4","0.6","0.2","0.8","","","","","0.2437938608","0.481388234","0.6776161973","0.7106531984","","","","","","","","72","H","0","img/none_selected.jpg","","161","main_expt",""
"","bandit","241","849787","0.0-202.0-0.0","41165686","wem/bandit_either_3","A3H32595TVJ34Q","either","1","460","","","","","","","1","0","0","0.7134031715","","0.4","0.6","0.2","0.8","","","","","0.2687553501","0.3850106192","0.7134031715","0.809310282","","","","","","","","75","K","2","","","162","main_expt",""
"","bandit","242","851651","0.0-203.0-0.0","41165686","wem/bandit_either_3","A3H32595TVJ34Q","either","1","351","","","","","","","1","0","0","0.7492875705","","0.4","0.6","0.2","0.8","","","","","0.245991677","0.3498723973","0.6215635068","0.7492875705","","","","","","","","76","L","3","","","163","main_expt",""
"","bandit","243","853284","0.0-204.0-0.0","41165686","wem/bandit_either_3","A3H32595TVJ34Q","either","1","119","","","","","","","0","1","0","","0.7561394707","0.4","0.6","0.2","0.8","0.270385563","0.4287417444","0.5219240024","0.7561394707","","","","","","","","","","","","76","L","3","","","164","main_expt",""
"","bandit","244","855172","0.0-205.0-0.0","41165686","wem/bandit_either_3","A3H32595TVJ34Q","either","1","376","","","","","","","1","0","0","0.8111415702","","0.4","0.6","0.2","0.8","","","","","0.3037855967","0.3150145745","0.4727302842","0.8111415702","","","","","","","","76","L","3","","","165","main_expt",""
"","bandit","245","857109","0.0-206.0-0.0","41165686","wem/bandit_either_3","A3H32595TVJ34Q","either","1","426","","","","","","","1","0","0","0.7759938205","","0.4","0.6","0.2","0.8","","","","","0.3395577104","0.2927018344","0.5181018645","0.7759938205","","","","","","","","76","L","3","","","166","main_expt",""
"","bandit","246","859531","0.0-207.0-0.0","41165686","wem/bandit_either_3","A3H32595TVJ34Q","either","1","909","","","","","","","1","0","0","0.8267633335","","0.4","0.6","0.2","0.8","","","","","0.3443901906","0.3610256338","0.5280433419","0.8267633335","","","","","","","","76","L","3","","","167","main_expt",""
"","bandit","247","861756","0.0-208.0-0.0","41165686","wem/bandit_either_3","A3H32595TVJ34Q","either","1","711","","","","","","","1","0","0","0.8136073627","","0.4","0.6","0.2","0.8","","","","","0.2552323567","0.3137127159","0.5470010145","0.8136073627","","","","","","","","76","L","3","","","168","main_expt",""
"","bandit","248","864141","0.0-209.0-0.0","41165686","wem/bandit_either_3","A3H32595TVJ34Q","either","1","875","","","","","","","1","0","0","0.7308533614","","0.4","0.6","0.2","0.8","","","","","0.289352286","0.2292796242","0.5558845962","0.7308533614","","","","","","","","76","L","3","","","169","main_expt",""
"","bandit","249","866124","0.0-210.0-0.0","41165686","wem/bandit_either_3","A3H32595TVJ34Q","either","1","472","","","","","","","1","0","0","0.7090730391","","0.4","0.6","0.2","0.8","","","","","0.2262743404","0.221948569","0.5799309324","0.7090730391","","","","","","","","76","L","3","","","170","main_expt",""
"","bandit","250","867892","0.0-211.0-0.0","41165686","wem/bandit_either_3","A3H32595TVJ34Q","either","1","260","","","","","","","0","0","1","0.7229684446","","0.4","0.6","0.2","0.8","","","","","0.2644351609","0.159615594","0.6643953266","0.7229684446","","","","","","","","76","L","3","","","171","main_expt",""
"","bandit","251","869643","0.0-212.0-0.0","41165686","wem/bandit_either_3","A3H32595TVJ34Q","either","1","240","","","","","","","1","0","0","0.7610666705","","0.4","0.6","0.2","0.8","","","","","0.4136296373","0.1303854457","0.7610666705","0.6612043244","","","","","","","","75","K","2","","","172","main_expt",""
"","bandit","252","871458","0.0-213.0-0.0","41165686","wem/bandit_either_3","A3H32595TVJ34Q","either","1","307","","","","","","","0","0","1","","0.8006149786","0.4","0.6","0.2","0.8","0.491318492","0.07729024622","0.8006149786","0.7669021743","","","","","","","","","","","","75","K","2","","","173","main_expt",""
"","bandit","253","873274","0.0-214.0-0.0","41165686","wem/bandit_either_3","A3H32595TVJ34Q","either","1","303","","","","","","","0","0","1","0.8111867287","","0.4","0.6","0.2","0.8","","","","","0.4966763124","0.1227026474","0.791095403","0.8111867287","","","","","","","","76","L","3","","","174","main_expt",""
"","bandit","254","874882","0.0-215.0-0.0","41165686","wem/bandit_either_3","A3H32595TVJ34Q","either","1","96","","","","","","","0","0","1","","0.5109350621","0.4","0.6","0.2","0.8","0.5109350621","0.09483306355","0.8572088762","0.8192498968","","","","","","","","","","","","72","H","0","img/none_selected.jpg","","175","main_expt",""
"","bandit","255","876746","0.0-216.0-0.0","41165686","wem/bandit_either_3","A3H32595TVJ34Q","either","1","354","","","","","","","1","0","0","0.8576080684","","0.4","0.6","0.2","0.8","","","","","0.6321295754","0.143069758","0.8576080684","0.8371283275","","","","","","","","75","K","2","","","176","main_expt",""
"","bandit","256","878300","0.0-217.0-0.0","41165686","wem/bandit_either_3","A3H32595TVJ34Q","either","1","44","","","","","","","0","1","0","","0.8545140947","0.4","0.6","0.2","0.8","0.5515755996","0.1741656422","0.8678158231","0.8545140947","","","","","","","","","","","","76","L","3","","","177","main_expt",""
"","bandit","257","880299","0.0-218.0-0.0","41165686","wem/bandit_either_3","A3H32595TVJ34Q","either","1","490","","","","","","","0","1","0","","0.8820542777","0.4","0.6","0.2","0.8","0.5086275016","0.1904086474","0.8820542777","0.8794893657","","","","","","","","","","","","75","K","2","","","178","main_expt",""
"","bandit","258","882091","0.0-219.0-0.0","41165686","wem/bandit_either_3","A3H32595TVJ34Q","either","1","281","","","","","","","0","1","0","","0.8939587296","0.4","0.6","0.2","0.8","0.5215192908","0.1778905233","0.8907334788","0.8939587296","","","","","","","","","","","","76","L","3","","","179","main_expt",""
"","bandit","259","883931","0.0-220.0-0.0","41165686","wem/bandit_either_3","A3H32595TVJ34Q","either","1","326","","","","","","","0","1","0","","0.9161653667","0.4","0.6","0.2","0.8","0.5193414217","0.2112817454","0.9161653667","0.868077767","","","","","","","","","","","","75","K","2","","","180","main_expt",""
"","bandit","260","885819","0.0-221.0-0.0","41165686","wem/bandit_either_3","A3H32595TVJ34Q","either","1","379","","","","","","","1","0","0","0.9295405476","","0.4","0.6","0.2","0.8","","","","","0.4613460131","0.2236312472","0.9327112184","0.9295405476","","","","","","","","76","L","3","","","181","main_expt",""
"","bandit","261","887587","0.0-222.0-0.0","41165686","wem/bandit_either_3","A3H32595TVJ34Q","either","1","255","","","","","","","1","0","0","0.9213574857","","0.4","0.6","0.2","0.8","","","","","0.4468633868","0.264467441","0.9284398706","0.9213574857","","","","","","","","76","L","3","","","182","main_expt",""
"","bandit","262","889500","0.0-223.0-0.0","41165686","wem/bandit_either_3","A3H32595TVJ34Q","either","1","399","","","","","","","1","0","0","0.9374560388","","0.4","0.6","0.2","0.8","","","","","0.4985091709","0.2240632979","0.89591471","0.9374560388","","","","","","","","76","L","3","","","183","main_expt",""
"","bandit","263","891466","0.0-224.0-0.0","41165686","wem/bandit_either_3","A3H32595TVJ34Q","either","1","457","","","","","","","1","0","0","0.9120054929","","0.4","0.6","0.2","0.8","","","","","0.6057575335","0.1671404848","0.9146434193","0.9120054929","","","","","","","","76","L","3","","","184","main_expt",""
"","bandit","264","893346","0.0-225.0-0.0","41165686","wem/bandit_either_3","A3H32595TVJ34Q","either","1","372","","","","","","","1","0","0","0.8428471033","","0.4","0.6","0.2","0.8","","","","","0.4915456485","0.1932257563","0.8575823977","0.8428471033","","","","","","","","76","L","3","","","185","main_expt",""
"","bandit","265","895210","0.0-226.0-0.0","41165686","wem/bandit_either_3","A3H32595TVJ34Q","either","1","351","","","","","","","0","1","0","","0.7734335662","0.4","0.6","0.2","0.8","0.5976273718","0.155472597","0.8487952361","0.7734335662","","","","","","","","","","","","76","L","3","","","186","main_expt",""
"","bandit","266","897163","0.0-227.0-0.0","41165686","wem/bandit_either_3","A3H32595TVJ34Q","either","1","438","","","","","","","0","0","1","0.7667319261","","0.4","0.6","0.2","0.8","","","","","0.5743595779","0.1895871356","0.8603972339","0.7667319261","","","","","","","","76","L","3","","","187","main_expt",""
"","bandit","267","898764","0.0-228.0-0.0","41165686","wem/bandit_either_3","A3H32595TVJ34Q","either","1","91","","","","","","","0","0","1","","0.8834510925","0.4","0.6","0.2","0.8","0.6833173747","0.2119556673","0.8834510925","0.5945875292","","","","","","","","","","","","75","K","2","","","188","main_expt",""
"","bandit","268","900526","0.0-229.0-0.0","41165686","wem/bandit_either_3","A3H32595TVJ34Q","either","1","248","","","","","","","0","1","0","","0.651089354","0.4","0.6","0.2","0.8","0.651089354","0.2255007403","0.8973947779","0.7406569186","","","","","","","","","","","","72","H","0","img/none_selected.jpg","","189","main_expt",""
"","bandit","269","902387","0.0-230.0-0.0","41165686","wem/bandit_either_3","A3H32595TVJ34Q","either","1","352","","","","","","","0","0","1","0.7371931777","","0.4","0.6","0.2","0.8","","","","","0.6599652607","0.1754842532","0.8824587855","0.7371931777","","","","","","","","76","L","3","","","190","main_expt",""
"","bandit","270","903963","0.0-231.0-0.0","41165686","wem/bandit_either_3","A3H32595TVJ34Q","either","1","67","","","","","","","0","1","0","","0.6960236584","0.4","0.6","0.2","0.8","0.6960236584","0.1936311571","0.9076431997","0.7019705866","","","","","","","","","","","","72","H","0","img/none_selected.jpg","","191","main_expt",""
"","bandit","271","905786","0.0-232.0-0.0","41165686","wem/bandit_either_3","A3H32595TVJ34Q","either","1","310","","","","","","","0","0","1","0.8673165995","","0.4","0.6","0.2","0.8","","","","","0.6713911156","0.215612591","0.8673165995","0.6198122665","","","","","","","","75","K","2","","","192","main_expt",""
"","bandit","272","907683","0.0-233.0-0.0","41165686","wem/bandit_either_3","A3H32595TVJ34Q","either","1","388","","","","","","","0","0","1","0.6100930929","","0.4","0.6","0.2","0.8","","","","","0.7244072205","0.2818734505","0.8264401474","0.6100930929","","","","","","","","76","L","3","","","193","main_expt",""
"","bandit","273","909771","0.0-234.0-0.0","41165686","wem/bandit_either_3","A3H32595TVJ34Q","either","1","574","","","","","","","0","1","0","","0.7397798508","0.4","0.6","0.2","0.8","0.7397798508","0.3616108755","0.8546086414","0.6332739585","","","","","","","","","","","","72","H","0","img/none_selected.jpg","","194","main_expt",""
"","bandit","274","911588","0.0-235.0-0.0","41165686","wem/bandit_either_3","A3H32595TVJ34Q","either","1","302","","","","","","","1","0","0","0.7602069811","","0.4","0.6","0.2","0.8","","","","","0.7602069811","0.3979961615","0.7914914872","0.609207161","","","","","","","","72","H","0","img/none_selected.jpg","","195","main_expt",""
"","bandit","275","913395","0.0-236.0-0.0","41165686","wem/bandit_either_3","A3H32595TVJ34Q","either","1","292","","","","","","","0","0","1","0.7114092524","","0.4","0.6","0.2","0.8","","","","","0.7114092524","0.4366641927","0.7608346536","0.6560649547","","","","","","","","72","H","0","img/none_selected.jpg","","196","main_expt",""
"","bandit","276","916476","0.0-237.0-0.0","41165686","wem/bandit_either_3","A3H32595TVJ34Q","either","1","1565","","","","","","","1","0","0","0.6656533059","","0.4","0.6","0.2","0.8","","","","","0.6917424169","0.560782874","0.7003784325","0.6656533059","","","","","","","","76","L","3","","","197","main_expt",""
"","bandit","277","918619","0.0-238.0-0.0","41165686","wem/bandit_either_3","A3H32595TVJ34Q","either","1","633","","","","","","","0","1","0","","0.6036075577","0.4","0.6","0.2","0.8","0.6561069913","0.5649388288","0.6036075577","0.6841747727","","","","","","","","","","","","75","K","2","","","198","main_expt",""
"","bandit","278","920506","0.0-239.0-0.0","41165686","wem/bandit_either_3","A3H32595TVJ34Q","either","1","373","","","","","","","1","0","0","0.7105065455","","0.4","0.6","0.2","0.8","","","","","0.6948346643","0.5375892324","0.5843314555","0.7105065455","","","","","","","","76","L","3","","","199","main_expt",""
"","bandit","279","922251","0.0-240.0-0.0","41165686","wem/bandit_either_3","A3H32595TVJ34Q","either","1","237","","","","","","","1","0","0","0.7380433654","","0.4","0.6","0.2","0.8","","","","","0.7369743936","0.5625167851","0.539414212","0.7380433654","","","","","","","","76","L","3","","","200","main_expt",""
"","bandit","280","924058","0.0-241.0-0.0","41165686","wem/bandit_either_3","A3H32595TVJ34Q","either","1","297","","","","","","","1","0","0","0.6432951689","","0.4","0.6","0.2","0.8","","","","","0.8347268415","0.6266810217","0.3774065742","0.6432951689","","","","","","","","76","L","3","","","201","main_expt",""
"","bandit","281","926027","0.0-242.0-0.0","41165686","wem/bandit_either_3","A3H32595TVJ34Q","either","1","454","","","","","","","1","0","0","0.4995879772","","0.4","0.6","0.2","0.8","","","","","0.7612264534","0.6661075828","0.2824615609","0.4995879772","","","","","","","","76","L","3","","","202","main_expt",""
"","bandit","282","928139","0.0-243.0-0.0","41165686","wem/bandit_either_3","A3H32595TVJ34Q","either","1","602","","","","","","","1","0","0","0.4767352753","","0.4","0.6","0.2","0.8","","","","","0.6904596671","0.7534099026","0.210170224","0.4767352753","","","","","","","","76","L","3","","","203","main_expt",""
"","bandit","283","930250","0.0-244.0-0.0","41165686","wem/bandit_either_3","A3H32595TVJ34Q","either","1","603","","","","","","","0","0","1","0.3680612217","","0.4","0.6","0.2","0.8","","","","","0.6855485072","0.7033522103","0.2708138581","0.3680612217","","","","","","","","76","L","3","","","204","main_expt",""
"","bandit","284","931980","0.0-245.0-0.0","41165686","wem/bandit_either_3","A3H32595TVJ34Q","either","1","219","","","","","","","0","1","0","","0.7006332368","0.4","0.6","0.2","0.8","0.7006332368","0.6105989365","0.3319820794","0.3404512965","","","","","","","","","","","","72","H","0","img/none_selected.jpg","","205","main_expt",""
"","bandit","285","934070","0.0-246.0-0.0","41165686","wem/bandit_either_3","A3H32595TVJ34Q","either","1","578","","","","","","","1","0","0","0.7533130943","","0.4","0.6","0.2","0.8","","","","","0.7533130943","0.725137222","0.3517339603","0.2774568564","","","","","","","","72","H","0","img/none_selected.jpg","","206","main_expt",""
"","bandit","286","935973","0.0-247.0-0.0","41165686","wem/bandit_either_3","A3H32595TVJ34Q","either","1","391","","","","","","","0","0","1","0.2228883469","","0.4","0.6","0.2","0.8","","","","","0.7191760557","0.5888984072","0.2871079035","0.2228883469","","","","","","","","76","L","3","","","207","main_expt",""
"","bandit","287","937964","0.0-248.0-0.0","41165686","wem/bandit_either_3","A3H32595TVJ34Q","either","1","476","","","","","","","0","0","1","","0.2642306377","0.4","0.6","0.2","0.8","0.6264293856","0.4650323514","0.2642306377","0.2829247412","","","","","","","","","","","","75","K","2","","","208","main_expt",""
"","bandit","288","939819","0.0-249.0-0.0","41165686","wem/bandit_either_3","A3H32595TVJ34Q","either","1","340","","","","","","","1","0","0","0.6500478562","","0.4","0.6","0.2","0.8","","","","","0.6500478562","0.4100719568","0.3587725811","0.3169104167","","","","","","","","72","H","0","img/none_selected.jpg","","209","main_expt",""
"","bandit","289","941698","0.0-250.0-0.0","41165686","wem/bandit_either_3","A3H32595TVJ34Q","either","1","366","","","","","","","1","0","0","0.6498865343","","0.4","0.6","0.2","0.8","","","","","0.6498865343","0.5177296744","0.3103342645","0.2090062306","","","","","","","","72","H","0","img/none_selected.jpg","","210","main_expt",""
"","bandit","290","943771","0.0-251.0-0.0","41165686","wem/bandit_either_3","A3H32595TVJ34Q","either","1","563","","","","","","","0","1","0","","0.6056301442","0.4","0.6","0.2","0.8","0.6056301442","0.5950812693","0.3760595068","0.1481662818","","","","","","","","","","","","72","H","0","img/none_selected.jpg","","211","main_expt",""
"","bandit","291","945699","0.0-252.0-0.0","41165686","wem/bandit_either_3","A3H32595TVJ34Q","either","1","418","","","","","","","0","1","0","","0.5524844402","0.4","0.6","0.2","0.8","0.5524844402","0.7169745983","0.447023013","0.2114888193","","","","","","","","","","","","72","H","0","img/none_selected.jpg","","212","main_expt",""
"","bandit","292","947467","0.0-253.0-0.0","41165686","wem/bandit_either_3","A3H32595TVJ34Q","either","1","251","","","","","","","0","1","0","","0.6984249358","0.4","0.6","0.2","0.8","0.6984249358","0.6766124197","0.4529182837","0.2234642754","","","","","","","","","","","","72","H","0","img/none_selected.jpg","","213","main_expt",""
"","bandit","293","949171","0.0-254.0-0.0","41165686","wem/bandit_either_3","A3H32595TVJ34Q","either","1","190","","","","","","","0","1","0","","0.5996975418","0.4","0.6","0.2","0.8","0.5996975418","0.8005648136","0.4306534983","0.2315139555","","","","","","","","","","","","72","H","0","img/none_selected.jpg","","214","main_expt",""
"","bandit","294","951131","0.0-255.0-0.0","41165686","wem/bandit_either_3","A3H32595TVJ34Q","either","1","445","","","","","","","0","1","0","","0.6067129047","0.4","0.6","0.2","0.8","0.6067129047","0.8487964291","0.4314469479","0.1949488974","","","","","","","","","","","","72","H","0","img/none_selected.jpg","","215","main_expt",""
"","bandit","295","952963","0.0-256.0-0.0","41165686","wem/bandit_either_3","A3H32595TVJ34Q","either","1","317","","","","","","","0","1","0","","0.6297976658","0.4","0.6","0.2","0.8","0.6297976658","0.8674123454","0.45439575","0.2333303883","","","","","","","","","","","","72","H","0","img/none_selected.jpg","","216","main_expt",""
"","bandit","296","954843","0.0-257.0-0.0","41165686","wem/bandit_either_3","A3H32595TVJ34Q","either","1","370","","","","","","","0","0","1","","0.6095272491","0.4","0.6","0.2","0.8","0.6095272491","0.8774404243","0.5228861726","0.2027763819","","","","","","","","","","","","72","H","0","img/none_selected.jpg","","217","main_expt",""
"","bandit","297","956645","0.0-258.0-0.0","41165686","wem/bandit_either_3","A3H32595TVJ34Q","either","1","286","","","","","","","0","1","0","","0.463703458","0.4","0.6","0.2","0.8","0.7058099393","0.8836448068","0.463703458","0.1895874514","","","","","","","","","","","","75","K","2","","","218","main_expt",""
"","bandit","298","958571","0.0-259.0-0.0","41165686","wem/bandit_either_3","A3H32595TVJ34Q","either","1","417","","","","","","","0","0","1","0.1537120117","","0.4","0.6","0.2","0.8","","","","","0.7396246451","0.880498508","0.4522864467","0.1537120117","","","","","","","","76","L","3","","","219","main_expt",""
"","bandit","299","960387","0.0-260.0-0.0","41165686","wem/bandit_either_3","A3H32595TVJ34Q","either","1","301","","","","","","","0","0","1","","0.4561576612","0.4","0.6","0.2","0.8","0.7091968036","0.8740874997","0.4561576612","0.2022747423","","","","","","","","","","","","75","K","2","","","220","main_expt",""
"","bandit","300","961906","0.0-261.0-0.0","41165686","wem/bandit_either_3","A3H32595TVJ34Q","either","1","7","","","","","","","0","0","1","0.3174413427","","0.4","0.6","0.2","0.8","","","","","0.7116308873","0.8527830905","0.4264657168","0.3174413427","","","","","","","","76","L","3","","","221","main_expt",""
"","bandit","301","963699","0.0-262.0-0.0","41165686","wem/bandit_either_3","A3H32595TVJ34Q","either","1","278","","","","","","","0","0","1","0.769465391","","0.4","0.6","0.2","0.8","","","","","0.769465391","0.7717907476","0.3055141729","0.2315667073","","","","","","","","72","H","0","img/none_selected.jpg","","222","main_expt",""
"","bandit","302","965795","0.0-263.0-0.0","41165686","wem/bandit_either_3","A3H32595TVJ34Q","either","1","580","","","","","","","1","0","0","0.8359700354","","0.4","0.6","0.2","0.8","","","","","0.7509006974","0.8359700354","0.2868954791","0.2261006122","","","","","","","","74","J","1","","","223","main_expt",""
"","bandit","303","969020","0.0-264.0-0.0","41165686","wem/bandit_either_3","A3H32595TVJ34Q","either","1","1710","","","","","","","1","0","0","0.819670806","","0.4","0.6","0.2","0.8","","","","","0.7007688409","0.819670806","0.2698185242","0.2662378096","","","","","","","","74","J","1","","","224","main_expt",""
"","bandit","304","972308","0.0-265.0-0.0","41165686","wem/bandit_either_3","A3H32595TVJ34Q","either","1","1771","","","","","","","1","0","0","0.8512382749","","0.4","0.6","0.2","0.8","","","","","0.7409020096","0.8512382749","0.213842325","0.2163280173","","","","","","","","74","J","1","","","225","main_expt",""
"","bandit","305","974723","0.0-266.0-0.0","41165686","wem/bandit_either_3","A3H32595TVJ34Q","either","1","900","","","","","","","1","0","0","0.8342861847","","0.4","0.6","0.2","0.8","","","","","0.7052945704","0.8342861847","0.1616408491","0.2809353625","","","","","","","","74","J","1","","","226","main_expt",""
"","bandit","306","979284","0.0-267.0-0.0","41165686","wem/bandit_either_3","A3H32595TVJ34Q","either","1","3047","","","","","","","1","0","0","0.7736041865","","0.4","0.6","0.2","0.8","","","","","0.606091252","0.7736041865","0.1777599287","0.2396571279","","","","","","","","74","J","1","","","227","main_expt",""
"","bandit","307","981403","0.0-268.0-0.0","41165686","wem/bandit_either_3","A3H32595TVJ34Q","either","1","609","","","","","","","0","1","0","","0.5834203199","0.4","0.6","0.2","0.8","0.5834203199","0.8094350608","0.2866543064","0.3430446928","","","","","","","","","","","","72","H","0","img/none_selected.jpg","","228","main_expt",""
"","bandit","308","987596","0.0-269.0-0.0","41165686","wem/bandit_either_3","A3H32595TVJ34Q","either","1","4677","","","","","","","0","1","0","","0.8078722129","0.4","0.6","0.2","0.8","0.5466214007","0.8078722129","0.3948293382","0.2886233194","","","","","","","","","","","","74","J","1","","","229","main_expt",""
"","bandit","309","989477","0.0-270.0-0.0","41165686","wem/bandit_either_3","A3H32595TVJ34Q","either","1","366","","","","","","","1","0","0","0.7719043616","","0.4","0.6","0.2","0.8","","","","","0.5519014059","0.7719043616","0.3291786684","0.3213731463","","","","","","","","74","J","1","","","230","main_expt",""
"","bandit","310","994083","0.0-271.0-0.0","41165686","wem/bandit_either_3","A3H32595TVJ34Q","either","1","3090","","","","","","","1","0","0","0.8049264475","","0.4","0.6","0.2","0.8","","","","","0.4527164215","0.8049264475","0.2378236032","0.2771614906","","","","","","","","74","J","1","","","231","main_expt",""
"","bandit","311","1003629","0.0-272.0-0.0","41165686","wem/bandit_either_3","A3H32595TVJ34Q","either","1","8033","","","","","","","0","1","0","","0.8850589997","0.4","0.6","0.2","0.8","0.5135082398","0.8850589997","0.246393804","0.2249105956","","","","","","","","","","","","74","J","1","","","232","main_expt",""
"","bandit","312","1005323","0.0-273.0-0.0","41165686","wem/bandit_either_3","A3H32595TVJ34Q","either","1","184","","","","","","","1","0","0","0.9183615156","","0.4","0.6","0.2","0.8","","","","","0.5502454751","0.9183615156","0.2141634692","0.2447973041","","","","","","","","74","J","1","","","233","main_expt",""
"","bandit","313","1007436","0.0-274.0-0.0","41165686","wem/bandit_either_3","A3H32595TVJ34Q","either","1","596","","","","","","","0","1","0","","0.9639410842","0.4","0.6","0.2","0.8","0.3783923662","0.9639410842","0.2876436191","0.24601643","","","","","","","","","","","","74","J","1","","","234","main_expt",""
"","bandit","314","1009347","0.0-275.0-0.0","41165686","wem/bandit_either_3","A3H32595TVJ34Q","either","1","400","","","","","","","1","0","0","0.9697187448","","0.4","0.6","0.2","0.8","","","","","0.2814299379","0.9697187448","0.2769077257","0.1629844561","","","","","","","","74","J","1","","","235","main_expt",""
"","bandit","315","1011619","0.0-276.0-0.0","41165686","wem/bandit_either_3","A3H32595TVJ34Q","either","1","762","","","","","","","1","0","0","0.9571573523","","0.4","0.6","0.2","0.8","","","","","0.3106100538","0.9571573523","0.136865198","0.1929455839","","","","","","","","74","J","1","","","236","main_expt",""
"","bandit","316","1014028","0.0-277.0-0.0","41165686","wem/bandit_either_3","A3H32595TVJ34Q","either","1","894","","","","","","","0","1","0","","0.9170696074","0.4","0.6","0.2","0.8","0.3152445528","0.9170696074","0.1123790732","0.1497712966","","","","","","","","","","","","74","J","1","","","237","main_expt",""
"","bandit","317","1015915","0.0-278.0-0.0","41165686","wem/bandit_either_3","A3H32595TVJ34Q","either","1","371","","","","","","","1","0","0","0.9207491077","","0.4","0.6","0.2","0.8","","","","","0.2637175197","0.9207491077","0.09027024906","0.1526491196","","","","","","","","74","J","1","","","238","main_expt",""
"","bandit","318","1017908","0.0-279.0-0.0","41165686","wem/bandit_either_3","A3H32595TVJ34Q","either","1","476","","","","","","","0","1","0","","0.9211301165","0.4","0.6","0.2","0.8","0.1889878372","0.9211301165","0.08323179304","0.1745924244","","","","","","","","","","","","74","J","1","","","239","main_expt",""
"","bandit","319","1019827","0.0-280.0-0.0","41165686","wem/bandit_either_3","A3H32595TVJ34Q","either","1","403","","","","","","","1","0","0","0.8992774771","","0.4","0.6","0.2","0.8","","","","","0.1710885746","0.8992774771","0.08130265934","0.1159399908","","","","","","","","74","J","1","","","240","main_expt",""
"","bandit","320","1021763","0.0-281.0-0.0","41165686","wem/bandit_either_3","A3H32595TVJ34Q","either","1","420","","","","","","","0","1","0","","0.8977441673","0.4","0.6","0.2","0.8","0.1232632504","0.8977441673","0.1424736114","0.1682101231","","","","","","","","","","","","74","J","1","","","241","main_expt",""
"","bandit","321","1023707","0.0-282.0-0.0","41165686","wem/bandit_either_3","A3H32595TVJ34Q","either","1","432","","","","","","","1","0","0","0.853076495","","0.4","0.6","0.2","0.8","","","","","0.210295675","0.853076495","0.2433221762","0.1643169396","","","","","","","","74","J","1","","","242","main_expt",""
"","bandit","322","1025411","0.0-283.0-0.0","41165686","wem/bandit_either_3","A3H32595TVJ34Q","either","1","195","","","","","","","1","0","0","0.8942427246","","0.4","0.6","0.2","0.8","","","","","0.289349801","0.8942427246","0.3185073654","0.1355776028","","","","","","","","74","J","1","","","243","main_expt",""
"","bandit","323","1027907","0.0-284.0-0.0","41165686","wem/bandit_either_3","A3H32595TVJ34Q","either","1","979","","","","","","","0","0","1","0.8701402288","","0.4","0.6","0.2","0.8","","","","","0.4071614743","0.8701402288","0.3533170098","0.1311829495","","","","","","","","74","J","1","","","244","main_expt",""
"","bandit","324","1029978","0.0-285.0-0.0","41165686","wem/bandit_either_3","A3H32595TVJ34Q","either","1","556","","","","","","","1","0","0","0.8552475109","","0.4","0.6","0.2","0.8","","","","","0.453462755","0.8552475109","0.3482220419","0.1273238","","","","","","","","74","J","1","","","245","main_expt",""
