"consent","trial_type","trial_index","time_elapsed","internal_node_id","subjID","study","MID","cond","drift","rt","responses","key_press","expt_phase","like","value","connected","gems","bombs","no_reward","GemPrChosen","BombPrChosen","GainOverPainPr_0","GainOverPainPr_1","GainOverPainPr_2","GainOverPainPr_3","LosePr_0","LosePr_1","LosePr_2","LosePr_3","WinPr_0","WinPr_1","WinPr_2","WinPr_3","Q0","Q1","Q2","gender","age","ethnicity","target","respCharCode","respKey","respChoiceNum","respChoice","practice","trial_counter","trial_label","button_pressed"
"INL_behavioral_consent_30min_online.html","consent","0","15426","0.0-0.0","42132536","wem/bandit_either_3","A2HBI8BAE2C5QH","either","7","","","","","","","","","","","","","","","","","","","","","","","","","","","","","","","","","","","","","","",""
"","survey-text","1","21552","0.0-1.0","42132536","wem/bandit_either_3","A2HBI8BAE2C5QH","either","7","5118","{""Q0"":""A2HBI8BAE2C5QH""}","","","","","","","","","","","","","","","","","","","","","","","","","","","","","","","","","","","","",""
"","text","2","41041","0.0-2.0","42132536","wem/bandit_either_3","A2HBI8BAE2C5QH","either","7","18487","","32","","","","","","","","","","","","","","","","","","","","","","","","","","","","","","","","","","","",""
"","text","3","49480","0.0-3.0","42132536","wem/bandit_either_3","A2HBI8BAE2C5QH","either","7","8436","","32","","","","","","","","","","","","","","","","","","","","","","","","","","","","","","","","","","","",""
"","text","4","77877","0.0-4.0","42132536","wem/bandit_either_3","A2HBI8BAE2C5QH","either","7","28394","","32","","","","","","","","","","","","","","","","","","","","","","","","","","","","","","","","","","","",""
"","text","5","91735","0.0-5.0","42132536","wem/bandit_either_3","A2HBI8BAE2C5QH","either","7","13855","","32","","","","","","","","","","","","","","","","","","","","","","","","","","","","","","","","","","","",""
"","text","6","104404","0.0-6.0","42132536","wem/bandit_either_3","A2HBI8BAE2C5QH","either","7","12664","","32","","","","","","","","","","","","","","","","","","","","","","","","","","","","","","","","","","","",""
"","text","7","116485","0.0-7.0","42132536","wem/bandit_either_3","A2HBI8BAE2C5QH","either","7","12077","","32","","","","","","","","","","","","","","","","","","","","","","","","","","","","","","","","","","","",""
"","text","8","120313","0.0-8.0","42132536","wem/bandit_either_3","A2HBI8BAE2C5QH","either","7","3824","","32","","","","","","","","","","","","","","","","","","","","","","","","","","","","","","","","","","","",""
"","identification","9","130124","0.0-9.0-0.0","42132536","wem/bandit_either_3","A2HBI8BAE2C5QH","either","7","9787","","","","6","6","6","","","","","","","","","","","","","","","","","","","","","","","","the village of Zur","","","","","","","",""
"","identification","10","135467","0.0-9.0-1.0","42132536","wem/bandit_either_3","A2HBI8BAE2C5QH","either","7","4323","","","","0","0","0","","","","","","","","","","","","","","","","","","","","","","","","the village of Nyx","","","","","","","",""
"","text","11","142465","0.0-10.0","42132536","wem/bandit_either_3","A2HBI8BAE2C5QH","either","7","5996","","32","","","","","","","","","","","","","","","","","","","","","","","","","","","","","","","","","","","",""
"","text","12","145161","0.0-11.0","42132536","wem/bandit_either_3","A2HBI8BAE2C5QH","either","7","2694","","32","","","","","","","","","","","","","","","","","","","","","","","","","","","","","","","","","","","",""
"","text","13","147043","0.0-12.0","42132536","wem/bandit_either_3","A2HBI8BAE2C5QH","either","7","1880","","32","","","","","","","","","","","","","","","","","","","","","","","","","","","","","","","","","","","",""
"","text","14","151425","0.0-13.0","42132536","wem/bandit_either_3","A2HBI8BAE2C5QH","either","7","4380","","32","","","","","","","","","","","","","","","","","","","","","","","","","","","","","","","","","","","",""
"","bandit","15","154887","0.0-14.0-0.0","42132536","wem/bandit_either_3","A2HBI8BAE2C5QH","either","7","1953","","","","","","","0","0","1","0","0","","","","","0","","","","0","","","","","","","","","","","74","J","0","img/none_selected_demo.jpg","true","0","",""
"","bandit","16","157390","0.0-15.0-0.0","42132536","wem/bandit_either_3","A2HBI8BAE2C5QH","either","7","993","","","","","","","0","0","1","0","0","","","","","0","","","","0","","","","","","","","","","","75","K","0","img/none_selected_demo.jpg","true","0","",""
"","text","17","162144","0.0-16.0","42132536","wem/bandit_either_3","A2HBI8BAE2C5QH","either","7","4751","","32","","","","","","","","","","","","","","","","","","","","","","","","","","","","","","","","","","","",""
"","text","18","169929","0.0-17.0","42132536","wem/bandit_either_3","A2HBI8BAE2C5QH","either","7","7783","","32","","","","","","","","","","","","","","","","","","","","","","","","","","","","","","","","","","","",""
"","text","19","175710","0.0-18.0","42132536","wem/bandit_either_3","A2HBI8BAE2C5QH","either","7","5776","","32","","","","","","","","","","","","","","","","","","","","","","","","","","","","","","","","","","","",""
"","text","20","178800","0.0-19.0","42132536","wem/bandit_either_3","A2HBI8BAE2C5QH","either","7","3087","","32","","","","","","","","","","","","","","","","","","","","","","","","","","","","","","","","","","","",""
"","bandit","21","181535","0.0-20.0-0.0","42132536","wem/bandit_either_3","A2HBI8BAE2C5QH","either","7","1226","","","","","","","0","0","1","","0.8","0.5","0.5","","","0.8","0.2","","","","","","","","","","","","","","74","J","0","img/none_selected_demo.jpg","true","0","80_20_practice",""
"","bandit","22","183704","0.0-20.0-1.0","42132536","wem/bandit_either_3","A2HBI8BAE2C5QH","either","7","660","","","","","","","1","0","0","0.2","","0.5","0.5","","","","","","","0.8","0.2","","","","","","","","","","75","K","1","","true","0","80_20_practice",""
"","bandit","23","186169","0.0-20.0-2.0","42132536","wem/bandit_either_3","A2HBI8BAE2C5QH","either","7","952","","","","","","","0","1","0","","0.2","0.5","0.5","","","0.8","0.2","","","","","","","","","","","","","","75","K","1","","true","0","80_20_practice",""
"","bandit","24","188311","0.0-20.0-3.0","42132536","wem/bandit_either_3","A2HBI8BAE2C5QH","either","7","625","","","","","","","0","0","1","","0.2","0.5","0.5","","","0.8","0.2","","","","","","","","","","","","","","75","K","1","","true","0","80_20_practice",""
"","bandit","25","190416","0.0-20.0-4.0","42132536","wem/bandit_either_3","A2HBI8BAE2C5QH","either","7","595","","","","","","","0","1","0","","0.2","0.5","0.5","","","0.8","0.2","","","","","","","","","","","","","","75","K","1","","true","0","80_20_practice",""
"","bandit","26","192464","0.0-20.0-5.0","42132536","wem/bandit_either_3","A2HBI8BAE2C5QH","either","7","536","","","","","","","0","0","1","0.2","","0.5","0.5","","","","","","","0.8","0.2","","","","","","","","","","75","K","1","","true","0","80_20_practice",""
"","bandit","27","194358","0.0-20.0-6.0","42132536","wem/bandit_either_3","A2HBI8BAE2C5QH","either","7","386","","","","","","","1","0","0","0.8","","0.5","0.5","","","","","","","0.8","0.2","","","","","","","","","","74","J","0","img/none_selected_demo.jpg","true","0","80_20_practice",""
"","bandit","28","196568","0.0-20.0-7.0","42132536","wem/bandit_either_3","A2HBI8BAE2C5QH","either","7","702","","","","","","","1","0","0","0.8","","0.5","0.5","","","","","","","0.8","0.2","","","","","","","","","","74","J","0","img/none_selected_demo.jpg","true","0","80_20_practice",""
"","bandit","29","198639","0.0-20.0-8.0","42132536","wem/bandit_either_3","A2HBI8BAE2C5QH","either","7","562","","","","","","","1","0","0","0.8","","0.5","0.5","","","","","","","0.8","0.2","","","","","","","","","","74","J","0","img/none_selected_demo.jpg","true","0","80_20_practice",""
"","bandit","30","200569","0.0-20.0-9.0","42132536","wem/bandit_either_3","A2HBI8BAE2C5QH","either","7","423","","","","","","","1","0","0","0.8","","0.5","0.5","","","","","","","0.8","0.2","","","","","","","","","","74","J","0","img/none_selected_demo.jpg","true","0","80_20_practice",""
"","bandit","31","202758","0.0-20.0-10.0","42132536","wem/bandit_either_3","A2HBI8BAE2C5QH","either","7","682","","","","","","","0","0","1","","0.8","0.5","0.5","","","0.8","0.2","","","","","","","","","","","","","","74","J","0","img/none_selected_demo.jpg","true","0","80_20_practice",""
"","bandit","32","204799","0.0-20.0-11.0","42132536","wem/bandit_either_3","A2HBI8BAE2C5QH","either","7","533","","","","","","","0","1","0","","0.8","0.5","0.5","","","0.8","0.2","","","","","","","","","","","","","","74","J","0","img/none_selected_demo.jpg","true","0","80_20_practice",""
"","bandit","33","206735","0.0-20.0-12.0","42132536","wem/bandit_either_3","A2HBI8BAE2C5QH","either","7","422","","","","","","","0","1","0","","0.8","0.5","0.5","","","0.8","0.2","","","","","","","","","","","","","","74","J","0","img/none_selected_demo.jpg","true","0","80_20_practice",""
"","bandit","34","208609","0.0-20.0-13.0","42132536","wem/bandit_either_3","A2HBI8BAE2C5QH","either","7","364","","","","","","","0","1","0","","0.8","0.5","0.5","","","0.8","0.2","","","","","","","","","","","","","","74","J","0","img/none_selected_demo.jpg","true","0","80_20_practice",""
"","bandit","35","210454","0.0-20.0-14.0","42132536","wem/bandit_either_3","A2HBI8BAE2C5QH","either","7","336","","","","","","","0","1","0","","0.8","0.5","0.5","","","0.8","0.2","","","","","","","","","","","","","","74","J","0","img/none_selected_demo.jpg","true","0","80_20_practice",""
"","bandit","36","212285","0.0-20.0-15.0","42132536","wem/bandit_either_3","A2HBI8BAE2C5QH","either","7","323","","","","","","","1","0","0","0.8","","0.5","0.5","","","","","","","0.8","0.2","","","","","","","","","","74","J","0","img/none_selected_demo.jpg","true","0","80_20_practice",""
"","bandit","37","214319","0.0-20.0-16.0","42132536","wem/bandit_either_3","A2HBI8BAE2C5QH","either","7","526","","","","","","","0","1","0","","0.8","0.5","0.5","","","0.8","0.2","","","","","","","","","","","","","","74","J","0","img/none_selected_demo.jpg","true","0","80_20_practice",""
"","bandit","38","216171","0.0-20.0-17.0","42132536","wem/bandit_either_3","A2HBI8BAE2C5QH","either","7","338","","","","","","","0","0","1","","0.8","0.5","0.5","","","0.8","0.2","","","","","","","","","","","","","","74","J","0","img/none_selected_demo.jpg","true","0","80_20_practice",""
"","bandit","39","218054","0.0-20.0-18.0","42132536","wem/bandit_either_3","A2HBI8BAE2C5QH","either","7","374","","","","","","","0","1","0","","0.8","0.5","0.5","","","0.8","0.2","","","","","","","","","","","","","","74","J","0","img/none_selected_demo.jpg","true","0","80_20_practice",""
"","bandit","40","219915","0.0-20.0-19.0","42132536","wem/bandit_either_3","A2HBI8BAE2C5QH","either","7","352","","","","","","","0","1","0","","0.8","0.5","0.5","","","0.8","0.2","","","","","","","","","","","","","","74","J","0","img/none_selected_demo.jpg","true","0","80_20_practice",""
"","text","41","222912","0.0-21.0","42132536","wem/bandit_either_3","A2HBI8BAE2C5QH","either","7","2993","","32","","","","","","","","","","","","","","","","","","","","","","","","","","","","","","","","","","","",""
"","bandit","42","225192","0.0-22.0-0.0","42132536","wem/bandit_either_3","A2HBI8BAE2C5QH","either","7","769","","","","","","","1","0","0","1","0","","","","","0","1","","","1","0","","","","","","","","","","74","J","0","img/none_selected_demo.jpg","true","0","",""
"","text","43","228954","0.0-23.0","42132536","wem/bandit_either_3","A2HBI8BAE2C5QH","either","7","3758","","32","","","","","","","","","","","","","","","","","","","","","","","","","","","","","","","","","","","",""
"","text","44","231056","0.0-24.0","42132536","wem/bandit_either_3","A2HBI8BAE2C5QH","either","7","2097","","32","","","","","","","","","","","","","","","","","","","","","","","","","","","","","","","","","","","",""
"","text","45","233096","0.0-25.0","42132536","wem/bandit_either_3","A2HBI8BAE2C5QH","either","7","2035","","32","","","","","","","","","","","","","","","","","","","","","","","","","","","","","","","","","","","",""
"","text","46","235417","0.0-26.0","42132536","wem/bandit_either_3","A2HBI8BAE2C5QH","either","7","2316","","32","","","","","","","","","","","","","","","","","","","","","","","","","","","","","","","","","","","",""
"","text","47","242112","0.0-27.0","42132536","wem/bandit_either_3","A2HBI8BAE2C5QH","either","7","6691","","32","","","","","","","","","","","","","","","","","","","","","","","","","","","","","","","","","","","",""
"","text","48","244353","0.0-28.0","42132536","wem/bandit_either_3","A2HBI8BAE2C5QH","either","7","2236","","32","","","","","","","","","","","","","","","","","","","","","","","","","","","","","","","","","","","",""
"","text","49","249169","0.0-29.0","42132536","wem/bandit_either_3","A2HBI8BAE2C5QH","either","7","4808","","32","","","","","","","","","","","","","","","","","","","","","","","","","","","","","","","","","","","",""
"","text","50","252985","0.0-30.0","42132536","wem/bandit_either_3","A2HBI8BAE2C5QH","either","7","3812","","32","","","","","","","","","","","","","","","","","","","","","","","","","","","","","","","","","","","",""
"","text","51","258505","0.0-31.0","42132536","wem/bandit_either_3","A2HBI8BAE2C5QH","either","7","5515","","32","","","","","","","","","","","","","","","","","","","","","","","","","","","","","","","","","","","",""
"","text","52","260264","0.0-32.0","42132536","wem/bandit_either_3","A2HBI8BAE2C5QH","either","7","1754","","32","","","","","","","","","","","","","","","","","","","","","","","","","","","","","","","","","","","",""
"","text","53","265838","0.0-33.0","42132536","wem/bandit_either_3","A2HBI8BAE2C5QH","either","7","5569","","32","","","","","","","","","","","","","","","","","","","","","","","","","","","","","","","","","","","",""
"","bandit","54","268127","0.0-34.0-0.0","42132536","wem/bandit_either_3","A2HBI8BAE2C5QH","either","7","778","","","","","","","0","0","1","","0.8","0.5","0.5","0.5","0.5","0.8","0.2","0.6","0.2","","","","","","","","","","","","72","H","0","img/none_selected.jpg","true","0","full_practice",""
"","bandit","55","269985","0.0-34.0-1.0","42132536","wem/bandit_either_3","A2HBI8BAE2C5QH","either","7","348","","","","","","","1","0","0","0.8","","0.5","0.5","0.5","0.5","","","","","0.8","0.2","0.6","0.2","","","","","","","","72","H","0","img/none_selected.jpg","true","0","full_practice",""
"","bandit","56","271792","0.0-34.0-2.0","42132536","wem/bandit_either_3","A2HBI8BAE2C5QH","either","7","297","","","","","","","1","0","0","0.8","","0.5","0.5","0.5","0.5","","","","","0.8","0.2","0.6","0.2","","","","","","","","72","H","0","img/none_selected.jpg","true","0","full_practice",""
"","bandit","57","273656","0.0-34.0-3.0","42132536","wem/bandit_either_3","A2HBI8BAE2C5QH","either","7","355","","","","","","","0","0","1","","0.8","0.5","0.5","0.5","0.5","0.8","0.2","0.6","0.2","","","","","","","","","","","","72","H","0","img/none_selected.jpg","true","0","full_practice",""
"","bandit","58","275454","0.0-34.0-4.0","42132536","wem/bandit_either_3","A2HBI8BAE2C5QH","either","7","289","","","","","","","0","1","0","","0.8","0.5","0.5","0.5","0.5","0.8","0.2","0.6","0.2","","","","","","","","","","","","72","H","0","img/none_selected.jpg","true","0","full_practice",""
"","bandit","59","277261","0.0-34.0-5.0","42132536","wem/bandit_either_3","A2HBI8BAE2C5QH","either","7","298","","","","","","","0","0","1","","0.8","0.5","0.5","0.5","0.5","0.8","0.2","0.6","0.2","","","","","","","","","","","","72","H","0","img/none_selected.jpg","true","0","full_practice",""
"","bandit","60","279100","0.0-34.0-6.0","42132536","wem/bandit_either_3","A2HBI8BAE2C5QH","either","7","327","","","","","","","1","0","0","0.8","","0.5","0.5","0.5","0.5","","","","","0.8","0.2","0.6","0.2","","","","","","","","72","H","0","img/none_selected.jpg","true","0","full_practice",""
"","bandit","61","280917","0.0-34.0-7.0","42132536","wem/bandit_either_3","A2HBI8BAE2C5QH","either","7","306","","","","","","","1","0","0","0.8","","0.5","0.5","0.5","0.5","","","","","0.8","0.2","0.6","0.2","","","","","","","","72","H","0","img/none_selected.jpg","true","0","full_practice",""
"","bandit","62","282745","0.0-34.0-8.0","42132536","wem/bandit_either_3","A2HBI8BAE2C5QH","either","7","314","","","","","","","0","0","1","","0.8","0.5","0.5","0.5","0.5","0.8","0.2","0.6","0.2","","","","","","","","","","","","72","H","0","img/none_selected.jpg","true","0","full_practice",""
"","bandit","63","284503","0.0-34.0-9.0","42132536","wem/bandit_either_3","A2HBI8BAE2C5QH","either","7","244","","","","","","","0","1","0","","0.8","0.5","0.5","0.5","0.5","0.8","0.2","0.6","0.2","","","","","","","","","","","","72","H","0","img/none_selected.jpg","true","0","full_practice",""
"","bandit","64","286334","0.0-34.0-10.0","42132536","wem/bandit_either_3","A2HBI8BAE2C5QH","either","7","321","","","","","","","0","1","0","","0.8","0.5","0.5","0.5","0.5","0.8","0.2","0.6","0.2","","","","","","","","","","","","72","H","0","img/none_selected.jpg","true","0","full_practice",""
"","bandit","65","288192","0.0-34.0-11.0","42132536","wem/bandit_either_3","A2HBI8BAE2C5QH","either","7","344","","","","","","","0","1","0","","0.8","0.5","0.5","0.5","0.5","0.8","0.2","0.6","0.2","","","","","","","","","","","","72","H","0","img/none_selected.jpg","true","0","full_practice",""
"","bandit","66","290023","0.0-34.0-12.0","42132536","wem/bandit_either_3","A2HBI8BAE2C5QH","either","7","319","","","","","","","1","0","0","0.8","","0.5","0.5","0.5","0.5","","","","","0.8","0.2","0.6","0.2","","","","","","","","72","H","0","img/none_selected.jpg","true","0","full_practice",""
"","bandit","67","291838","0.0-34.0-13.0","42132536","wem/bandit_either_3","A2HBI8BAE2C5QH","either","7","305","","","","","","","1","0","0","0.8","","0.5","0.5","0.5","0.5","","","","","0.8","0.2","0.6","0.2","","","","","","","","72","H","0","img/none_selected.jpg","true","0","full_practice",""
"","bandit","68","294133","0.0-34.0-14.0","42132536","wem/bandit_either_3","A2HBI8BAE2C5QH","either","7","786","","","","","","","1","0","0","0.8","","0.5","0.5","0.5","0.5","","","","","0.8","0.2","0.6","0.2","","","","","","","","72","H","0","img/none_selected.jpg","true","0","full_practice",""
"","bandit","69","295972","0.0-34.0-15.0","42132536","wem/bandit_either_3","A2HBI8BAE2C5QH","either","7","330","","","","","","","1","0","0","0.8","","0.5","0.5","0.5","0.5","","","","","0.8","0.2","0.6","0.2","","","","","","","","72","H","0","img/none_selected.jpg","true","0","full_practice",""
"","bandit","70","297834","0.0-34.0-16.0","42132536","wem/bandit_either_3","A2HBI8BAE2C5QH","either","7","349","","","","","","","1","0","0","0.8","","0.5","0.5","0.5","0.5","","","","","0.8","0.2","0.6","0.2","","","","","","","","72","H","0","img/none_selected.jpg","true","0","full_practice",""
"","bandit","71","299677","0.0-34.0-17.0","42132536","wem/bandit_either_3","A2HBI8BAE2C5QH","either","7","333","","","","","","","1","0","0","0.8","","0.5","0.5","0.5","0.5","","","","","0.8","0.2","0.6","0.2","","","","","","","","72","H","0","img/none_selected.jpg","true","0","full_practice",""
"","bandit","72","301494","0.0-34.0-18.0","42132536","wem/bandit_either_3","A2HBI8BAE2C5QH","either","7","306","","","","","","","0","1","0","","0.8","0.5","0.5","0.5","0.5","0.8","0.2","0.6","0.2","","","","","","","","","","","","72","H","0","img/none_selected.jpg","true","0","full_practice",""
"","bandit","73","303350","0.0-34.0-19.0","42132536","wem/bandit_either_3","A2HBI8BAE2C5QH","either","7","344","","","","","","","1","0","0","0.8","","0.5","0.5","0.5","0.5","","","","","0.8","0.2","0.6","0.2","","","","","","","","72","H","0","img/none_selected.jpg","true","0","full_practice",""
"","text","74","305618","0.0-35.0","42132536","wem/bandit_either_3","A2HBI8BAE2C5QH","either","7","2248","","32","","","","","","","","","","","","","","","","","","","","","","","","","","","","","","","","","","","",""
"","text","75","314936","0.0-36.0","42132536","wem/bandit_either_3","A2HBI8BAE2C5QH","either","7","8310","","32","","","","","","","","","","","","","","","","","","","","","","","","","","","","","","","","","","","",""
"","text","76","326216","0.0-37.0","42132536","wem/bandit_either_3","A2HBI8BAE2C5QH","either","7","11273","","32","","","","","","","","","","","","","","","","","","","","","","","","","","","","","","","","","","","",""
"","text","77","330647","0.0-38.0","42132536","wem/bandit_either_3","A2HBI8BAE2C5QH","either","7","4423","","32","","","","","","","","","","","","","","","","","","","","","","","","","","","","","","","","","","","",""
"","text","78","338008","0.0-39.0","42132536","wem/bandit_either_3","A2HBI8BAE2C5QH","either","7","7354","","32","","","","","","","","","","","","","","","","","","","","","","","","","","","","","","","","","","","",""
"","text","79","343281","0.0-40.0","42132536","wem/bandit_either_3","A2HBI8BAE2C5QH","either","7","5266","","32","","","","","","","","","","","","","","","","","","","","","","","","","","","","","","","","","","","",""
"","bandit","80","346616","0.0-41.0-0.0","42132536","wem/bandit_either_3","A2HBI8BAE2C5QH","either","7","1823","","","","","","","0","0","1","0.1731741302","","0.6","0.8","0.2","0.4","","","","","0.1731741302","0.7088318221","0.2888626749","0.5514722813","","","","","","","","72","H","0","img/none_selected.jpg","","1","main_expt",""
"","bandit","81","348368","0.0-42.0-0.0","42132536","wem/bandit_either_3","A2HBI8BAE2C5QH","either","7","240","","","","","","","0","0","1","","0.2874485847","0.6","0.8","0.2","0.4","0.2874485847","0.6292935488","0.3999538902","0.5039303977","","","","","","","","","","","","72","H","0","img/none_selected.jpg","","2","main_expt",""
"","bandit","82","350200","0.0-43.0-0.0","42132536","wem/bandit_either_3","A2HBI8BAE2C5QH","either","7","318","","","","","","","0","0","1","0.5285482983","","0.6","0.8","0.2","0.4","","","","","0.2683250969","0.5285482983","0.4126831114","0.5527877924","","","","","","","","74","J","1","","","3","main_expt",""
"","bandit","83","352048","0.0-44.0-0.0","42132536","wem/bandit_either_3","A2HBI8BAE2C5QH","either","7","337","","","","","","","0","1","0","","0.6744491701","0.6","0.8","0.2","0.4","0.3988631097","0.6744491701","0.3923803367","0.6336700584","","","","","","","","","","","","74","J","1","","","4","main_expt",""
"","bandit","84","353782","0.0-45.0-0.0","42132536","wem/bandit_either_3","A2HBI8BAE2C5QH","either","7","224","","","","","","","0","0","1","0.7922285807","","0.6","0.8","0.2","0.4","","","","","0.3568799457","0.7922285807","0.3803283439","0.6340088104","","","","","","","","74","J","1","","","5","main_expt",""
"","bandit","85","355575","0.0-46.0-0.0","42132536","wem/bandit_either_3","A2HBI8BAE2C5QH","either","7","279","","","","","","","0","0","1","","0.7459441126","0.6","0.8","0.2","0.4","0.3188731731","0.7459441126","0.4214296899","0.5784181907","","","","","","","","","","","","74","J","1","","","6","main_expt",""
"","bandit","86","357403","0.0-47.0-0.0","42132536","wem/bandit_either_3","A2HBI8BAE2C5QH","either","7","316","","","","","","","0","1","0","","0.4755968838","0.6","0.8","0.2","0.4","0.4574196012","0.7681481668","0.4755968838","0.6727083857","","","","","","","","","","","","75","K","2","","","7","main_expt",""
"","bandit","87","359251","0.0-48.0-0.0","42132536","wem/bandit_either_3","A2HBI8BAE2C5QH","either","7","333","","","","","","","0","0","1","0.5353568537","","0.6","0.8","0.2","0.4","","","","","0.5037884951","0.7251609313","0.5353568537","0.7574508858","","","","","","","","75","K","2","","","8","main_expt",""
"","bandit","88","361239","0.0-49.0-0.0","42132536","wem/bandit_either_3","A2HBI8BAE2C5QH","either","7","476","","","","","","","0","1","0","","0.6246831942","0.6","0.8","0.2","0.4","0.5750013994","0.7403055102","0.6246831942","0.8280759311","","","","","","","","","","","","75","K","2","","","9","main_expt",""
"","bandit","89","363039","0.0-50.0-0.0","42132536","wem/bandit_either_3","A2HBI8BAE2C5QH","either","7","289","","","","","","","0","0","1","0.4475954046","","0.6","0.8","0.2","0.4","","","","","0.5399040382","0.722944265","0.4475954046","0.859726102","","","","","","","","75","K","2","","","10","main_expt",""
"","bandit","90","364840","0.0-51.0-0.0","42132536","wem/bandit_either_3","A2HBI8BAE2C5QH","either","7","288","","","","","","","0","0","1","0.4514702697","","0.6","0.8","0.2","0.4","","","","","0.5181098662","0.6833847698","0.4514702697","0.877956501","","","","","","","","75","K","2","","","11","main_expt",""
"","bandit","91","366671","0.0-52.0-0.0","42132536","wem/bandit_either_3","A2HBI8BAE2C5QH","either","7","316","","","","","","","0","1","0","","0.8883669707","0.6","0.8","0.2","0.4","0.5489165229","0.689227163","0.4873058782","0.8883669707","","","","","","","","","","","","76","L","3","","","12","main_expt",""
"","bandit","92","368649","0.0-53.0-0.0","42132536","wem/bandit_either_3","A2HBI8BAE2C5QH","either","7","463","","","","","","","0","1","0","","0.817149195","0.6","0.8","0.2","0.4","0.6186986429","0.5178623456","0.4862469224","0.817149195","","","","","","","","","","","","76","L","3","","","13","main_expt",""
"","bandit","93","370599","0.0-54.0-0.0","42132536","wem/bandit_either_3","A2HBI8BAE2C5QH","either","7","437","","","","","","","0","1","0","","0.8589139609","0.6","0.8","0.2","0.4","0.4944095791","0.4768489018","0.360908092","0.8589139609","","","","","","","","","","","","76","L","3","","","14","main_expt",""
"","bandit","94","372440","0.0-55.0-0.0","42132536","wem/bandit_either_3","A2HBI8BAE2C5QH","either","7","325","","","","","","","0","1","0","","0.7955781648","0.6","0.8","0.2","0.4","0.4820951366","0.5201849276","0.4126647893","0.7955781648","","","","","","","","","","","","76","L","3","","","15","main_expt",""
"","bandit","95","374257","0.0-56.0-0.0","42132536","wem/bandit_either_3","A2HBI8BAE2C5QH","either","7","302","","","","","","","0","1","0","","0.8864445785","0.6","0.8","0.2","0.4","0.4888848296","0.6862231469","0.4930686601","0.8864445785","","","","","","","","","","","","76","L","3","","","16","main_expt",""
"","bandit","96","376081","0.0-57.0-0.0","42132536","wem/bandit_either_3","A2HBI8BAE2C5QH","either","7","311","","","","","","","0","1","0","","0.8746062981","0.6","0.8","0.2","0.4","0.381306026","0.7297328357","0.5162343008","0.8746062981","","","","","","","","","","","","76","L","3","","","17","main_expt",""
"","bandit","97","377880","0.0-58.0-0.0","42132536","wem/bandit_either_3","A2HBI8BAE2C5QH","either","7","284","","","","","","","0","1","0","","0.8910236512","0.6","0.8","0.2","0.4","0.3537135189","0.6686287009","0.5627456494","0.8910236512","","","","","","","","","","","","76","L","3","","","18","main_expt",""
"","bandit","98","379737","0.0-59.0-0.0","42132536","wem/bandit_either_3","A2HBI8BAE2C5QH","either","7","341","","","","","","","0","1","0","","0.8932054573","0.6","0.8","0.2","0.4","0.4891458502","0.7885428456","0.4478227807","0.8932054573","","","","","","","","","","","","76","L","3","","","19","main_expt",""
"","bandit","99","381573","0.0-60.0-0.0","42132536","wem/bandit_either_3","A2HBI8BAE2C5QH","either","7","324","","","","","","","1","0","0","0.8900063933","","0.6","0.8","0.2","0.4","","","","","0.5440957398","0.7442236049","0.5306796692","0.8900063933","","","","","","","","76","L","3","","","20","main_expt",""
"","bandit","100","383407","0.0-61.0-0.0","42132536","wem/bandit_either_3","A2HBI8BAE2C5QH","either","7","323","","","","","","","0","1","0","","0.8748704397","0.6","0.8","0.2","0.4","0.5621313733","0.7908218503","0.5423611418","0.8748704397","","","","","","","","","","","","76","L","3","","","21","main_expt",""
"","bandit","101","385249","0.0-62.0-0.0","42132536","wem/bandit_either_3","A2HBI8BAE2C5QH","either","7","329","","","","","","","1","0","0","0.8498769136","","0.6","0.8","0.2","0.4","","","","","0.5296345876","0.7163236006","0.4190568807","0.8498769136","","","","","","","","76","L","3","","","22","main_expt",""
"","bandit","102","387151","0.0-63.0-0.0","42132536","wem/bandit_either_3","A2HBI8BAE2C5QH","either","7","386","","","","","","","1","0","0","0.8357449374","","0.6","0.8","0.2","0.4","","","","","0.5187107172","0.7061190667","0.4329937009","0.8357449374","","","","","","","","76","L","3","","","23","main_expt",""
"","bandit","103","388968","0.0-64.0-0.0","42132536","wem/bandit_either_3","A2HBI8BAE2C5QH","either","7","299","","","","","","","0","0","1","","0.8431908073","0.6","0.8","0.2","0.4","0.6000521927","0.7470556917","0.4298879426","0.8431908073","","","","","","","","","","","","76","L","3","","","24","main_expt",""
"","bandit","104","390805","0.0-65.0-0.0","42132536","wem/bandit_either_3","A2HBI8BAE2C5QH","either","7","326","","","","","","","0","0","1","0.8741885854","","0.6","0.8","0.2","0.4","","","","","0.5443047256","0.8154180688","0.2992323157","0.8741885854","","","","","","","","76","L","3","","","25","main_expt",""
"","bandit","105","392632","0.0-66.0-0.0","42132536","wem/bandit_either_3","A2HBI8BAE2C5QH","either","7","314","","","","","","","0","0","1","0.3857263224","","0.6","0.8","0.2","0.4","","","","","0.592493964","0.8395379789","0.3857263224","0.8940719671","","","","","","","","75","K","2","","","26","main_expt",""
"","bandit","106","394542","0.0-67.0-0.0","42132536","wem/bandit_either_3","A2HBI8BAE2C5QH","either","7","399","","","","","","","0","1","0","","0.3715251318","0.6","0.8","0.2","0.4","0.5779569403","0.8023078409","0.3715251318","0.8733378856","","","","","","","","","","","","75","K","2","","","27","main_expt",""
"","bandit","107","396402","0.0-68.0-0.0","42132536","wem/bandit_either_3","A2HBI8BAE2C5QH","either","7","346","","","","","","","0","0","1","0.3387808014","","0.6","0.8","0.2","0.4","","","","","0.7077223562","0.8248968235","0.3387808014","0.8695586723","","","","","","","","75","K","2","","","28","main_expt",""
"","bandit","108","398288","0.0-69.0-0.0","42132536","wem/bandit_either_3","A2HBI8BAE2C5QH","either","7","367","","","","","","","0","0","1","0.3737397218","","0.6","0.8","0.2","0.4","","","","","0.7070353494","0.8621011303","0.3737397218","0.7908290088","","","","","","","","75","K","2","","","29","main_expt",""
"","bandit","109","400197","0.0-70.0-0.0","42132536","wem/bandit_either_3","A2HBI8BAE2C5QH","either","7","397","","","","","","","1","0","0","0.8873668535","","0.6","0.8","0.2","0.4","","","","","0.6585428656","0.8873668535","0.3232047389","0.8518997755","","","","","","","","74","J","1","","","30","main_expt",""
"","bandit","110","402055","0.0-71.0-0.0","42132536","wem/bandit_either_3","A2HBI8BAE2C5QH","either","7","342","","","","","","","1","0","0","0.9318975106","","0.6","0.8","0.2","0.4","","","","","0.6724088618","0.9318975106","0.4130267239","0.8509842625","","","","","","","","74","J","1","","","31","main_expt",""
"","bandit","111","403983","0.0-72.0-0.0","42132536","wem/bandit_either_3","A2HBI8BAE2C5QH","either","7","408","","","","","","","1","0","0","0.9013609786","","0.6","0.8","0.2","0.4","","","","","0.6416581209","0.9013609786","0.4167758813","0.872996121","","","","","","","","74","J","1","","","32","main_expt",""
"","bandit","112","406014","0.0-73.0-0.0","42132536","wem/bandit_either_3","A2HBI8BAE2C5QH","either","7","489","","","","","","","1","0","0","0.9041531295","","0.6","0.8","0.2","0.4","","","","","0.7055802426","0.9041531295","0.4546052232","0.8571046391","","","","","","","","74","J","1","","","33","main_expt",""
"","bandit","113","407878","0.0-74.0-0.0","42132536","wem/bandit_either_3","A2HBI8BAE2C5QH","either","7","352","","","","","","","0","1","0","","0.9386104272","0.6","0.8","0.2","0.4","0.7554114371","0.9386104272","0.5231803088","0.9175819521","","","","","","","","","","","","74","J","1","","","34","main_expt",""
"","bandit","114","409748","0.0-75.0-0.0","42132536","wem/bandit_either_3","A2HBI8BAE2C5QH","either","7","355","","","","","","","1","0","0","0.9180645683","","0.6","0.8","0.2","0.4","","","","","0.8008095759","0.9180645683","0.4661188593","0.9503165686","","","","","","","","74","J","1","","","35","main_expt",""
"","bandit","115","411648","0.0-76.0-0.0","42132536","wem/bandit_either_3","A2HBI8BAE2C5QH","either","7","384","","","","","","","1","0","0","0.9095107155","","0.6","0.8","0.2","0.4","","","","","0.6925109639","0.9095107155","0.4106027186","0.9327615424","","","","","","","","74","J","1","","","36","main_expt",""
"","bandit","116","413679","0.0-77.0-0.0","42132536","wem/bandit_either_3","A2HBI8BAE2C5QH","either","7","518","","","","","","","0","1","0","","0.9405648028","0.6","0.8","0.2","0.4","0.7764255689","0.9405648028","0.5021263718","0.9196494001","","","","","","","","","","","","74","J","1","","","37","main_expt",""
"","bandit","117","415546","0.0-78.0-0.0","42132536","wem/bandit_either_3","A2HBI8BAE2C5QH","either","7","351","","","","","","","1","0","0","0.9058459248","","0.6","0.8","0.2","0.4","","","","","0.8392953971","0.9058459248","0.5065313343","0.928530414","","","","","","","","74","J","1","","","38","main_expt",""
"","bandit","118","417503","0.0-79.0-0.0","42132536","wem/bandit_either_3","A2HBI8BAE2C5QH","either","7","443","","","","","","","0","0","1","0.8784462517","","0.6","0.8","0.2","0.4","","","","","0.7614495855","0.8784462517","0.6098243774","0.9001545702","","","","","","","","74","J","1","","","39","main_expt",""
"","bandit","119","419359","0.0-80.0-0.0","42132536","wem/bandit_either_3","A2HBI8BAE2C5QH","either","7","342","","","","","","","1","0","0","0.8408568766","","0.6","0.8","0.2","0.4","","","","","0.8060705796","0.8408568766","0.679699592","0.8432481254","","","","","","","","74","J","1","","","40","main_expt",""
"","bandit","120","421191","0.0-81.0-0.0","42132536","wem/bandit_either_3","A2HBI8BAE2C5QH","either","7","318","","","","","","","0","0","1","0.811342849","","0.6","0.8","0.2","0.4","","","","","0.7539991053","0.811342849","0.616488607","0.8326479564","","","","","","","","74","J","1","","","41","main_expt",""
"","bandit","121","423069","0.0-82.0-0.0","42132536","wem/bandit_either_3","A2HBI8BAE2C5QH","either","7","366","","","","","","","1","0","0","0.8058808774","","0.6","0.8","0.2","0.4","","","","","0.7717369324","0.8058808774","0.6307104111","0.8602810298","","","","","","","","74","J","1","","","42","main_expt",""
"","bandit","122","424997","0.0-83.0-0.0","42132536","wem/bandit_either_3","A2HBI8BAE2C5QH","either","7","416","","","","","","","0","0","1","0.7899844578","","0.6","0.8","0.2","0.4","","","","","0.7625968551","0.7899844578","0.554567591","0.894365654","","","","","","","","74","J","1","","","43","main_expt",""
"","bandit","123","427030","0.0-84.0-0.0","42132536","wem/bandit_either_3","A2HBI8BAE2C5QH","either","7","519","","","","","","","1","0","0","0.7654486741","","0.6","0.8","0.2","0.4","","","","","0.8488621298","0.7654486741","0.5281861223","0.9033664713","","","","","","","","74","J","1","","","44","main_expt",""
"","bandit","124","428927","0.0-85.0-0.0","42132536","wem/bandit_either_3","A2HBI8BAE2C5QH","either","7","384","","","","","","","1","0","0","0.7674111825","","0.6","0.8","0.2","0.4","","","","","0.8522077325","0.7674111825","0.5043334007","0.8829964613","","","","","","","","74","J","1","","","45","main_expt",""
"","bandit","125","430959","0.0-86.0-0.0","42132536","wem/bandit_either_3","A2HBI8BAE2C5QH","either","7","519","","","","","","","1","0","0","0.6301273516","","0.6","0.8","0.2","0.4","","","","","0.8618589195","0.6301273516","0.5426256613","0.8674694879","","","","","","","","74","J","1","","","46","main_expt",""
"","bandit","126","432829","0.0-87.0-0.0","42132536","wem/bandit_either_3","A2HBI8BAE2C5QH","either","7","359","","","","","","","1","0","0","0.7885969413","","0.6","0.8","0.2","0.4","","","","","0.905897833","0.7885969413","0.5024796093","0.8886720039","","","","","","","","74","J","1","","","47","main_expt",""
"","bandit","127","434903","0.0-88.0-0.0","42132536","wem/bandit_either_3","A2HBI8BAE2C5QH","either","7","560","","","","","","","1","0","0","0.7983786211","","0.6","0.8","0.2","0.4","","","","","0.8929468812","0.7983786211","0.4689138593","0.9229902905","","","","","","","","74","J","1","","","48","main_expt",""
"","bandit","128","436806","0.0-89.0-0.0","42132536","wem/bandit_either_3","A2HBI8BAE2C5QH","either","7","389","","","","","","","0","1","0","","0.8249867574","0.6","0.8","0.2","0.4","0.854905512","0.8249867574","0.4439560463","0.9141434128","","","","","","","","","","","","74","J","1","","","49","main_expt",""
"","bandit","129","438695","0.0-90.0-0.0","42132536","wem/bandit_either_3","A2HBI8BAE2C5QH","either","7","376","","","","","","","1","0","0","0.7532301684","","0.6","0.8","0.2","0.4","","","","","0.8363103738","0.7532301684","0.4079842927","0.9181160336","","","","","","","","74","J","1","","","50","main_expt",""
"","bandit","130","440736","0.0-91.0-0.0","42132536","wem/bandit_either_3","A2HBI8BAE2C5QH","either","7","525","","","","","","","0","1","0","","0.6750909554","0.6","0.8","0.2","0.4","0.7168506975","0.6750909554","0.4675199832","0.9266489825","","","","","","","","","","","","74","J","1","","","51","main_expt",""
"","bandit","131","442582","0.0-92.0-0.0","42132536","wem/bandit_either_3","A2HBI8BAE2C5QH","either","7","331","","","","","","","0","0","1","0.6762079337","","0.6","0.8","0.2","0.4","","","","","0.6507986152","0.6762079337","0.4368052975","0.9285581488","","","","","","","","74","J","1","","","52","main_expt",""
"","bandit","132","444406","0.0-93.0-0.0","42132536","wem/bandit_either_3","A2HBI8BAE2C5QH","either","7","309","","","","","","","1","0","0","0.7882030045","","0.6","0.8","0.2","0.4","","","","","0.6531867096","0.7882030045","0.4967902672","0.9171724481","","","","","","","","74","J","1","","","53","main_expt",""
"","bandit","133","446206","0.0-94.0-0.0","42132536","wem/bandit_either_3","A2HBI8BAE2C5QH","either","7","285","","","","","","","1","0","0","0.8759533557","","0.6","0.8","0.2","0.4","","","","","0.6178049746","0.8759533557","0.5321533453","0.8709862684","","","","","","","","74","J","1","","","54","main_expt",""
"","bandit","134","448049","0.0-95.0-0.0","42132536","wem/bandit_either_3","A2HBI8BAE2C5QH","either","7","328","","","","","","","0","1","0","","0.9307112091","0.6","0.8","0.2","0.4","0.5501477499","0.9307112091","0.593251847","0.9016108676","","","","","","","","","","","","74","J","1","","","55","main_expt",""
"","bandit","135","449854","0.0-96.0-0.0","42132536","wem/bandit_either_3","A2HBI8BAE2C5QH","either","7","292","","","","","","","1","0","0","0.9486344027","","0.6","0.8","0.2","0.4","","","","","0.5181914202","0.9486344027","0.602347159","0.9123335035","","","","","","","","74","J","1","","","56","main_expt",""
"","bandit","136","451653","0.0-97.0-0.0","42132536","wem/bandit_either_3","A2HBI8BAE2C5QH","either","7","287","","","","","","","0","1","0","","0.9450559811","0.6","0.8","0.2","0.4","0.5052283364","0.9450559811","0.736851976","0.9338523698","","","","","","","","","","","","74","J","1","","","57","main_expt",""
"","bandit","137","453444","0.0-98.0-0.0","42132536","wem/bandit_either_3","A2HBI8BAE2C5QH","either","7","280","","","","","","","1","0","0","0.960587128","","0.6","0.8","0.2","0.4","","","","","0.4494585665","0.960587128","0.7112026436","0.9023069914","","","","","","","","74","J","1","","","58","main_expt",""
"","bandit","138","455261","0.0-99.0-0.0","42132536","wem/bandit_either_3","A2HBI8BAE2C5QH","either","7","304","","","","","","","1","0","0","0.9272570312","","0.6","0.8","0.2","0.4","","","","","0.4431029696","0.9272570312","0.7605469626","0.903153386","","","","","","","","74","J","1","","","59","main_expt",""
"","bandit","139","457094","0.0-100.0-0.0","42132536","wem/bandit_either_3","A2HBI8BAE2C5QH","either","7","319","","","","","","","0","1","0","","0.9075075979","0.6","0.8","0.2","0.4","0.4213069188","0.9075075979","0.6504737249","0.8975643475","","","","","","","","","","","","74","J","1","","","60","main_expt",""
"","bandit","140","458942","0.0-101.0-0.0","42132536","wem/bandit_either_3","A2HBI8BAE2C5QH","either","7","334","","","","","","","1","0","0","0.9011961695","","0.6","0.8","0.2","0.4","","","","","0.4735464544","0.9011961695","0.7417300409","0.8455107238","","","","","","","","74","J","1","","","61","main_expt",""
"","bandit","141","460743","0.0-102.0-0.0","42132536","wem/bandit_either_3","A2HBI8BAE2C5QH","either","7","286","","","","","","","1","0","0","0.9025442902","","0.6","0.8","0.2","0.4","","","","","0.4260239588","0.9025442902","0.6889655243","0.8423106617","","","","","","","","74","J","1","","","62","main_expt",""
"","bandit","142","462582","0.0-103.0-0.0","42132536","wem/bandit_either_3","A2HBI8BAE2C5QH","either","7","325","","","","","","","1","0","0","0.900711875","","0.6","0.8","0.2","0.4","","","","","0.4048641732","0.900711875","0.7532165261","0.6997676278","","","","","","","","74","J","1","","","63","main_expt",""
"","bandit","143","464406","0.0-104.0-0.0","42132536","wem/bandit_either_3","A2HBI8BAE2C5QH","either","7","310","","","","","","","1","0","0","0.8445511995","","0.6","0.8","0.2","0.4","","","","","0.261135461","0.8445511995","0.7614619666","0.8033841581","","","","","","","","74","J","1","","","64","main_expt",""
"","bandit","144","466244","0.0-105.0-0.0","42132536","wem/bandit_either_3","A2HBI8BAE2C5QH","either","7","324","","","","","","","1","0","0","0.7838665633","","0.6","0.8","0.2","0.4","","","","","0.4398785507","0.7838665633","0.7474824059","0.8458775523","","","","","","","","74","J","1","","","65","main_expt",""
"","bandit","145","468095","0.0-106.0-0.0","42132536","wem/bandit_either_3","A2HBI8BAE2C5QH","either","7","337","","","","","","","0","1","0","","0.8399866527","0.6","0.8","0.2","0.4","0.4549930047","0.8399866527","0.7083026918","0.8612648572","","","","","","","","","","","","74","J","1","","","66","main_expt",""
"","bandit","146","470086","0.0-107.0-0.0","42132536","wem/bandit_either_3","A2HBI8BAE2C5QH","either","7","474","","","","","","","0","0","1","0.9109535201","","0.6","0.8","0.2","0.4","","","","","0.5565794079","0.9109535201","0.6535093674","0.8686018104","","","","","","","","74","J","1","","","67","main_expt",""
"","bandit","147","471871","0.0-108.0-0.0","42132536","wem/bandit_either_3","A2HBI8BAE2C5QH","either","7","270","","","","","","","0","1","0","","0.9064065477","0.6","0.8","0.2","0.4","0.4211802827","0.9064065477","0.4923739087","0.8693437115","","","","","","","","","","","","74","J","1","","","68","main_expt",""
"","bandit","148","473716","0.0-109.0-0.0","42132536","wem/bandit_either_3","A2HBI8BAE2C5QH","either","7","333","","","","","","","0","1","0","","0.9315833469","0.6","0.8","0.2","0.4","0.3687693293","0.9315833469","0.4898097669","0.9168970181","","","","","","","","","","","","74","J","1","","","69","main_expt",""
"","bandit","149","475551","0.0-110.0-0.0","42132536","wem/bandit_either_3","A2HBI8BAE2C5QH","either","7","320","","","","","","","1","0","0","0.9393923483","","0.6","0.8","0.2","0.4","","","","","0.3460903474","0.9393923483","0.4369614599","0.9293527272","","","","","","","","74","J","1","","","70","main_expt",""
"","bandit","150","477423","0.0-111.0-0.0","42132536","wem/bandit_either_3","A2HBI8BAE2C5QH","either","7","357","","","","","","","1","0","0","0.9568343035","","0.6","0.8","0.2","0.4","","","","","0.3278112836","0.9568343035","0.5031037484","0.949087413","","","","","","","","74","J","1","","","71","main_expt",""
"","bandit","151","479241","0.0-112.0-0.0","42132536","wem/bandit_either_3","A2HBI8BAE2C5QH","either","7","302","","","","","","","0","1","0","","0.947758434","0.6","0.8","0.2","0.4","0.2720469766","0.947758434","0.5397903688","0.906373323","","","","","","","","","","","","74","J","1","","","72","main_expt",""
"","bandit","152","481325","0.0-113.0-0.0","42132536","wem/bandit_either_3","A2HBI8BAE2C5QH","either","7","571","","","","","","","1","0","0","0.9052010222","","0.6","0.8","0.2","0.4","","","","","0.2451019773","0.9052010222","0.5540652028","0.93965919","","","","","","","","74","J","1","","","73","main_expt",""
"","bandit","153","483159","0.0-114.0-0.0","42132536","wem/bandit_either_3","A2HBI8BAE2C5QH","either","7","318","","","","","","","0","1","0","","0.927704936","0.6","0.8","0.2","0.4","0.2645862521","0.927704936","0.61733434","0.9416319858","","","","","","","","","","","","74","J","1","","","74","main_expt",""
"","bandit","154","484964","0.0-115.0-0.0","42132536","wem/bandit_either_3","A2HBI8BAE2C5QH","either","7","293","","","","","","","1","0","0","0.8769567517","","0.6","0.8","0.2","0.4","","","","","0.2298582","0.8769567517","0.6341908543","0.9535384208","","","","","","","","74","J","1","","","75","main_expt",""
"","bandit","155","486801","0.0-116.0-0.0","42132536","wem/bandit_either_3","A2HBI8BAE2C5QH","either","7","320","","","","","","","0","0","1","0.8456064169","","0.6","0.8","0.2","0.4","","","","","0.3460043445","0.8456064169","0.6355577018","0.9585479729","","","","","","","","74","J","1","","","76","main_expt",""
"","bandit","156","488623","0.0-117.0-0.0","42132536","wem/bandit_either_3","A2HBI8BAE2C5QH","either","7","307","","","","","","","1","0","0","0.8325595713","","0.6","0.8","0.2","0.4","","","","","0.2526488818","0.8325595713","0.7055426269","0.9610253773","","","","","","","","74","J","1","","","77","main_expt",""
"","bandit","157","490461","0.0-118.0-0.0","42132536","wem/bandit_either_3","A2HBI8BAE2C5QH","either","7","323","","","","","","","1","0","0","0.9128982172","","0.6","0.8","0.2","0.4","","","","","0.2625396382","0.9128982172","0.6137882531","0.9580320452","","","","","","","","74","J","1","","","78","main_expt",""
"","bandit","158","492325","0.0-119.0-0.0","42132536","wem/bandit_either_3","A2HBI8BAE2C5QH","either","7","348","","","","","","","1","0","0","0.9213349282","","0.6","0.8","0.2","0.4","","","","","0.2957535945","0.9213349282","0.668392527","0.9403834825","","","","","","","","74","J","1","","","79","main_expt",""
"","bandit","159","494213","0.0-120.0-0.0","42132536","wem/bandit_either_3","A2HBI8BAE2C5QH","either","7","374","","","","","","","0","1","0","","0.8935563746","0.6","0.8","0.2","0.4","0.1831261498","0.8935563746","0.7457361895","0.946171157","","","","","","","","","","","","74","J","1","","","80","main_expt",""
"","bandit","160","496054","0.0-121.0-0.0","42132536","wem/bandit_either_3","A2HBI8BAE2C5QH","either","7","326","","","","","","","1","0","0","0.932831263","","0.6","0.8","0.2","0.4","","","","","0.1450659425","0.932831263","0.8028050151","0.9800092583","","","","","","","","74","J","1","","","81","main_expt",""
"","bandit","161","497919","0.0-122.0-0.0","42132536","wem/bandit_either_3","A2HBI8BAE2C5QH","either","7","349","","","","","","","1","0","0","0.9403650082","","0.6","0.8","0.2","0.4","","","","","0.1486641529","0.9403650082","0.8727424511","0.9666397243","","","","","","","","74","J","1","","","82","main_expt",""
"","bandit","162","499824","0.0-123.0-0.0","42132536","wem/bandit_either_3","A2HBI8BAE2C5QH","either","7","385","","","","","","","1","0","0","0.9066396881","","0.6","0.8","0.2","0.4","","","","","0.1567811066","0.9066396881","0.8283068274","0.9637330664","","","","","","","","74","J","1","","","83","main_expt",""
"","bandit","163","501700","0.0-124.0-0.0","42132536","wem/bandit_either_3","A2HBI8BAE2C5QH","either","7","360","","","","","","","1","0","0","0.8962006295","","0.6","0.8","0.2","0.4","","","","","0.196091916","0.8962006295","0.8030064341","0.9617949183","","","","","","","","74","J","1","","","84","main_expt",""
"","bandit","164","503599","0.0-125.0-0.0","42132536","wem/bandit_either_3","A2HBI8BAE2C5QH","either","7","383","","","","","","","1","0","0","0.9093999993","","0.6","0.8","0.2","0.4","","","","","0.1512390112","0.9093999993","0.8622567251","0.9561985801","","","","","","","","74","J","1","","","85","main_expt",""
"","bandit","165","505461","0.0-126.0-0.0","42132536","wem/bandit_either_3","A2HBI8BAE2C5QH","either","7","348","","","","","","","1","0","0","0.9326862648","","0.6","0.8","0.2","0.4","","","","","0.1486491559","0.9326862648","0.896584634","0.9422505668","","","","","","","","74","J","1","","","86","main_expt",""
"","bandit","166","507342","0.0-127.0-0.0","42132536","wem/bandit_either_3","A2HBI8BAE2C5QH","either","7","363","","","","","","","1","0","0","0.9039434857","","0.6","0.8","0.2","0.4","","","","","0.1047878604","0.9039434857","0.9208758521","0.926711091","","","","","","","","74","J","1","","","87","main_expt",""
"","bandit","167","509175","0.0-128.0-0.0","42132536","wem/bandit_either_3","A2HBI8BAE2C5QH","either","7","317","","","","","","","1","0","0","0.9195127861","","0.6","0.8","0.2","0.4","","","","","0.07038149384","0.9195127861","0.9266301883","0.9092576496","","","","","","","","74","J","1","","","88","main_expt",""
"","bandit","168","511159","0.0-129.0-0.0","42132536","wem/bandit_either_3","A2HBI8BAE2C5QH","either","7","466","","","","","","","1","0","0","0.9225053559","","0.6","0.8","0.2","0.4","","","","","0.1311535074","0.9225053559","0.9259215542","0.8948591238","","","","","","","","74","J","1","","","89","main_expt",""
"","bandit","169","513015","0.0-130.0-0.0","42132536","wem/bandit_either_3","A2HBI8BAE2C5QH","either","7","336","","","","","","","0","1","0","","0.9014563988","0.6","0.8","0.2","0.4","0.1241310956","0.9014563988","0.9400480964","0.8716727139","","","","","","","","","","","","74","J","1","","","90","main_expt",""
"","bandit","170","514845","0.0-131.0-0.0","42132536","wem/bandit_either_3","A2HBI8BAE2C5QH","either","7","315","","","","","","","1","0","0","0.9162570652","","0.6","0.8","0.2","0.4","","","","","0.09664170694","0.9162570652","0.8961855863","0.8969144331","","","","","","","","74","J","1","","","91","main_expt",""
"","bandit","171","517091","0.0-132.0-0.0","42132536","wem/bandit_either_3","A2HBI8BAE2C5QH","either","7","729","","","","","","","0","1","0","","0.9171553871","0.6","0.8","0.2","0.4","0.09586364307","0.9171553871","0.9211437923","0.9171199264","","","","","","","","","","","","74","J","1","","","92","main_expt",""
"","bandit","172","519230","0.0-133.0-0.0","42132536","wem/bandit_either_3","A2HBI8BAE2C5QH","either","7","624","","","","","","","0","1","0","","0.9463284029","0.6","0.8","0.2","0.4","0.08304118766","0.9463284029","0.8947860396","0.9593171332","","","","","","","","","","","","74","J","1","","","93","main_expt",""
"","bandit","173","521254","0.0-134.0-0.0","42132536","wem/bandit_either_3","A2HBI8BAE2C5QH","either","7","507","","","","","","","0","1","0","","0.9477079066","0.6","0.8","0.2","0.4","0.1222865453","0.9477079066","0.822540961","0.959226596","","","","","","","","","","","","74","J","1","","","94","main_expt",""
"","bandit","174","523134","0.0-135.0-0.0","42132536","wem/bandit_either_3","A2HBI8BAE2C5QH","either","7","365","","","","","","","1","0","0","0.9474919074","","0.6","0.8","0.2","0.4","","","","","0.211460517","0.9474919074","0.8288041746","0.947105423","","","","","","","","74","J","1","","","95","main_expt",""
"","bandit","175","525070","0.0-136.0-0.0","42132536","wem/bandit_either_3","A2HBI8BAE2C5QH","either","7","419","","","","","","","0","0","1","0.9722490369","","0.6","0.8","0.2","0.4","","","","","0.2757920232","0.9722490369","0.8217366877","0.937205139","","","","","","","","74","J","1","","","96","main_expt",""
"","bandit","176","526901","0.0-137.0-0.0","42132536","wem/bandit_either_3","A2HBI8BAE2C5QH","either","7","315","","","","","","","1","0","0","0.980822097","","0.6","0.8","0.2","0.4","","","","","0.2646876298","0.980822097","0.725285089","0.9472767204","","","","","","","","74","J","1","","","97","main_expt",""
"","bandit","177","528758","0.0-138.0-0.0","42132536","wem/bandit_either_3","A2HBI8BAE2C5QH","either","7","339","","","","","","","0","1","0","","0.9761591307","0.6","0.8","0.2","0.4","0.3278454636","0.9761591307","0.7958966199","0.962959595","","","","","","","","","","","","74","J","1","","","98","main_expt",""
"","bandit","178","530550","0.0-139.0-0.0","42132536","wem/bandit_either_3","A2HBI8BAE2C5QH","either","7","274","","","","","","","1","0","0","0.9597391097","","0.6","0.8","0.2","0.4","","","","","0.4641870332","0.9597391097","0.7741840332","0.9720903607","","","","","","","","74","J","1","","","99","main_expt",""
"","bandit","179","532336","0.0-140.0-0.0","42132536","wem/bandit_either_3","A2HBI8BAE2C5QH","either","7","266","","","","","","","1","0","0","0.9557148533","","0.6","0.8","0.2","0.4","","","","","0.3972344865","0.9557148533","0.7934767162","0.9737169538","","","","","","","","74","J","1","","","100","main_expt",""
"","bandit","180","534192","0.0-141.0-0.0","42132536","wem/bandit_either_3","A2HBI8BAE2C5QH","either","7","339","","","","","","","0","1","0","","0.9687934467","0.6","0.8","0.2","0.4","0.4395304924","0.9687934467","0.8307638242","0.986468331","","","","","","","","","","","","74","J","1","","","101","main_expt",""
"","bandit","181","536038","0.0-142.0-0.0","42132536","wem/bandit_either_3","A2HBI8BAE2C5QH","either","7","328","","","","","","","1","0","0","0.9713318577","","0.6","0.8","0.2","0.4","","","","","0.5248298482","0.9713318577","0.7737236933","0.9859557102","","","","","","","","74","J","1","","","102","main_expt",""
"","bandit","182","537879","0.0-143.0-0.0","42132536","wem/bandit_either_3","A2HBI8BAE2C5QH","either","7","324","","","","","","","1","0","0","0.9768128314","","0.6","0.8","0.2","0.4","","","","","0.6218364577","0.9768128314","0.8168427084","0.9828698412","","","","","","","","74","J","1","","","103","main_expt",""
"","bandit","183","539863","0.0-144.0-0.0","42132536","wem/bandit_either_3","A2HBI8BAE2C5QH","either","7","466","","","","","","","1","0","0","0.9566706727","","0.6","0.8","0.2","0.4","","","","","0.5528563194","0.9566706727","0.7020104164","0.9655029871","","","","","","","","74","J","1","","","104","main_expt",""
"","bandit","184","541805","0.0-145.0-0.0","42132536","wem/bandit_either_3","A2HBI8BAE2C5QH","either","7","426","","","","","","","0","1","0","","0.9352711559","0.6","0.8","0.2","0.4","0.515821512","0.9352711559","0.6750414237","0.9587067199","","","","","","","","","","","","74","J","1","","","105","main_expt",""
"","bandit","185","543684","0.0-146.0-0.0","42132536","wem/bandit_either_3","A2HBI8BAE2C5QH","either","7","363","","","","","","","0","1","0","","0.8980036198","0.6","0.8","0.2","0.4","0.5380341879","0.8980036198","0.5886413089","0.9358961366","","","","","","","","","","","","74","J","1","","","106","main_expt",""
"","bandit","186","545542","0.0-147.0-0.0","42132536","wem/bandit_either_3","A2HBI8BAE2C5QH","either","7","340","","","","","","","1","0","0","0.9175797088","","0.6","0.8","0.2","0.4","","","","","0.3291998873","0.9175797088","0.5507707533","0.8829949032","","","","","","","","74","J","1","","","107","main_expt",""
"","bandit","187","547358","0.0-148.0-0.0","42132536","wem/bandit_either_3","A2HBI8BAE2C5QH","either","7","296","","","","","","","1","0","0","0.8966825343","","0.6","0.8","0.2","0.4","","","","","0.3608627265","0.8966825343","0.4325904974","0.7668100276","","","","","","","","74","J","1","","","108","main_expt",""
"","bandit","188","549205","0.0-149.0-0.0","42132536","wem/bandit_either_3","A2HBI8BAE2C5QH","either","7","329","","","","","","","1","0","0","0.8883819791","","0.6","0.8","0.2","0.4","","","","","0.3837942066","0.8883819791","0.3735159861","0.7652463225","","","","","","","","74","J","1","","","109","main_expt",""
"","bandit","189","551032","0.0-150.0-0.0","42132536","wem/bandit_either_3","A2HBI8BAE2C5QH","either","7","306","","","","","","","1","0","0","0.9087011364","","0.6","0.8","0.2","0.4","","","","","0.3019365294","0.9087011364","0.3704440872","0.7974745759","","","","","","","","74","J","1","","","110","main_expt",""
"","bandit","190","552912","0.0-151.0-0.0","42132536","wem/bandit_either_3","A2HBI8BAE2C5QH","either","7","361","","","","","","","1","0","0","0.9337026812","","0.6","0.8","0.2","0.4","","","","","0.3483008865","0.9337026812","0.2749067499","0.812352323","","","","","","","","74","J","1","","","111","main_expt",""
"","bandit","191","555006","0.0-152.0-0.0","42132536","wem/bandit_either_3","A2HBI8BAE2C5QH","either","7","577","","","","","","","1","0","0","0.9113388615","","0.6","0.8","0.2","0.4","","","","","0.4342302697","0.9113388615","0.2734667401","0.7428975936","","","","","","","","74","J","1","","","112","main_expt",""
"","bandit","192","556838","0.0-153.0-0.0","42132536","wem/bandit_either_3","A2HBI8BAE2C5QH","either","7","315","","","","","","","0","1","0","","0.8980528729","0.6","0.8","0.2","0.4","0.5187246657","0.8980528729","0.2291946885","0.7139653514","","","","","","","","","","","","74","J","1","","","113","main_expt",""
"","bandit","193","559094","0.0-154.0-0.0","42132536","wem/bandit_either_3","A2HBI8BAE2C5QH","either","7","739","","","","","","","0","0","1","0.8036326458","","0.6","0.8","0.2","0.4","","","","","0.5381742134","0.8036326458","0.2413339081","0.7945657698","","","","","","","","74","J","1","","","114","main_expt",""
"","bandit","194","560990","0.0-155.0-0.0","42132536","wem/bandit_either_3","A2HBI8BAE2C5QH","either","7","379","","","","","","","1","0","0","0.8700945717","","0.6","0.8","0.2","0.4","","","","","0.4785029821","0.8700945717","0.3092826039","0.8405588069","","","","","","","","74","J","1","","","115","main_expt",""
"","bandit","195","563214","0.0-156.0-0.0","42132536","wem/bandit_either_3","A2HBI8BAE2C5QH","either","7","706","","","","","","","1","0","0","0.8895114993","","0.6","0.8","0.2","0.4","","","","","0.4654757386","0.8895114993","0.2361366225","0.8641798474","","","","","","","","74","J","1","","","116","main_expt",""
"","bandit","196","565101","0.0-157.0-0.0","42132536","wem/bandit_either_3","A2HBI8BAE2C5QH","either","7","369","","","","","","","1","0","0","0.8936856952","","0.6","0.8","0.2","0.4","","","","","0.4578633225","0.8936856952","0.218402711","0.8756768431","","","","","","","","74","J","1","","","117","main_expt",""
"","bandit","197","567104","0.0-158.0-0.0","42132536","wem/bandit_either_3","A2HBI8BAE2C5QH","either","7","483","","","","","","","1","0","0","0.8077127093","","0.6","0.8","0.2","0.4","","","","","0.4773941538","0.8077127093","0.2003641109","0.9015269718","","","","","","","","74","J","1","","","118","main_expt",""
"","bandit","198","568984","0.0-159.0-0.0","42132536","wem/bandit_either_3","A2HBI8BAE2C5QH","either","7","356","","","","","","","1","0","0","0.8901108642","","0.6","0.8","0.2","0.4","","","","","0.508374463","0.8901108642","0.1375137305","0.8709738884","","","","","","","","74","J","1","","","119","main_expt",""
"","bandit","199","570856","0.0-160.0-0.0","42132536","wem/bandit_either_3","A2HBI8BAE2C5QH","either","7","353","","","","","","","1","0","0","0.8731124259","","0.6","0.8","0.2","0.4","","","","","0.4294310012","0.8731124259","0.08656631556","0.8268338002","","","","","","","","74","J","1","","","120","main_expt",""
"","bandit","200","572663","0.0-161.0-0.0","42132536","wem/bandit_either_3","A2HBI8BAE2C5QH","either","7","286","","","","","","","1","0","0","0.8509174952","","0.6","0.8","0.2","0.4","","","","","0.3933985885","0.8509174952","0.07812634859","0.8432616236","","","","","","","","74","J","1","","","121","main_expt",""
"","bandit","201","574552","0.0-162.0-0.0","42132536","wem/bandit_either_3","A2HBI8BAE2C5QH","either","7","368","","","","","","","1","0","0","0.8707856005","","0.6","0.8","0.2","0.4","","","","","0.2641409089","0.8707856005","0.09046411854","0.8128728295","","","","","","","","74","J","1","","","122","main_expt",""
"","bandit","202","576423","0.0-163.0-0.0","42132536","wem/bandit_either_3","A2HBI8BAE2C5QH","either","7","348","","","","","","","0","0","1","0.7592524618","","0.6","0.8","0.2","0.4","","","","","0.2491349268","0.7592524618","0.1132512529","0.752198112","","","","","","","","74","J","1","","","123","main_expt",""
"","bandit","203","578288","0.0-164.0-0.0","42132536","wem/bandit_either_3","A2HBI8BAE2C5QH","either","7","341","","","","","","","1","0","0","0.7330206325","","0.6","0.8","0.2","0.4","","","","","0.2587226179","0.7330206325","0.09419269712","0.7117781612","","","","","","","","74","J","1","","","124","main_expt",""
"","bandit","204","580160","0.0-165.0-0.0","42132536","wem/bandit_either_3","A2HBI8BAE2C5QH","either","7","348","","","","","","","0","1","0","","0.6903693331","0.6","0.8","0.2","0.4","0.2925679814","0.6903693331","0.110513045","0.7177409252","","","","","","","","","","","","74","J","1","","","125","main_expt",""
"","bandit","205","582230","0.0-166.0-0.0","42132536","wem/bandit_either_3","A2HBI8BAE2C5QH","either","7","549","","","","","","","0","0","1","0.6370641568","","0.6","0.8","0.2","0.4","","","","","0.3997536411","0.6370641568","0.07088043536","0.7240917845","","","","","","","","74","J","1","","","126","main_expt",""
"","bandit","206","584454","0.0-167.0-0.0","42132536","wem/bandit_either_3","A2HBI8BAE2C5QH","either","7","702","","","","","","","0","0","1","","0.6192694325","0.6","0.8","0.2","0.4","0.4120812041","0.6192694325","0.1041728595","0.6788578752","","","","","","","","","","","","74","J","1","","","127","main_expt",""
"","bandit","207","586798","0.0-168.0-0.0","42132536","wem/bandit_either_3","A2HBI8BAE2C5QH","either","7","820","","","","","","","1","0","0","0.559348281","","0.6","0.8","0.2","0.4","","","","","0.3731276689","0.559348281","0.1006708935","0.6257789885","","","","","","","","74","J","1","","","128","main_expt",""
"","bandit","208","589064","0.0-169.0-0.0","42132536","wem/bandit_either_3","A2HBI8BAE2C5QH","either","7","743","","","","","","","0","0","1","0.610360397","","0.6","0.8","0.2","0.4","","","","","0.3263017501","0.610360397","0.1336488566","0.4761868647","","","","","","","","74","J","1","","","129","main_expt",""
"","bandit","209","591615","0.0-170.0-0.0","42132536","wem/bandit_either_3","A2HBI8BAE2C5QH","either","7","1026","","","","","","","0","0","1","0.5737783772","","0.6","0.8","0.2","0.4","","","","","0.3226142564","0.5737783772","0.1271550391","0.4745188583","","","","","","","","74","J","1","","","130","main_expt",""
"","bandit","210","594006","0.0-171.0-0.0","42132536","wem/bandit_either_3","A2HBI8BAE2C5QH","either","7","868","","","","","","","0","1","0","","0.3907136596","0.6","0.8","0.2","0.4","0.3907136596","0.6252154127","0.1594360192","0.4674409752","","","","","","","","","","","","72","H","0","img/none_selected.jpg","","131","main_expt",""
"","bandit","211","596085","0.0-172.0-0.0","42132536","wem/bandit_either_3","A2HBI8BAE2C5QH","either","7","553","","","","","","","0","0","1","","0.4983036492","0.6","0.8","0.2","0.4","0.4983036492","0.6473056352","0.1027658661","0.368649462","","","","","","","","","","","","72","H","0","img/none_selected.jpg","","132","main_expt",""
"","bandit","212","597939","0.0-173.0-0.0","42132536","wem/bandit_either_3","A2HBI8BAE2C5QH","either","7","331","","","","","","","0","0","1","0.6347393695","","0.6","0.8","0.2","0.4","","","","","0.6347393695","0.4595123468","0.1223548883","0.4313577514","","","","","","","","72","H","0","img/none_selected.jpg","","133","main_expt",""
"","bandit","213","599917","0.0-174.0-0.0","42132536","wem/bandit_either_3","A2HBI8BAE2C5QH","either","7","455","","","","","","","0","0","1","","0.1063029331","0.6","0.8","0.2","0.4","0.6037412299","0.3043385566","0.1063029331","0.3692150919","","","","","","","","","","","","75","K","2","","","134","main_expt",""
"","bandit","214","601822","0.0-175.0-0.0","42132536","wem/bandit_either_3","A2HBI8BAE2C5QH","either","7","384","","","","","","","0","0","1","","0.080644856","0.6","0.8","0.2","0.4","0.5511090861","0.340857567","0.080644856","0.3077662431","","","","","","","","","","","","75","K","2","","","135","main_expt",""
"","bandit","215","603663","0.0-176.0-0.0","42132536","wem/bandit_either_3","A2HBI8BAE2C5QH","either","7","316","","","","","","","0","0","1","","0.314969588","0.6","0.8","0.2","0.4","0.585911414","0.2655810755","0.1359867045","0.314969588","","","","","","","","","","","","76","L","3","","","136","main_expt",""
"","bandit","216","605504","0.0-177.0-0.0","42132536","wem/bandit_either_3","A2HBI8BAE2C5QH","either","7","319","","","","","","","0","0","1","","0.3590847215","0.6","0.8","0.2","0.4","0.5805905743","0.3025530854","0.168344283","0.3590847215","","","","","","","","","","","","76","L","3","","","137","main_expt",""
"","bandit","217","607903","0.0-178.0-0.0","42132536","wem/bandit_either_3","A2HBI8BAE2C5QH","either","7","876","","","","","","","1","0","0","0.6357737786","","0.6","0.8","0.2","0.4","","","","","0.6357737786","0.2888348812","0.1867455324","0.3588584756","","","","","","","","72","H","0","img/none_selected.jpg","","138","main_expt",""
"","bandit","218","609750","0.0-179.0-0.0","42132536","wem/bandit_either_3","A2HBI8BAE2C5QH","either","7","324","","","","","","","1","0","0","0.66639317","","0.6","0.8","0.2","0.4","","","","","0.66639317","0.2463208975","0.2277874407","0.4289761638","","","","","","","","72","H","0","img/none_selected.jpg","","139","main_expt",""
"","bandit","219","611584","0.0-180.0-0.0","42132536","wem/bandit_either_3","A2HBI8BAE2C5QH","either","7","310","","","","","","","0","0","1","","0.6365789307","0.6","0.8","0.2","0.4","0.6365789307","0.273109751","0.2577820179","0.3801639999","","","","","","","","","","","","72","H","0","img/none_selected.jpg","","140","main_expt",""
"","bandit","220","613396","0.0-181.0-0.0","42132536","wem/bandit_either_3","A2HBI8BAE2C5QH","either","7","291","","","","","","","1","0","0","0.6045632144","","0.6","0.8","0.2","0.4","","","","","0.6045632144","0.3355442787","0.3674069736","0.2445936549","","","","","","","","72","H","0","img/none_selected.jpg","","141","main_expt",""
"","bandit","221","615238","0.0-182.0-0.0","42132536","wem/bandit_either_3","A2HBI8BAE2C5QH","either","7","318","","","","","","","0","0","1","0.5148607161","","0.6","0.8","0.2","0.4","","","","","0.5148607161","0.2781999234","0.4345417514","0.3394066497","","","","","","","","72","H","0","img/none_selected.jpg","","142","main_expt",""
"","bandit","222","617062","0.0-183.0-0.0","42132536","wem/bandit_either_3","A2HBI8BAE2C5QH","either","7","300","","","","","","","1","0","0","0.4754154836","","0.6","0.8","0.2","0.4","","","","","0.4754154836","0.2599467226","0.3811672827","0.2899754881","","","","","","","","72","H","0","img/none_selected.jpg","","143","main_expt",""
"","bandit","223","618903","0.0-184.0-0.0","42132536","wem/bandit_either_3","A2HBI8BAE2C5QH","either","7","316","","","","","","","0","0","1","0.516029258","","0.6","0.8","0.2","0.4","","","","","0.516029258","0.2353144144","0.2754059391","0.3701332444","","","","","","","","72","H","0","img/none_selected.jpg","","144","main_expt",""
"","bandit","224","620746","0.0-185.0-0.0","42132536","wem/bandit_either_3","A2HBI8BAE2C5QH","either","7","311","","","","","","","1","0","0","0.6646605279","","0.6","0.8","0.2","0.4","","","","","0.6646605279","0.2120114759","0.2773400324","0.3322753171","","","","","","","","72","H","0","img/none_selected.jpg","","145","main_expt",""
"","bandit","225","622599","0.0-186.0-0.0","42132536","wem/bandit_either_3","A2HBI8BAE2C5QH","either","7","330","","","","","","","0","0","1","","0.6331546467","0.6","0.8","0.2","0.4","0.6331546467","0.176067728","0.2780426824","0.3203507811","","","","","","","","","","","","72","H","0","img/none_selected.jpg","","146","main_expt",""
"","bandit","226","624511","0.0-187.0-0.0","42132536","wem/bandit_either_3","A2HBI8BAE2C5QH","either","7","389","","","","","","","0","0","1","0.6356747602","","0.6","0.8","0.2","0.4","","","","","0.6356747602","0.1329453439","0.3373608721","0.304761248","","","","","","","","72","H","0","img/none_selected.jpg","","147","main_expt",""
"","bandit","227","626584","0.0-188.0-0.0","42132536","wem/bandit_either_3","A2HBI8BAE2C5QH","either","7","548","","","","","","","0","0","1","0.1465103875","","0.6","0.8","0.2","0.4","","","","","0.6301772709","0.1465103875","0.3529594122","0.3809280674","","","","","","","","74","J","1","","","148","main_expt",""
"","bandit","228","628419","0.0-189.0-0.0","42132536","wem/bandit_either_3","A2HBI8BAE2C5QH","either","7","311","","","","","","","1","0","0","0.1190451538","","0.6","0.8","0.2","0.4","","","","","0.6640591829","0.1190451538","0.3878328211","0.3997986218","","","","","","","","74","J","1","","","149","main_expt",""
"","bandit","229","630238","0.0-190.0-0.0","42132536","wem/bandit_either_3","A2HBI8BAE2C5QH","either","7","294","","","","","","","0","0","1","0.1195570164","","0.6","0.8","0.2","0.4","","","","","0.6592717552","0.1195570164","0.42943501","0.3159341416","","","","","","","","74","J","1","","","150","main_expt",""
"","bandit","230","632047","0.0-191.0-0.0","42132536","wem/bandit_either_3","A2HBI8BAE2C5QH","either","7","284","","","","","","","0","0","1","0.100492686","","0.6","0.8","0.2","0.4","","","","","0.5928743102","0.100492686","0.5142681232","0.3052853957","","","","","","","","74","J","1","","","151","main_expt",""
"","bandit","231","633910","0.0-192.0-0.0","42132536","wem/bandit_either_3","A2HBI8BAE2C5QH","either","7","338","","","","","","","0","1","0","","0.6321073962","0.6","0.8","0.2","0.4","0.6822187145","0.1030367897","0.6321073962","0.1896018403","","","","","","","","","","","","75","K","2","","","152","main_expt",""
"","bandit","232","635747","0.0-193.0-0.0","42132536","wem/bandit_either_3","A2HBI8BAE2C5QH","either","7","278","","","","","","","0","1","0","","0.6965670792","0.6","0.8","0.2","0.4","0.6832005509","0.2059045691","0.6965670792","0.2439656658","","","","","","","","","","","","75","K","2","","","153","main_expt",""
"","bandit","233","637602","0.0-194.0-0.0","42132536","wem/bandit_either_3","A2HBI8BAE2C5QH","either","7","332","","","","","","","0","1","0","","0.6516005735","0.6","0.8","0.2","0.4","0.7109729062","0.2921647579","0.6516005735","0.3068434149","","","","","","","","","","","","75","K","2","","","154","main_expt",""
"","bandit","234","639542","0.0-195.0-0.0","42132536","wem/bandit_either_3","A2HBI8BAE2C5QH","either","7","421","","","","","","","0","0","1","0.7291318088","","0.6","0.8","0.2","0.4","","","","","0.6975465092","0.1789694193","0.7291318088","0.2314644909","","","","","","","","75","K","2","","","155","main_expt",""
"","bandit","235","641432","0.0-196.0-0.0","42132536","wem/bandit_either_3","A2HBI8BAE2C5QH","either","7","369","","","","","","","0","0","1","","0.6273572288","0.6","0.8","0.2","0.4","0.6580608271","0.2187195075","0.6273572288","0.2154001061","","","","","","","","","","","","75","K","2","","","156","main_expt",""
"","bandit","236","643287","0.0-197.0-0.0","42132536","wem/bandit_either_3","A2HBI8BAE2C5QH","either","7","334","","","","","","","0","0","1","","0.1648135251","0.6","0.8","0.2","0.4","0.5695802138","0.2669834713","0.566197257","0.1648135251","","","","","","","","","","","","76","L","3","","","157","main_expt",""
"","bandit","237","645141","0.0-198.0-0.0","42132536","wem/bandit_either_3","A2HBI8BAE2C5QH","either","7","335","","","","","","","0","0","1","","0.2215973425","0.6","0.8","0.2","0.4","0.4733954301","0.4240307821","0.4523642269","0.2215973425","","","","","","","","","","","","76","L","3","","","158","main_expt",""
"","bandit","238","646952","0.0-199.0-0.0","42132536","wem/bandit_either_3","A2HBI8BAE2C5QH","either","7","289","","","","","","","0","1","0","","0.3991212054","0.6","0.8","0.2","0.4","0.5619817243","0.3840951437","0.3991212054","0.2243274726","","","","","","","","","","","","75","K","2","","","159","main_expt",""
"","bandit","239","648802","0.0-200.0-0.0","42132536","wem/bandit_either_3","A2HBI8BAE2C5QH","either","7","329","","","","","","","0","0","1","","0.3566558104","0.6","0.8","0.2","0.4","0.4701658979","0.4098147986","0.3566558104","0.2061161075","","","","","","","","","","","","75","K","2","","","160","main_expt",""
"","bandit","240","650606","0.0-201.0-0.0","42132536","wem/bandit_either_3","A2HBI8BAE2C5QH","either","7","278","","","","","","","0","1","0","","0.4430908041","0.6","0.8","0.2","0.4","0.5673671472","0.4027252302","0.4430908041","0.209200141","","","","","","","","","","","","75","K","2","","","161","main_expt",""
"","bandit","241","652422","0.0-202.0-0.0","42132536","wem/bandit_either_3","A2HBI8BAE2C5QH","either","7","295","","","","","","","0","0","1","","0.3966098285","0.6","0.8","0.2","0.4","0.4921809208","0.3824170733","0.3966098285","0.1477343718","","","","","","","","","","","","75","K","2","","","162","main_expt",""
"","bandit","242","654238","0.0-203.0-0.0","42132536","wem/bandit_either_3","A2HBI8BAE2C5QH","either","7","294","","","","","","","1","0","0","0.3455868331","","0.6","0.8","0.2","0.4","","","","","0.4204505308","0.3352280924","0.3455868331","0.1525050104","","","","","","","","75","K","2","","","163","main_expt",""
"","bandit","243","656133","0.0-204.0-0.0","42132536","wem/bandit_either_3","A2HBI8BAE2C5QH","either","7","376","","","","","","","0","0","1","","0.3368969945","0.6","0.8","0.2","0.4","0.534748173","0.3379187571","0.3368969945","0.08831047354","","","","","","","","","","","","75","K","2","","","164","main_expt",""
"","bandit","244","657974","0.0-205.0-0.0","42132536","wem/bandit_either_3","A2HBI8BAE2C5QH","either","7","320","","","","","","","0","0","1","","0.3767562303","0.6","0.8","0.2","0.4","0.4724966102","0.3160546663","0.3767562303","0.1035482763","","","","","","","","","","","","75","K","2","","","165","main_expt",""
"","bandit","245","659846","0.0-206.0-0.0","42132536","wem/bandit_either_3","A2HBI8BAE2C5QH","either","7","351","","","","","","","0","0","1","","0.3058359067","0.6","0.8","0.2","0.4","0.5280505203","0.3058359067","0.4727650462","0.06888190676","","","","","","","","","","","","74","J","1","","","166","main_expt",""
"","bandit","246","661700","0.0-207.0-0.0","42132536","wem/bandit_either_3","A2HBI8BAE2C5QH","either","7","335","","","","","","","0","0","1","","0.2561334246","0.6","0.8","0.2","0.4","0.589670135","0.2561334246","0.6140635231","0.06051452263","","","","","","","","","","","","74","J","1","","","167","main_expt",""
"","bandit","247","663574","0.0-208.0-0.0","42132536","wem/bandit_either_3","A2HBI8BAE2C5QH","either","7","350","","","","","","","0","0","1","0.5058201204","","0.6","0.8","0.2","0.4","","","","","0.5058201204","0.2459084815","0.5629225295","0.07905307949","","","","","","","","72","H","0","img/none_selected.jpg","","168","main_expt",""
"","bandit","248","665439","0.0-209.0-0.0","42132536","wem/bandit_either_3","A2HBI8BAE2C5QH","either","7","343","","","","","","","0","0","1","","0.4102709571","0.6","0.8","0.2","0.4","0.4102709571","0.2138460752","0.6456076899","0.07051596905","","","","","","","","","","","","72","H","0","img/none_selected.jpg","","169","main_expt",""
"","bandit","249","667415","0.0-210.0-0.0","42132536","wem/bandit_either_3","A2HBI8BAE2C5QH","either","7","453","","","","","","","0","0","1","","0.1642406351","0.6","0.8","0.2","0.4","0.5061826445","0.1642406351","0.719827795","0.1056762318","","","","","","","","","","","","74","J","1","","","170","main_expt",""
"","bandit","250","669298","0.0-211.0-0.0","42132536","wem/bandit_either_3","A2HBI8BAE2C5QH","either","7","362","","","","","","","1","0","0","0.2337150112","","0.6","0.8","0.2","0.4","","","","","0.6092158501","0.2337150112","0.6716280274","0.1513980822","","","","","","","","74","J","1","","","171","main_expt",""
"","bandit","251","671655","0.0-212.0-0.0","42132536","wem/bandit_either_3","A2HBI8BAE2C5QH","either","7","834","","","","","","","0","0","1","0.3128682212","","0.6","0.8","0.2","0.4","","","","","0.691496366","0.3128682212","0.5683226388","0.1552293495","","","","","","","","74","J","1","","","172","main_expt",""
"","bandit","252","674022","0.0-213.0-0.0","42132536","wem/bandit_either_3","A2HBI8BAE2C5QH","either","7","845","","","","","","","1","0","0","0.2775517843","","0.6","0.8","0.2","0.4","","","","","0.7402253768","0.2775517843","0.4581357746","0.1325975083","","","","","","","","74","J","1","","","173","main_expt",""
"","bandit","253","675944","0.0-214.0-0.0","42132536","wem/bandit_either_3","A2HBI8BAE2C5QH","either","7","398","","","","","","","1","0","0","0.4159305855","","0.6","0.8","0.2","0.4","","","","","0.6601004511","0.4159305855","0.5903479164","0.09024892351","","","","","","","","74","J","1","","","174","main_expt",""
"","bandit","254","679655","0.0-215.0-0.0","42132536","wem/bandit_either_3","A2HBI8BAE2C5QH","either","7","2185","","","","","","","0","0","1","0.4471770837","","0.6","0.8","0.2","0.4","","","","","0.6781732273","0.4471770837","0.5658285383","0.06963745108","","","","","","","","74","J","1","","","175","main_expt",""
"","bandit","255","681636","0.0-216.0-0.0","42132536","wem/bandit_either_3","A2HBI8BAE2C5QH","either","7","457","","","","","","","1","0","0","0.5162211083","","0.6","0.8","0.2","0.4","","","","","0.6932650799","0.5162211083","0.5313506173","0.07897043431","","","","","","","","74","J","1","","","176","main_expt",""
"","bandit","256","683519","0.0-217.0-0.0","42132536","wem/bandit_either_3","A2HBI8BAE2C5QH","either","7","360","","","","","","","0","0","1","0.6372676231","","0.6","0.8","0.2","0.4","","","","","0.6803850572","0.6372676231","0.4231289234","0.09469685393","","","","","","","","74","J","1","","","177","main_expt",""
"","bandit","257","685356","0.0-218.0-0.0","42132536","wem/bandit_either_3","A2HBI8BAE2C5QH","either","7","316","","","","","","","0","0","1","0.580807006","","0.6","0.8","0.2","0.4","","","","","0.5407017663","0.6295749113","0.580807006","0.1486386852","","","","","","","","75","K","2","","","178","main_expt",""
"","bandit","258","687254","0.0-219.0-0.0","42132536","wem/bandit_either_3","A2HBI8BAE2C5QH","either","7","373","","","","","","","0","1","0","","0.5499948007","0.6","0.8","0.2","0.4","0.5931576708","0.4126066341","0.5499948007","0.1965095934","","","","","","","","","","","","75","K","2","","","179","main_expt",""
"","bandit","259","689567","0.0-220.0-0.0","42132536","wem/bandit_either_3","A2HBI8BAE2C5QH","either","7","788","","","","","","","0","0","1","","0.4918200669","0.6","0.8","0.2","0.4","0.5390819372","0.516991344","0.4918200669","0.1749048096","","","","","","","","","","","","75","K","2","","","180","main_expt",""
"","bandit","260","691711","0.0-221.0-0.0","42132536","wem/bandit_either_3","A2HBI8BAE2C5QH","either","7","621","","","","","","","0","0","1","0.5428702931","","0.6","0.8","0.2","0.4","","","","","0.4929910299","0.4239603033","0.5428702931","0.232896561","","","","","","","","75","K","2","","","181","main_expt",""
"","bandit","261","693655","0.0-222.0-0.0","42132536","wem/bandit_either_3","A2HBI8BAE2C5QH","either","7","419","","","","","","","0","0","1","0.2561822725","","0.6","0.8","0.2","0.4","","","","","0.458433212","0.3961891141","0.5870547156","0.2561822725","","","","","","","","76","L","3","","","182","main_expt",""
"","bandit","262","695501","0.0-223.0-0.0","42132536","wem/bandit_either_3","A2HBI8BAE2C5QH","either","7","324","","","","","","","0","0","1","","0.2713883962","0.6","0.8","0.2","0.4","0.5725449786","0.4364601233","0.5031908535","0.2713883962","","","","","","","","","","","","76","L","3","","","183","main_expt",""
"","bandit","263","697854","0.0-224.0-0.0","42132536","wem/bandit_either_3","A2HBI8BAE2C5QH","either","7","830","","","","","","","0","1","0","","0.4878383732","0.6","0.8","0.2","0.4","0.4878383732","0.4826964198","0.4239978994","0.3543557679","","","","","","","","","","","","72","H","0","img/none_selected.jpg","","184","main_expt",""
"","bandit","264","700023","0.0-225.0-0.0","42132536","wem/bandit_either_3","A2HBI8BAE2C5QH","either","7","647","","","","","","","0","1","0","","0.5189350158","0.6","0.8","0.2","0.4","0.5189350158","0.4448789548","0.3425545299","0.2974533566","","","","","","","","","","","","72","H","0","img/none_selected.jpg","","185","main_expt",""
"","bandit","265","702206","0.0-226.0-0.0","42132536","wem/bandit_either_3","A2HBI8BAE2C5QH","either","7","661","","","","","","","0","0","1","0.4310300585","","0.6","0.8","0.2","0.4","","","","","0.4310300585","0.4585835861","0.2594221554","0.3295130888","","","","","","","","72","H","0","img/none_selected.jpg","","186","main_expt",""
"","bandit","266","705431","0.0-227.0-0.0","42132536","wem/bandit_either_3","A2HBI8BAE2C5QH","either","7","1701","","","","","","","0","0","1","0.4005994516","","0.6","0.8","0.2","0.4","","","","","0.4005994516","0.5470412386","0.350747246","0.3440574025","","","","","","","","72","H","0","img/none_selected.jpg","","187","main_expt",""
"","bandit","267","707265","0.0-228.0-0.0","42132536","wem/bandit_either_3","A2HBI8BAE2C5QH","either","7","313","","","","","","","1","0","0","0.5485419855","","0.6","0.8","0.2","0.4","","","","","0.5684333967","0.5485419855","0.3667816541","0.3176863717","","","","","","","","74","J","1","","","188","main_expt",""
"","bandit","268","709007","0.0-229.0-0.0","42132536","wem/bandit_either_3","A2HBI8BAE2C5QH","either","7","212","","","","","","","1","0","0","0.6161015427","","0.6","0.8","0.2","0.4","","","","","0.5768443477","0.6161015427","0.3129240978","0.3194332301","","","","","","","","74","J","1","","","189","main_expt",""
"","bandit","269","710805","0.0-230.0-0.0","42132536","wem/bandit_either_3","A2HBI8BAE2C5QH","either","7","276","","","","","","","0","1","0","","0.5145576236","0.6","0.8","0.2","0.4","0.6091254975","0.5145576236","0.3681084497","0.3585260795","","","","","","","","","","","","74","J","1","","","190","main_expt",""
"","bandit","270","712818","0.0-231.0-0.0","42132536","wem/bandit_either_3","A2HBI8BAE2C5QH","either","7","489","","","","","","","0","0","1","0.4447609651","","0.6","0.8","0.2","0.4","","","","","0.6355225437","0.4447609651","0.3284994938","0.4438822556","","","","","","","","74","J","1","","","191","main_expt",""
"","bandit","271","714629","0.0-232.0-0.0","42132536","wem/bandit_either_3","A2HBI8BAE2C5QH","either","7","289","","","","","","","0","0","1","0.4273979598","","0.6","0.8","0.2","0.4","","","","","0.7449996868","0.4273979598","0.2913335268","0.6336907385","","","","","","","","74","J","1","","","192","main_expt",""
"","bandit","272","716486","0.0-233.0-0.0","42132536","wem/bandit_either_3","A2HBI8BAE2C5QH","either","7","332","","","","","","","0","0","1","","0.3614904019","0.6","0.8","0.2","0.4","0.7645281636","0.4382354048","0.3614904019","0.5871300795","","","","","","","","","","","","75","K","2","","","193","main_expt",""
"","bandit","273","718319","0.0-234.0-0.0","42132536","wem/bandit_either_3","A2HBI8BAE2C5QH","either","7","306","","","","","","","0","1","0","","0.4180963095","0.6","0.8","0.2","0.4","0.7417458559","0.4367950698","0.4180963095","0.5919999684","","","","","","","","","","","","75","K","2","","","194","main_expt",""
"","bandit","274","720182","0.0-235.0-0.0","42132536","wem/bandit_either_3","A2HBI8BAE2C5QH","either","7","338","","","","","","","0","1","0","","0.4129416526","0.6","0.8","0.2","0.4","0.7102393491","0.4306922929","0.4129416526","0.5599221581","","","","","","","","","","","","75","K","2","","","195","main_expt",""
"","bandit","275","722015","0.0-236.0-0.0","42132536","wem/bandit_either_3","A2HBI8BAE2C5QH","either","7","308","","","","","","","1","0","0","0.6027995291","","0.6","0.8","0.2","0.4","","","","","0.6846894693","0.4436260943","0.6027995291","0.4552797342","","","","","","","","75","K","2","","","196","main_expt",""
"","bandit","276","723831","0.0-237.0-0.0","42132536","wem/bandit_either_3","A2HBI8BAE2C5QH","either","7","291","","","","","","","0","1","0","","0.6174547511","0.6","0.8","0.2","0.4","0.6573901597","0.4547077395","0.6174547511","0.3045440077","","","","","","","","","","","","75","K","2","","","197","main_expt",""
"","bandit","277","725800","0.0-238.0-0.0","42132536","wem/bandit_either_3","A2HBI8BAE2C5QH","either","7","444","","","","","","","0","0","1","","0.5727893511","0.6","0.8","0.2","0.4","0.7020762336","0.545148617","0.5727893511","0.4061180554","","","","","","","","","","","","75","K","2","","","198","main_expt",""
"","bandit","278","727748","0.0-239.0-0.0","42132536","wem/bandit_either_3","A2HBI8BAE2C5QH","either","7","423","","","","","","","0","1","0","","0.5803616598","0.6","0.8","0.2","0.4","0.7749867965","0.5838562778","0.5803616598","0.3406873398","","","","","","","","","","","","75","K","2","","","199","main_expt",""
"","bandit","279","729615","0.0-240.0-0.0","42132536","wem/bandit_either_3","A2HBI8BAE2C5QH","either","7","341","","","","","","","0","0","1","","0.5109940584","0.6","0.8","0.2","0.4","0.7971262248","0.6569131065","0.5109940584","0.2810551981","","","","","","","","","","","","75","K","2","","","200","main_expt",""
"","bandit","280","731454","0.0-241.0-0.0","42132536","wem/bandit_either_3","A2HBI8BAE2C5QH","either","7","316","","","","","","","0","0","1","","0.444158281","0.6","0.8","0.2","0.4","0.6431063495","0.6559739125","0.444158281","0.2295892347","","","","","","","","","","","","75","K","2","","","201","main_expt",""
"","bandit","281","733292","0.0-242.0-0.0","42132536","wem/bandit_either_3","A2HBI8BAE2C5QH","either","7","314","","","","","","","0","0","1","0.2134833186","","0.6","0.8","0.2","0.4","","","","","0.6153479028","0.5940698896","0.3774362348","0.2134833186","","","","","","","","76","L","3","","","202","main_expt",""
"","bandit","282","735104","0.0-243.0-0.0","42132536","wem/bandit_either_3","A2HBI8BAE2C5QH","either","7","286","","","","","","","0","0","1","","0.1538434825","0.6","0.8","0.2","0.4","0.6107921693","0.6288005559","0.2852638898","0.1538434825","","","","","","","","","","","","76","L","3","","","203","main_expt",""
"","bandit","283","737052","0.0-244.0-0.0","42132536","wem/bandit_either_3","A2HBI8BAE2C5QH","either","7","427","","","","","","","1","0","0","0.6364312764","","0.6","0.8","0.2","0.4","","","","","0.6364312764","0.7483345684","0.3900316507","0.08629221539","","","","","","","","72","H","0","img/none_selected.jpg","","204","main_expt",""
"","bandit","284","738952","0.0-245.0-0.0","42132536","wem/bandit_either_3","A2HBI8BAE2C5QH","either","7","374","","","","","","","0","1","0","","0.7098325313","0.6","0.8","0.2","0.4","0.7098325313","0.7823609999","0.3334674042","0.1303029892","","","","","","","","","","","","72","H","0","img/none_selected.jpg","","205","main_expt",""
"","bandit","285","740781","0.0-246.0-0.0","42132536","wem/bandit_either_3","A2HBI8BAE2C5QH","either","7","302","","","","","","","0","0","1","","0.6423198407","0.6","0.8","0.2","0.4","0.6423198407","0.7053347691","0.3997779834","0.1290793888","","","","","","","","","","","","72","H","0","img/none_selected.jpg","","206","main_expt",""
"","bandit","286","742711","0.0-247.0-0.0","42132536","wem/bandit_either_3","A2HBI8BAE2C5QH","either","7","406","","","","","","","0","1","0","","0.7196337679","0.6","0.8","0.2","0.4","0.7196337679","0.692958529","0.2791746034","0.1471003053","","","","","","","","","","","","72","H","0","img/none_selected.jpg","","207","main_expt",""
"","bandit","287","744623","0.0-248.0-0.0","42132536","wem/bandit_either_3","A2HBI8BAE2C5QH","either","7","386","","","","","","","0","1","0","","0.7273253538","0.6","0.8","0.2","0.4","0.7273253538","0.5726600787","0.3447420344","0.1204476287","","","","","","","","","","","","72","H","0","img/none_selected.jpg","","208","main_expt",""
"","bandit","288","746515","0.0-249.0-0.0","42132536","wem/bandit_either_3","A2HBI8BAE2C5QH","either","7","365","","","","","","","0","0","1","0.7701678217","","0.6","0.8","0.2","0.4","","","","","0.7701678217","0.7193759884","0.2106944101","0.1752658923","","","","","","","","72","H","0","img/none_selected.jpg","","209","main_expt",""
"","bandit","289","748399","0.0-250.0-0.0","42132536","wem/bandit_either_3","A2HBI8BAE2C5QH","either","7","358","","","","","","","1","0","0","0.7673062315","","0.6","0.8","0.2","0.4","","","","","0.7673062315","0.5469619257","0.2609791638","0.2071456167","","","","","","","","72","H","0","img/none_selected.jpg","","210","main_expt",""
"","bandit","290","750287","0.0-251.0-0.0","42132536","wem/bandit_either_3","A2HBI8BAE2C5QH","either","7","364","","","","","","","0","1","0","","0.7733207599","0.6","0.8","0.2","0.4","0.7733207599","0.5432746348","0.3702243554","0.1982577311","","","","","","","","","","","","72","H","0","img/none_selected.jpg","","211","main_expt",""
"","bandit","291","752128","0.0-252.0-0.0","42132536","wem/bandit_either_3","A2HBI8BAE2C5QH","either","7","315","","","","","","","0","0","1","0.7176010575","","0.6","0.8","0.2","0.4","","","","","0.7176010575","0.4857525371","0.4070014152","0.2837026457","","","","","","","","72","H","0","img/none_selected.jpg","","212","main_expt",""
"","bandit","292","753974","0.0-253.0-0.0","42132536","wem/bandit_either_3","A2HBI8BAE2C5QH","either","7","321","","","","","","","0","1","0","","0.7241732444","0.6","0.8","0.2","0.4","0.7241732444","0.4416723402","0.5001351259","0.2192955177","","","","","","","","","","","","72","H","0","img/none_selected.jpg","","213","main_expt",""
"","bandit","293","755808","0.0-254.0-0.0","42132536","wem/bandit_either_3","A2HBI8BAE2C5QH","either","7","306","","","","","","","0","1","0","","0.6696022014","0.6","0.8","0.2","0.4","0.6696022014","0.4231083207","0.5667049056","0.2885853396","","","","","","","","","","","","72","H","0","img/none_selected.jpg","","214","main_expt",""
"","bandit","294","757728","0.0-255.0-0.0","42132536","wem/bandit_either_3","A2HBI8BAE2C5QH","either","7","396","","","","","","","1","0","0","0.6255990046","","0.6","0.8","0.2","0.4","","","","","0.6255990046","0.329019478","0.5259574602","0.2451296471","","","","","","","","72","H","0","img/none_selected.jpg","","215","main_expt",""
"","bandit","295","759647","0.0-256.0-0.0","42132536","wem/bandit_either_3","A2HBI8BAE2C5QH","either","7","394","","","","","","","1","0","0","0.6771362935","","0.6","0.8","0.2","0.4","","","","","0.6771362935","0.3469743373","0.5468860011","0.1946790852","","","","","","","","72","H","0","img/none_selected.jpg","","216","main_expt",""
"","bandit","296","761505","0.0-257.0-0.0","42132536","wem/bandit_either_3","A2HBI8BAE2C5QH","either","7","333","","","","","","","0","1","0","","0.6918953154","0.6","0.8","0.2","0.4","0.6918953154","0.3618740044","0.6182745027","0.2497229096","","","","","","","","","","","","72","H","0","img/none_selected.jpg","","217","main_expt",""
"","bandit","297","763384","0.0-258.0-0.0","42132536","wem/bandit_either_3","A2HBI8BAE2C5QH","either","7","353","","","","","","","0","0","1","0.5726390237","","0.6","0.8","0.2","0.4","","","","","0.5726390237","0.3574217595","0.5979125128","0.3076421025","","","","","","","","72","H","0","img/none_selected.jpg","","218","main_expt",""
"","bandit","298","765230","0.0-259.0-0.0","42132536","wem/bandit_either_3","A2HBI8BAE2C5QH","either","7","322","","","","","","","0","0","1","0.5179196303","","0.6","0.8","0.2","0.4","","","","","0.5179196303","0.3862686792","0.5321687475","0.3488941347","","","","","","","","72","H","0","img/none_selected.jpg","","219","main_expt",""
"","bandit","299","767165","0.0-260.0-0.0","42132536","wem/bandit_either_3","A2HBI8BAE2C5QH","either","7","407","","","","","","","0","1","0","","0.4432846828","0.6","0.8","0.2","0.4","0.5578222379","0.4432846828","0.6053830099","0.306784001","","","","","","","","","","","","74","J","1","","","220","main_expt",""
"","bandit","300","768992","0.0-261.0-0.0","42132536","wem/bandit_either_3","A2HBI8BAE2C5QH","either","7","301","","","","","","","0","0","1","0.432499938","","0.6","0.8","0.2","0.4","","","","","0.6640911266","0.432499938","0.69383498","0.3786925452","","","","","","","","74","J","1","","","221","main_expt",""
"","bandit","301","770948","0.0-262.0-0.0","42132536","wem/bandit_either_3","A2HBI8BAE2C5QH","either","7","430","","","","","","","0","1","0","","0.4050903391","0.6","0.8","0.2","0.4","0.7340686256","0.4050903391","0.783375317","0.5014801557","","","","","","","","","","","","74","J","1","","","222","main_expt",""
"","bandit","302","772918","0.0-263.0-0.0","42132536","wem/bandit_either_3","A2HBI8BAE2C5QH","either","7","445","","","","","","","0","0","1","0.3282593462","","0.6","0.8","0.2","0.4","","","","","0.852862777","0.3282593462","0.8374489269","0.4081704387","","","","","","","","74","J","1","","","223","main_expt",""
"","bandit","303","774784","0.0-264.0-0.0","42132536","wem/bandit_either_3","A2HBI8BAE2C5QH","either","7","339","","","","","","","1","0","0","0.2465370002","","0.6","0.8","0.2","0.4","","","","","0.7830506485","0.2465370002","0.7801262993","0.422296693","","","","","","","","74","J","1","","","224","main_expt",""
"","bandit","304","776599","0.0-265.0-0.0","42132536","wem/bandit_either_3","A2HBI8BAE2C5QH","either","7","289","","","","","","","0","0","1","","0.2260872052","0.6","0.8","0.2","0.4","0.7447555501","0.2260872052","0.7438235551","0.3998144739","","","","","","","","","","","","74","J","1","","","225","main_expt",""
"","bandit","305","778651","0.0-266.0-0.0","42132536","wem/bandit_either_3","A2HBI8BAE2C5QH","either","7","516","","","","","","","0","0","1","","0.2573895518","0.6","0.8","0.2","0.4","0.7331719472","0.2573895518","0.7561714458","0.2692780115","","","","","","","","","","","","74","J","1","","","226","main_expt",""
"","bandit","306","780512","0.0-267.0-0.0","42132536","wem/bandit_either_3","A2HBI8BAE2C5QH","either","7","329","","","","","","","0","1","0","","0.7527106072","0.6","0.8","0.2","0.4","0.6417259928","0.2134597582","0.7527106072","0.268728261","","","","","","","","","","","","75","K","2","","","227","main_expt",""
"","bandit","307","782320","0.0-268.0-0.0","42132536","wem/bandit_either_3","A2HBI8BAE2C5QH","either","7","278","","","","","","","0","0","1","","0.6315627418","0.6","0.8","0.2","0.4","0.6050549784","0.348479141","0.6315627418","0.2211951924","","","","","","","","","","","","75","K","2","","","228","main_expt",""
"","bandit","308","784512","0.0-269.0-0.0","42132536","wem/bandit_either_3","A2HBI8BAE2C5QH","either","7","662","","","","","","","1","0","0","0.219241791","","0.6","0.8","0.2","0.4","","","","","0.5962230341","0.3250735223","0.5564086662","0.219241791","","","","","","","","76","L","3","","","229","main_expt",""
"","bandit","309","786313","0.0-270.0-0.0","42132536","wem/bandit_either_3","A2HBI8BAE2C5QH","either","7","271","","","","","","","0","1","0","","0.291585141","0.6","0.8","0.2","0.4","0.5594933722","0.3395219718","0.5895813861","0.291585141","","","","","","","","","","","","76","L","3","","","230","main_expt",""
"","bandit","310","788214","0.0-271.0-0.0","42132536","wem/bandit_either_3","A2HBI8BAE2C5QH","either","7","368","","","","","","","0","1","0","","0.2754541949","0.6","0.8","0.2","0.4","0.6411036761","0.3315483329","0.6148213975","0.2754541949","","","","","","","","","","","","76","L","3","","","231","main_expt",""
"","bandit","311","790131","0.0-272.0-0.0","42132536","wem/bandit_either_3","A2HBI8BAE2C5QH","either","7","386","","","","","","","0","0","1","0.3055336503","","0.6","0.8","0.2","0.4","","","","","0.6653930637","0.3876030756","0.5176988489","0.3055336503","","","","","","","","76","L","3","","","232","main_expt",""
"","bandit","312","791968","0.0-273.0-0.0","42132536","wem/bandit_either_3","A2HBI8BAE2C5QH","either","7","303","","","","","","","0","0","1","","0.3390100853","0.6","0.8","0.2","0.4","0.5426719569","0.3696248546","0.4505666118","0.3390100853","","","","","","","","","","","","76","L","3","","","233","main_expt",""
"","bandit","313","793910","0.0-274.0-0.0","42132536","wem/bandit_either_3","A2HBI8BAE2C5QH","either","7","412","","","","","","","0","0","1","0.5581360181","","0.6","0.8","0.2","0.4","","","","","0.5581360181","0.3927474605","0.4393496879","0.3165323161","","","","","","","","72","H","0","img/none_selected.jpg","","234","main_expt",""
"","bandit","314","795720","0.0-275.0-0.0","42132536","wem/bandit_either_3","A2HBI8BAE2C5QH","either","7","277","","","","","","","1","0","0","0.5299247183","","0.6","0.8","0.2","0.4","","","","","0.5299247183","0.4734072524","0.3542725407","0.2944333127","","","","","","","","72","H","0","img/none_selected.jpg","","235","main_expt",""
"","bandit","315","797593","0.0-276.0-0.0","42132536","wem/bandit_either_3","A2HBI8BAE2C5QH","either","7","337","","","","","","","0","0","1","0.4709954077","","0.6","0.8","0.2","0.4","","","","","0.4709954077","0.5857320117","0.452511288","0.4127469632","","","","","","","","72","H","0","img/none_selected.jpg","","236","main_expt",""
"","bandit","316","799424","0.0-277.0-0.0","42132536","wem/bandit_either_3","A2HBI8BAE2C5QH","either","7","298","","","","","","","1","0","0","0.5208556897","","0.6","0.8","0.2","0.4","","","","","0.4171051322","0.5208556897","0.4743784035","0.4353664578","","","","","","","","74","J","1","","","237","main_expt",""
"","bandit","317","801377","0.0-278.0-0.0","42132536","wem/bandit_either_3","A2HBI8BAE2C5QH","either","7","416","","","","","","","1","0","0","0.4551370454","","0.6","0.8","0.2","0.4","","","","","0.40722148","0.4551370454","0.4666998134","0.3871798792","","","","","","","","74","J","1","","","238","main_expt",""
"","bandit","318","803575","0.0-279.0-0.0","42132536","wem/bandit_either_3","A2HBI8BAE2C5QH","either","7","667","","","","","","","1","0","0","0.2979137516","","0.6","0.8","0.2","0.4","","","","","0.3113271407","0.2979137516","0.4916456171","0.3244704863","","","","","","","","74","J","1","","","239","main_expt",""
"","bandit","319","805847","0.0-280.0-0.0","42132536","wem/bandit_either_3","A2HBI8BAE2C5QH","either","7","741","","","","","","","1","0","0","0.2453134511","","0.6","0.8","0.2","0.4","","","","","0.2505753432","0.2453134511","0.7128417261","0.3606581002","","","","","","","","74","J","1","","","240","main_expt",""
"","bandit","320","807718","0.0-281.0-0.0","42132536","wem/bandit_either_3","A2HBI8BAE2C5QH","either","7","337","","","","","","","0","0","1","0.1984184333","","0.6","0.8","0.2","0.4","","","","","0.2015136922","0.1984184333","0.7711562233","0.3524522155","","","","","","","","74","J","1","","","241","main_expt",""
"","bandit","321","810032","0.0-282.0-0.0","42132536","wem/bandit_either_3","A2HBI8BAE2C5QH","either","7","778","","","","","","","0","0","1","0.35553679","","0.6","0.8","0.2","0.4","","","","","0.2405045743","0.35553679","0.7503869254","0.3677191248","","","","","","","","74","J","1","","","242","main_expt",""
"","bandit","322","811894","0.0-283.0-0.0","42132536","wem/bandit_either_3","A2HBI8BAE2C5QH","either","7","331","","","","","","","0","1","0","","0.6345316327","0.6","0.8","0.2","0.4","0.2458255622","0.3153476176","0.6345316327","0.2524844898","","","","","","","","","","","","75","K","2","","","243","main_expt",""
"","bandit","323","813840","0.0-284.0-0.0","42132536","wem/bandit_either_3","A2HBI8BAE2C5QH","either","7","415","","","","","","","0","1","0","","0.6330191047","0.6","0.8","0.2","0.4","0.3958019263","0.2733658223","0.6330191047","0.2870953983","","","","","","","","","","","","75","K","2","","","244","main_expt",""
"","bandit","324","816211","0.0-285.0-0.0","42132536","wem/bandit_either_3","A2HBI8BAE2C5QH","either","7","840","","","","","","","0","1","0","","0.6219736313","0.6","0.8","0.2","0.4","0.3463698993","0.3496419154","0.6219736313","0.3392553197","","","","","","","","","","","","75","K","2","","","245","main_expt",""
