"consent","trial_type","trial_index","time_elapsed","internal_node_id","subjID","study","MID","cond","drift","rt","responses","key_press","expt_phase","like","value","connected","gems","bombs","no_reward","GemPrChosen","BombPrChosen","GainOverPainPr_0","GainOverPainPr_1","GainOverPainPr_2","GainOverPainPr_3","LosePr_0","LosePr_1","LosePr_2","LosePr_3","WinPr_0","WinPr_1","WinPr_2","WinPr_3","Q0","Q1","Q2","gender","age","ethnicity","target","respCharCode","respKey","respChoiceNum","respChoice","practice","trial_counter","trial_label","button_pressed"
"INL_behavioral_consent_30min_online.html","consent","0","7195","0.0-0.0","42690376","wem/bandit_either_3","A1QVNF19XSRSD7","either","7","","","","","","","","","","","","","","","","","","","","","","","","","","","","","","","","","","","","","","",""
"","survey-text","1","10220","0.0-1.0","42690376","wem/bandit_either_3","A1QVNF19XSRSD7","either","7","2000","{""Q0"":""A1QVNF19XSRSD7""}","","","","","","","","","","","","","","","","","","","","","","","","","","","","","","","","","","","","",""
"","text","2","19832","0.0-2.0","42690376","wem/bandit_either_3","A1QVNF19XSRSD7","either","7","8378","","32","","","","","","","","","","","","","","","","","","","","","","","","","","","","","","","","","","","",""
"","text","3","20790","0.0-3.0","42690376","wem/bandit_either_3","A1QVNF19XSRSD7","either","7","950","","32","","","","","","","","","","","","","","","","","","","","","","","","","","","","","","","","","","","",""
"","text","4","21222","0.0-4.0","42690376","wem/bandit_either_3","A1QVNF19XSRSD7","either","7","424","","32","","","","","","","","","","","","","","","","","","","","","","","","","","","","","","","","","","","",""
"","text","5","21616","0.0-5.0","42690376","wem/bandit_either_3","A1QVNF19XSRSD7","either","7","392","","32","","","","","","","","","","","","","","","","","","","","","","","","","","","","","","","","","","","",""
"","text","6","22016","0.0-6.0","42690376","wem/bandit_either_3","A1QVNF19XSRSD7","either","7","399","","32","","","","","","","","","","","","","","","","","","","","","","","","","","","","","","","","","","","",""
"","text","7","22486","0.0-7.0","42690376","wem/bandit_either_3","A1QVNF19XSRSD7","either","7","468","","32","","","","","","","","","","","","","","","","","","","","","","","","","","","","","","","","","","","",""
"","text","8","22769","0.0-8.0","42690376","wem/bandit_either_3","A1QVNF19XSRSD7","either","7","279","","32","","","","","","","","","","","","","","","","","","","","","","","","","","","","","","","","","","","",""
"","identification","9","28276","0.0-9.0-0.0","42690376","wem/bandit_either_3","A1QVNF19XSRSD7","either","7","5444","","","","1","2","2","","","","","","","","","","","","","","","","","","","","","","","","the village of Zur","","","","","","","",""
"","identification","10","34653","0.0-9.0-1.0","42690376","wem/bandit_either_3","A1QVNF19XSRSD7","either","7","5333","","","","4","2","2","","","","","","","","","","","","","","","","","","","","","","","","the village of Nyx","","","","","","","",""
"","text","11","39841","0.0-10.0","42690376","wem/bandit_either_3","A1QVNF19XSRSD7","either","7","4173","","32","","","","","","","","","","","","","","","","","","","","","","","","","","","","","","","","","","","",""
"","text","12","40395","0.0-11.0","42690376","wem/bandit_either_3","A1QVNF19XSRSD7","either","7","542","","32","","","","","","","","","","","","","","","","","","","","","","","","","","","","","","","","","","","",""
"","text","13","40600","0.0-12.0","42690376","wem/bandit_either_3","A1QVNF19XSRSD7","either","7","199","","32","","","","","","","","","","","","","","","","","","","","","","","","","","","","","","","","","","","",""
"","text","14","40800","0.0-13.0","42690376","wem/bandit_either_3","A1QVNF19XSRSD7","either","7","199","","32","","","","","","","","","","","","","","","","","","","","","","","","","","","","","","","","","","","",""
"","bandit","15","44695","0.0-14.0-0.0","42690376","wem/bandit_either_3","A1QVNF19XSRSD7","either","7","2356","","","","","","","0","0","1","0","0","","","","","0","","","","0","","","","","","","","","","","74","J","0","img/none_selected_demo.jpg","true","0","",""
"","bandit","16","47933","0.0-15.0-0.0","42690376","wem/bandit_either_3","A1QVNF19XSRSD7","either","7","1709","","","","","","","0","0","1","0","0","","","","","0","","","","0","","","","","","","","","","","75","K","0","img/none_selected_demo.jpg","true","0","",""
"","text","17","49149","0.0-16.0","42690376","wem/bandit_either_3","A1QVNF19XSRSD7","either","7","1212","","32","","","","","","","","","","","","","","","","","","","","","","","","","","","","","","","","","","","",""
"","text","18","49538","0.0-17.0","42690376","wem/bandit_either_3","A1QVNF19XSRSD7","either","7","386","","32","","","","","","","","","","","","","","","","","","","","","","","","","","","","","","","","","","","",""
"","text","19","49838","0.0-18.0","42690376","wem/bandit_either_3","A1QVNF19XSRSD7","either","7","291","","32","","","","","","","","","","","","","","","","","","","","","","","","","","","","","","","","","","","",""
"","text","20","50132","0.0-19.0","42690376","wem/bandit_either_3","A1QVNF19XSRSD7","either","7","286","","32","","","","","","","","","","","","","","","","","","","","","","","","","","","","","","","","","","","",""
"","bandit","21","53886","0.0-20.0-0.0","42690376","wem/bandit_either_3","A1QVNF19XSRSD7","either","7","1956","","","","","","","0","1","0","","0.8","0.5","0.5","","","0.8","0.2","","","","","","","","","","","","","","74","J","0","img/none_selected_demo.jpg","true","0","80_20_practice",""
"","bandit","22","55573","0.0-20.0-1.0","42690376","wem/bandit_either_3","A1QVNF19XSRSD7","either","7","158","","","","","","","1","0","0","0.2","","0.5","0.5","","","","","","","0.8","0.2","","","","","","","","","","75","K","1","","true","0","80_20_practice",""
"","bandit","23","57117","0.0-20.0-2.0","42690376","wem/bandit_either_3","A1QVNF19XSRSD7","either","7","23","","","","","","","0","0","1","","0.2","0.5","0.5","","","0.8","0.2","","","","","","","","","","","","","","75","K","1","","true","0","80_20_practice",""
"","bandit","24","58717","0.0-20.0-3.0","42690376","wem/bandit_either_3","A1QVNF19XSRSD7","either","7","80","","","","","","","1","0","0","0.2","","0.5","0.5","","","","","","","0.8","0.2","","","","","","","","","","75","K","1","","true","0","80_20_practice",""
"","bandit","25","60291","0.0-20.0-4.0","42690376","wem/bandit_either_3","A1QVNF19XSRSD7","either","7","65","","","","","","","0","0","1","","0.2","0.5","0.5","","","0.8","0.2","","","","","","","","","","","","","","75","K","1","","true","0","80_20_practice",""
"","bandit","26","62020","0.0-20.0-5.0","42690376","wem/bandit_either_3","A1QVNF19XSRSD7","either","7","198","","","","","","","0","0","1","","0.2","0.5","0.5","","","0.8","0.2","","","","","","","","","","","","","","75","K","1","","true","0","80_20_practice",""
"","bandit","27","63694","0.0-20.0-6.0","42690376","wem/bandit_either_3","A1QVNF19XSRSD7","either","7","153","","","","","","","0","0","1","0.2","","0.5","0.5","","","","","","","0.8","0.2","","","","","","","","","","75","K","1","","true","0","80_20_practice",""
"","bandit","28","65397","0.0-20.0-7.0","42690376","wem/bandit_either_3","A1QVNF19XSRSD7","either","7","190","","","","","","","0","1","0","","0.8","0.5","0.5","","","0.8","0.2","","","","","","","","","","","","","","74","J","0","img/none_selected_demo.jpg","true","0","80_20_practice",""
"","bandit","29","67046","0.0-20.0-8.0","42690376","wem/bandit_either_3","A1QVNF19XSRSD7","either","7","132","","","","","","","0","0","1","0.2","","0.5","0.5","","","","","","","0.8","0.2","","","","","","","","","","75","K","1","","true","0","80_20_practice",""
"","bandit","30","68700","0.0-20.0-9.0","42690376","wem/bandit_either_3","A1QVNF19XSRSD7","either","7","4","","","","","","","0","1","0","","0.8","0.5","0.5","","","0.8","0.2","","","","","","","","","","","","","","74","J","0","img/none_selected_demo.jpg","true","0","80_20_practice",""
"","bandit","31","70673","0.0-20.0-10.0","42690376","wem/bandit_either_3","A1QVNF19XSRSD7","either","7","3","","","","","","","1","0","0","0.8","","0.5","0.5","","","","","","","0.8","0.2","","","","","","","","","","74","J","0","img/none_selected_demo.jpg","true","0","80_20_practice",""
"","bandit","32","72474","0.0-20.0-11.0","42690376","wem/bandit_either_3","A1QVNF19XSRSD7","either","7","1","","","","","","","1","0","0","0.8","","0.5","0.5","","","","","","","0.8","0.2","","","","","","","","","","74","J","0","img/none_selected_demo.jpg","true","0","80_20_practice",""
"","bandit","33","74006","0.0-20.0-12.0","42690376","wem/bandit_either_3","A1QVNF19XSRSD7","either","7","1","","","","","","","0","0","1","","0.2","0.5","0.5","","","0.8","0.2","","","","","","","","","","","","","","75","K","1","","true","0","80_20_practice",""
"","bandit","34","75605","0.0-20.0-13.0","42690376","wem/bandit_either_3","A1QVNF19XSRSD7","either","7","40","","","","","","","0","0","1","","0.2","0.5","0.5","","","0.8","0.2","","","","","","","","","","","","","","75","K","1","","true","0","80_20_practice",""
"","bandit","35","77174","0.0-20.0-14.0","42690376","wem/bandit_either_3","A1QVNF19XSRSD7","either","7","34","","","","","","","0","0","1","","0.2","0.5","0.5","","","0.8","0.2","","","","","","","","","","","","","","75","K","1","","true","0","80_20_practice",""
"","bandit","36","79348","0.0-20.0-15.0","42690376","wem/bandit_either_3","A1QVNF19XSRSD7","either","7","662","","","","","","","0","0","1","0.2","","0.5","0.5","","","","","","","0.8","0.2","","","","","","","","","","75","K","1","","true","0","80_20_practice",""
"","bandit","37","80912","0.0-20.0-16.0","42690376","wem/bandit_either_3","A1QVNF19XSRSD7","either","7","27","","","","","","","0","1","0","","0.8","0.5","0.5","","","0.8","0.2","","","","","","","","","","","","","","74","J","0","img/none_selected_demo.jpg","true","0","80_20_practice",""
"","bandit","38","82445","0.0-20.0-17.0","42690376","wem/bandit_either_3","A1QVNF19XSRSD7","either","7","12","","","","","","","1","0","0","0.2","","0.5","0.5","","","","","","","0.8","0.2","","","","","","","","","","75","K","1","","true","0","80_20_practice",""
"","bandit","39","84015","0.0-20.0-18.0","42690376","wem/bandit_either_3","A1QVNF19XSRSD7","either","7","23","","","","","","","0","0","1","0.2","","0.5","0.5","","","","","","","0.8","0.2","","","","","","","","","","75","K","1","","true","0","80_20_practice",""
"","bandit","40","85563","0.0-20.0-19.0","42690376","wem/bandit_either_3","A1QVNF19XSRSD7","either","7","28","","","","","","","0","0","1","0.8","","0.5","0.5","","","","","","","0.8","0.2","","","","","","","","","","74","J","0","img/none_selected_demo.jpg","true","0","80_20_practice",""
"","text","41","91961","0.0-21.0","42690376","wem/bandit_either_3","A1QVNF19XSRSD7","either","7","6389","","32","","","","","","","","","","","","","","","","","","","","","","","","","","","","","","","","","","","",""
"","bandit","42","95657","0.0-22.0-0.0","42690376","wem/bandit_either_3","A1QVNF19XSRSD7","either","7","2142","","","","","","","1","0","0","1","0","","","","","0","1","","","1","0","","","","","","","","","","74","J","0","img/none_selected_demo.jpg","true","0","",""
"","text","43","96263","0.0-23.0","42690376","wem/bandit_either_3","A1QVNF19XSRSD7","either","7","602","","32","","","","","","","","","","","","","","","","","","","","","","","","","","","","","","","","","","","",""
"","text","44","96759","0.0-24.0","42690376","wem/bandit_either_3","A1QVNF19XSRSD7","either","7","492","","32","","","","","","","","","","","","","","","","","","","","","","","","","","","","","","","","","","","",""
"","text","45","97463","0.0-25.0","42690376","wem/bandit_either_3","A1QVNF19XSRSD7","either","7","701","","32","","","","","","","","","","","","","","","","","","","","","","","","","","","","","","","","","","","",""
"","text","46","97825","0.0-26.0","42690376","wem/bandit_either_3","A1QVNF19XSRSD7","either","7","360","","32","","","","","","","","","","","","","","","","","","","","","","","","","","","","","","","","","","","",""
"","text","47","98224","0.0-27.0","42690376","wem/bandit_either_3","A1QVNF19XSRSD7","either","7","396","","32","","","","","","","","","","","","","","","","","","","","","","","","","","","","","","","","","","","",""
"","text","48","98649","0.0-28.0","42690376","wem/bandit_either_3","A1QVNF19XSRSD7","either","7","422","","32","","","","","","","","","","","","","","","","","","","","","","","","","","","","","","","","","","","",""
"","text","49","99075","0.0-29.0","42690376","wem/bandit_either_3","A1QVNF19XSRSD7","either","7","418","","32","","","","","","","","","","","","","","","","","","","","","","","","","","","","","","","","","","","",""
"","text","50","99458","0.0-30.0","42690376","wem/bandit_either_3","A1QVNF19XSRSD7","either","7","376","","32","","","","","","","","","","","","","","","","","","","","","","","","","","","","","","","","","","","",""
"","text","51","99845","0.0-31.0","42690376","wem/bandit_either_3","A1QVNF19XSRSD7","either","7","383","","32","","","","","","","","","","","","","","","","","","","","","","","","","","","","","","","","","","","",""
"","text","52","100250","0.0-32.0","42690376","wem/bandit_either_3","A1QVNF19XSRSD7","either","7","396","","32","","","","","","","","","","","","","","","","","","","","","","","","","","","","","","","","","","","",""
"","text","53","100691","0.0-33.0","42690376","wem/bandit_either_3","A1QVNF19XSRSD7","either","7","435","","32","","","","","","","","","","","","","","","","","","","","","","","","","","","","","","","","","","","",""
"","bandit","54","103866","0.0-34.0-0.0","42690376","wem/bandit_either_3","A1QVNF19XSRSD7","either","7","1662","","","","","","","0","1","0","","0.6","0.5","0.5","0.5","0.5","0.8","0.2","0.6","0.2","","","","","","","","","","","","75","K","2","","true","0","full_practice",""
"","bandit","55","105400","0.0-34.0-1.0","42690376","wem/bandit_either_3","A1QVNF19XSRSD7","either","7","13","","","","","","","1","0","0","0.2","","0.5","0.5","0.5","0.5","","","","","0.8","0.2","0.6","0.2","","","","","","","","74","J","1","","true","0","full_practice",""
"","bandit","56","107553","0.0-34.0-2.0","42690376","wem/bandit_either_3","A1QVNF19XSRSD7","either","7","631","","","","","","","0","0","1","0.2","","0.5","0.5","0.5","0.5","","","","","0.8","0.2","0.6","0.2","","","","","","","","76","L","3","","true","0","full_practice",""
"","bandit","57","109362","0.0-34.0-3.0","42690376","wem/bandit_either_3","A1QVNF19XSRSD7","either","7","5","","","","","","","1","0","0","0.6","","0.5","0.5","0.5","0.5","","","","","0.8","0.2","0.6","0.2","","","","","","","","75","K","2","","true","0","full_practice",""
"","bandit","58","111109","0.0-34.0-4.0","42690376","wem/bandit_either_3","A1QVNF19XSRSD7","either","7","3","","","","","","","1","0","0","0.2","","0.5","0.5","0.5","0.5","","","","","0.8","0.2","0.6","0.2","","","","","","","","74","J","1","","true","0","full_practice",""
"","bandit","59","112646","0.0-34.0-5.0","42690376","wem/bandit_either_3","A1QVNF19XSRSD7","either","7","10","","","","","","","0","0","1","0.6","","0.5","0.5","0.5","0.5","","","","","0.8","0.2","0.6","0.2","","","","","","","","75","K","2","","true","0","full_practice",""
"","bandit","60","114244","0.0-34.0-6.0","42690376","wem/bandit_either_3","A1QVNF19XSRSD7","either","7","29","","","","","","","0","0","1","","0.8","0.5","0.5","0.5","0.5","0.8","0.2","0.6","0.2","","","","","","","","","","","","72","H","0","img/none_selected.jpg","true","0","full_practice",""
"","bandit","61","124960","0.0-34.0-7.0","42690376","wem/bandit_either_3","A1QVNF19XSRSD7","either","7","9202","","","","","","","1","0","0","0.8","","0.5","0.5","0.5","0.5","","","","","0.8","0.2","0.6","0.2","","","","","","","","72","H","0","img/none_selected.jpg","true","0","full_practice",""
"","bandit","62","126623","0.0-34.0-8.0","42690376","wem/bandit_either_3","A1QVNF19XSRSD7","either","7","138","","","","","","","1","0","0","0.8","","0.5","0.5","0.5","0.5","","","","","0.8","0.2","0.6","0.2","","","","","","","","72","H","0","img/none_selected.jpg","true","0","full_practice",""
"","bandit","63","128226","0.0-34.0-9.0","42690376","wem/bandit_either_3","A1QVNF19XSRSD7","either","7","93","","","","","","","0","1","0","","0.8","0.5","0.5","0.5","0.5","0.8","0.2","0.6","0.2","","","","","","","","","","","","72","H","0","img/none_selected.jpg","true","0","full_practice",""
"","bandit","64","130327","0.0-34.0-10.0","42690376","wem/bandit_either_3","A1QVNF19XSRSD7","either","7","178","","","","","","","1","0","0","0.8","","0.5","0.5","0.5","0.5","","","","","0.8","0.2","0.6","0.2","","","","","","","","72","H","0","img/none_selected.jpg","true","0","full_practice",""
"","bandit","65","134628","0.0-34.0-11.0","42690376","wem/bandit_either_3","A1QVNF19XSRSD7","either","7","2761","","","","","","","0","1","0","","0.8","0.5","0.5","0.5","0.5","0.8","0.2","0.6","0.2","","","","","","","","","","","","72","H","0","img/none_selected.jpg","true","0","full_practice",""
"","bandit","66","137076","0.0-34.0-12.0","42690376","wem/bandit_either_3","A1QVNF19XSRSD7","either","7","902","","","","","","","0","1","0","","0.8","0.5","0.5","0.5","0.5","0.8","0.2","0.6","0.2","","","","","","","","","","","","72","H","0","img/none_selected.jpg","true","0","full_practice",""
"","bandit","67","139435","0.0-34.0-13.0","42690376","wem/bandit_either_3","A1QVNF19XSRSD7","either","7","816","","","","","","","0","1","0","","0.8","0.5","0.5","0.5","0.5","0.8","0.2","0.6","0.2","","","","","","","","","","","","72","H","0","img/none_selected.jpg","true","0","full_practice",""
"","bandit","68","141068","0.0-34.0-14.0","42690376","wem/bandit_either_3","A1QVNF19XSRSD7","either","7","58","","","","","","","1","0","0","0.8","","0.5","0.5","0.5","0.5","","","","","0.8","0.2","0.6","0.2","","","","","","","","72","H","0","img/none_selected.jpg","true","0","full_practice",""
"","bandit","69","142805","0.0-34.0-15.0","42690376","wem/bandit_either_3","A1QVNF19XSRSD7","either","7","150","","","","","","","1","0","0","0.8","","0.5","0.5","0.5","0.5","","","","","0.8","0.2","0.6","0.2","","","","","","","","72","H","0","img/none_selected.jpg","true","0","full_practice",""
"","bandit","70","144509","0.0-34.0-16.0","42690376","wem/bandit_either_3","A1QVNF19XSRSD7","either","7","192","","","","","","","1","0","0","0.8","","0.5","0.5","0.5","0.5","","","","","0.8","0.2","0.6","0.2","","","","","","","","72","H","0","img/none_selected.jpg","true","0","full_practice",""
"","bandit","71","146177","0.0-34.0-17.0","42690376","wem/bandit_either_3","A1QVNF19XSRSD7","either","7","151","","","","","","","1","0","0","0.8","","0.5","0.5","0.5","0.5","","","","","0.8","0.2","0.6","0.2","","","","","","","","72","H","0","img/none_selected.jpg","true","0","full_practice",""
"","bandit","72","148644","0.0-34.0-18.0","42690376","wem/bandit_either_3","A1QVNF19XSRSD7","either","7","429","","","","","","","0","1","0","","0.8","0.5","0.5","0.5","0.5","0.8","0.2","0.6","0.2","","","","","","","","","","","","72","H","0","img/none_selected.jpg","true","0","full_practice",""
"","bandit","73","150449","0.0-34.0-19.0","42690376","wem/bandit_either_3","A1QVNF19XSRSD7","either","7","12","","","","","","","1","0","0","0.8","","0.5","0.5","0.5","0.5","","","","","0.8","0.2","0.6","0.2","","","","","","","","72","H","0","img/none_selected.jpg","true","0","full_practice",""
"","text","74","152737","0.0-35.0","42690376","wem/bandit_either_3","A1QVNF19XSRSD7","either","7","2273","","32","","","","","","","","","","","","","","","","","","","","","","","","","","","","","","","","","","","",""
"","text","75","154849","0.0-36.0","42690376","wem/bandit_either_3","A1QVNF19XSRSD7","either","7","1102","","32","","","","","","","","","","","","","","","","","","","","","","","","","","","","","","","","","","","",""
"","text","76","155150","0.0-37.0","42690376","wem/bandit_either_3","A1QVNF19XSRSD7","either","7","297","","32","","","","","","","","","","","","","","","","","","","","","","","","","","","","","","","","","","","",""
"","text","77","155358","0.0-38.0","42690376","wem/bandit_either_3","A1QVNF19XSRSD7","either","7","204","","32","","","","","","","","","","","","","","","","","","","","","","","","","","","","","","","","","","","",""
"","text","78","155651","0.0-39.0","42690376","wem/bandit_either_3","A1QVNF19XSRSD7","either","7","283","","32","","","","","","","","","","","","","","","","","","","","","","","","","","","","","","","","","","","",""
"","text","79","155836","0.0-40.0","42690376","wem/bandit_either_3","A1QVNF19XSRSD7","either","7","180","","32","","","","","","","","","","","","","","","","","","","","","","","","","","","","","","","","","","","",""
"","bandit","80","158085","0.0-41.0-0.0","42690376","wem/bandit_either_3","A1QVNF19XSRSD7","either","7","724","","","","","","","0","0","1","","0.1731741302","0.2","0.6","0.8","0.4","0.1731741302","0.7088318221","0.2888626749","0.5514722813","","","","","","","","","","","","72","H","0","img/none_selected.jpg","","1","main_expt",""
"","bandit","81","159656","0.0-42.0-0.0","42690376","wem/bandit_either_3","A1QVNF19XSRSD7","either","7","55","","","","","","","0","0","1","","0.2874485847","0.2","0.6","0.8","0.4","0.2874485847","0.6292935488","0.3999538902","0.5039303977","","","","","","","","","","","","72","H","0","img/none_selected.jpg","","2","main_expt",""
"","bandit","82","161925","0.0-43.0-0.0","42690376","wem/bandit_either_3","A1QVNF19XSRSD7","either","7","732","","","","","","","0","0","1","","0.2683250969","0.2","0.6","0.8","0.4","0.2683250969","0.5285482983","0.4126831114","0.5527877924","","","","","","","","","","","","72","H","0","img/none_selected.jpg","","3","main_expt",""
"","bandit","83","165532","0.0-44.0-0.0","42690376","wem/bandit_either_3","A1QVNF19XSRSD7","either","7","2071","","","","","","","0","0","1","0.3988631097","","0.2","0.6","0.8","0.4","","","","","0.3988631097","0.6744491701","0.3923803367","0.6336700584","","","","","","","","72","H","0","img/none_selected.jpg","","4","main_expt",""
"","bandit","84","167900","0.0-45.0-0.0","42690376","wem/bandit_either_3","A1QVNF19XSRSD7","either","7","642","","","","","","","0","1","0","","0.3568799457","0.2","0.6","0.8","0.4","0.3568799457","0.7922285807","0.3803283439","0.6340088104","","","","","","","","","","","","72","H","0","img/none_selected.jpg","","5","main_expt",""
"","bandit","85","169871","0.0-46.0-0.0","42690376","wem/bandit_either_3","A1QVNF19XSRSD7","either","7","1","","","","","","","0","0","1","","0.3188731731","0.2","0.6","0.8","0.4","0.3188731731","0.7459441126","0.4214296899","0.5784181907","","","","","","","","","","","","72","H","0","img/none_selected.jpg","","6","main_expt",""
"","bandit","86","171637","0.0-47.0-0.0","42690376","wem/bandit_either_3","A1QVNF19XSRSD7","either","7","1","","","","","","","1","0","0","0.4574196012","","0.2","0.6","0.8","0.4","","","","","0.4574196012","0.7681481668","0.4755968838","0.6727083857","","","","","","","","72","H","0","img/none_selected.jpg","","7","main_expt",""
"","bandit","87","173206","0.0-48.0-0.0","42690376","wem/bandit_either_3","A1QVNF19XSRSD7","either","7","58","","","","","","","0","0","1","0.5037884951","","0.2","0.6","0.8","0.4","","","","","0.5037884951","0.7251609313","0.5353568537","0.7574508858","","","","","","","","72","H","0","img/none_selected.jpg","","8","main_expt",""
"","bandit","88","175203","0.0-49.0-0.0","42690376","wem/bandit_either_3","A1QVNF19XSRSD7","either","7","463","","","","","","","0","0","1","0.5750013994","","0.2","0.6","0.8","0.4","","","","","0.5750013994","0.7403055102","0.6246831942","0.8280759311","","","","","","","","72","H","0","img/none_selected.jpg","","9","main_expt",""
"","bandit","89","177408","0.0-50.0-0.0","42690376","wem/bandit_either_3","A1QVNF19XSRSD7","either","7","690","","","","","","","0","0","1","","0.5399040382","0.2","0.6","0.8","0.4","0.5399040382","0.722944265","0.4475954046","0.859726102","","","","","","","","","","","","72","H","0","img/none_selected.jpg","","10","main_expt",""
"","bandit","90","179703","0.0-51.0-0.0","42690376","wem/bandit_either_3","A1QVNF19XSRSD7","either","7","772","","","","","","","0","1","0","","0.5181098662","0.2","0.6","0.8","0.4","0.5181098662","0.6833847698","0.4514702697","0.877956501","","","","","","","","","","","","72","H","0","img/none_selected.jpg","","11","main_expt",""
"","bandit","91","181280","0.0-52.0-0.0","42690376","wem/bandit_either_3","A1QVNF19XSRSD7","either","7","59","","","","","","","1","0","0","0.5489165229","","0.2","0.6","0.8","0.4","","","","","0.5489165229","0.689227163","0.4873058782","0.8883669707","","","","","","","","72","H","0","img/none_selected.jpg","","12","main_expt",""
"","bandit","92","183246","0.0-53.0-0.0","42690376","wem/bandit_either_3","A1QVNF19XSRSD7","either","7","446","","","","","","","0","0","1","","0.6186986429","0.2","0.6","0.8","0.4","0.6186986429","0.5178623456","0.4862469224","0.817149195","","","","","","","","","","","","72","H","0","img/none_selected.jpg","","13","main_expt",""
"","bandit","93","184961","0.0-54.0-0.0","42690376","wem/bandit_either_3","A1QVNF19XSRSD7","either","7","191","","","","","","","0","0","1","","0.4944095791","0.2","0.6","0.8","0.4","0.4944095791","0.4768489018","0.360908092","0.8589139609","","","","","","","","","","","","72","H","0","img/none_selected.jpg","","14","main_expt",""
"","bandit","94","186585","0.0-55.0-0.0","42690376","wem/bandit_either_3","A1QVNF19XSRSD7","either","7","100","","","","","","","0","0","1","","0.4820951366","0.2","0.6","0.8","0.4","0.4820951366","0.5201849276","0.4126647893","0.7955781648","","","","","","","","","","","","72","H","0","img/none_selected.jpg","","15","main_expt",""
"","bandit","95","189288","0.0-56.0-0.0","42690376","wem/bandit_either_3","A1QVNF19XSRSD7","either","7","822","","","","","","","0","1","0","","0.4888848296","0.2","0.6","0.8","0.4","0.4888848296","0.6862231469","0.4930686601","0.8864445785","","","","","","","","","","","","72","H","0","img/none_selected.jpg","","16","main_expt",""
"","bandit","96","191158","0.0-57.0-0.0","42690376","wem/bandit_either_3","A1QVNF19XSRSD7","either","7","1","","","","","","","0","0","1","0.381306026","","0.2","0.6","0.8","0.4","","","","","0.381306026","0.7297328357","0.5162343008","0.8746062981","","","","","","","","72","H","0","img/none_selected.jpg","","17","main_expt",""
"","bandit","97","192697","0.0-58.0-0.0","42690376","wem/bandit_either_3","A1QVNF19XSRSD7","either","7","1","","","","","","","0","1","0","","0.3537135189","0.2","0.6","0.8","0.4","0.3537135189","0.6686287009","0.5627456494","0.8910236512","","","","","","","","","","","","72","H","0","img/none_selected.jpg","","18","main_expt",""
"","bandit","98","195128","0.0-59.0-0.0","42690376","wem/bandit_either_3","A1QVNF19XSRSD7","either","7","861","","","","","","","0","1","0","","0.4891458502","0.2","0.6","0.8","0.4","0.4891458502","0.7885428456","0.4478227807","0.8932054573","","","","","","","","","","","","72","H","0","img/none_selected.jpg","","19","main_expt",""
"","bandit","99","196693","0.0-60.0-0.0","42690376","wem/bandit_either_3","A1QVNF19XSRSD7","either","7","5","","","","","","","0","1","0","","0.5440957398","0.2","0.6","0.8","0.4","0.5440957398","0.7442236049","0.5306796692","0.8900063933","","","","","","","","","","","","72","H","0","img/none_selected.jpg","","20","main_expt",""
"","bandit","100","198263","0.0-61.0-0.0","42690376","wem/bandit_either_3","A1QVNF19XSRSD7","either","7","11","","","","","","","0","1","0","","0.5621313733","0.2","0.6","0.8","0.4","0.5621313733","0.7908218503","0.5423611418","0.8748704397","","","","","","","","","","","","72","H","0","img/none_selected.jpg","","21","main_expt",""
"","bandit","101","200062","0.0-62.0-0.0","42690376","wem/bandit_either_3","A1QVNF19XSRSD7","either","7","252","","","","","","","0","0","1","","0.5296345876","0.2","0.6","0.8","0.4","0.5296345876","0.7163236006","0.4190568807","0.8498769136","","","","","","","","","","","","72","H","0","img/none_selected.jpg","","22","main_expt",""
"","bandit","102","201667","0.0-63.0-0.0","42690376","wem/bandit_either_3","A1QVNF19XSRSD7","either","7","88","","","","","","","0","1","0","","0.5187107172","0.2","0.6","0.8","0.4","0.5187107172","0.7061190667","0.4329937009","0.8357449374","","","","","","","","","","","","72","H","0","img/none_selected.jpg","","23","main_expt",""
"","bandit","103","203299","0.0-64.0-0.0","42690376","wem/bandit_either_3","A1QVNF19XSRSD7","either","7","106","","","","","","","0","0","1","0.6000521927","","0.2","0.6","0.8","0.4","","","","","0.6000521927","0.7470556917","0.4298879426","0.8431908073","","","","","","","","72","H","0","img/none_selected.jpg","","24","main_expt",""
"","bandit","104","204867","0.0-65.0-0.0","42690376","wem/bandit_either_3","A1QVNF19XSRSD7","either","7","46","","","","","","","0","1","0","","0.5443047256","0.2","0.6","0.8","0.4","0.5443047256","0.8154180688","0.2992323157","0.8741885854","","","","","","","","","","","","72","H","0","img/none_selected.jpg","","25","main_expt",""
"","bandit","105","206861","0.0-66.0-0.0","42690376","wem/bandit_either_3","A1QVNF19XSRSD7","either","7","43","","","","","","","0","1","0","","0.592493964","0.2","0.6","0.8","0.4","0.592493964","0.8395379789","0.3857263224","0.8940719671","","","","","","","","","","","","72","H","0","img/none_selected.jpg","","26","main_expt",""
"","bandit","106","208687","0.0-67.0-0.0","42690376","wem/bandit_either_3","A1QVNF19XSRSD7","either","7","2","","","","","","","0","1","0","","0.5779569403","0.2","0.6","0.8","0.4","0.5779569403","0.8023078409","0.3715251318","0.8733378856","","","","","","","","","","","","72","H","0","img/none_selected.jpg","","27","main_expt",""
"","bandit","107","210524","0.0-68.0-0.0","42690376","wem/bandit_either_3","A1QVNF19XSRSD7","either","7","0","","","","","","","0","0","1","","0.7077223562","0.2","0.6","0.8","0.4","0.7077223562","0.8248968235","0.3387808014","0.8695586723","","","","","","","","","","","","72","H","0","img/none_selected.jpg","","28","main_expt",""
"","bandit","108","212141","0.0-69.0-0.0","42690376","wem/bandit_either_3","A1QVNF19XSRSD7","either","7","3","","","","","","","0","0","1","","0.7070353494","0.2","0.6","0.8","0.4","0.7070353494","0.8621011303","0.3737397218","0.7908290088","","","","","","","","","","","","72","H","0","img/none_selected.jpg","","29","main_expt",""
"","bandit","109","213680","0.0-70.0-0.0","42690376","wem/bandit_either_3","A1QVNF19XSRSD7","either","7","14","","","","","","","0","0","1","","0.6585428656","0.2","0.6","0.8","0.4","0.6585428656","0.8873668535","0.3232047389","0.8518997755","","","","","","","","","","","","72","H","0","img/none_selected.jpg","","30","main_expt",""
"","bandit","110","216582","0.0-71.0-0.0","42690376","wem/bandit_either_3","A1QVNF19XSRSD7","either","7","1361","","","","","","","0","0","1","","0.6724088618","0.2","0.6","0.8","0.4","0.6724088618","0.9318975106","0.4130267239","0.8509842625","","","","","","","","","","","","72","H","0","img/none_selected.jpg","","31","main_expt",""
"","bandit","111","218546","0.0-72.0-0.0","42690376","wem/bandit_either_3","A1QVNF19XSRSD7","either","7","407","","","","","","","0","1","0","","0.6416581209","0.2","0.6","0.8","0.4","0.6416581209","0.9013609786","0.4167758813","0.872996121","","","","","","","","","","","","72","H","0","img/none_selected.jpg","","32","main_expt",""
"","bandit","112","220322","0.0-73.0-0.0","42690376","wem/bandit_either_3","A1QVNF19XSRSD7","either","7","262","","","","","","","0","1","0","","0.7055802426","0.2","0.6","0.8","0.4","0.7055802426","0.9041531295","0.4546052232","0.8571046391","","","","","","","","","","","","72","H","0","img/none_selected.jpg","","33","main_expt",""
"","bandit","113","222016","0.0-74.0-0.0","42690376","wem/bandit_either_3","A1QVNF19XSRSD7","either","7","157","","","","","","","0","0","1","","0.7554114371","0.2","0.6","0.8","0.4","0.7554114371","0.9386104272","0.5231803088","0.9175819521","","","","","","","","","","","","72","H","0","img/none_selected.jpg","","34","main_expt",""
"","bandit","114","223856","0.0-75.0-0.0","42690376","wem/bandit_either_3","A1QVNF19XSRSD7","either","7","329","","","","","","","0","1","0","","0.8008095759","0.2","0.6","0.8","0.4","0.8008095759","0.9180645683","0.4661188593","0.9503165686","","","","","","","","","","","","72","H","0","img/none_selected.jpg","","35","main_expt",""
"","bandit","115","225486","0.0-76.0-0.0","42690376","wem/bandit_either_3","A1QVNF19XSRSD7","either","7","57","","","","","","","0","1","0","","0.6925109639","0.2","0.6","0.8","0.4","0.6925109639","0.9095107155","0.4106027186","0.9327615424","","","","","","","","","","","","72","H","0","img/none_selected.jpg","","36","main_expt",""
"","bandit","116","228620","0.0-77.0-0.0","42690376","wem/bandit_either_3","A1QVNF19XSRSD7","either","7","991","","","","","","","0","1","0","","0.7764255689","0.2","0.6","0.8","0.4","0.7764255689","0.9405648028","0.5021263718","0.9196494001","","","","","","","","","","","","72","H","0","img/none_selected.jpg","","37","main_expt",""
"","bandit","117","230595","0.0-78.0-0.0","42690376","wem/bandit_either_3","A1QVNF19XSRSD7","either","7","0","","","","","","","1","0","0","0.8392953971","","0.2","0.6","0.8","0.4","","","","","0.8392953971","0.9058459248","0.5065313343","0.928530414","","","","","","","","72","H","0","img/none_selected.jpg","","38","main_expt",""
"","bandit","118","232160","0.0-79.0-0.0","42690376","wem/bandit_either_3","A1QVNF19XSRSD7","either","7","15","","","","","","","1","0","0","0.7614495855","","0.2","0.6","0.8","0.4","","","","","0.7614495855","0.8784462517","0.6098243774","0.9001545702","","","","","","","","72","H","0","img/none_selected.jpg","","39","main_expt",""
"","bandit","119","233741","0.0-80.0-0.0","42690376","wem/bandit_either_3","A1QVNF19XSRSD7","either","7","5","","","","","","","0","1","0","","0.8060705796","0.2","0.6","0.8","0.4","0.8060705796","0.8408568766","0.679699592","0.8432481254","","","","","","","","","","","","72","H","0","img/none_selected.jpg","","40","main_expt",""
"","bandit","120","235636","0.0-81.0-0.0","42690376","wem/bandit_either_3","A1QVNF19XSRSD7","either","7","338","","","","","","","0","0","1","0.7539991053","","0.2","0.6","0.8","0.4","","","","","0.7539991053","0.811342849","0.616488607","0.8326479564","","","","","","","","72","H","0","img/none_selected.jpg","","41","main_expt",""
"","bandit","121","237202","0.0-82.0-0.0","42690376","wem/bandit_either_3","A1QVNF19XSRSD7","either","7","3","","","","","","","0","1","0","","0.7717369324","0.2","0.6","0.8","0.4","0.7717369324","0.8058808774","0.6307104111","0.8602810298","","","","","","","","","","","","72","H","0","img/none_selected.jpg","","42","main_expt",""
"","bandit","122","238822","0.0-83.0-0.0","42690376","wem/bandit_either_3","A1QVNF19XSRSD7","either","7","82","","","","","","","0","0","1","","0.7625968551","0.2","0.6","0.8","0.4","0.7625968551","0.7899844578","0.554567591","0.894365654","","","","","","","","","","","","72","H","0","img/none_selected.jpg","","43","main_expt",""
"","bandit","123","240440","0.0-84.0-0.0","42690376","wem/bandit_either_3","A1QVNF19XSRSD7","either","7","65","","","","","","","0","1","0","","0.8488621298","0.2","0.6","0.8","0.4","0.8488621298","0.7654486741","0.5281861223","0.9033664713","","","","","","","","","","","","72","H","0","img/none_selected.jpg","","44","main_expt",""
"","bandit","124","242308","0.0-85.0-0.0","42690376","wem/bandit_either_3","A1QVNF19XSRSD7","either","7","325","","","","","","","0","1","0","","0.8522077325","0.2","0.6","0.8","0.4","0.8522077325","0.7674111825","0.5043334007","0.8829964613","","","","","","","","","","","","72","H","0","img/none_selected.jpg","","45","main_expt",""
"","bandit","125","244611","0.0-86.0-0.0","42690376","wem/bandit_either_3","A1QVNF19XSRSD7","either","7","755","","","","","","","0","1","0","","0.8618589195","0.2","0.6","0.8","0.4","0.8618589195","0.6301273516","0.5426256613","0.8674694879","","","","","","","","","","","","72","H","0","img/none_selected.jpg","","46","main_expt",""
"","bandit","126","247083","0.0-87.0-0.0","42690376","wem/bandit_either_3","A1QVNF19XSRSD7","either","7","269","","","","","","","0","1","0","","0.905897833","0.2","0.6","0.8","0.4","0.905897833","0.7885969413","0.5024796093","0.8886720039","","","","","","","","","","","","72","H","0","img/none_selected.jpg","","47","main_expt",""
"","bandit","127","249174","0.0-88.0-0.0","42690376","wem/bandit_either_3","A1QVNF19XSRSD7","either","7","0","","","","","","","0","0","1","","0.8929468812","0.2","0.6","0.8","0.4","0.8929468812","0.7983786211","0.4689138593","0.9229902905","","","","","","","","","","","","72","H","0","img/none_selected.jpg","","48","main_expt",""
"","bandit","128","251231","0.0-89.0-0.0","42690376","wem/bandit_either_3","A1QVNF19XSRSD7","either","7","4","","","","","","","1","0","0","0.854905512","","0.2","0.6","0.8","0.4","","","","","0.854905512","0.8249867574","0.4439560463","0.9141434128","","","","","","","","72","H","0","img/none_selected.jpg","","49","main_expt",""
"","bandit","129","252817","0.0-90.0-0.0","42690376","wem/bandit_either_3","A1QVNF19XSRSD7","either","7","3","","","","","","","0","0","1","","0.8363103738","0.2","0.6","0.8","0.4","0.8363103738","0.7532301684","0.4079842927","0.9181160336","","","","","","","","","","","","72","H","0","img/none_selected.jpg","","50","main_expt",""
"","bandit","130","254480","0.0-91.0-0.0","42690376","wem/bandit_either_3","A1QVNF19XSRSD7","either","7","140","","","","","","","0","0","1","0.7168506975","","0.2","0.6","0.8","0.4","","","","","0.7168506975","0.6750909554","0.4675199832","0.9266489825","","","","","","","","72","H","0","img/none_selected.jpg","","51","main_expt",""
"","bandit","131","256145","0.0-92.0-0.0","42690376","wem/bandit_either_3","A1QVNF19XSRSD7","either","7","131","","","","","","","1","0","0","0.6507986152","","0.2","0.6","0.8","0.4","","","","","0.6507986152","0.6762079337","0.4368052975","0.9285581488","","","","","","","","72","H","0","img/none_selected.jpg","","52","main_expt",""
"","bandit","132","258961","0.0-93.0-0.0","42690376","wem/bandit_either_3","A1QVNF19XSRSD7","either","7","1268","","","","","","","0","1","0","","0.6531867096","0.2","0.6","0.8","0.4","0.6531867096","0.7882030045","0.4967902672","0.9171724481","","","","","","","","","","","","72","H","0","img/none_selected.jpg","","53","main_expt",""
"","bandit","133","260811","0.0-94.0-0.0","42690376","wem/bandit_either_3","A1QVNF19XSRSD7","either","7","248","","","","","","","0","1","0","","0.6178049746","0.2","0.6","0.8","0.4","0.6178049746","0.8759533557","0.5321533453","0.8709862684","","","","","","","","","","","","72","H","0","img/none_selected.jpg","","54","main_expt",""
"","bandit","134","262390","0.0-95.0-0.0","42690376","wem/bandit_either_3","A1QVNF19XSRSD7","either","7","39","","","","","","","0","1","0","","0.5501477499","0.2","0.6","0.8","0.4","0.5501477499","0.9307112091","0.593251847","0.9016108676","","","","","","","","","","","","72","H","0","img/none_selected.jpg","","55","main_expt",""
"","bandit","135","264223","0.0-96.0-0.0","42690376","wem/bandit_either_3","A1QVNF19XSRSD7","either","7","311","","","","","","","0","1","0","","0.5181914202","0.2","0.6","0.8","0.4","0.5181914202","0.9486344027","0.602347159","0.9123335035","","","","","","","","","","","","72","H","0","img/none_selected.jpg","","56","main_expt",""
"","bandit","136","265797","0.0-97.0-0.0","42690376","wem/bandit_either_3","A1QVNF19XSRSD7","either","7","56","","","","","","","0","1","0","","0.5052283364","0.2","0.6","0.8","0.4","0.5052283364","0.9450559811","0.736851976","0.9338523698","","","","","","","","","","","","72","H","0","img/none_selected.jpg","","57","main_expt",""
"","bandit","137","267850","0.0-98.0-0.0","42690376","wem/bandit_either_3","A1QVNF19XSRSD7","either","7","107","","","","","","","0","0","1","0.4494585665","","0.2","0.6","0.8","0.4","","","","","0.4494585665","0.960587128","0.7112026436","0.9023069914","","","","","","","","72","H","0","img/none_selected.jpg","","58","main_expt",""
"","bandit","138","269801","0.0-99.0-0.0","42690376","wem/bandit_either_3","A1QVNF19XSRSD7","either","7","158","","","","","","","0","1","0","","0.4431029696","0.2","0.6","0.8","0.4","0.4431029696","0.9272570312","0.7605469626","0.903153386","","","","","","","","","","","","72","H","0","img/none_selected.jpg","","59","main_expt",""
"","bandit","139","271701","0.0-100.0-0.0","42690376","wem/bandit_either_3","A1QVNF19XSRSD7","either","7","73","","","","","","","1","0","0","0.4213069188","","0.2","0.6","0.8","0.4","","","","","0.4213069188","0.9075075979","0.6504737249","0.8975643475","","","","","","","","72","H","0","img/none_selected.jpg","","60","main_expt",""
"","bandit","140","273387","0.0-101.0-0.0","42690376","wem/bandit_either_3","A1QVNF19XSRSD7","either","7","135","","","","","","","0","1","0","","0.4735464544","0.2","0.6","0.8","0.4","0.4735464544","0.9011961695","0.7417300409","0.8455107238","","","","","","","","","","","","72","H","0","img/none_selected.jpg","","61","main_expt",""
"","bandit","141","274933","0.0-102.0-0.0","42690376","wem/bandit_either_3","A1QVNF19XSRSD7","either","7","5","","","","","","","0","0","1","","0.4260239588","0.2","0.6","0.8","0.4","0.4260239588","0.9025442902","0.6889655243","0.8423106617","","","","","","","","","","","","72","H","0","img/none_selected.jpg","","62","main_expt",""
"","bandit","142","276704","0.0-103.0-0.0","42690376","wem/bandit_either_3","A1QVNF19XSRSD7","either","7","252","","","","","","","0","0","1","0.4048641732","","0.2","0.6","0.8","0.4","","","","","0.4048641732","0.900711875","0.7532165261","0.6997676278","","","","","","","","72","H","0","img/none_selected.jpg","","63","main_expt",""
"","bandit","143","278275","0.0-104.0-0.0","42690376","wem/bandit_either_3","A1QVNF19XSRSD7","either","7","51","","","","","","","0","1","0","","0.261135461","0.2","0.6","0.8","0.4","0.261135461","0.8445511995","0.7614619666","0.8033841581","","","","","","","","","","","","72","H","0","img/none_selected.jpg","","64","main_expt",""
"","bandit","144","280664","0.0-105.0-0.0","42690376","wem/bandit_either_3","A1QVNF19XSRSD7","either","7","844","","","","","","","0","0","1","","0.4398785507","0.2","0.6","0.8","0.4","0.4398785507","0.7838665633","0.7474824059","0.8458775523","","","","","","","","","","","","72","H","0","img/none_selected.jpg","","65","main_expt",""
"","bandit","145","282413","0.0-106.0-0.0","42690376","wem/bandit_either_3","A1QVNF19XSRSD7","either","7","218","","","","","","","0","0","1","","0.4549930047","0.2","0.6","0.8","0.4","0.4549930047","0.8399866527","0.7083026918","0.8612648572","","","","","","","","","","","","72","H","0","img/none_selected.jpg","","66","main_expt",""
"","bandit","146","284097","0.0-107.0-0.0","42690376","wem/bandit_either_3","A1QVNF19XSRSD7","either","7","139","","","","","","","0","0","1","","0.5565794079","0.2","0.6","0.8","0.4","0.5565794079","0.9109535201","0.6535093674","0.8686018104","","","","","","","","","","","","72","H","0","img/none_selected.jpg","","67","main_expt",""
"","bandit","147","285763","0.0-108.0-0.0","42690376","wem/bandit_either_3","A1QVNF19XSRSD7","either","7","140","","","","","","","1","0","0","0.9064065477","","0.2","0.6","0.8","0.4","","","","","0.4211802827","0.9064065477","0.4923739087","0.8693437115","","","","","","","","74","J","1","","","68","main_expt",""
"","bandit","148","287452","0.0-109.0-0.0","42690376","wem/bandit_either_3","A1QVNF19XSRSD7","either","7","154","","","","","","","1","0","0","0.9315833469","","0.2","0.6","0.8","0.4","","","","","0.3687693293","0.9315833469","0.4898097669","0.9168970181","","","","","","","","74","J","1","","","69","main_expt",""
"","bandit","149","289291","0.0-110.0-0.0","42690376","wem/bandit_either_3","A1QVNF19XSRSD7","either","7","4","","","","","","","0","0","1","","0.3460903474","0.2","0.6","0.8","0.4","0.3460903474","0.9393923483","0.4369614599","0.9293527272","","","","","","","","","","","","72","H","0","img/none_selected.jpg","","70","main_expt",""
"","bandit","150","291191","0.0-111.0-0.0","42690376","wem/bandit_either_3","A1QVNF19XSRSD7","either","7","3","","","","","","","1","0","0","0.9568343035","","0.2","0.6","0.8","0.4","","","","","0.3278112836","0.9568343035","0.5031037484","0.949087413","","","","","","","","74","J","1","","","71","main_expt",""
"","bandit","151","292860","0.0-112.0-0.0","42690376","wem/bandit_either_3","A1QVNF19XSRSD7","either","7","7","","","","","","","0","1","0","","0.947758434","0.2","0.6","0.8","0.4","0.2720469766","0.947758434","0.5397903688","0.906373323","","","","","","","","","","","","74","J","1","","","72","main_expt",""
"","bandit","152","294527","0.0-113.0-0.0","42690376","wem/bandit_either_3","A1QVNF19XSRSD7","either","7","128","","","","","","","1","0","0","0.9052010222","","0.2","0.6","0.8","0.4","","","","","0.2451019773","0.9052010222","0.5540652028","0.93965919","","","","","","","","74","J","1","","","73","main_expt",""
"","bandit","153","296080","0.0-114.0-0.0","42690376","wem/bandit_either_3","A1QVNF19XSRSD7","either","7","2","","","","","","","0","1","0","","0.2645862521","0.2","0.6","0.8","0.4","0.2645862521","0.927704936","0.61733434","0.9416319858","","","","","","","","","","","","72","H","0","img/none_selected.jpg","","74","main_expt",""
"","bandit","154","297694","0.0-115.0-0.0","42690376","wem/bandit_either_3","A1QVNF19XSRSD7","either","7","80","","","","","","","0","1","0","","0.8769567517","0.2","0.6","0.8","0.4","0.2298582","0.8769567517","0.6341908543","0.9535384208","","","","","","","","","","","","74","J","1","","","75","main_expt",""
"","bandit","155","299269","0.0-116.0-0.0","42690376","wem/bandit_either_3","A1QVNF19XSRSD7","either","7","60","","","","","","","1","0","0","0.8456064169","","0.2","0.6","0.8","0.4","","","","","0.3460043445","0.8456064169","0.6355577018","0.9585479729","","","","","","","","74","J","1","","","76","main_expt",""
"","bandit","156","300921","0.0-117.0-0.0","42690376","wem/bandit_either_3","A1QVNF19XSRSD7","either","7","107","","","","","","","0","1","0","","0.8325595713","0.2","0.6","0.8","0.4","0.2526488818","0.8325595713","0.7055426269","0.9610253773","","","","","","","","","","","","74","J","1","","","77","main_expt",""
"","bandit","157","302495","0.0-118.0-0.0","42690376","wem/bandit_either_3","A1QVNF19XSRSD7","either","7","15","","","","","","","0","0","1","0.9128982172","","0.2","0.6","0.8","0.4","","","","","0.2625396382","0.9128982172","0.6137882531","0.9580320452","","","","","","","","74","J","1","","","78","main_expt",""
"","bandit","158","304169","0.0-119.0-0.0","42690376","wem/bandit_either_3","A1QVNF19XSRSD7","either","7","149","","","","","","","0","1","0","","0.9213349282","0.2","0.6","0.8","0.4","0.2957535945","0.9213349282","0.668392527","0.9403834825","","","","","","","","","","","","74","J","1","","","79","main_expt",""
"","bandit","159","305753","0.0-120.0-0.0","42690376","wem/bandit_either_3","A1QVNF19XSRSD7","either","7","48","","","","","","","1","0","0","0.8935563746","","0.2","0.6","0.8","0.4","","","","","0.1831261498","0.8935563746","0.7457361895","0.946171157","","","","","","","","74","J","1","","","80","main_expt",""
"","bandit","160","307503","0.0-121.0-0.0","42690376","wem/bandit_either_3","A1QVNF19XSRSD7","either","7","207","","","","","","","1","0","0","0.932831263","","0.2","0.6","0.8","0.4","","","","","0.1450659425","0.932831263","0.8028050151","0.9800092583","","","","","","","","74","J","1","","","81","main_expt",""
"","bandit","161","309779","0.0-122.0-0.0","42690376","wem/bandit_either_3","A1QVNF19XSRSD7","either","7","384","","","","","","","0","1","0","","0.9403650082","0.2","0.6","0.8","0.4","0.1486641529","0.9403650082","0.8727424511","0.9666397243","","","","","","","","","","","","74","J","1","","","82","main_expt",""
"","bandit","162","312235","0.0-123.0-0.0","42690376","wem/bandit_either_3","A1QVNF19XSRSD7","either","7","35","","","","","","","1","0","0","0.9066396881","","0.2","0.6","0.8","0.4","","","","","0.1567811066","0.9066396881","0.8283068274","0.9637330664","","","","","","","","74","J","1","","","83","main_expt",""
"","bandit","163","314476","0.0-124.0-0.0","42690376","wem/bandit_either_3","A1QVNF19XSRSD7","either","7","3","","","","","","","0","1","0","","0.8962006295","0.2","0.6","0.8","0.4","0.196091916","0.8962006295","0.8030064341","0.9617949183","","","","","","","","","","","","74","J","1","","","84","main_expt",""
"","bandit","164","316315","0.0-125.0-0.0","42690376","wem/bandit_either_3","A1QVNF19XSRSD7","either","7","51","","","","","","","0","0","1","0.8622567251","","0.2","0.6","0.8","0.4","","","","","0.1512390112","0.9093999993","0.8622567251","0.9561985801","","","","","","","","75","K","2","","","85","main_expt",""
"","bandit","165","317982","0.0-126.0-0.0","42690376","wem/bandit_either_3","A1QVNF19XSRSD7","either","7","105","","","","","","","1","0","0","0.9326862648","","0.2","0.6","0.8","0.4","","","","","0.1486491559","0.9326862648","0.896584634","0.9422505668","","","","","","","","74","J","1","","","86","main_expt",""
"","bandit","166","319715","0.0-127.0-0.0","42690376","wem/bandit_either_3","A1QVNF19XSRSD7","either","7","197","","","","","","","0","1","0","","0.9039434857","0.2","0.6","0.8","0.4","0.1047878604","0.9039434857","0.9208758521","0.926711091","","","","","","","","","","","","74","J","1","","","87","main_expt",""
"","bandit","167","321350","0.0-128.0-0.0","42690376","wem/bandit_either_3","A1QVNF19XSRSD7","either","7","101","","","","","","","0","1","0","","0.9195127861","0.2","0.6","0.8","0.4","0.07038149384","0.9195127861","0.9266301883","0.9092576496","","","","","","","","","","","","74","J","1","","","88","main_expt",""
"","bandit","168","323091","0.0-129.0-0.0","42690376","wem/bandit_either_3","A1QVNF19XSRSD7","either","7","200","","","","","","","0","1","0","","0.9225053559","0.2","0.6","0.8","0.4","0.1311535074","0.9225053559","0.9259215542","0.8948591238","","","","","","","","","","","","74","J","1","","","89","main_expt",""
"","bandit","169","324787","0.0-130.0-0.0","42690376","wem/bandit_either_3","A1QVNF19XSRSD7","either","7","158","","","","","","","1","0","0","0.9014563988","","0.2","0.6","0.8","0.4","","","","","0.1241310956","0.9014563988","0.9400480964","0.8716727139","","","","","","","","74","J","1","","","90","main_expt",""
"","bandit","170","326428","0.0-131.0-0.0","42690376","wem/bandit_either_3","A1QVNF19XSRSD7","either","7","98","","","","","","","1","0","0","0.8961855863","","0.2","0.6","0.8","0.4","","","","","0.09664170694","0.9162570652","0.8961855863","0.8969144331","","","","","","","","75","K","2","","","91","main_expt",""
"","bandit","171","327988","0.0-132.0-0.0","42690376","wem/bandit_either_3","A1QVNF19XSRSD7","either","7","6","","","","","","","1","0","0","0.9211437923","","0.2","0.6","0.8","0.4","","","","","0.09586364307","0.9171553871","0.9211437923","0.9171199264","","","","","","","","75","K","2","","","92","main_expt",""
"","bandit","172","329909","0.0-133.0-0.0","42690376","wem/bandit_either_3","A1QVNF19XSRSD7","either","7","149","","","","","","","1","0","0","0.9463284029","","0.2","0.6","0.8","0.4","","","","","0.08304118766","0.9463284029","0.8947860396","0.9593171332","","","","","","","","74","J","1","","","93","main_expt",""
"","bandit","173","331883","0.0-134.0-0.0","42690376","wem/bandit_either_3","A1QVNF19XSRSD7","either","7","2","","","","","","","1","0","0","0.9477079066","","0.2","0.6","0.8","0.4","","","","","0.1222865453","0.9477079066","0.822540961","0.959226596","","","","","","","","74","J","1","","","94","main_expt",""
"","bandit","174","333749","0.0-135.0-0.0","42690376","wem/bandit_either_3","A1QVNF19XSRSD7","either","7","2","","","","","","","0","0","1","","0.8288041746","0.2","0.6","0.8","0.4","0.211460517","0.9474919074","0.8288041746","0.947105423","","","","","","","","","","","","75","K","2","","","95","main_expt",""
"","bandit","175","335329","0.0-136.0-0.0","42690376","wem/bandit_either_3","A1QVNF19XSRSD7","either","7","39","","","","","","","1","0","0","0.8217366877","","0.2","0.6","0.8","0.4","","","","","0.2757920232","0.9722490369","0.8217366877","0.937205139","","","","","","","","75","K","2","","","96","main_expt",""
"","bandit","176","337003","0.0-137.0-0.0","42690376","wem/bandit_either_3","A1QVNF19XSRSD7","either","7","126","","","","","","","0","1","0","","0.725285089","0.2","0.6","0.8","0.4","0.2646876298","0.980822097","0.725285089","0.9472767204","","","","","","","","","","","","75","K","2","","","97","main_expt",""
"","bandit","177","338673","0.0-138.0-0.0","42690376","wem/bandit_either_3","A1QVNF19XSRSD7","either","7","136","","","","","","","0","1","0","","0.962959595","0.2","0.6","0.8","0.4","0.3278454636","0.9761591307","0.7958966199","0.962959595","","","","","","","","","","","","76","L","3","","","98","main_expt",""
"","bandit","178","340334","0.0-139.0-0.0","42690376","wem/bandit_either_3","A1QVNF19XSRSD7","either","7","116","","","","","","","0","1","0","","0.9597391097","0.2","0.6","0.8","0.4","0.4641870332","0.9597391097","0.7741840332","0.9720903607","","","","","","","","","","","","74","J","1","","","99","main_expt",""
"","bandit","179","341941","0.0-140.0-0.0","42690376","wem/bandit_either_3","A1QVNF19XSRSD7","either","7","86","","","","","","","0","0","1","","0.3972344865","0.2","0.6","0.8","0.4","0.3972344865","0.9557148533","0.7934767162","0.9737169538","","","","","","","","","","","","72","H","0","img/none_selected.jpg","","100","main_expt",""
"","bandit","180","343636","0.0-141.0-0.0","42690376","wem/bandit_either_3","A1QVNF19XSRSD7","either","7","96","","","","","","","0","1","0","","0.4395304924","0.2","0.6","0.8","0.4","0.4395304924","0.9687934467","0.8307638242","0.986468331","","","","","","","","","","","","72","H","0","img/none_selected.jpg","","101","main_expt",""
"","bandit","181","345342","0.0-142.0-0.0","42690376","wem/bandit_either_3","A1QVNF19XSRSD7","either","7","187","","","","","","","1","0","0","0.9713318577","","0.2","0.6","0.8","0.4","","","","","0.5248298482","0.9713318577","0.7737236933","0.9859557102","","","","","","","","74","J","1","","","102","main_expt",""
"","bandit","182","346915","0.0-143.0-0.0","42690376","wem/bandit_either_3","A1QVNF19XSRSD7","either","7","60","","","","","","","0","1","0","","0.9768128314","0.2","0.6","0.8","0.4","0.6218364577","0.9768128314","0.8168427084","0.9828698412","","","","","","","","","","","","74","J","1","","","103","main_expt",""
"","bandit","183","348510","0.0-144.0-0.0","42690376","wem/bandit_either_3","A1QVNF19XSRSD7","either","7","47","","","","","","","0","1","0","","0.9566706727","0.2","0.6","0.8","0.4","0.5528563194","0.9566706727","0.7020104164","0.9655029871","","","","","","","","","","","","74","J","1","","","104","main_expt",""
"","bandit","184","350586","0.0-145.0-0.0","42690376","wem/bandit_either_3","A1QVNF19XSRSD7","either","7","29","","","","","","","0","1","0","","0.9352711559","0.2","0.6","0.8","0.4","0.515821512","0.9352711559","0.6750414237","0.9587067199","","","","","","","","","","","","74","J","1","","","105","main_expt",""
"","bandit","185","352622","0.0-146.0-0.0","42690376","wem/bandit_either_3","A1QVNF19XSRSD7","either","7","66","","","","","","","1","0","0","0.8980036198","","0.2","0.6","0.8","0.4","","","","","0.5380341879","0.8980036198","0.5886413089","0.9358961366","","","","","","","","74","J","1","","","106","main_expt",""
"","bandit","186","355247","0.0-147.0-0.0","42690376","wem/bandit_either_3","A1QVNF19XSRSD7","either","7","1010","","","","","","","1","0","0","0.9175797088","","0.2","0.6","0.8","0.4","","","","","0.3291998873","0.9175797088","0.5507707533","0.8829949032","","","","","","","","74","J","1","","","107","main_expt",""
"","bandit","187","356858","0.0-148.0-0.0","42690376","wem/bandit_either_3","A1QVNF19XSRSD7","either","7","50","","","","","","","0","1","0","","0.8966825343","0.2","0.6","0.8","0.4","0.3608627265","0.8966825343","0.4325904974","0.7668100276","","","","","","","","","","","","74","J","1","","","108","main_expt",""
"","bandit","188","358593","0.0-149.0-0.0","42690376","wem/bandit_either_3","A1QVNF19XSRSD7","either","7","181","","","","","","","1","0","0","0.8883819791","","0.2","0.6","0.8","0.4","","","","","0.3837942066","0.8883819791","0.3735159861","0.7652463225","","","","","","","","74","J","1","","","109","main_expt",""
"","bandit","189","360254","0.0-150.0-0.0","42690376","wem/bandit_either_3","A1QVNF19XSRSD7","either","7","62","","","","","","","0","1","0","","0.9087011364","0.2","0.6","0.8","0.4","0.3019365294","0.9087011364","0.3704440872","0.7974745759","","","","","","","","","","","","74","J","1","","","110","main_expt",""
"","bandit","190","361959","0.0-151.0-0.0","42690376","wem/bandit_either_3","A1QVNF19XSRSD7","either","7","169","","","","","","","1","0","0","0.9337026812","","0.2","0.6","0.8","0.4","","","","","0.3483008865","0.9337026812","0.2749067499","0.812352323","","","","","","","","74","J","1","","","111","main_expt",""
"","bandit","191","363557","0.0-152.0-0.0","42690376","wem/bandit_either_3","A1QVNF19XSRSD7","either","7","41","","","","","","","1","0","0","0.9113388615","","0.2","0.6","0.8","0.4","","","","","0.4342302697","0.9113388615","0.2734667401","0.7428975936","","","","","","","","74","J","1","","","112","main_expt",""
"","bandit","192","365134","0.0-153.0-0.0","42690376","wem/bandit_either_3","A1QVNF19XSRSD7","either","7","49","","","","","","","1","0","0","0.8980528729","","0.2","0.6","0.8","0.4","","","","","0.5187246657","0.8980528729","0.2291946885","0.7139653514","","","","","","","","74","J","1","","","113","main_expt",""
"","bandit","193","367162","0.0-154.0-0.0","42690376","wem/bandit_either_3","A1QVNF19XSRSD7","either","7","479","","","","","","","0","0","1","0.2413339081","","0.2","0.6","0.8","0.4","","","","","0.5381742134","0.8036326458","0.2413339081","0.7945657698","","","","","","","","75","K","2","","","114","main_expt",""
"","bandit","194","368704","0.0-155.0-0.0","42690376","wem/bandit_either_3","A1QVNF19XSRSD7","either","7","13","","","","","","","0","0","1","0.3092826039","","0.2","0.6","0.8","0.4","","","","","0.4785029821","0.8700945717","0.3092826039","0.8405588069","","","","","","","","75","K","2","","","115","main_expt",""
"","bandit","195","371838","0.0-156.0-0.0","42690376","wem/bandit_either_3","A1QVNF19XSRSD7","either","7","902","","","","","","","0","0","1","0.2361366225","","0.2","0.6","0.8","0.4","","","","","0.4654757386","0.8895114993","0.2361366225","0.8641798474","","","","","","","","75","K","2","","","116","main_expt",""
"","bandit","196","373900","0.0-157.0-0.0","42690376","wem/bandit_either_3","A1QVNF19XSRSD7","either","7","17","","","","","","","0","0","1","0.218402711","","0.2","0.6","0.8","0.4","","","","","0.4578633225","0.8936856952","0.218402711","0.8756768431","","","","","","","","75","K","2","","","117","main_expt",""
"","bandit","197","375451","0.0-158.0-0.0","42690376","wem/bandit_either_3","A1QVNF19XSRSD7","either","7","8","","","","","","","1","0","0","0.2003641109","","0.2","0.6","0.8","0.4","","","","","0.4773941538","0.8077127093","0.2003641109","0.9015269718","","","","","","","","75","K","2","","","118","main_expt",""
"","bandit","198","377105","0.0-159.0-0.0","42690376","wem/bandit_either_3","A1QVNF19XSRSD7","either","7","49","","","","","","","0","0","1","0.1375137305","","0.2","0.6","0.8","0.4","","","","","0.508374463","0.8901108642","0.1375137305","0.8709738884","","","","","","","","75","K","2","","","119","main_expt",""
"","bandit","199","378775","0.0-160.0-0.0","42690376","wem/bandit_either_3","A1QVNF19XSRSD7","either","7","100","","","","","","","0","0","1","0.08656631556","","0.2","0.6","0.8","0.4","","","","","0.4294310012","0.8731124259","0.08656631556","0.8268338002","","","","","","","","75","K","2","","","120","main_expt",""
"","bandit","200","380546","0.0-161.0-0.0","42690376","wem/bandit_either_3","A1QVNF19XSRSD7","either","7","243","","","","","","","0","0","1","","0.07812634859","0.2","0.6","0.8","0.4","0.3933985885","0.8509174952","0.07812634859","0.8432616236","","","","","","","","","","","","75","K","2","","","121","main_expt",""
"","bandit","201","382106","0.0-162.0-0.0","42690376","wem/bandit_either_3","A1QVNF19XSRSD7","either","7","15","","","","","","","0","0","1","0.09046411854","","0.2","0.6","0.8","0.4","","","","","0.2641409089","0.8707856005","0.09046411854","0.8128728295","","","","","","","","75","K","2","","","122","main_expt",""
"","bandit","202","383696","0.0-163.0-0.0","42690376","wem/bandit_either_3","A1QVNF19XSRSD7","either","7","7","","","","","","","0","0","1","","0.1132512529","0.2","0.6","0.8","0.4","0.2491349268","0.7592524618","0.1132512529","0.752198112","","","","","","","","","","","","75","K","2","","","123","main_expt",""
"","bandit","203","385215","0.0-164.0-0.0","42690376","wem/bandit_either_3","A1QVNF19XSRSD7","either","7","0","","","","","","","0","0","1","0.09419269712","","0.2","0.6","0.8","0.4","","","","","0.2587226179","0.7330206325","0.09419269712","0.7117781612","","","","","","","","75","K","2","","","124","main_expt",""
"","bandit","204","386884","0.0-165.0-0.0","42690376","wem/bandit_either_3","A1QVNF19XSRSD7","either","7","156","","","","","","","0","0","1","0.110513045","","0.2","0.6","0.8","0.4","","","","","0.2925679814","0.6903693331","0.110513045","0.7177409252","","","","","","","","75","K","2","","","125","main_expt",""
"","bandit","205","388484","0.0-166.0-0.0","42690376","wem/bandit_either_3","A1QVNF19XSRSD7","either","7","80","","","","","","","0","0","1","","0.07088043536","0.2","0.6","0.8","0.4","0.3997536411","0.6370641568","0.07088043536","0.7240917845","","","","","","","","","","","","75","K","2","","","126","main_expt",""
"","bandit","206","390689","0.0-167.0-0.0","42690376","wem/bandit_either_3","A1QVNF19XSRSD7","either","7","76","","","","","","","0","0","1","","0.1041728595","0.2","0.6","0.8","0.4","0.4120812041","0.6192694325","0.1041728595","0.6788578752","","","","","","","","","","","","75","K","2","","","127","main_expt",""
"","bandit","207","392654","0.0-168.0-0.0","42690376","wem/bandit_either_3","A1QVNF19XSRSD7","either","7","151","","","","","","","0","0","1","0.1006708935","","0.2","0.6","0.8","0.4","","","","","0.3731276689","0.559348281","0.1006708935","0.6257789885","","","","","","","","75","K","2","","","128","main_expt",""
"","bandit","208","394559","0.0-169.0-0.0","42690376","wem/bandit_either_3","A1QVNF19XSRSD7","either","7","10","","","","","","","1","0","0","0.1336488566","","0.2","0.6","0.8","0.4","","","","","0.3263017501","0.610360397","0.1336488566","0.4761868647","","","","","","","","75","K","2","","","129","main_expt",""
"","bandit","209","409233","0.0-170.0-0.0","42690376","wem/bandit_either_3","A1QVNF19XSRSD7","either","7","13103","","","","","","","0","0","1","0.5737783772","","0.2","0.6","0.8","0.4","","","","","0.3226142564","0.5737783772","0.1271550391","0.4745188583","","","","","","","","74","J","1","","","130","main_expt",""
"","bandit","210","424625","0.0-171.0-0.0","42690376","wem/bandit_either_3","A1QVNF19XSRSD7","either","7","13855","","","","","","","0","0","1","","0.1594360192","0.2","0.6","0.8","0.4","0.3907136596","0.6252154127","0.1594360192","0.4674409752","","","","","","","","","","","","75","K","2","","","131","main_expt",""
"","bandit","211","427787","0.0-172.0-0.0","42690376","wem/bandit_either_3","A1QVNF19XSRSD7","either","7","1611","","","","","","","0","0","1","","0.1027658661","0.2","0.6","0.8","0.4","0.4983036492","0.6473056352","0.1027658661","0.368649462","","","","","","","","","","","","75","K","2","","","132","main_expt",""
"","bandit","212","429726","0.0-173.0-0.0","42690376","wem/bandit_either_3","A1QVNF19XSRSD7","either","7","405","","","","","","","0","0","1","","0.1223548883","0.2","0.6","0.8","0.4","0.6347393695","0.4595123468","0.1223548883","0.4313577514","","","","","","","","","","","","75","K","2","","","133","main_expt",""
"","bandit","213","431530","0.0-174.0-0.0","42690376","wem/bandit_either_3","A1QVNF19XSRSD7","either","7","277","","","","","","","0","0","1","","0.1063029331","0.2","0.6","0.8","0.4","0.6037412299","0.3043385566","0.1063029331","0.3692150919","","","","","","","","","","","","75","K","2","","","134","main_expt",""
"","bandit","214","433632","0.0-175.0-0.0","42690376","wem/bandit_either_3","A1QVNF19XSRSD7","either","7","569","","","","","","","0","0","1","0.080644856","","0.2","0.6","0.8","0.4","","","","","0.5511090861","0.340857567","0.080644856","0.3077662431","","","","","","","","75","K","2","","","135","main_expt",""
"","bandit","215","435697","0.0-176.0-0.0","42690376","wem/bandit_either_3","A1QVNF19XSRSD7","either","7","310","","","","","","","0","0","1","0.1359867045","","0.2","0.6","0.8","0.4","","","","","0.585911414","0.2655810755","0.1359867045","0.314969588","","","","","","","","75","K","2","","","136","main_expt",""
"","bandit","216","437724","0.0-177.0-0.0","42690376","wem/bandit_either_3","A1QVNF19XSRSD7","either","7","3","","","","","","","0","0","1","0.168344283","","0.2","0.6","0.8","0.4","","","","","0.5805905743","0.3025530854","0.168344283","0.3590847215","","","","","","","","75","K","2","","","137","main_expt",""
"","bandit","217","439900","0.0-178.0-0.0","42690376","wem/bandit_either_3","A1QVNF19XSRSD7","either","7","1","","","","","","","0","0","1","","0.1867455324","0.2","0.6","0.8","0.4","0.6357737786","0.2888348812","0.1867455324","0.3588584756","","","","","","","","","","","","75","K","2","","","138","main_expt",""
"","bandit","218","441438","0.0-179.0-0.0","42690376","wem/bandit_either_3","A1QVNF19XSRSD7","either","7","0","","","","","","","0","0","1","0.2277874407","","0.2","0.6","0.8","0.4","","","","","0.66639317","0.2463208975","0.2277874407","0.4289761638","","","","","","","","75","K","2","","","139","main_expt",""
"","bandit","219","443182","0.0-180.0-0.0","42690376","wem/bandit_either_3","A1QVNF19XSRSD7","either","7","222","","","","","","","0","0","1","0.2577820179","","0.2","0.6","0.8","0.4","","","","","0.6365789307","0.273109751","0.2577820179","0.3801639999","","","","","","","","75","K","2","","","140","main_expt",""
"","bandit","220","444741","0.0-181.0-0.0","42690376","wem/bandit_either_3","A1QVNF19XSRSD7","either","7","3","","","","","","","0","0","1","0.3674069736","","0.2","0.6","0.8","0.4","","","","","0.6045632144","0.3355442787","0.3674069736","0.2445936549","","","","","","","","75","K","2","","","141","main_expt",""
"","bandit","221","446477","0.0-182.0-0.0","42690376","wem/bandit_either_3","A1QVNF19XSRSD7","either","7","164","","","","","","","1","0","0","0.4345417514","","0.2","0.6","0.8","0.4","","","","","0.5148607161","0.2781999234","0.4345417514","0.3394066497","","","","","","","","75","K","2","","","142","main_expt",""
"","bandit","222","448209","0.0-183.0-0.0","42690376","wem/bandit_either_3","A1QVNF19XSRSD7","either","7","198","","","","","","","1","0","0","0.3811672827","","0.2","0.6","0.8","0.4","","","","","0.4754154836","0.2599467226","0.3811672827","0.2899754881","","","","","","","","75","K","2","","","143","main_expt",""
"","bandit","223","449751","0.0-184.0-0.0","42690376","wem/bandit_either_3","A1QVNF19XSRSD7","either","7","13","","","","","","","0","0","1","0.2754059391","","0.2","0.6","0.8","0.4","","","","","0.516029258","0.2353144144","0.2754059391","0.3701332444","","","","","","","","75","K","2","","","144","main_expt",""
"","bandit","224","451584","0.0-185.0-0.0","42690376","wem/bandit_either_3","A1QVNF19XSRSD7","either","7","269","","","","","","","0","0","1","","0.2120114759","0.2","0.6","0.8","0.4","0.6646605279","0.2120114759","0.2773400324","0.3322753171","","","","","","","","","","","","74","J","1","","","145","main_expt",""
"","bandit","225","453219","0.0-186.0-0.0","42690376","wem/bandit_either_3","A1QVNF19XSRSD7","either","7","96","","","","","","","0","0","1","0.2780426824","","0.2","0.6","0.8","0.4","","","","","0.6331546467","0.176067728","0.2780426824","0.3203507811","","","","","","","","75","K","2","","","146","main_expt",""
"","bandit","226","454811","0.0-187.0-0.0","42690376","wem/bandit_either_3","A1QVNF19XSRSD7","either","7","32","","","","","","","1","0","0","0.3373608721","","0.2","0.6","0.8","0.4","","","","","0.6356747602","0.1329453439","0.3373608721","0.304761248","","","","","","","","75","K","2","","","147","main_expt",""
"","bandit","227","456724","0.0-188.0-0.0","42690376","wem/bandit_either_3","A1QVNF19XSRSD7","either","7","78","","","","","","","1","0","0","0.3529594122","","0.2","0.6","0.8","0.4","","","","","0.6301772709","0.1465103875","0.3529594122","0.3809280674","","","","","","","","75","K","2","","","148","main_expt",""
"","bandit","228","458693","0.0-189.0-0.0","42690376","wem/bandit_either_3","A1QVNF19XSRSD7","either","7","95","","","","","","","0","0","1","","0.3878328211","0.2","0.6","0.8","0.4","0.6640591829","0.1190451538","0.3878328211","0.3997986218","","","","","","","","","","","","75","K","2","","","149","main_expt",""
"","bandit","229","460472","0.0-190.0-0.0","42690376","wem/bandit_either_3","A1QVNF19XSRSD7","either","7","94","","","","","","","1","0","0","0.42943501","","0.2","0.6","0.8","0.4","","","","","0.6592717552","0.1195570164","0.42943501","0.3159341416","","","","","","","","75","K","2","","","150","main_expt",""
"","bandit","230","462585","0.0-191.0-0.0","42690376","wem/bandit_either_3","A1QVNF19XSRSD7","either","7","568","","","","","","","0","0","1","","0.5142681232","0.2","0.6","0.8","0.4","0.5928743102","0.100492686","0.5142681232","0.3052853957","","","","","","","","","","","","75","K","2","","","151","main_expt",""
"","bandit","231","464126","0.0-192.0-0.0","42690376","wem/bandit_either_3","A1QVNF19XSRSD7","either","7","15","","","","","","","0","0","1","0.6321073962","","0.2","0.6","0.8","0.4","","","","","0.6822187145","0.1030367897","0.6321073962","0.1896018403","","","","","","","","75","K","2","","","152","main_expt",""
"","bandit","232","465762","0.0-193.0-0.0","42690376","wem/bandit_either_3","A1QVNF19XSRSD7","either","7","110","","","","","","","0","1","0","","0.6965670792","0.2","0.6","0.8","0.4","0.6832005509","0.2059045691","0.6965670792","0.2439656658","","","","","","","","","","","","75","K","2","","","153","main_expt",""
"","bandit","233","467664","0.0-194.0-0.0","42690376","wem/bandit_either_3","A1QVNF19XSRSD7","either","7","390","","","","","","","0","0","1","","0.6516005735","0.2","0.6","0.8","0.4","0.7109729062","0.2921647579","0.6516005735","0.3068434149","","","","","","","","","","","","75","K","2","","","154","main_expt",""
"","bandit","234","470906","0.0-195.0-0.0","42690376","wem/bandit_either_3","A1QVNF19XSRSD7","either","7","1728","","","","","","","1","0","0","0.7291318088","","0.2","0.6","0.8","0.4","","","","","0.6975465092","0.1789694193","0.7291318088","0.2314644909","","","","","","","","75","K","2","","","155","main_expt",""
"","bandit","235","473040","0.0-196.0-0.0","42690376","wem/bandit_either_3","A1QVNF19XSRSD7","either","7","612","","","","","","","0","0","1","0.2187195075","","0.2","0.6","0.8","0.4","","","","","0.6580608271","0.2187195075","0.6273572288","0.2154001061","","","","","","","","74","J","1","","","156","main_expt",""
"","bandit","236","475505","0.0-197.0-0.0","42690376","wem/bandit_either_3","A1QVNF19XSRSD7","either","7","874","","","","","","","1","0","0","0.566197257","","0.2","0.6","0.8","0.4","","","","","0.5695802138","0.2669834713","0.566197257","0.1648135251","","","","","","","","75","K","2","","","157","main_expt",""
"","bandit","237","477086","0.0-198.0-0.0","42690376","wem/bandit_either_3","A1QVNF19XSRSD7","either","7","9","","","","","","","0","0","1","0.4523642269","","0.2","0.6","0.8","0.4","","","","","0.4733954301","0.4240307821","0.4523642269","0.2215973425","","","","","","","","75","K","2","","","158","main_expt",""
"","bandit","238","479143","0.0-199.0-0.0","42690376","wem/bandit_either_3","A1QVNF19XSRSD7","either","7","5","","","","","","","0","0","1","0.3840951437","","0.2","0.6","0.8","0.4","","","","","0.5619817243","0.3840951437","0.3991212054","0.2243274726","","","","","","","","74","J","1","","","159","main_expt",""
"","bandit","239","480709","0.0-200.0-0.0","42690376","wem/bandit_either_3","A1QVNF19XSRSD7","either","7","0","","","","","","","1","0","0","0.3566558104","","0.2","0.6","0.8","0.4","","","","","0.4701658979","0.4098147986","0.3566558104","0.2061161075","","","","","","","","75","K","2","","","160","main_expt",""
"","bandit","240","482410","0.0-201.0-0.0","42690376","wem/bandit_either_3","A1QVNF19XSRSD7","either","7","161","","","","","","","0","0","1","0.4430908041","","0.2","0.6","0.8","0.4","","","","","0.5673671472","0.4027252302","0.4430908041","0.209200141","","","","","","","","75","K","2","","","161","main_expt",""
"","bandit","241","483946","0.0-202.0-0.0","42690376","wem/bandit_either_3","A1QVNF19XSRSD7","either","7","16","","","","","","","0","0","1","0.3966098285","","0.2","0.6","0.8","0.4","","","","","0.4921809208","0.3824170733","0.3966098285","0.1477343718","","","","","","","","75","K","2","","","162","main_expt",""
"","bandit","242","485565","0.0-203.0-0.0","42690376","wem/bandit_either_3","A1QVNF19XSRSD7","either","7","63","","","","","","","0","0","1","0.3352280924","","0.2","0.6","0.8","0.4","","","","","0.4204505308","0.3352280924","0.3455868331","0.1525050104","","","","","","","","74","J","1","","","163","main_expt",""
"","bandit","243","487254","0.0-204.0-0.0","42690376","wem/bandit_either_3","A1QVNF19XSRSD7","either","7","162","","","","","","","0","0","1","","0.3368969945","0.2","0.6","0.8","0.4","0.534748173","0.3379187571","0.3368969945","0.08831047354","","","","","","","","","","","","75","K","2","","","164","main_expt",""
"","bandit","244","488853","0.0-205.0-0.0","42690376","wem/bandit_either_3","A1QVNF19XSRSD7","either","7","5","","","","","","","0","0","1","","0.3160546663","0.2","0.6","0.8","0.4","0.4724966102","0.3160546663","0.3767562303","0.1035482763","","","","","","","","","","","","74","J","1","","","165","main_expt",""
"","bandit","245","490424","0.0-206.0-0.0","42690376","wem/bandit_either_3","A1QVNF19XSRSD7","either","7","47","","","","","","","1","0","0","0.4727650462","","0.2","0.6","0.8","0.4","","","","","0.5280505203","0.3058359067","0.4727650462","0.06888190676","","","","","","","","75","K","2","","","166","main_expt",""
"","bandit","246","492213","0.0-207.0-0.0","42690376","wem/bandit_either_3","A1QVNF19XSRSD7","either","7","237","","","","","","","0","0","1","0.2561334246","","0.2","0.6","0.8","0.4","","","","","0.589670135","0.2561334246","0.6140635231","0.06051452263","","","","","","","","74","J","1","","","167","main_expt",""
"","bandit","247","493777","0.0-208.0-0.0","42690376","wem/bandit_either_3","A1QVNF19XSRSD7","either","7","4","","","","","","","1","0","0","0.5629225295","","0.2","0.6","0.8","0.4","","","","","0.5058201204","0.2459084815","0.5629225295","0.07905307949","","","","","","","","75","K","2","","","168","main_expt",""
"","bandit","248","495792","0.0-209.0-0.0","42690376","wem/bandit_either_3","A1QVNF19XSRSD7","either","7","3","","","","","","","0","0","1","0.2138460752","","0.2","0.6","0.8","0.4","","","","","0.4102709571","0.2138460752","0.6456076899","0.07051596905","","","","","","","","74","J","1","","","169","main_expt",""
"","bandit","249","497755","0.0-210.0-0.0","42690376","wem/bandit_either_3","A1QVNF19XSRSD7","either","7","44","","","","","","","0","1","0","","0.1642406351","0.2","0.6","0.8","0.4","0.5061826445","0.1642406351","0.719827795","0.1056762318","","","","","","","","","","","","74","J","1","","","170","main_expt",""
"","bandit","250","499700","0.0-211.0-0.0","42690376","wem/bandit_either_3","A1QVNF19XSRSD7","either","7","16","","","","","","","0","0","1","0.2337150112","","0.2","0.6","0.8","0.4","","","","","0.6092158501","0.2337150112","0.6716280274","0.1513980822","","","","","","","","74","J","1","","","171","main_expt",""
"","bandit","251","501270","0.0-212.0-0.0","42690376","wem/bandit_either_3","A1QVNF19XSRSD7","either","7","28","","","","","","","0","0","1","0.3128682212","","0.2","0.6","0.8","0.4","","","","","0.691496366","0.3128682212","0.5683226388","0.1552293495","","","","","","","","74","J","1","","","172","main_expt",""
"","bandit","252","502927","0.0-213.0-0.0","42690376","wem/bandit_either_3","A1QVNF19XSRSD7","either","7","124","","","","","","","1","0","0","0.2775517843","","0.2","0.6","0.8","0.4","","","","","0.7402253768","0.2775517843","0.4581357746","0.1325975083","","","","","","","","74","J","1","","","173","main_expt",""
"","bandit","253","504561","0.0-214.0-0.0","42690376","wem/bandit_either_3","A1QVNF19XSRSD7","either","7","103","","","","","","","0","0","1","","0.4159305855","0.2","0.6","0.8","0.4","0.6601004511","0.4159305855","0.5903479164","0.09024892351","","","","","","","","","","","","74","J","1","","","174","main_expt",""
"","bandit","254","506225","0.0-215.0-0.0","42690376","wem/bandit_either_3","A1QVNF19XSRSD7","either","7","101","","","","","","","0","1","0","","0.4471770837","0.2","0.6","0.8","0.4","0.6781732273","0.4471770837","0.5658285383","0.06963745108","","","","","","","","","","","","74","J","1","","","175","main_expt",""
"","bandit","255","507937","0.0-216.0-0.0","42690376","wem/bandit_either_3","A1QVNF19XSRSD7","either","7","156","","","","","","","0","0","1","0.5162211083","","0.2","0.6","0.8","0.4","","","","","0.6932650799","0.5162211083","0.5313506173","0.07897043431","","","","","","","","74","J","1","","","176","main_expt",""
"","bandit","256","509590","0.0-217.0-0.0","42690376","wem/bandit_either_3","A1QVNF19XSRSD7","either","7","125","","","","","","","1","0","0","0.4231289234","","0.2","0.6","0.8","0.4","","","","","0.6803850572","0.6372676231","0.4231289234","0.09469685393","","","","","","","","75","K","2","","","177","main_expt",""
"","bandit","257","511238","0.0-218.0-0.0","42690376","wem/bandit_either_3","A1QVNF19XSRSD7","either","7","121","","","","","","","1","0","0","0.580807006","","0.2","0.6","0.8","0.4","","","","","0.5407017663","0.6295749113","0.580807006","0.1486386852","","","","","","","","75","K","2","","","178","main_expt",""
"","bandit","258","512876","0.0-219.0-0.0","42690376","wem/bandit_either_3","A1QVNF19XSRSD7","either","7","115","","","","","","","0","1","0","","0.4126066341","0.2","0.6","0.8","0.4","0.5931576708","0.4126066341","0.5499948007","0.1965095934","","","","","","","","","","","","74","J","1","","","179","main_expt",""
"","bandit","259","514643","0.0-220.0-0.0","42690376","wem/bandit_either_3","A1QVNF19XSRSD7","either","7","29","","","","","","","0","0","1","","0.516991344","0.2","0.6","0.8","0.4","0.5390819372","0.516991344","0.4918200669","0.1749048096","","","","","","","","","","","","74","J","1","","","180","main_expt",""
"","bandit","260","516783","0.0-221.0-0.0","42690376","wem/bandit_either_3","A1QVNF19XSRSD7","either","7","2","","","","","","","0","1","0","","0.5428702931","0.2","0.6","0.8","0.4","0.4929910299","0.4239603033","0.5428702931","0.232896561","","","","","","","","","","","","75","K","2","","","181","main_expt",""
"","bandit","261","518814","0.0-222.0-0.0","42690376","wem/bandit_either_3","A1QVNF19XSRSD7","either","7","4","","","","","","","1","0","0","0.5870547156","","0.2","0.6","0.8","0.4","","","","","0.458433212","0.3961891141","0.5870547156","0.2561822725","","","","","","","","75","K","2","","","182","main_expt",""
"","bandit","262","520546","0.0-223.0-0.0","42690376","wem/bandit_either_3","A1QVNF19XSRSD7","either","7","58","","","","","","","0","0","1","0.5031908535","","0.2","0.6","0.8","0.4","","","","","0.5725449786","0.4364601233","0.5031908535","0.2713883962","","","","","","","","75","K","2","","","183","main_expt",""
"","bandit","263","522176","0.0-224.0-0.0","42690376","wem/bandit_either_3","A1QVNF19XSRSD7","either","7","24","","","","","","","0","0","1","0.4239978994","","0.2","0.6","0.8","0.4","","","","","0.4878383732","0.4826964198","0.4239978994","0.3543557679","","","","","","","","75","K","2","","","184","main_expt",""
"","bandit","264","523748","0.0-225.0-0.0","42690376","wem/bandit_either_3","A1QVNF19XSRSD7","either","7","5","","","","","","","0","0","1","0.3425545299","","0.2","0.6","0.8","0.4","","","","","0.5189350158","0.4448789548","0.3425545299","0.2974533566","","","","","","","","75","K","2","","","185","main_expt",""
"","bandit","265","525289","0.0-226.0-0.0","42690376","wem/bandit_either_3","A1QVNF19XSRSD7","either","7","16","","","","","","","1","0","0","0.2594221554","","0.2","0.6","0.8","0.4","","","","","0.4310300585","0.4585835861","0.2594221554","0.3295130888","","","","","","","","75","K","2","","","186","main_expt",""
"","bandit","266","526936","0.0-227.0-0.0","42690376","wem/bandit_either_3","A1QVNF19XSRSD7","either","7","120","","","","","","","0","0","1","0.350747246","","0.2","0.6","0.8","0.4","","","","","0.4005994516","0.5470412386","0.350747246","0.3440574025","","","","","","","","75","K","2","","","187","main_expt",""
"","bandit","267","528598","0.0-228.0-0.0","42690376","wem/bandit_either_3","A1QVNF19XSRSD7","either","7","125","","","","","","","0","0","1","0.3667816541","","0.2","0.6","0.8","0.4","","","","","0.5684333967","0.5485419855","0.3667816541","0.3176863717","","","","","","","","75","K","2","","","188","main_expt",""
"","bandit","268","530365","0.0-229.0-0.0","42690376","wem/bandit_either_3","A1QVNF19XSRSD7","either","7","226","","","","","","","0","0","1","0.3129240978","","0.2","0.6","0.8","0.4","","","","","0.5768443477","0.6161015427","0.3129240978","0.3194332301","","","","","","","","75","K","2","","","189","main_expt",""
"","bandit","269","531963","0.0-230.0-0.0","42690376","wem/bandit_either_3","A1QVNF19XSRSD7","either","7","56","","","","","","","0","1","0","","0.3681084497","0.2","0.6","0.8","0.4","0.6091254975","0.5145576236","0.3681084497","0.3585260795","","","","","","","","","","","","75","K","2","","","190","main_expt",""
"","bandit","270","533655","0.0-231.0-0.0","42690376","wem/bandit_either_3","A1QVNF19XSRSD7","either","7","128","","","","","","","0","1","0","","0.3284994938","0.2","0.6","0.8","0.4","0.6355225437","0.4447609651","0.3284994938","0.4438822556","","","","","","","","","","","","75","K","2","","","191","main_expt",""
"","bandit","271","536267","0.0-232.0-0.0","42690376","wem/bandit_either_3","A1QVNF19XSRSD7","either","7","4","","","","","","","0","0","1","0.2913335268","","0.2","0.6","0.8","0.4","","","","","0.7449996868","0.4273979598","0.2913335268","0.6336907385","","","","","","","","75","K","2","","","192","main_expt",""
"","bandit","272","538607","0.0-233.0-0.0","42690376","wem/bandit_either_3","A1QVNF19XSRSD7","either","7","130","","","","","","","1","0","0","0.3614904019","","0.2","0.6","0.8","0.4","","","","","0.7645281636","0.4382354048","0.3614904019","0.5871300795","","","","","","","","75","K","2","","","193","main_expt",""
"","bandit","273","540677","0.0-234.0-0.0","42690376","wem/bandit_either_3","A1QVNF19XSRSD7","either","7","99","","","","","","","0","0","1","0.4367950698","","0.2","0.6","0.8","0.4","","","","","0.7417458559","0.4367950698","0.4180963095","0.5919999684","","","","","","","","74","J","1","","","194","main_expt",""
"","bandit","274","542277","0.0-235.0-0.0","42690376","wem/bandit_either_3","A1QVNF19XSRSD7","either","7","64","","","","","","","0","1","0","","0.4306922929","0.2","0.6","0.8","0.4","0.7102393491","0.4306922929","0.4129416526","0.5599221581","","","","","","","","","","","","74","J","1","","","195","main_expt",""
"","bandit","275","544338","0.0-236.0-0.0","42690376","wem/bandit_either_3","A1QVNF19XSRSD7","either","7","519","","","","","","","0","1","0","","0.4436260943","0.2","0.6","0.8","0.4","0.6846894693","0.4436260943","0.6027995291","0.4552797342","","","","","","","","","","","","74","J","1","","","196","main_expt",""
"","bandit","276","546011","0.0-237.0-0.0","42690376","wem/bandit_either_3","A1QVNF19XSRSD7","either","7","123","","","","","","","0","1","0","","0.4547077395","0.2","0.6","0.8","0.4","0.6573901597","0.4547077395","0.6174547511","0.3045440077","","","","","","","","","","","","74","J","1","","","197","main_expt",""
"","bandit","277","547735","0.0-238.0-0.0","42690376","wem/bandit_either_3","A1QVNF19XSRSD7","either","7","174","","","","","","","0","0","1","0.5727893511","","0.2","0.6","0.8","0.4","","","","","0.7020762336","0.545148617","0.5727893511","0.4061180554","","","","","","","","75","K","2","","","198","main_expt",""
"","bandit","278","549585","0.0-239.0-0.0","42690376","wem/bandit_either_3","A1QVNF19XSRSD7","either","7","332","","","","","","","1","0","0","0.5803616598","","0.2","0.6","0.8","0.4","","","","","0.7749867965","0.5838562778","0.5803616598","0.3406873398","","","","","","","","75","K","2","","","199","main_expt",""
"","bandit","279","551144","0.0-240.0-0.0","42690376","wem/bandit_either_3","A1QVNF19XSRSD7","either","7","14","","","","","","","0","0","1","0.5109940584","","0.2","0.6","0.8","0.4","","","","","0.7971262248","0.6569131065","0.5109940584","0.2810551981","","","","","","","","75","K","2","","","200","main_expt",""
"","bandit","280","552677","0.0-241.0-0.0","42690376","wem/bandit_either_3","A1QVNF19XSRSD7","either","7","0","","","","","","","0","0","1","0.444158281","","0.2","0.6","0.8","0.4","","","","","0.6431063495","0.6559739125","0.444158281","0.2295892347","","","","","","","","75","K","2","","","201","main_expt",""
"","bandit","281","554319","0.0-242.0-0.0","42690376","wem/bandit_either_3","A1QVNF19XSRSD7","either","7","39","","","","","","","0","0","1","0.3774362348","","0.2","0.6","0.8","0.4","","","","","0.6153479028","0.5940698896","0.3774362348","0.2134833186","","","","","","","","75","K","2","","","202","main_expt",""
"","bandit","282","557493","0.0-243.0-0.0","42690376","wem/bandit_either_3","A1QVNF19XSRSD7","either","7","1629","","","","","","","0","1","0","","0.6288005559","0.2","0.6","0.8","0.4","0.6107921693","0.6288005559","0.2852638898","0.1538434825","","","","","","","","","","","","74","J","1","","","203","main_expt",""
"","bandit","283","560678","0.0-244.0-0.0","42690376","wem/bandit_either_3","A1QVNF19XSRSD7","either","7","1168","","","","","","","1","0","0","0.7483345684","","0.2","0.6","0.8","0.4","","","","","0.6364312764","0.7483345684","0.3900316507","0.08629221539","","","","","","","","74","J","1","","","204","main_expt",""
"","bandit","284","562252","0.0-245.0-0.0","42690376","wem/bandit_either_3","A1QVNF19XSRSD7","either","7","2","","","","","","","1","0","0","0.7823609999","","0.2","0.6","0.8","0.4","","","","","0.7098325313","0.7823609999","0.3334674042","0.1303029892","","","","","","","","74","J","1","","","205","main_expt",""
"","bandit","285","563997","0.0-246.0-0.0","42690376","wem/bandit_either_3","A1QVNF19XSRSD7","either","7","196","","","","","","","1","0","0","0.7053347691","","0.2","0.6","0.8","0.4","","","","","0.6423198407","0.7053347691","0.3997779834","0.1290793888","","","","","","","","74","J","1","","","206","main_expt",""
"","bandit","286","565561","0.0-247.0-0.0","42690376","wem/bandit_either_3","A1QVNF19XSRSD7","either","7","3","","","","","","","0","1","0","","0.692958529","0.2","0.6","0.8","0.4","0.7196337679","0.692958529","0.2791746034","0.1471003053","","","","","","","","","","","","74","J","1","","","207","main_expt",""
"","bandit","287","567264","0.0-248.0-0.0","42690376","wem/bandit_either_3","A1QVNF19XSRSD7","either","7","189","","","","","","","0","0","1","0.5726600787","","0.2","0.6","0.8","0.4","","","","","0.7273253538","0.5726600787","0.3447420344","0.1204476287","","","","","","","","74","J","1","","","208","main_expt",""
"","bandit","288","568833","0.0-249.0-0.0","42690376","wem/bandit_either_3","A1QVNF19XSRSD7","either","7","26","","","","","","","0","1","0","","0.7193759884","0.2","0.6","0.8","0.4","0.7701678217","0.7193759884","0.2106944101","0.1752658923","","","","","","","","","","","","74","J","1","","","209","main_expt",""
"","bandit","289","570472","0.0-250.0-0.0","42690376","wem/bandit_either_3","A1QVNF19XSRSD7","either","7","114","","","","","","","0","1","0","","0.5469619257","0.2","0.6","0.8","0.4","0.7673062315","0.5469619257","0.2609791638","0.2071456167","","","","","","","","","","","","74","J","1","","","210","main_expt",""
"","bandit","290","572127","0.0-251.0-0.0","42690376","wem/bandit_either_3","A1QVNF19XSRSD7","either","7","106","","","","","","","1","0","0","0.3702243554","","0.2","0.6","0.8","0.4","","","","","0.7733207599","0.5432746348","0.3702243554","0.1982577311","","","","","","","","75","K","2","","","211","main_expt",""
"","bandit","291","573704","0.0-252.0-0.0","42690376","wem/bandit_either_3","A1QVNF19XSRSD7","either","7","54","","","","","","","0","0","1","","0.4070014152","0.2","0.6","0.8","0.4","0.7176010575","0.4857525371","0.4070014152","0.2837026457","","","","","","","","","","","","75","K","2","","","212","main_expt",""
"","bandit","292","575463","0.0-253.0-0.0","42690376","wem/bandit_either_3","A1QVNF19XSRSD7","either","7","220","","","","","","","0","0","1","","0.5001351259","0.2","0.6","0.8","0.4","0.7241732444","0.4416723402","0.5001351259","0.2192955177","","","","","","","","","","","","75","K","2","","","213","main_expt",""
"","bandit","293","577837","0.0-254.0-0.0","42690376","wem/bandit_either_3","A1QVNF19XSRSD7","either","7","49","","","","","","","0","0","1","0.5667049056","","0.2","0.6","0.8","0.4","","","","","0.6696022014","0.4231083207","0.5667049056","0.2885853396","","","","","","","","75","K","2","","","214","main_expt",""
"","bandit","294","580148","0.0-255.0-0.0","42690376","wem/bandit_either_3","A1QVNF19XSRSD7","either","7","142","","","","","","","0","0","1","0.5259574602","","0.2","0.6","0.8","0.4","","","","","0.6255990046","0.329019478","0.5259574602","0.2451296471","","","","","","","","75","K","2","","","215","main_expt",""
"","bandit","295","582185","0.0-256.0-0.0","42690376","wem/bandit_either_3","A1QVNF19XSRSD7","either","7","81","","","","","","","1","0","0","0.5468860011","","0.2","0.6","0.8","0.4","","","","","0.6771362935","0.3469743373","0.5468860011","0.1946790852","","","","","","","","75","K","2","","","216","main_expt",""
"","bandit","296","583816","0.0-257.0-0.0","42690376","wem/bandit_either_3","A1QVNF19XSRSD7","either","7","95","","","","","","","1","0","0","0.6182745027","","0.2","0.6","0.8","0.4","","","","","0.6918953154","0.3618740044","0.6182745027","0.2497229096","","","","","","","","75","K","2","","","217","main_expt",""
"","bandit","297","585451","0.0-258.0-0.0","42690376","wem/bandit_either_3","A1QVNF19XSRSD7","either","7","77","","","","","","","1","0","0","0.5979125128","","0.2","0.6","0.8","0.4","","","","","0.5726390237","0.3574217595","0.5979125128","0.3076421025","","","","","","","","75","K","2","","","218","main_expt",""
"","bandit","298","587179","0.0-259.0-0.0","42690376","wem/bandit_either_3","A1QVNF19XSRSD7","either","7","172","","","","","","","1","0","0","0.5321687475","","0.2","0.6","0.8","0.4","","","","","0.5179196303","0.3862686792","0.5321687475","0.3488941347","","","","","","","","75","K","2","","","219","main_expt",""
"","bandit","299","588778","0.0-260.0-0.0","42690376","wem/bandit_either_3","A1QVNF19XSRSD7","either","7","59","","","","","","","0","0","1","0.6053830099","","0.2","0.6","0.8","0.4","","","","","0.5578222379","0.4432846828","0.6053830099","0.306784001","","","","","","","","75","K","2","","","220","main_expt",""
"","bandit","300","590417","0.0-261.0-0.0","42690376","wem/bandit_either_3","A1QVNF19XSRSD7","either","7","112","","","","","","","0","0","1","","0.432499938","0.2","0.6","0.8","0.4","0.6640911266","0.432499938","0.69383498","0.3786925452","","","","","","","","","","","","74","J","1","","","221","main_expt",""
"","bandit","301","592123","0.0-262.0-0.0","42690376","wem/bandit_either_3","A1QVNF19XSRSD7","either","7","153","","","","","","","0","0","1","","0.4050903391","0.2","0.6","0.8","0.4","0.7340686256","0.4050903391","0.783375317","0.5014801557","","","","","","","","","","","","74","J","1","","","222","main_expt",""
"","bandit","302","593855","0.0-263.0-0.0","42690376","wem/bandit_either_3","A1QVNF19XSRSD7","either","7","187","","","","","","","0","0","1","0.3282593462","","0.2","0.6","0.8","0.4","","","","","0.852862777","0.3282593462","0.8374489269","0.4081704387","","","","","","","","74","J","1","","","223","main_expt",""
"","bandit","303","595398","0.0-264.0-0.0","42690376","wem/bandit_either_3","A1QVNF19XSRSD7","either","7","17","","","","","","","1","0","0","0.2465370002","","0.2","0.6","0.8","0.4","","","","","0.7830506485","0.2465370002","0.7801262993","0.422296693","","","","","","","","74","J","1","","","224","main_expt",""
"","bandit","304","596942","0.0-265.0-0.0","42690376","wem/bandit_either_3","A1QVNF19XSRSD7","either","7","3","","","","","","","0","0","1","0.2260872052","","0.2","0.6","0.8","0.4","","","","","0.7447555501","0.2260872052","0.7438235551","0.3998144739","","","","","","","","74","J","1","","","225","main_expt",""
"","bandit","305","598695","0.0-266.0-0.0","42690376","wem/bandit_either_3","A1QVNF19XSRSD7","either","7","219","","","","","","","0","0","1","0.2573895518","","0.2","0.6","0.8","0.4","","","","","0.7331719472","0.2573895518","0.7561714458","0.2692780115","","","","","","","","74","J","1","","","226","main_expt",""
"","bandit","306","601532","0.0-267.0-0.0","42690376","wem/bandit_either_3","A1QVNF19XSRSD7","either","7","889","","","","","","","0","0","1","0.2134597582","","0.2","0.6","0.8","0.4","","","","","0.6417259928","0.2134597582","0.7527106072","0.268728261","","","","","","","","74","J","1","","","227","main_expt",""
"","bandit","307","603368","0.0-268.0-0.0","42690376","wem/bandit_either_3","A1QVNF19XSRSD7","either","7","38","","","","","","","0","0","1","","0.348479141","0.2","0.6","0.8","0.4","0.6050549784","0.348479141","0.6315627418","0.2211951924","","","","","","","","","","","","74","J","1","","","228","main_expt",""
"","bandit","308","604921","0.0-269.0-0.0","42690376","wem/bandit_either_3","A1QVNF19XSRSD7","either","7","2","","","","","","","0","0","1","","0.3250735223","0.2","0.6","0.8","0.4","0.5962230341","0.3250735223","0.5564086662","0.219241791","","","","","","","","","","","","74","J","1","","","229","main_expt",""
"","bandit","309","606501","0.0-270.0-0.0","42690376","wem/bandit_either_3","A1QVNF19XSRSD7","either","7","3","","","","","","","0","1","0","","0.3395219718","0.2","0.6","0.8","0.4","0.5594933722","0.3395219718","0.5895813861","0.291585141","","","","","","","","","","","","74","J","1","","","230","main_expt",""
"","bandit","310","608238","0.0-271.0-0.0","42690376","wem/bandit_either_3","A1QVNF19XSRSD7","either","7","183","","","","","","","0","0","1","","0.3315483329","0.2","0.6","0.8","0.4","0.6411036761","0.3315483329","0.6148213975","0.2754541949","","","","","","","","","","","","74","J","1","","","231","main_expt",""
"","bandit","311","609811","0.0-272.0-0.0","42690376","wem/bandit_either_3","A1QVNF19XSRSD7","either","7","45","","","","","","","0","1","0","","0.3876030756","0.2","0.6","0.8","0.4","0.6653930637","0.3876030756","0.5176988489","0.3055336503","","","","","","","","","","","","74","J","1","","","232","main_expt",""
"","bandit","312","611413","0.0-273.0-0.0","42690376","wem/bandit_either_3","A1QVNF19XSRSD7","either","7","65","","","","","","","0","0","1","0.3696248546","","0.2","0.6","0.8","0.4","","","","","0.5426719569","0.3696248546","0.4505666118","0.3390100853","","","","","","","","74","J","1","","","233","main_expt",""
"","bandit","313","613064","0.0-274.0-0.0","42690376","wem/bandit_either_3","A1QVNF19XSRSD7","either","7","103","","","","","","","0","0","1","","0.3927474605","0.2","0.6","0.8","0.4","0.5581360181","0.3927474605","0.4393496879","0.3165323161","","","","","","","","","","","","74","J","1","","","234","main_expt",""
"","bandit","314","614644","0.0-275.0-0.0","42690376","wem/bandit_either_3","A1QVNF19XSRSD7","either","7","3","","","","","","","0","0","1","","0.4734072524","0.2","0.6","0.8","0.4","0.5299247183","0.4734072524","0.3542725407","0.2944333127","","","","","","","","","","","","74","J","1","","","235","main_expt",""
"","bandit","315","616214","0.0-276.0-0.0","42690376","wem/bandit_either_3","A1QVNF19XSRSD7","either","7","3","","","","","","","1","0","0","0.452511288","","0.2","0.6","0.8","0.4","","","","","0.4709954077","0.5857320117","0.452511288","0.4127469632","","","","","","","","75","K","2","","","236","main_expt",""
"","bandit","316","617820","0.0-277.0-0.0","42690376","wem/bandit_either_3","A1QVNF19XSRSD7","either","7","57","","","","","","","0","0","1","","0.4743784035","0.2","0.6","0.8","0.4","0.4171051322","0.5208556897","0.4743784035","0.4353664578","","","","","","","","","","","","75","K","2","","","237","main_expt",""
"","bandit","317","619480","0.0-278.0-0.0","42690376","wem/bandit_either_3","A1QVNF19XSRSD7","either","7","3","","","","","","","1","0","0","0.4666998134","","0.2","0.6","0.8","0.4","","","","","0.40722148","0.4551370454","0.4666998134","0.3871798792","","","","","","","","75","K","2","","","238","main_expt",""
"","bandit","318","621642","0.0-279.0-0.0","42690376","wem/bandit_either_3","A1QVNF19XSRSD7","either","7","64","","","","","","","1","0","0","0.4916456171","","0.2","0.6","0.8","0.4","","","","","0.3113271407","0.2979137516","0.4916456171","0.3244704863","","","","","","","","75","K","2","","","239","main_expt",""
"","bandit","319","623643","0.0-280.0-0.0","42690376","wem/bandit_either_3","A1QVNF19XSRSD7","either","7","5","","","","","","","0","1","0","","0.7128417261","0.2","0.6","0.8","0.4","0.2505753432","0.2453134511","0.7128417261","0.3606581002","","","","","","","","","","","","75","K","2","","","240","main_expt",""
"","bandit","320","625187","0.0-281.0-0.0","42690376","wem/bandit_either_3","A1QVNF19XSRSD7","either","7","3","","","","","","","0","1","0","","0.7711562233","0.2","0.6","0.8","0.4","0.2015136922","0.1984184333","0.7711562233","0.3524522155","","","","","","","","","","","","75","K","2","","","241","main_expt",""
"","bandit","321","626758","0.0-282.0-0.0","42690376","wem/bandit_either_3","A1QVNF19XSRSD7","either","7","52","","","","","","","1","0","0","0.7503869254","","0.2","0.6","0.8","0.4","","","","","0.2405045743","0.35553679","0.7503869254","0.3677191248","","","","","","","","75","K","2","","","242","main_expt",""
"","bandit","322","628391","0.0-283.0-0.0","42690376","wem/bandit_either_3","A1QVNF19XSRSD7","either","7","110","","","","","","","1","0","0","0.6345316327","","0.2","0.6","0.8","0.4","","","","","0.2458255622","0.3153476176","0.6345316327","0.2524844898","","","","","","","","75","K","2","","","243","main_expt",""
"","bandit","323","630059","0.0-284.0-0.0","42690376","wem/bandit_either_3","A1QVNF19XSRSD7","either","7","149","","","","","","","0","0","1","0.6330191047","","0.2","0.6","0.8","0.4","","","","","0.3958019263","0.2733658223","0.6330191047","0.2870953983","","","","","","","","75","K","2","","","244","main_expt",""
"","bandit","324","631692","0.0-285.0-0.0","42690376","wem/bandit_either_3","A1QVNF19XSRSD7","either","7","84","","","","","","","1","0","0","0.6219736313","","0.2","0.6","0.8","0.4","","","","","0.3463698993","0.3496419154","0.6219736313","0.3392553197","","","","","","","","75","K","2","","","245","main_expt",""
