"consent","trial_type","trial_index","time_elapsed","internal_node_id","subjID","study","MID","cond","drift","rt","responses","key_press","expt_phase","like","value","connected","gems","bombs","no_reward","GemPrChosen","BombPrChosen","GainOverPainPr_0","GainOverPainPr_1","GainOverPainPr_2","GainOverPainPr_3","LosePr_0","LosePr_1","LosePr_2","LosePr_3","WinPr_0","WinPr_1","WinPr_2","WinPr_3","Q0","Q1","Q2","gender","age","ethnicity","target","respCharCode","respKey","respChoiceNum","respChoice","practice","trial_counter","trial_label","button_pressed"
"INL_behavioral_consent_30min_online.html","consent","0","12227","0.0-0.0","42987423","wem/bandit_either_3","A2DKVCJ3ZDJOQ","either","3","","","","","","","","","","","","","","","","","","","","","","","","","","","","","","","","","","","","","","",""
"","survey-text","1","17870","0.0-1.0","42987423","wem/bandit_either_3","A2DKVCJ3ZDJOQ","either","3","4633","{""Q0"":""A2DKVCJ3ZDJOQ""}","","","","","","","","","","","","","","","","","","","","","","","","","","","","","","","","","","","","",""
"","text","2","30330","0.0-2.0","42987423","wem/bandit_either_3","A2DKVCJ3ZDJOQ","either","3","11450","","32","","","","","","","","","","","","","","","","","","","","","","","","","","","","","","","","","","","",""
"","text","3","34588","0.0-3.0","42987423","wem/bandit_either_3","A2DKVCJ3ZDJOQ","either","3","4256","","32","","","","","","","","","","","","","","","","","","","","","","","","","","","","","","","","","","","",""
"","text","4","43839","0.0-4.0","42987423","wem/bandit_either_3","A2DKVCJ3ZDJOQ","either","3","9249","","32","","","","","","","","","","","","","","","","","","","","","","","","","","","","","","","","","","","",""
"","text","5","52158","0.0-5.0","42987423","wem/bandit_either_3","A2DKVCJ3ZDJOQ","either","3","8317","","32","","","","","","","","","","","","","","","","","","","","","","","","","","","","","","","","","","","",""
"","text","6","65624","0.0-6.0","42987423","wem/bandit_either_3","A2DKVCJ3ZDJOQ","either","3","13464","","32","","","","","","","","","","","","","","","","","","","","","","","","","","","","","","","","","","","",""
"","text","7","75352","0.0-7.0","42987423","wem/bandit_either_3","A2DKVCJ3ZDJOQ","either","3","9727","","32","","","","","","","","","","","","","","","","","","","","","","","","","","","","","","","","","","","",""
"","text","8","78434","0.0-8.0","42987423","wem/bandit_either_3","A2DKVCJ3ZDJOQ","either","3","3080","","32","","","","","","","","","","","","","","","","","","","","","","","","","","","","","","","","","","","",""
"","identification","9","84268","0.0-9.0-0.0","42987423","wem/bandit_either_3","A2DKVCJ3ZDJOQ","either","3","5817","","","","5","5","5","","","","","","","","","","","","","","","","","","","","","","","","the village of Zur","","","","","","","",""
"","identification","10","90277","0.0-9.0-1.0","42987423","wem/bandit_either_3","A2DKVCJ3ZDJOQ","either","3","4986","","","","3","2","1","","","","","","","","","","","","","","","","","","","","","","","","the village of Nyx","","","","","","","",""
"","text","11","95097","0.0-10.0","42987423","wem/bandit_either_3","A2DKVCJ3ZDJOQ","either","3","3816","","32","","","","","","","","","","","","","","","","","","","","","","","","","","","","","","","","","","","",""
"","text","12","96461","0.0-11.0","42987423","wem/bandit_either_3","A2DKVCJ3ZDJOQ","either","3","1362","","32","","","","","","","","","","","","","","","","","","","","","","","","","","","","","","","","","","","",""
"","text","13","97410","0.0-12.0","42987423","wem/bandit_either_3","A2DKVCJ3ZDJOQ","either","3","947","","32","","","","","","","","","","","","","","","","","","","","","","","","","","","","","","","","","","","",""
"","text","14","100268","0.0-13.0","42987423","wem/bandit_either_3","A2DKVCJ3ZDJOQ","either","3","2855","","32","","","","","","","","","","","","","","","","","","","","","","","","","","","","","","","","","","","",""
"","bandit","15","102496","0.0-14.0-0.0","42987423","wem/bandit_either_3","A2DKVCJ3ZDJOQ","either","3","715","","","","","","","0","0","1","0","0","","","","","0","","","","0","","","","","","","","","","","74","J","0","img/none_selected_demo.jpg","true","0","",""
"","bandit","16","104997","0.0-15.0-0.0","42987423","wem/bandit_either_3","A2DKVCJ3ZDJOQ","either","3","987","","","","","","","0","0","1","0","0","","","","","0","","","","0","","","","","","","","","","","75","K","0","img/none_selected_demo.jpg","true","0","",""
"","text","17","111596","0.0-16.0","42987423","wem/bandit_either_3","A2DKVCJ3ZDJOQ","either","3","6598","","32","","","","","","","","","","","","","","","","","","","","","","","","","","","","","","","","","","","",""
"","text","18","117115","0.0-17.0","42987423","wem/bandit_either_3","A2DKVCJ3ZDJOQ","either","3","5516","","32","","","","","","","","","","","","","","","","","","","","","","","","","","","","","","","","","","","",""
"","text","19","120521","0.0-18.0","42987423","wem/bandit_either_3","A2DKVCJ3ZDJOQ","either","3","3404","","32","","","","","","","","","","","","","","","","","","","","","","","","","","","","","","","","","","","",""
"","text","20","122287","0.0-19.0","42987423","wem/bandit_either_3","A2DKVCJ3ZDJOQ","either","3","1764","","32","","","","","","","","","","","","","","","","","","","","","","","","","","","","","","","","","","","",""
"","bandit","21","124676","0.0-20.0-0.0","42987423","wem/bandit_either_3","A2DKVCJ3ZDJOQ","either","3","880","","","","","","","0","1","0","","0.8","0.5","0.5","","","0.8","0.2","","","","","","","","","","","","","","74","J","0","img/none_selected_demo.jpg","true","0","80_20_practice",""
"","bandit","22","126502","0.0-20.0-1.0","42987423","wem/bandit_either_3","A2DKVCJ3ZDJOQ","either","3","315","","","","","","","0","0","1","0.8","","0.5","0.5","","","","","","","0.8","0.2","","","","","","","","","","74","J","0","img/none_selected_demo.jpg","true","0","80_20_practice",""
"","bandit","23","128883","0.0-20.0-2.0","42987423","wem/bandit_either_3","A2DKVCJ3ZDJOQ","either","3","872","","","","","","","0","1","0","","0.8","0.5","0.5","","","0.8","0.2","","","","","","","","","","","","","","74","J","0","img/none_selected_demo.jpg","true","0","80_20_practice",""
"","bandit","24","130651","0.0-20.0-3.0","42987423","wem/bandit_either_3","A2DKVCJ3ZDJOQ","either","3","258","","","","","","","0","0","1","","0.2","0.5","0.5","","","0.8","0.2","","","","","","","","","","","","","","75","K","1","","true","0","80_20_practice",""
"","bandit","25","132373","0.0-20.0-4.0","42987423","wem/bandit_either_3","A2DKVCJ3ZDJOQ","either","3","213","","","","","","","0","0","1","0.2","","0.5","0.5","","","","","","","0.8","0.2","","","","","","","","","","75","K","1","","true","0","80_20_practice",""
"","bandit","26","133896","0.0-20.0-5.0","42987423","wem/bandit_either_3","A2DKVCJ3ZDJOQ","either","3","15","","","","","","","0","0","1","0.8","","0.5","0.5","","","","","","","0.8","0.2","","","","","","","","","","74","J","0","img/none_selected_demo.jpg","true","0","80_20_practice",""
"","bandit","27","135869","0.0-20.0-6.0","42987423","wem/bandit_either_3","A2DKVCJ3ZDJOQ","either","3","466","","","","","","","0","0","1","0.2","","0.5","0.5","","","","","","","0.8","0.2","","","","","","","","","","75","K","1","","true","0","80_20_practice",""
"","bandit","28","137398","0.0-20.0-7.0","42987423","wem/bandit_either_3","A2DKVCJ3ZDJOQ","either","3","22","","","","","","","0","0","1","","0.2","0.5","0.5","","","0.8","0.2","","","","","","","","","","","","","","75","K","1","","true","0","80_20_practice",""
"","bandit","29","138953","0.0-20.0-8.0","42987423","wem/bandit_either_3","A2DKVCJ3ZDJOQ","either","3","45","","","","","","","1","0","0","0.8","","0.5","0.5","","","","","","","0.8","0.2","","","","","","","","","","74","J","0","img/none_selected_demo.jpg","true","0","80_20_practice",""
"","bandit","30","140623","0.0-20.0-9.0","42987423","wem/bandit_either_3","A2DKVCJ3ZDJOQ","either","3","160","","","","","","","1","0","0","0.8","","0.5","0.5","","","","","","","0.8","0.2","","","","","","","","","","74","J","0","img/none_selected_demo.jpg","true","0","80_20_practice",""
"","bandit","31","142277","0.0-20.0-10.0","42987423","wem/bandit_either_3","A2DKVCJ3ZDJOQ","either","3","143","","","","","","","0","0","1","","0.8","0.5","0.5","","","0.8","0.2","","","","","","","","","","","","","","74","J","0","img/none_selected_demo.jpg","true","0","80_20_practice",""
"","bandit","32","143950","0.0-20.0-11.0","42987423","wem/bandit_either_3","A2DKVCJ3ZDJOQ","either","3","163","","","","","","","0","1","0","","0.8","0.5","0.5","","","0.8","0.2","","","","","","","","","","","","","","74","J","0","img/none_selected_demo.jpg","true","0","80_20_practice",""
"","bandit","33","145651","0.0-20.0-12.0","42987423","wem/bandit_either_3","A2DKVCJ3ZDJOQ","either","3","192","","","","","","","0","1","0","","0.8","0.5","0.5","","","0.8","0.2","","","","","","","","","","","","","","74","J","0","img/none_selected_demo.jpg","true","0","80_20_practice",""
"","bandit","34","147383","0.0-20.0-13.0","42987423","wem/bandit_either_3","A2DKVCJ3ZDJOQ","either","3","223","","","","","","","1","0","0","0.8","","0.5","0.5","","","","","","","0.8","0.2","","","","","","","","","","74","J","0","img/none_selected_demo.jpg","true","0","80_20_practice",""
"","bandit","35","148965","0.0-20.0-14.0","42987423","wem/bandit_either_3","A2DKVCJ3ZDJOQ","either","3","73","","","","","","","0","0","1","0.8","","0.5","0.5","","","","","","","0.8","0.2","","","","","","","","","","74","J","0","img/none_selected_demo.jpg","true","0","80_20_practice",""
"","bandit","36","150541","0.0-20.0-15.0","42987423","wem/bandit_either_3","A2DKVCJ3ZDJOQ","either","3","68","","","","","","","1","0","0","0.8","","0.5","0.5","","","","","","","0.8","0.2","","","","","","","","","","74","J","0","img/none_selected_demo.jpg","true","0","80_20_practice",""
"","bandit","37","152218","0.0-20.0-16.0","42987423","wem/bandit_either_3","A2DKVCJ3ZDJOQ","either","3","169","","","","","","","0","1","0","","0.8","0.5","0.5","","","0.8","0.2","","","","","","","","","","","","","","74","J","0","img/none_selected_demo.jpg","true","0","80_20_practice",""
"","bandit","38","153820","0.0-20.0-17.0","42987423","wem/bandit_either_3","A2DKVCJ3ZDJOQ","either","3","88","","","","","","","0","1","0","","0.8","0.5","0.5","","","0.8","0.2","","","","","","","","","","","","","","74","J","0","img/none_selected_demo.jpg","true","0","80_20_practice",""
"","bandit","39","155465","0.0-20.0-18.0","42987423","wem/bandit_either_3","A2DKVCJ3ZDJOQ","either","3","137","","","","","","","1","0","0","0.8","","0.5","0.5","","","","","","","0.8","0.2","","","","","","","","","","74","J","0","img/none_selected_demo.jpg","true","0","80_20_practice",""
"","bandit","40","156978","0.0-20.0-19.0","42987423","wem/bandit_either_3","A2DKVCJ3ZDJOQ","either","3","7","","","","","","","0","1","0","","0.8","0.5","0.5","","","0.8","0.2","","","","","","","","","","","","","","74","J","0","img/none_selected_demo.jpg","true","0","80_20_practice",""
"","text","41","159277","0.0-21.0","42987423","wem/bandit_either_3","A2DKVCJ3ZDJOQ","either","3","2297","","32","","","","","","","","","","","","","","","","","","","","","","","","","","","","","","","","","","","",""
"","bandit","42","161373","0.0-22.0-0.0","42987423","wem/bandit_either_3","A2DKVCJ3ZDJOQ","either","3","588","","","","","","","1","0","0","1","0","","","","","0","1","","","1","0","","","","","","","","","","74","J","0","img/none_selected_demo.jpg","true","0","",""
"","text","43","164317","0.0-23.0","42987423","wem/bandit_either_3","A2DKVCJ3ZDJOQ","either","3","2940","","32","","","","","","","","","","","","","","","","","","","","","","","","","","","","","","","","","","","",""
"","text","44","165716","0.0-24.0","42987423","wem/bandit_either_3","A2DKVCJ3ZDJOQ","either","3","1397","","32","","","","","","","","","","","","","","","","","","","","","","","","","","","","","","","","","","","",""
"","text","45","167672","0.0-25.0","42987423","wem/bandit_either_3","A2DKVCJ3ZDJOQ","either","3","1954","","32","","","","","","","","","","","","","","","","","","","","","","","","","","","","","","","","","","","",""
"","text","46","169526","0.0-26.0","42987423","wem/bandit_either_3","A2DKVCJ3ZDJOQ","either","3","1852","","32","","","","","","","","","","","","","","","","","","","","","","","","","","","","","","","","","","","",""
"","text","47","174842","0.0-27.0","42987423","wem/bandit_either_3","A2DKVCJ3ZDJOQ","either","3","5313","","32","","","","","","","","","","","","","","","","","","","","","","","","","","","","","","","","","","","",""
"","text","48","176342","0.0-28.0","42987423","wem/bandit_either_3","A2DKVCJ3ZDJOQ","either","3","1497","","32","","","","","","","","","","","","","","","","","","","","","","","","","","","","","","","","","","","",""
"","text","49","179175","0.0-29.0","42987423","wem/bandit_either_3","A2DKVCJ3ZDJOQ","either","3","2829","","32","","","","","","","","","","","","","","","","","","","","","","","","","","","","","","","","","","","",""
"","text","50","181358","0.0-30.0","42987423","wem/bandit_either_3","A2DKVCJ3ZDJOQ","either","3","2181","","32","","","","","","","","","","","","","","","","","","","","","","","","","","","","","","","","","","","",""
"","text","51","183689","0.0-31.0","42987423","wem/bandit_either_3","A2DKVCJ3ZDJOQ","either","3","2329","","32","","","","","","","","","","","","","","","","","","","","","","","","","","","","","","","","","","","",""
"","text","52","184848","0.0-32.0","42987423","wem/bandit_either_3","A2DKVCJ3ZDJOQ","either","3","1157","","32","","","","","","","","","","","","","","","","","","","","","","","","","","","","","","","","","","","",""
"","text","53","190175","0.0-33.0","42987423","wem/bandit_either_3","A2DKVCJ3ZDJOQ","either","3","5323","","32","","","","","","","","","","","","","","","","","","","","","","","","","","","","","","","","","","","",""
"","bandit","54","192367","0.0-34.0-0.0","42987423","wem/bandit_either_3","A2DKVCJ3ZDJOQ","either","3","678","","","","","","","0","1","0","","0.8","0.5","0.5","0.5","0.5","0.8","0.2","0.6","0.2","","","","","","","","","","","","72","H","0","img/none_selected.jpg","true","0","full_practice",""
"","bandit","55","194120","0.0-34.0-1.0","42987423","wem/bandit_either_3","A2DKVCJ3ZDJOQ","either","3","245","","","","","","","0","0","1","0.2","","0.5","0.5","0.5","0.5","","","","","0.8","0.2","0.6","0.2","","","","","","","","74","J","1","","true","0","full_practice",""
"","bandit","56","195840","0.0-34.0-2.0","42987423","wem/bandit_either_3","A2DKVCJ3ZDJOQ","either","3","214","","","","","","","1","0","0","0.6","","0.5","0.5","0.5","0.5","","","","","0.8","0.2","0.6","0.2","","","","","","","","75","K","2","","true","0","full_practice",""
"","bandit","57","197566","0.0-34.0-3.0","42987423","wem/bandit_either_3","A2DKVCJ3ZDJOQ","either","3","219","","","","","","","0","0","1","","0.2","0.5","0.5","0.5","0.5","0.8","0.2","0.6","0.2","","","","","","","","","","","","76","L","3","","true","0","full_practice",""
"","bandit","58","199314","0.0-34.0-4.0","42987423","wem/bandit_either_3","A2DKVCJ3ZDJOQ","either","3","236","","","","","","","0","1","0","","0.8","0.5","0.5","0.5","0.5","0.8","0.2","0.6","0.2","","","","","","","","","","","","72","H","0","img/none_selected.jpg","true","0","full_practice",""
"","bandit","59","200916","0.0-34.0-5.0","42987423","wem/bandit_either_3","A2DKVCJ3ZDJOQ","either","3","89","","","","","","","0","0","1","0.2","","0.5","0.5","0.5","0.5","","","","","0.8","0.2","0.6","0.2","","","","","","","","74","J","1","","true","0","full_practice",""
"","bandit","60","202884","0.0-34.0-6.0","42987423","wem/bandit_either_3","A2DKVCJ3ZDJOQ","either","3","460","","","","","","","0","0","1","","0.6","0.5","0.5","0.5","0.5","0.8","0.2","0.6","0.2","","","","","","","","","","","","75","K","2","","true","0","full_practice",""
"","bandit","61","204463","0.0-34.0-7.0","42987423","wem/bandit_either_3","A2DKVCJ3ZDJOQ","either","3","73","","","","","","","0","0","1","","0.2","0.5","0.5","0.5","0.5","0.8","0.2","0.6","0.2","","","","","","","","","","","","76","L","3","","true","0","full_practice",""
"","bandit","62","206093","0.0-34.0-8.0","42987423","wem/bandit_either_3","A2DKVCJ3ZDJOQ","either","3","124","","","","","","","0","1","0","","0.6","0.5","0.5","0.5","0.5","0.8","0.2","0.6","0.2","","","","","","","","","","","","75","K","2","","true","0","full_practice",""
"","bandit","63","208247","0.0-34.0-9.0","42987423","wem/bandit_either_3","A2DKVCJ3ZDJOQ","either","3","642","","","","","","","1","0","0","0.8","","0.5","0.5","0.5","0.5","","","","","0.8","0.2","0.6","0.2","","","","","","","","72","H","0","img/none_selected.jpg","true","0","full_practice",""
"","bandit","64","209855","0.0-34.0-10.0","42987423","wem/bandit_either_3","A2DKVCJ3ZDJOQ","either","3","81","","","","","","","0","0","1","","0.8","0.5","0.5","0.5","0.5","0.8","0.2","0.6","0.2","","","","","","","","","","","","72","H","0","img/none_selected.jpg","true","0","full_practice",""
"","bandit","65","211901","0.0-34.0-11.0","42987423","wem/bandit_either_3","A2DKVCJ3ZDJOQ","either","3","539","","","","","","","0","1","0","","0.6","0.5","0.5","0.5","0.5","0.8","0.2","0.6","0.2","","","","","","","","","","","","75","K","2","","true","0","full_practice",""
"","bandit","66","213587","0.0-34.0-12.0","42987423","wem/bandit_either_3","A2DKVCJ3ZDJOQ","either","3","177","","","","","","","0","1","0","","0.6","0.5","0.5","0.5","0.5","0.8","0.2","0.6","0.2","","","","","","","","","","","","75","K","2","","true","0","full_practice",""
"","bandit","67","215322","0.0-34.0-13.0","42987423","wem/bandit_either_3","A2DKVCJ3ZDJOQ","either","3","226","","","","","","","0","0","1","","0.6","0.5","0.5","0.5","0.5","0.8","0.2","0.6","0.2","","","","","","","","","","","","75","K","2","","true","0","full_practice",""
"","bandit","68","217658","0.0-34.0-14.0","42987423","wem/bandit_either_3","A2DKVCJ3ZDJOQ","either","3","824","","","","","","","0","1","0","","0.8","0.5","0.5","0.5","0.5","0.8","0.2","0.6","0.2","","","","","","","","","","","","72","H","0","img/none_selected.jpg","true","0","full_practice",""
"","bandit","69","219173","0.0-34.0-15.0","42987423","wem/bandit_either_3","A2DKVCJ3ZDJOQ","either","3","9","","","","","","","1","0","0","0.8","","0.5","0.5","0.5","0.5","","","","","0.8","0.2","0.6","0.2","","","","","","","","72","H","0","img/none_selected.jpg","true","0","full_practice",""
"","bandit","70","220792","0.0-34.0-16.0","42987423","wem/bandit_either_3","A2DKVCJ3ZDJOQ","either","3","107","","","","","","","1","0","0","0.8","","0.5","0.5","0.5","0.5","","","","","0.8","0.2","0.6","0.2","","","","","","","","72","H","0","img/none_selected.jpg","true","0","full_practice",""
"","bandit","71","222792","0.0-34.0-17.0","42987423","wem/bandit_either_3","A2DKVCJ3ZDJOQ","either","3","471","","","","","","","1","0","0","0.8","","0.5","0.5","0.5","0.5","","","","","0.8","0.2","0.6","0.2","","","","","","","","72","H","0","img/none_selected.jpg","true","0","full_practice",""
"","bandit","72","224489","0.0-34.0-18.0","42987423","wem/bandit_either_3","A2DKVCJ3ZDJOQ","either","3","186","","","","","","","0","0","1","0.8","","0.5","0.5","0.5","0.5","","","","","0.8","0.2","0.6","0.2","","","","","","","","72","H","0","img/none_selected.jpg","true","0","full_practice",""
"","bandit","73","226447","0.0-34.0-19.0","42987423","wem/bandit_either_3","A2DKVCJ3ZDJOQ","either","3","449","","","","","","","0","1","0","","0.6","0.5","0.5","0.5","0.5","0.8","0.2","0.6","0.2","","","","","","","","","","","","75","K","2","","true","0","full_practice",""
"","text","74","228346","0.0-35.0","42987423","wem/bandit_either_3","A2DKVCJ3ZDJOQ","either","3","1893","","32","","","","","","","","","","","","","","","","","","","","","","","","","","","","","","","","","","","",""
"","text","75","236455","0.0-36.0","42987423","wem/bandit_either_3","A2DKVCJ3ZDJOQ","either","3","7100","","32","","","","","","","","","","","","","","","","","","","","","","","","","","","","","","","","","","","",""
"","text","76","241674","0.0-37.0","42987423","wem/bandit_either_3","A2DKVCJ3ZDJOQ","either","3","5217","","32","","","","","","","","","","","","","","","","","","","","","","","","","","","","","","","","","","","",""
"","text","77","243485","0.0-38.0","42987423","wem/bandit_either_3","A2DKVCJ3ZDJOQ","either","3","1807","","32","","","","","","","","","","","","","","","","","","","","","","","","","","","","","","","","","","","",""
"","text","78","247244","0.0-39.0","42987423","wem/bandit_either_3","A2DKVCJ3ZDJOQ","either","3","3756","","32","","","","","","","","","","","","","","","","","","","","","","","","","","","","","","","","","","","",""
"","text","79","249286","0.0-40.0","42987423","wem/bandit_either_3","A2DKVCJ3ZDJOQ","either","3","2039","","32","","","","","","","","","","","","","","","","","","","","","","","","","","","","","","","","","","","",""
"","bandit","80","251729","0.0-41.0-0.0","42987423","wem/bandit_either_3","A2DKVCJ3ZDJOQ","either","3","936","","","","","","","0","1","0","","0.1387034319","0.2","0.6","0.8","0.4","0.1387034319","0.4261870849","0.6494041588","0.6473934842","","","","","","","","","","","","72","H","0","img/none_selected.jpg","","1","main_expt",""
"","bandit","81","253359","0.0-42.0-0.0","42987423","wem/bandit_either_3","A2DKVCJ3ZDJOQ","either","3","120","","","","","","","0","0","1","","0.2166337036","0.2","0.6","0.8","0.4","0.2166337036","0.3223101542","0.7608835745","0.5221866694","","","","","","","","","","","","72","H","0","img/none_selected.jpg","","2","main_expt",""
"","bandit","82","255385","0.0-43.0-0.0","42987423","wem/bandit_either_3","A2DKVCJ3ZDJOQ","either","3","517","","","","","","","1","0","0","0.2541217019","","0.2","0.6","0.8","0.4","","","","","0.3253899216","0.2541217019","0.7745567172","0.5356292978","","","","","","","","74","J","1","","","3","main_expt",""
"","bandit","83","257251","0.0-44.0-0.0","42987423","wem/bandit_either_3","A2DKVCJ3ZDJOQ","either","3","348","","","","","","","1","0","0","0.2272043942","","0.2","0.6","0.8","0.4","","","","","0.3003293127","0.2272043942","0.8315703218","0.5154592071","","","","","","","","74","J","1","","","4","main_expt",""
"","bandit","84","259250","0.0-45.0-0.0","42987423","wem/bandit_either_3","A2DKVCJ3ZDJOQ","either","3","493","","","","","","","1","0","0","0.2967729676","","0.2","0.6","0.8","0.4","","","","","0.3839660868","0.2967729676","0.8380789219","0.4578896037","","","","","","","","74","J","1","","","5","main_expt",""
"","bandit","85","260822","0.0-46.0-0.0","42987423","wem/bandit_either_3","A2DKVCJ3ZDJOQ","either","3","64","","","","","","","0","0","1","","0.3211998527","0.2","0.6","0.8","0.4","0.3833463511","0.3211998527","0.8233568153","0.4825789634","","","","","","","","","","","","74","J","1","","","6","main_expt",""
"","bandit","86","262513","0.0-47.0-0.0","42987423","wem/bandit_either_3","A2DKVCJ3ZDJOQ","either","3","181","","","","","","","1","0","0","0.8672840292","","0.2","0.6","0.8","0.4","","","","","0.3173395401","0.4190649117","0.8672840292","0.4013658759","","","","","","","","75","K","2","","","7","main_expt",""
"","bandit","87","264166","0.0-48.0-0.0","42987423","wem/bandit_either_3","A2DKVCJ3ZDJOQ","either","3","148","","","","","","","1","0","0","0.7921451217","","0.2","0.6","0.8","0.4","","","","","0.3265190876","0.5253498774","0.7921451217","0.3721769634","","","","","","","","75","K","2","","","8","main_expt",""
"","bandit","88","265685","0.0-49.0-0.0","42987423","wem/bandit_either_3","A2DKVCJ3ZDJOQ","either","3","7","","","","","","","1","0","0","0.7826569337","","0.2","0.6","0.8","0.4","","","","","0.4229840653","0.5552176016","0.7826569337","0.3934089605","","","","","","","","75","K","2","","","9","main_expt",""
"","bandit","89","267457","0.0-50.0-0.0","42987423","wem/bandit_either_3","A2DKVCJ3ZDJOQ","either","3","252","","","","","","","1","0","0","0.7150392401","","0.2","0.6","0.8","0.4","","","","","0.5107168356","0.654745146","0.7150392401","0.3360942297","","","","","","","","75","K","2","","","10","main_expt",""
"","bandit","90","268995","0.0-51.0-0.0","42987423","wem/bandit_either_3","A2DKVCJ3ZDJOQ","either","3","30","","","","","","","1","0","0","0.6906605055","","0.2","0.6","0.8","0.4","","","","","0.4383577931","0.6089063278","0.6906605055","0.4969537907","","","","","","","","75","K","2","","","11","main_expt",""
"","bandit","91","270639","0.0-52.0-0.0","42987423","wem/bandit_either_3","A2DKVCJ3ZDJOQ","either","3","131","","","","","","","0","0","1","0.6725575113","","0.2","0.6","0.8","0.4","","","","","0.5487148549","0.559155858","0.6725575113","0.4760264401","","","","","","","","75","K","2","","","12","main_expt",""
"","bandit","92","272203","0.0-53.0-0.0","42987423","wem/bandit_either_3","A2DKVCJ3ZDJOQ","either","3","51","","","","","","","1","0","0","0.7404599176","","0.2","0.6","0.8","0.4","","","","","0.7407599438","0.6464491645","0.7404599176","0.4008761295","","","","","","","","75","K","2","","","13","main_expt",""
"","bandit","93","273910","0.0-54.0-0.0","42987423","wem/bandit_either_3","A2DKVCJ3ZDJOQ","either","3","202","","","","","","","1","0","0","0.6751607758","","0.2","0.6","0.8","0.4","","","","","0.8307131687","0.6936958995","0.6751607758","0.358486362","","","","","","","","75","K","2","","","14","main_expt",""
"","bandit","94","275645","0.0-55.0-0.0","42987423","wem/bandit_either_3","A2DKVCJ3ZDJOQ","either","3","227","","","","","","","1","0","0","0.6115440925","","0.2","0.6","0.8","0.4","","","","","0.8114394421","0.731471075","0.6115440925","0.395258373","","","","","","","","75","K","2","","","15","main_expt",""
"","bandit","95","277212","0.0-56.0-0.0","42987423","wem/bandit_either_3","A2DKVCJ3ZDJOQ","either","3","58","","","","","","","1","0","0","0.7019001419","","0.2","0.6","0.8","0.4","","","","","0.8242397169","0.6487541525","0.7019001419","0.4197334966","","","","","","","","75","K","2","","","16","main_expt",""
"","bandit","96","278735","0.0-57.0-0.0","42987423","wem/bandit_either_3","A2DKVCJ3ZDJOQ","either","3","13","","","","","","","1","0","0","0.7017998","","0.2","0.6","0.8","0.4","","","","","0.8317633157","0.7654634758","0.7017998","0.2160816064","","","","","","","","75","K","2","","","17","main_expt",""
"","bandit","97","280870","0.0-58.0-0.0","42987423","wem/bandit_either_3","A2DKVCJ3ZDJOQ","either","3","629","","","","","","","1","0","0","0.7672473748","","0.2","0.6","0.8","0.4","","","","","0.8158638682","0.7160830043","0.7672473748","0.2058632209","","","","","","","","75","K","2","","","18","main_expt",""
"","bandit","98","282549","0.0-59.0-0.0","42987423","wem/bandit_either_3","A2DKVCJ3ZDJOQ","either","3","170","","","","","","","1","0","0","0.7950219121","","0.2","0.6","0.8","0.4","","","","","0.8291878069","0.6856656502","0.7950219121","0.2314559036","","","","","","","","75","K","2","","","19","main_expt",""
"","bandit","99","284474","0.0-60.0-0.0","42987423","wem/bandit_either_3","A2DKVCJ3ZDJOQ","either","3","412","","","","","","","0","1","0","","0.8460513568","0.2","0.6","0.8","0.4","0.8665153398","0.6829400921","0.8460513568","0.1762066147","","","","","","","","","","","","75","K","2","","","20","main_expt",""
"","bandit","100","286178","0.0-61.0-0.0","42987423","wem/bandit_either_3","A2DKVCJ3ZDJOQ","either","3","184","","","","","","","1","0","0","0.8571228725","","0.2","0.6","0.8","0.4","","","","","0.8181415858","0.6849203215","0.8571228725","0.150477598","","","","","","","","75","K","2","","","21","main_expt",""
"","bandit","101","287722","0.0-62.0-0.0","42987423","wem/bandit_either_3","A2DKVCJ3ZDJOQ","either","3","40","","","","","","","1","0","0","0.8498483749","","0.2","0.6","0.8","0.4","","","","","0.7731960963","0.6832197831","0.8498483749","0.1957635407","","","","","","","","75","K","2","","","22","main_expt",""
"","bandit","102","289291","0.0-63.0-0.0","42987423","wem/bandit_either_3","A2DKVCJ3ZDJOQ","either","3","61","","","","","","","1","0","0","0.887495535","","0.2","0.6","0.8","0.4","","","","","0.8004626553","0.6103957523","0.887495535","0.2193187944","","","","","","","","75","K","2","","","23","main_expt",""
"","bandit","103","290904","0.0-64.0-0.0","42987423","wem/bandit_either_3","A2DKVCJ3ZDJOQ","either","3","105","","","","","","","1","0","0","0.918231735","","0.2","0.6","0.8","0.4","","","","","0.7941911222","0.5485819736","0.918231735","0.1836328706","","","","","","","","75","K","2","","","24","main_expt",""
"","bandit","104","292475","0.0-65.0-0.0","42987423","wem/bandit_either_3","A2DKVCJ3ZDJOQ","either","3","65","","","","","","","1","0","0","0.9111146318","","0.2","0.6","0.8","0.4","","","","","0.7100633829","0.5852935809","0.9111146318","0.1410441375","","","","","","","","75","K","2","","","25","main_expt",""
"","bandit","105","294196","0.0-66.0-0.0","42987423","wem/bandit_either_3","A2DKVCJ3ZDJOQ","either","3","211","","","","","","","1","0","0","0.9190640316","","0.2","0.6","0.8","0.4","","","","","0.6872129375","0.6097892937","0.9190640316","0.1082593399","","","","","","","","75","K","2","","","26","main_expt",""
"","bandit","106","295775","0.0-67.0-0.0","42987423","wem/bandit_either_3","A2DKVCJ3ZDJOQ","either","3","69","","","","","","","1","0","0","0.9372614837","","0.2","0.6","0.8","0.4","","","","","0.6798864795","0.6653335402","0.9372614837","0.1042047793","","","","","","","","75","K","2","","","27","main_expt",""
"","bandit","107","298155","0.0-68.0-0.0","42987423","wem/bandit_either_3","A2DKVCJ3ZDJOQ","either","3","872","","","","","","","1","0","0","0.9269484959","","0.2","0.6","0.8","0.4","","","","","0.6812343762","0.6850825106","0.9269484959","0.1153509117","","","","","","","","75","K","2","","","28","main_expt",""
"","bandit","108","299881","0.0-69.0-0.0","42987423","wem/bandit_either_3","A2DKVCJ3ZDJOQ","either","3","212","","","","","","","1","0","0","0.9376772981","","0.2","0.6","0.8","0.4","","","","","0.5305157647","0.7309016742","0.9376772981","0.1601566248","","","","","","","","75","K","2","","","29","main_expt",""
"","bandit","109","301427","0.0-70.0-0.0","42987423","wem/bandit_either_3","A2DKVCJ3ZDJOQ","either","3","30","","","","","","","0","1","0","","0.8795505253","0.2","0.6","0.8","0.4","0.4713174284","0.8141980113","0.8795505253","0.09548927903","","","","","","","","","","","","75","K","2","","","30","main_expt",""
"","bandit","110","303357","0.0-71.0-0.0","42987423","wem/bandit_either_3","A2DKVCJ3ZDJOQ","either","3","405","","","","","","","0","1","0","","0.8605863748","0.2","0.6","0.8","0.4","0.2938490869","0.8926711601","0.8605863748","0.09272353297","","","","","","","","","","","","75","K","2","","","31","main_expt",""
"","bandit","111","307006","0.0-72.0-0.0","42987423","wem/bandit_either_3","A2DKVCJ3ZDJOQ","either","3","2140","","","","","","","0","1","0","","0.757600507","0.2","0.6","0.8","0.4","0.3005160425","0.8397563013","0.757600507","0.09547929832","","","","","","","","","","","","75","K","2","","","32","main_expt",""
"","bandit","112","308748","0.0-73.0-0.0","42987423","wem/bandit_either_3","A2DKVCJ3ZDJOQ","either","3","228","","","","","","","1","0","0","0.7257103923","","0.2","0.6","0.8","0.4","","","","","0.3661211491","0.8251988787","0.7257103923","0.08683876107","","","","","","","","75","K","2","","","33","main_expt",""
"","bandit","113","310504","0.0-74.0-0.0","42987423","wem/bandit_either_3","A2DKVCJ3ZDJOQ","either","3","245","","","","","","","1","0","0","0.5786815464","","0.2","0.6","0.8","0.4","","","","","0.4614725573","0.7303528712","0.5786815464","0.08117088791","","","","","","","","75","K","2","","","34","main_expt",""
"","bandit","114","312364","0.0-75.0-0.0","42987423","wem/bandit_either_3","A2DKVCJ3ZDJOQ","either","3","352","","","","","","","1","0","0","0.4812266686","","0.2","0.6","0.8","0.4","","","","","0.4597324626","0.8093673003","0.4812266686","0.09593582107","","","","","","","","75","K","2","","","35","main_expt",""
"","bandit","115","314257","0.0-76.0-0.0","42987423","wem/bandit_either_3","A2DKVCJ3ZDJOQ","either","3","385","","","","","","","0","1","0","","0.4459447539","0.2","0.6","0.8","0.4","0.4294742096","0.79718131","0.4459447539","0.1392988708","","","","","","","","","","","","75","K","2","","","36","main_expt",""
"","bandit","116","316538","0.0-77.0-0.0","42987423","wem/bandit_either_3","A2DKVCJ3ZDJOQ","either","3","773","","","","","","","0","1","0","","0.5737218407","0.2","0.6","0.8","0.4","0.5301274199","0.8157762275","0.5737218407","0.07673209605","","","","","","","","","","","","75","K","2","","","37","main_expt",""
"","bandit","117","318297","0.0-78.0-0.0","42987423","wem/bandit_either_3","A2DKVCJ3ZDJOQ","either","3","250","","","","","","","1","0","0","0.6008421093","","0.2","0.6","0.8","0.4","","","","","0.5746889943","0.7941499978","0.6008421093","0.1078843958","","","","","","","","75","K","2","","","38","main_expt",""
"","bandit","118","319834","0.0-79.0-0.0","42987423","wem/bandit_either_3","A2DKVCJ3ZDJOQ","either","3","26","","","","","","","1","0","0","0.6076920036","","0.2","0.6","0.8","0.4","","","","","0.6621100331","0.7352357368","0.6076920036","0.09731722171","","","","","","","","75","K","2","","","39","main_expt",""
"","bandit","119","321490","0.0-80.0-0.0","42987423","wem/bandit_either_3","A2DKVCJ3ZDJOQ","either","3","145","","","","","","","1","0","0","0.6616622706","","0.2","0.6","0.8","0.4","","","","","0.6794361822","0.7920886563","0.6616622706","0.2123509389","","","","","","","","75","K","2","","","40","main_expt",""
"","bandit","120","323147","0.0-81.0-0.0","42987423","wem/bandit_either_3","A2DKVCJ3ZDJOQ","either","3","143","","","","","","","1","0","0","0.6945341382","","0.2","0.6","0.8","0.4","","","","","0.7140523024","0.8780543775","0.6945341382","0.1265365425","","","","","","","","75","K","2","","","41","main_expt",""
"","bandit","121","324702","0.0-82.0-0.0","42987423","wem/bandit_either_3","A2DKVCJ3ZDJOQ","either","3","47","","","","","","","1","0","0","0.6833149102","","0.2","0.6","0.8","0.4","","","","","0.6669732994","0.9167256642","0.6833149102","0.166138795","","","","","","","","75","K","2","","","42","main_expt",""
"","bandit","122","326489","0.0-83.0-0.0","42987423","wem/bandit_either_3","A2DKVCJ3ZDJOQ","either","3","275","","","","","","","1","0","0","0.7094953576","","0.2","0.6","0.8","0.4","","","","","0.5435093165","0.9407985187","0.7094953576","0.1782339186","","","","","","","","75","K","2","","","43","main_expt",""
"","bandit","123","328082","0.0-84.0-0.0","42987423","wem/bandit_either_3","A2DKVCJ3ZDJOQ","either","3","80","","","","","","","1","0","0","0.7519468023","","0.2","0.6","0.8","0.4","","","","","0.6002661395","0.9000978766","0.7519468023","0.1342945815","","","","","","","","75","K","2","","","44","main_expt",""
"","bandit","124","329849","0.0-85.0-0.0","42987423","wem/bandit_either_3","A2DKVCJ3ZDJOQ","either","3","259","","","","","","","1","0","0","0.7673203249","","0.2","0.6","0.8","0.4","","","","","0.5948203474","0.9190036262","0.7673203249","0.09086288848","","","","","","","","75","K","2","","","45","main_expt",""
"","bandit","125","331604","0.0-86.0-0.0","42987423","wem/bandit_either_3","A2DKVCJ3ZDJOQ","either","3","248","","","","","","","0","1","0","","0.722836051","0.2","0.6","0.8","0.4","0.6230250108","0.8865788656","0.722836051","0.06420934006","","","","","","","","","","","","75","K","2","","","46","main_expt",""
"","bandit","126","333179","0.0-87.0-0.0","42987423","wem/bandit_either_3","A2DKVCJ3ZDJOQ","either","3","59","","","","","","","0","1","0","","0.7392487755","0.2","0.6","0.8","0.4","0.7239235909","0.8207935484","0.7392487755","0.02332738683","","","","","","","","","","","","75","K","2","","","47","main_expt",""
"","bandit","127","334753","0.0-88.0-0.0","42987423","wem/bandit_either_3","A2DKVCJ3ZDJOQ","either","3","62","","","","","","","1","0","0","0.7551111279","","0.2","0.6","0.8","0.4","","","","","0.7715310514","0.8170742187","0.7551111279","0.03517565614","","","","","","","","75","K","2","","","48","main_expt",""
"","bandit","128","336330","0.0-89.0-0.0","42987423","wem/bandit_either_3","A2DKVCJ3ZDJOQ","either","3","60","","","","","","","0","1","0","","0.6917772817","0.2","0.6","0.8","0.4","0.822179592","0.7874830355","0.6917772817","0.04466115719","","","","","","","","","","","","75","K","2","","","49","main_expt",""
"","bandit","129","337952","0.0-90.0-0.0","42987423","wem/bandit_either_3","A2DKVCJ3ZDJOQ","either","3","104","","","","","","","0","1","0","","0.6689959301","0.2","0.6","0.8","0.4","0.8108951243","0.8279472521","0.6689959301","0.05053383529","","","","","","","","","","","","75","K","2","","","50","main_expt",""
"","bandit","130","343947","0.0-91.0-0.0","42987423","wem/bandit_either_3","A2DKVCJ3ZDJOQ","either","3","4489","","","","","","","0","1","0","","0.6020608281","0.2","0.6","0.8","0.4","0.7649170446","0.8426817256","0.6020608281","0.04681033125","","","","","","","","","","","","75","K","2","","","51","main_expt",""
"","bandit","131","346080","0.0-92.0-0.0","42987423","wem/bandit_either_3","A2DKVCJ3ZDJOQ","either","3","626","","","","","","","1","0","0","0.6583182673","","0.2","0.6","0.8","0.4","","","","","0.8169848275","0.8377647656","0.6583182673","0.09308222201","","","","","","","","75","K","2","","","52","main_expt",""
"","bandit","132","349880","0.0-93.0-0.0","42987423","wem/bandit_either_3","A2DKVCJ3ZDJOQ","either","3","2290","","","","","","","1","0","0","0.5419436754","","0.2","0.6","0.8","0.4","","","","","0.8843577791","0.8241398149","0.5419436754","0.1397702629","","","","","","","","75","K","2","","","53","main_expt",""
"","bandit","133","351694","0.0-94.0-0.0","42987423","wem/bandit_either_3","A2DKVCJ3ZDJOQ","either","3","303","","","","","","","0","0","1","0.5717614462","","0.2","0.6","0.8","0.4","","","","","0.8854515068","0.7289352116","0.5717614462","0.110287685","","","","","","","","75","K","2","","","54","main_expt",""
"","bandit","134","353296","0.0-95.0-0.0","42987423","wem/bandit_either_3","A2DKVCJ3ZDJOQ","either","3","95","","","","","","","1","0","0","0.5497935615","","0.2","0.6","0.8","0.4","","","","","0.8884574585","0.5895019519","0.5497935615","0.1843384007","","","","","","","","75","K","2","","","55","main_expt",""
"","bandit","135","355058","0.0-96.0-0.0","42987423","wem/bandit_either_3","A2DKVCJ3ZDJOQ","either","3","236","","","","","","","0","1","0","","0.4902645195","0.2","0.6","0.8","0.4","0.8840911236","0.4622464331","0.4902645195","0.2056752237","","","","","","","","","","","","75","K","2","","","56","main_expt",""
"","bandit","136","356759","0.0-97.0-0.0","42987423","wem/bandit_either_3","A2DKVCJ3ZDJOQ","either","3","195","","","","","","","1","0","0","0.5258365243","","0.2","0.6","0.8","0.4","","","","","0.864283103","0.490024734","0.5258365243","0.3410726922","","","","","","","","75","K","2","","","57","main_expt",""
"","bandit","137","358285","0.0-98.0-0.0","42987423","wem/bandit_either_3","A2DKVCJ3ZDJOQ","either","3","15","","","","","","","0","0","1","0.6097664349","","0.2","0.6","0.8","0.4","","","","","0.7377821737","0.6182628796","0.6097664349","0.3873695161","","","","","","","","75","K","2","","","58","main_expt",""
"","bandit","138","359941","0.0-99.0-0.0","42987423","wem/bandit_either_3","A2DKVCJ3ZDJOQ","either","3","146","","","","","","","0","1","0","","0.3281321534","0.2","0.6","0.8","0.4","0.7469541206","0.6976829826","0.6016711108","0.3281321534","","","","","","","","","","","","76","L","3","","","59","main_expt",""
"","bandit","139","361576","0.0-100.0-0.0","42987423","wem/bandit_either_3","A2DKVCJ3ZDJOQ","either","3","127","","","","","","","1","0","0","0.2380439254","","0.2","0.6","0.8","0.4","","","","","0.8019510571","0.675433977","0.5544917648","0.2380439254","","","","","","","","76","L","3","","","60","main_expt",""
"","bandit","140","363126","0.0-101.0-0.0","42987423","wem/bandit_either_3","A2DKVCJ3ZDJOQ","either","3","41","","","","","","","0","0","1","0.2228222105","","0.2","0.6","0.8","0.4","","","","","0.8943887388","0.7206550838","0.6842720067","0.2228222105","","","","","","","","76","L","3","","","61","main_expt",""
"","bandit","141","365525","0.0-102.0-0.0","42987423","wem/bandit_either_3","A2DKVCJ3ZDJOQ","either","3","866","","","","","","","0","1","0","","0.8942973556","0.2","0.6","0.8","0.4","0.8942973556","0.7184677658","0.6824345281","0.2489253665","","","","","","","","","","","","72","H","0","img/none_selected.jpg","","62","main_expt",""
"","bandit","142","367294","0.0-103.0-0.0","42987423","wem/bandit_either_3","A2DKVCJ3ZDJOQ","either","3","252","","","","","","","0","1","0","","0.8829609874","0.2","0.6","0.8","0.4","0.8829609874","0.6785259816","0.7321168219","0.2298237489","","","","","","","","","","","","72","H","0","img/none_selected.jpg","","63","main_expt",""
"","bandit","143","368989","0.0-104.0-0.0","42987423","wem/bandit_either_3","A2DKVCJ3ZDJOQ","either","3","183","","","","","","","0","1","0","","0.8175344892","0.2","0.6","0.8","0.4","0.8175344892","0.6349383059","0.8123013145","0.1849055857","","","","","","","","","","","","72","H","0","img/none_selected.jpg","","64","main_expt",""
"","bandit","144","370766","0.0-105.0-0.0","42987423","wem/bandit_either_3","A2DKVCJ3ZDJOQ","either","3","267","","","","","","","0","1","0","","0.7812905168","0.2","0.6","0.8","0.4","0.7812905168","0.629769122","0.8236121316","0.2285715909","","","","","","","","","","","","72","H","0","img/none_selected.jpg","","65","main_expt",""
"","bandit","145","372331","0.0-106.0-0.0","42987423","wem/bandit_either_3","A2DKVCJ3ZDJOQ","either","3","47","","","","","","","0","1","0","","0.7848445355","0.2","0.6","0.8","0.4","0.7848445355","0.7158950816","0.8270077233","0.2477643906","","","","","","","","","","","","72","H","0","img/none_selected.jpg","","66","main_expt",""
"","bandit","146","374139","0.0-107.0-0.0","42987423","wem/bandit_either_3","A2DKVCJ3ZDJOQ","either","3","291","","","","","","","0","1","0","","0.763143195","0.2","0.6","0.8","0.4","0.763143195","0.6309271871","0.7601471472","0.1801078726","","","","","","","","","","","","72","H","0","img/none_selected.jpg","","67","main_expt",""
"","bandit","147","376313","0.0-108.0-0.0","42987423","wem/bandit_either_3","A2DKVCJ3ZDJOQ","either","3","666","","","","","","","0","1","0","","0.7966751536","0.2","0.6","0.8","0.4","0.7966751536","0.617221228","0.7567750057","0.08479184886","","","","","","","","","","","","72","H","0","img/none_selected.jpg","","68","main_expt",""
"","bandit","148","378432","0.0-109.0-0.0","42987423","wem/bandit_either_3","A2DKVCJ3ZDJOQ","either","3","608","","","","","","","0","0","1","","0.8534335227","0.2","0.6","0.8","0.4","0.8534335227","0.6235929763","0.6871277649","0.06982522498","","","","","","","","","","","","72","H","0","img/none_selected.jpg","","69","main_expt",""
"","bandit","149","381888","0.0-110.0-0.0","42987423","wem/bandit_either_3","A2DKVCJ3ZDJOQ","either","3","1936","","","","","","","0","0","1","","0.5543620559","0.2","0.6","0.8","0.4","0.8915498471","0.5543620559","0.773099018","0.05029268469","","","","","","","","","","","","74","J","1","","","70","main_expt",""
"","bandit","150","383403","0.0-111.0-0.0","42987423","wem/bandit_either_3","A2DKVCJ3ZDJOQ","either","3","6","","","","","","","1","0","0","0.7412476729","","0.2","0.6","0.8","0.4","","","","","0.8736989015","0.5333999135","0.7412476729","0.06413839938","","","","","","","","75","K","2","","","71","main_expt",""
"","bandit","151","384930","0.0-112.0-0.0","42987423","wem/bandit_either_3","A2DKVCJ3ZDJOQ","either","3","16","","","","","","","1","0","0","0.8080704968","","0.2","0.6","0.8","0.4","","","","","0.8837551658","0.5905126671","0.8080704968","0.05155778705","","","","","","","","75","K","2","","","72","main_expt",""
"","bandit","152","387046","0.0-113.0-0.0","42987423","wem/bandit_either_3","A2DKVCJ3ZDJOQ","either","3","607","","","","","","","0","0","1","0.8270016227","","0.2","0.6","0.8","0.4","","","","","0.8495494246","0.6925119087","0.8270016227","0.0232747386","","","","","","","","75","K","2","","","73","main_expt",""
"","bandit","153","388905","0.0-114.0-0.0","42987423","wem/bandit_either_3","A2DKVCJ3ZDJOQ","either","3","348","","","","","","","0","0","1","0.04751547773","","0.2","0.6","0.8","0.4","","","","","0.9127472651","0.7134745341","0.7872017979","0.04751547773","","","","","","","","76","L","3","","","74","main_expt",""
"","bandit","154","390890","0.0-115.0-0.0","42987423","wem/bandit_either_3","A2DKVCJ3ZDJOQ","either","3","474","","","","","","","1","0","0","0.9199060817","","0.2","0.6","0.8","0.4","","","","","0.9199060817","0.8065440948","0.6167225576","0.05282531612","","","","","","","","72","H","0","img/none_selected.jpg","","75","main_expt",""
"","bandit","155","392733","0.0-116.0-0.0","42987423","wem/bandit_either_3","A2DKVCJ3ZDJOQ","either","3","336","","","","","","","0","1","0","","0.8691294168","0.2","0.6","0.8","0.4","0.8691294168","0.7849172319","0.637182095","0.08738729654","","","","","","","","","","","","72","H","0","img/none_selected.jpg","","76","main_expt",""
"","bandit","156","395035","0.0-117.0-0.0","42987423","wem/bandit_either_3","A2DKVCJ3ZDJOQ","either","3","790","","","","","","","1","0","0","0.9111329321","","0.2","0.6","0.8","0.4","","","","","0.9111329321","0.7818962729","0.7169911294","0.08851312664","","","","","","","","72","H","0","img/none_selected.jpg","","77","main_expt",""
"","bandit","157","396953","0.0-118.0-0.0","42987423","wem/bandit_either_3","A2DKVCJ3ZDJOQ","either","3","407","","","","","","","0","1","0","","0.9286966754","0.2","0.6","0.8","0.4","0.9286966754","0.7002933386","0.7446448061","0.145228539","","","","","","","","","","","","72","H","0","img/none_selected.jpg","","78","main_expt",""
"","bandit","158","399397","0.0-119.0-0.0","42987423","wem/bandit_either_3","A2DKVCJ3ZDJOQ","either","3","934","","","","","","","0","1","0","","0.9616021792","0.2","0.6","0.8","0.4","0.9616021792","0.6510109529","0.8152221547","0.1669860915","","","","","","","","","","","","72","H","0","img/none_selected.jpg","","79","main_expt",""
"","bandit","159","401414","0.0-120.0-0.0","42987423","wem/bandit_either_3","A2DKVCJ3ZDJOQ","either","3","510","","","","","","","1","0","0","0.950571795","","0.2","0.6","0.8","0.4","","","","","0.950571795","0.6765614865","0.810351938","0.1922913003","","","","","","","","72","H","0","img/none_selected.jpg","","80","main_expt",""
"","bandit","160","403736","0.0-121.0-0.0","42987423","wem/bandit_either_3","A2DKVCJ3ZDJOQ","either","3","813","","","","","","","1","0","0","0.9331160128","","0.2","0.6","0.8","0.4","","","","","0.9331160128","0.5908869344","0.8895110989","0.2407870914","","","","","","","","72","H","0","img/none_selected.jpg","","81","main_expt",""
"","bandit","161","428833","0.0-122.0-0.0","42987423","wem/bandit_either_3","A2DKVCJ3ZDJOQ","either","3","23583","","","","","","","0","1","0","","0.9465986336","0.2","0.6","0.8","0.4","0.9465986336","0.5267531711","0.9046816681","0.3077898034","","","","","","","","","","","","72","H","0","img/none_selected.jpg","","82","main_expt",""
"","bandit","162","430947","0.0-123.0-0.0","42987423","wem/bandit_either_3","A2DKVCJ3ZDJOQ","either","3","601","","","","","","","0","1","0","","0.9371159138","0.2","0.6","0.8","0.4","0.9371159138","0.6168373964","0.8465278631","0.2337579628","","","","","","","","","","","","72","H","0","img/none_selected.jpg","","83","main_expt",""
"","bandit","163","433599","0.0-124.0-0.0","42987423","wem/bandit_either_3","A2DKVCJ3ZDJOQ","either","3","1143","","","","","","","1","0","0","0.8998840018","","0.2","0.6","0.8","0.4","","","","","0.8998840018","0.5733990252","0.7584930438","0.2781329454","","","","","","","","72","H","0","img/none_selected.jpg","","84","main_expt",""
"","bandit","164","435519","0.0-125.0-0.0","42987423","wem/bandit_either_3","A2DKVCJ3ZDJOQ","either","3","407","","","","","","","0","1","0","","0.9102188985","0.2","0.6","0.8","0.4","0.9102188985","0.4719695616","0.7727946294","0.3013149798","","","","","","","","","","","","72","H","0","img/none_selected.jpg","","85","main_expt",""
"","bandit","165","437451","0.0-126.0-0.0","42987423","wem/bandit_either_3","A2DKVCJ3ZDJOQ","either","3","421","","","","","","","0","1","0","","0.9000055418","0.2","0.6","0.8","0.4","0.9000055418","0.6941651786","0.8216594778","0.3231836659","","","","","","","","","","","","72","H","0","img/none_selected.jpg","","86","main_expt",""
"","bandit","166","439358","0.0-127.0-0.0","42987423","wem/bandit_either_3","A2DKVCJ3ZDJOQ","either","3","395","","","","","","","0","0","1","","0.5408952125","0.2","0.6","0.8","0.4","0.8563468124","0.5408952125","0.7833884788","0.3986379136","","","","","","","","","","","","74","J","1","","","87","main_expt",""
"","bandit","167","441211","0.0-128.0-0.0","42987423","wem/bandit_either_3","A2DKVCJ3ZDJOQ","either","3","341","","","","","","","1","0","0","0.7804426693","","0.2","0.6","0.8","0.4","","","","","0.7349543302","0.5438891422","0.7804426693","0.4230151841","","","","","","","","75","K","2","","","88","main_expt",""
"","bandit","168","442979","0.0-129.0-0.0","42987423","wem/bandit_either_3","A2DKVCJ3ZDJOQ","either","3","260","","","","","","","1","0","0","0.7930928848","","0.2","0.6","0.8","0.4","","","","","0.7907967515","0.4294971294","0.7930928848","0.3761858397","","","","","","","","75","K","2","","","89","main_expt",""
"","bandit","169","445183","0.0-130.0-0.0","42987423","wem/bandit_either_3","A2DKVCJ3ZDJOQ","either","3","685","","","","","","","1","0","0","0.7683039237","","0.2","0.6","0.8","0.4","","","","","0.7883246469","0.4928337868","0.7683039237","0.4799086841","","","","","","","","75","K","2","","","90","main_expt",""
"","bandit","170","446955","0.0-131.0-0.0","42987423","wem/bandit_either_3","A2DKVCJ3ZDJOQ","either","3","261","","","","","","","0","1","0","","0.8072091422","0.2","0.6","0.8","0.4","0.8389096604","0.5655090935","0.8072091422","0.4558425901","","","","","","","","","","","","75","K","2","","","91","main_expt",""
"","bandit","171","448749","0.0-132.0-0.0","42987423","wem/bandit_either_3","A2DKVCJ3ZDJOQ","either","3","280","","","","","","","1","0","0","0.7791444337","","0.2","0.6","0.8","0.4","","","","","0.8064187158","0.6154818033","0.7791444337","0.3781515597","","","","","","","","75","K","2","","","92","main_expt",""
"","bandit","172","450404","0.0-133.0-0.0","42987423","wem/bandit_either_3","A2DKVCJ3ZDJOQ","either","3","143","","","","","","","1","0","0","0.8498372391","","0.2","0.6","0.8","0.4","","","","","0.7542368763","0.7381217307","0.8498372391","0.2858753042","","","","","","","","75","K","2","","","93","main_expt",""
"","bandit","173","451932","0.0-134.0-0.0","42987423","wem/bandit_either_3","A2DKVCJ3ZDJOQ","either","3","15","","","","","","","1","0","0","0.8440610374","","0.2","0.6","0.8","0.4","","","","","0.6932487021","0.7776388333","0.8440610374","0.3914428564","","","","","","","","75","K","2","","","94","main_expt",""
"","bandit","174","453663","0.0-135.0-0.0","42987423","wem/bandit_either_3","A2DKVCJ3ZDJOQ","either","3","221","","","","","","","1","0","0","0.8092418145","","0.2","0.6","0.8","0.4","","","","","0.6706070003","0.8299152283","0.8092418145","0.3800018616","","","","","","","","75","K","2","","","95","main_expt",""
"","bandit","175","455348","0.0-136.0-0.0","42987423","wem/bandit_either_3","A2DKVCJ3ZDJOQ","either","3","173","","","","","","","1","0","0","0.8655172998","","0.2","0.6","0.8","0.4","","","","","0.6670251336","0.7697811485","0.8655172998","0.3078584031","","","","","","","","75","K","2","","","96","main_expt",""
"","bandit","176","457090","0.0-137.0-0.0","42987423","wem/bandit_either_3","A2DKVCJ3ZDJOQ","either","3","235","","","","","","","1","0","0","0.8735151232","","0.2","0.6","0.8","0.4","","","","","0.7023758817","0.7487724405","0.8735151232","0.218486712","","","","","","","","75","K","2","","","97","main_expt",""
"","bandit","177","458834","0.0-138.0-0.0","42987423","wem/bandit_either_3","A2DKVCJ3ZDJOQ","either","3","233","","","","","","","1","0","0","0.84409386","","0.2","0.6","0.8","0.4","","","","","0.7036518389","0.7450583294","0.84409386","0.2037628256","","","","","","","","75","K","2","","","98","main_expt",""
"","bandit","178","460508","0.0-139.0-0.0","42987423","wem/bandit_either_3","A2DKVCJ3ZDJOQ","either","3","166","","","","","","","1","0","0","0.8089648913","","0.2","0.6","0.8","0.4","","","","","0.8401346726","0.7227120129","0.8089648913","0.2400196326","","","","","","","","75","K","2","","","99","main_expt",""
"","bandit","179","485358","0.0-140.0-0.0","42987423","wem/bandit_either_3","A2DKVCJ3ZDJOQ","either","3","23340","","","","","","","0","0","1","0.7259557377","","0.2","0.6","0.8","0.4","","","","","0.8640782416","0.5872141049","0.7259557377","0.3298222115","","","","","","","","75","K","2","","","100","main_expt",""
"","bandit","180","488032","0.0-141.0-0.0","42987423","wem/bandit_either_3","A2DKVCJ3ZDJOQ","either","3","1164","","","","","","","1","0","0","0.6332869741","","0.2","0.6","0.8","0.4","","","","","0.8232172207","0.6432213136","0.6332869741","0.3108047587","","","","","","","","75","K","2","","","101","main_expt",""
"","bandit","181","489791","0.0-142.0-0.0","42987423","wem/bandit_either_3","A2DKVCJ3ZDJOQ","either","3","251","","","","","","","0","0","1","0.659443461","","0.2","0.6","0.8","0.4","","","","","0.8451901448","0.6009476408","0.659443461","0.2869381514","","","","","","","","75","K","2","","","102","main_expt",""
"","bandit","182","491827","0.0-143.0-0.0","42987423","wem/bandit_either_3","A2DKVCJ3ZDJOQ","either","3","527","","","","","","","0","1","0","","0.8792283932","0.2","0.6","0.8","0.4","0.8792283932","0.6120105745","0.5959971703","0.246485708","","","","","","","","","","","","72","H","0","img/none_selected.jpg","","103","main_expt",""
"","bandit","183","495288","0.0-144.0-0.0","42987423","wem/bandit_either_3","A2DKVCJ3ZDJOQ","either","3","1953","","","","","","","0","1","0","","0.8887181638","0.2","0.6","0.8","0.4","0.8887181638","0.6821098495","0.5643630141","0.2175667678","","","","","","","","","","","","72","H","0","img/none_selected.jpg","","104","main_expt",""
"","bandit","184","497234","0.0-145.0-0.0","42987423","wem/bandit_either_3","A2DKVCJ3ZDJOQ","either","3","432","","","","","","","0","0","1","","0.7228510016","0.2","0.6","0.8","0.4","0.8013578166","0.7228510016","0.5489079514","0.2645808036","","","","","","","","","","","","74","J","1","","","105","main_expt",""
"","bandit","185","499120","0.0-146.0-0.0","42987423","wem/bandit_either_3","A2DKVCJ3ZDJOQ","either","3","373","","","","","","","0","0","1","0.4336033326","","0.2","0.6","0.8","0.4","","","","","0.7307006529","0.6639212405","0.4336033326","0.2652424516","","","","","","","","75","K","2","","","106","main_expt",""
"","bandit","186","500953","0.0-147.0-0.0","42987423","wem/bandit_either_3","A2DKVCJ3ZDJOQ","either","3","323","","","","","","","0","0","1","0.2481661544","","0.2","0.6","0.8","0.4","","","","","0.7519500851","0.6237034742","0.4779201531","0.2481661544","","","","","","","","76","L","3","","","107","main_expt",""
"","bandit","187","504506","0.0-148.0-0.0","42987423","wem/bandit_either_3","A2DKVCJ3ZDJOQ","either","3","2038","","","","","","","0","1","0","","0.7457577851","0.2","0.6","0.8","0.4","0.7457577851","0.5847293191","0.5075294874","0.2361720859","","","","","","","","","","","","72","H","0","img/none_selected.jpg","","108","main_expt",""
"","bandit","188","506557","0.0-149.0-0.0","42987423","wem/bandit_either_3","A2DKVCJ3ZDJOQ","either","3","514","","","","","","","1","0","0","0.77583868","","0.2","0.6","0.8","0.4","","","","","0.77583868","0.6260859175","0.522842385","0.2799679389","","","","","","","","72","H","0","img/none_selected.jpg","","109","main_expt",""
"","bandit","189","508542","0.0-150.0-0.0","42987423","wem/bandit_either_3","A2DKVCJ3ZDJOQ","either","3","467","","","","","","","0","1","0","","0.7520827962","0.2","0.6","0.8","0.4","0.7520827962","0.4788227383","0.419893696","0.3333098602","","","","","","","","","","","","72","H","0","img/none_selected.jpg","","110","main_expt",""
"","bandit","190","510567","0.0-151.0-0.0","42987423","wem/bandit_either_3","A2DKVCJ3ZDJOQ","either","3","514","","","","","","","0","1","0","","0.6512809768","0.2","0.6","0.8","0.4","0.6512809768","0.6019778282","0.431092028","0.3669732535","","","","","","","","","","","","72","H","0","img/none_selected.jpg","","111","main_expt",""
"","bandit","191","513188","0.0-152.0-0.0","42987423","wem/bandit_either_3","A2DKVCJ3ZDJOQ","either","3","1113","","","","","","","0","0","1","","0.5891937939","0.2","0.6","0.8","0.4","0.5891937939","0.546445977","0.3590071368","0.389765336","","","","","","","","","","","","72","H","0","img/none_selected.jpg","","112","main_expt",""
"","bandit","192","515496","0.0-153.0-0.0","42987423","wem/bandit_either_3","A2DKVCJ3ZDJOQ","either","3","793","","","","","","","0","1","0","","0.6256092846","0.2","0.6","0.8","0.4","0.6490525038","0.6256092846","0.4498419114","0.3191506652","","","","","","","","","","","","74","J","1","","","113","main_expt",""
"","bandit","193","517240","0.0-154.0-0.0","42987423","wem/bandit_either_3","A2DKVCJ3ZDJOQ","either","3","232","","","","","","","0","1","0","","0.6577617598","0.2","0.6","0.8","0.4","0.6283680234","0.6577617598","0.4829831469","0.2090321438","","","","","","","","","","","","74","J","1","","","114","main_expt",""
"","bandit","194","519289","0.0-155.0-0.0","42987423","wem/bandit_either_3","A2DKVCJ3ZDJOQ","either","3","529","","","","","","","0","1","0","","0.7140476354","0.2","0.6","0.8","0.4","0.6064224059","0.7140476354","0.4846695964","0.2094439124","","","","","","","","","","","","74","J","1","","","115","main_expt",""
"","bandit","195","521373","0.0-156.0-0.0","42987423","wem/bandit_either_3","A2DKVCJ3ZDJOQ","either","3","559","","","","","","","0","1","0","","0.6589976567","0.2","0.6","0.8","0.4","0.545813367","0.6589976567","0.5396909338","0.2695181069","","","","","","","","","","","","74","J","1","","","116","main_expt",""
"","bandit","196","526365","0.0-157.0-0.0","42987423","wem/bandit_either_3","A2DKVCJ3ZDJOQ","either","3","3484","","","","","","","0","0","1","","0.6937703341","0.2","0.6","0.8","0.4","0.5179373022","0.6937703341","0.5378282835","0.3402036285","","","","","","","","","","","","74","J","1","","","117","main_expt",""
"","bandit","197","528954","0.0-158.0-0.0","42987423","wem/bandit_either_3","A2DKVCJ3ZDJOQ","either","3","1079","","","","","","","0","0","1","","0.5729988564","0.2","0.6","0.8","0.4","0.4014157923","0.77114399","0.5729988564","0.3101634078","","","","","","","","","","","","75","K","2","","","118","main_expt",""
"","bandit","198","530675","0.0-159.0-0.0","42987423","wem/bandit_either_3","A2DKVCJ3ZDJOQ","either","3","209","","","","","","","0","0","1","","0.3242193616","0.2","0.6","0.8","0.4","0.4360264599","0.710000291","0.5630251564","0.3242193616","","","","","","","","","","","","76","L","3","","","119","main_expt",""
"","bandit","199","535381","0.0-160.0-0.0","42987423","wem/bandit_either_3","A2DKVCJ3ZDJOQ","either","3","3198","","","","","","","0","0","1","0.3297853269","","0.2","0.6","0.8","0.4","","","","","0.3297853269","0.6767982245","0.6482115929","0.3334277272","","","","","","","","72","H","0","img/none_selected.jpg","","120","main_expt",""
"","bandit","200","537330","0.0-161.0-0.0","42987423","wem/bandit_either_3","A2DKVCJ3ZDJOQ","either","3","419","","","","","","","0","0","1","0.7360115258","","0.2","0.6","0.8","0.4","","","","","0.3767442019","0.7360115258","0.5688505083","0.4066521311","","","","","","","","74","J","1","","","121","main_expt",""
"","bandit","201","539320","0.0-162.0-0.0","42987423","wem/bandit_either_3","A2DKVCJ3ZDJOQ","either","3","481","","","","","","","1","0","0","0.5349597204","","0.2","0.6","0.8","0.4","","","","","0.3589515546","0.7258716992","0.5349597204","0.5193034213","","","","","","","","75","K","2","","","122","main_expt",""
"","bandit","202","541185","0.0-163.0-0.0","42987423","wem/bandit_either_3","A2DKVCJ3ZDJOQ","either","3","347","","","","","","","0","0","1","0.412887176","","0.2","0.6","0.8","0.4","","","","","0.3461890545","0.7848203729","0.412887176","0.5594962391","","","","","","","","75","K","2","","","123","main_expt",""
"","bandit","203","543175","0.0-164.0-0.0","42987423","wem/bandit_either_3","A2DKVCJ3ZDJOQ","either","3","473","","","","","","","1","0","0","0.6876014299","","0.2","0.6","0.8","0.4","","","","","0.2287340519","0.7673004895","0.4137060999","0.6876014299","","","","","","","","76","L","3","","","124","main_expt",""
"","bandit","204","544973","0.0-165.0-0.0","42987423","wem/bandit_either_3","A2DKVCJ3ZDJOQ","either","3","288","","","","","","","1","0","0","0.7354493796","","0.2","0.6","0.8","0.4","","","","","0.2900718705","0.8020703208","0.3226696341","0.7354493796","","","","","","","","76","L","3","","","125","main_expt",""
"","bandit","205","546874","0.0-166.0-0.0","42987423","wem/bandit_either_3","A2DKVCJ3ZDJOQ","either","3","376","","","","","","","0","1","0","","0.76840964","0.2","0.6","0.8","0.4","0.2880997441","0.8196031782","0.3904211026","0.76840964","","","","","","","","","","","","76","L","3","","","126","main_expt",""
"","bandit","206","548756","0.0-167.0-0.0","42987423","wem/bandit_either_3","A2DKVCJ3ZDJOQ","either","3","370","","","","","","","0","1","0","","0.7310750685","0.2","0.6","0.8","0.4","0.3451069126","0.7095492128","0.4227014292","0.7310750685","","","","","","","","","","","","76","L","3","","","127","main_expt",""
"","bandit","207","550719","0.0-168.0-0.0","42987423","wem/bandit_either_3","A2DKVCJ3ZDJOQ","either","3","452","","","","","","","0","1","0","","0.6582635175","0.2","0.6","0.8","0.4","0.3129298861","0.711577854","0.543317668","0.6582635175","","","","","","","","","","","","76","L","3","","","128","main_expt",""
"","bandit","208","552502","0.0-169.0-0.0","42987423","wem/bandit_either_3","A2DKVCJ3ZDJOQ","either","3","273","","","","","","","0","0","1","","0.7529887683","0.2","0.6","0.8","0.4","0.3507055597","0.7022761705","0.5906282681","0.7529887683","","","","","","","","","","","","76","L","3","","","129","main_expt",""
"","bandit","209","554467","0.0-170.0-0.0","42987423","wem/bandit_either_3","A2DKVCJ3ZDJOQ","either","3","450","","","","","","","0","0","1","","0.3753424236","0.2","0.6","0.8","0.4","0.3753424236","0.7309419319","0.6636268631","0.7929301986","","","","","","","","","","","","72","H","0","img/none_selected.jpg","","130","main_expt",""
"","bandit","210","556343","0.0-171.0-0.0","42987423","wem/bandit_either_3","A2DKVCJ3ZDJOQ","either","3","361","","","","","","","0","0","1","0.6904825683","","0.2","0.6","0.8","0.4","","","","","0.3473486375","0.6904825683","0.5686699027","0.8149544693","","","","","","","","74","J","1","","","131","main_expt",""
"","bandit","211","557867","0.0-172.0-0.0","42987423","wem/bandit_either_3","A2DKVCJ3ZDJOQ","either","3","7","","","","","","","1","0","0","0.6564012045","","0.2","0.6","0.8","0.4","","","","","0.303679922","0.7153166113","0.6564012045","0.7626544417","","","","","","","","75","K","2","","","132","main_expt",""
"","bandit","212","559640","0.0-173.0-0.0","42987423","wem/bandit_either_3","A2DKVCJ3ZDJOQ","either","3","257","","","","","","","1","0","0","0.5876654864","","0.2","0.6","0.8","0.4","","","","","0.3385565331","0.8135501627","0.5876654864","0.7584501248","","","","","","","","75","K","2","","","133","main_expt",""
"","bandit","213","561446","0.0-174.0-0.0","42987423","wem/bandit_either_3","A2DKVCJ3ZDJOQ","either","3","296","","","","","","","1","0","0","0.5299368298","","0.2","0.6","0.8","0.4","","","","","0.3686406913","0.7707892239","0.5299368298","0.7905015291","","","","","","","","75","K","2","","","134","main_expt",""
"","bandit","214","564537","0.0-175.0-0.0","42987423","wem/bandit_either_3","A2DKVCJ3ZDJOQ","either","3","1579","","","","","","","0","0","1","0.4547966061","","0.2","0.6","0.8","0.4","","","","","0.3672202126","0.7689088841","0.4547966061","0.7515189777","","","","","","","","75","K","2","","","135","main_expt",""
"","bandit","215","566296","0.0-176.0-0.0","42987423","wem/bandit_either_3","A2DKVCJ3ZDJOQ","either","3","245","","","","","","","1","0","0","0.7293518859","","0.2","0.6","0.8","0.4","","","","","0.4064769993","0.6641324257","0.5290841583","0.7293518859","","","","","","","","76","L","3","","","136","main_expt",""
"","bandit","216","568409","0.0-177.0-0.0","42987423","wem/bandit_either_3","A2DKVCJ3ZDJOQ","either","3","605","","","","","","","1","0","0","0.7286216209","","0.2","0.6","0.8","0.4","","","","","0.3492503667","0.635388201","0.419904672","0.7286216209","","","","","","","","76","L","3","","","137","main_expt",""
"","bandit","217","570341","0.0-178.0-0.0","42987423","wem/bandit_either_3","A2DKVCJ3ZDJOQ","either","3","420","","","","","","","0","0","1","0.7425921641","","0.2","0.6","0.8","0.4","","","","","0.3315752647","0.6889508363","0.4532768315","0.7425921641","","","","","","","","76","L","3","","","138","main_expt",""
"","bandit","218","572051","0.0-179.0-0.0","42987423","wem/bandit_either_3","A2DKVCJ3ZDJOQ","either","3","199","","","","","","","1","0","0","0.3080831972","","0.2","0.6","0.8","0.4","","","","","0.3080831972","0.6481427694","0.4194835996","0.7356638012","","","","","","","","72","H","0","img/none_selected.jpg","","139","main_expt",""
"","bandit","219","573802","0.0-180.0-0.0","42987423","wem/bandit_either_3","A2DKVCJ3ZDJOQ","either","3","242","","","","","","","0","1","0","","0.3254670704","0.2","0.6","0.8","0.4","0.3254670704","0.6497449761","0.420008375","0.7334346803","","","","","","","","","","","","72","H","0","img/none_selected.jpg","","140","main_expt",""
"","bandit","220","575801","0.0-181.0-0.0","42987423","wem/bandit_either_3","A2DKVCJ3ZDJOQ","either","3","489","","","","","","","0","1","0","","0.3452870884","0.2","0.6","0.8","0.4","0.3452870884","0.7328205829","0.3908595681","0.7737071977","","","","","","","","","","","","72","H","0","img/none_selected.jpg","","141","main_expt",""
"","bandit","221","577554","0.0-182.0-0.0","42987423","wem/bandit_either_3","A2DKVCJ3ZDJOQ","either","3","241","","","","","","","0","0","1","","0.2659846132","0.2","0.6","0.8","0.4","0.2659846132","0.6396752577","0.3994278682","0.7912630164","","","","","","","","","","","","72","H","0","img/none_selected.jpg","","142","main_expt",""
"","bandit","222","579148","0.0-183.0-0.0","42987423","wem/bandit_either_3","A2DKVCJ3ZDJOQ","either","3","83","","","","","","","1","0","0","0.5974809775","","0.2","0.6","0.8","0.4","","","","","0.2549781044","0.5974809775","0.3137486051","0.7709923268","","","","","","","","74","J","1","","","143","main_expt",""
"","bandit","223","580799","0.0-184.0-0.0","42987423","wem/bandit_either_3","A2DKVCJ3ZDJOQ","either","3","137","","","","","","","0","0","1","","0.5953980303","0.2","0.6","0.8","0.4","0.3603981418","0.5953980303","0.3961992406","0.7492848764","","","","","","","","","","","","74","J","1","","","144","main_expt",""
"","bandit","224","582703","0.0-185.0-0.0","42987423","wem/bandit_either_3","A2DKVCJ3ZDJOQ","either","3","388","","","","","","","0","0","1","0.3186856111","","0.2","0.6","0.8","0.4","","","","","0.3682949958","0.6215671736","0.3186856111","0.7343485297","","","","","","","","75","K","2","","","145","main_expt",""
"","bandit","225","584271","0.0-186.0-0.0","42987423","wem/bandit_either_3","A2DKVCJ3ZDJOQ","either","3","58","","","","","","","0","1","0","","0.7701032705","0.2","0.6","0.8","0.4","0.5028772858","0.5766937592","0.2724247948","0.7701032705","","","","","","","","","","","","76","L","3","","","146","main_expt",""
"","bandit","226","586081","0.0-187.0-0.0","42987423","wem/bandit_either_3","A2DKVCJ3ZDJOQ","either","3","295","","","","","","","1","0","0","0.7521601774","","0.2","0.6","0.8","0.4","","","","","0.4186890645","0.4600492943","0.2844288079","0.7521601774","","","","","","","","76","L","3","","","147","main_expt",""
"","bandit","227","587983","0.0-188.0-0.0","42987423","wem/bandit_either_3","A2DKVCJ3ZDJOQ","either","3","393","","","","","","","0","1","0","","0.7762143641","0.2","0.6","0.8","0.4","0.3928328601","0.4575448178","0.3095389551","0.7762143641","","","","","","","","","","","","76","L","3","","","148","main_expt",""
"","bandit","228","590005","0.0-189.0-0.0","42987423","wem/bandit_either_3","A2DKVCJ3ZDJOQ","either","3","510","","","","","","","0","0","1","","0.716016993","0.2","0.6","0.8","0.4","0.4220063763","0.3840278576","0.2464654743","0.716016993","","","","","","","","","","","","76","L","3","","","149","main_expt",""
"","bandit","229","591527","0.0-190.0-0.0","42987423","wem/bandit_either_3","A2DKVCJ3ZDJOQ","either","3","11","","","","","","","0","0","1","","0.3206822378","0.2","0.6","0.8","0.4","0.3206822378","0.3004406684","0.2088091358","0.7182774931","","","","","","","","","","","","72","H","0","img/none_selected.jpg","","150","main_expt",""
"","bandit","230","593501","0.0-191.0-0.0","42987423","wem/bandit_either_3","A2DKVCJ3ZDJOQ","either","3","463","","","","","","","1","0","0","0.2769981479","","0.2","0.6","0.8","0.4","","","","","0.3380172956","0.2769981479","0.2670014618","0.8028216805","","","","","","","","74","J","1","","","151","main_expt",""
"","bandit","231","595413","0.0-192.0-0.0","42987423","wem/bandit_either_3","A2DKVCJ3ZDJOQ","either","3","395","","","","","","","0","0","1","","0.40565407","0.2","0.6","0.8","0.4","0.2461440624","0.40565407","0.3100930243","0.8634692279","","","","","","","","","","","","74","J","1","","","152","main_expt",""
"","bandit","232","597496","0.0-193.0-0.0","42987423","wem/bandit_either_3","A2DKVCJ3ZDJOQ","either","3","571","","","","","","","0","0","1","","0.3796096158","0.2","0.6","0.8","0.4","0.1852716423","0.3829351634","0.3796096158","0.7719190238","","","","","","","","","","","","75","K","2","","","153","main_expt",""
"","bandit","233","599741","0.0-194.0-0.0","42987423","wem/bandit_either_3","A2DKVCJ3ZDJOQ","either","3","726","","","","","","","1","0","0","0.8343429945","","0.2","0.6","0.8","0.4","","","","","0.1660439368","0.4912137185","0.2265028128","0.8343429945","","","","","","","","76","L","3","","","154","main_expt",""
"","bandit","234","601700","0.0-195.0-0.0","42987423","wem/bandit_either_3","A2DKVCJ3ZDJOQ","either","3","443","","","","","","","0","1","0","","0.7908731232","0.2","0.6","0.8","0.4","0.2241607793","0.5312535156","0.2135741777","0.7908731232","","","","","","","","","","","","76","L","3","","","155","main_expt",""
"","bandit","235","604861","0.0-196.0-0.0","42987423","wem/bandit_either_3","A2DKVCJ3ZDJOQ","either","3","1644","","","","","","","0","1","0","","0.7848911391","0.2","0.6","0.8","0.4","0.1566338899","0.5747898199","0.1338357519","0.7848911391","","","","","","","","","","","","76","L","3","","","156","main_expt",""
"","bandit","236","606450","0.0-197.0-0.0","42987423","wem/bandit_either_3","A2DKVCJ3ZDJOQ","either","3","63","","","","","","","1","0","0","0.7467155263","","0.2","0.6","0.8","0.4","","","","","0.1839373886","0.5948125822","0.1344370697","0.7467155263","","","","","","","","76","L","3","","","157","main_expt",""
"","bandit","237","609330","0.0-198.0-0.0","42987423","wem/bandit_either_3","A2DKVCJ3ZDJOQ","either","3","1366","","","","","","","0","1","0","","0.7413618202","0.2","0.6","0.8","0.4","0.155802242","0.6533804049","0.1217930933","0.7413618202","","","","","","","","","","","","76","L","3","","","158","main_expt",""
"","bandit","238","610938","0.0-199.0-0.0","42987423","wem/bandit_either_3","A2DKVCJ3ZDJOQ","either","3","91","","","","","","","1","0","0","0.6882043704","","0.2","0.6","0.8","0.4","","","","","0.2304237345","0.5777198579","0.08524485746","0.6882043704","","","","","","","","76","L","3","","","159","main_expt",""
"","bandit","239","612645","0.0-200.0-0.0","42987423","wem/bandit_either_3","A2DKVCJ3ZDJOQ","either","3","197","","","","","","","1","0","0","0.7253096401","","0.2","0.6","0.8","0.4","","","","","0.2242026456","0.6777741118","0.07332219892","0.7253096401","","","","","","","","76","L","3","","","160","main_expt",""
"","bandit","240","614305","0.0-201.0-0.0","42987423","wem/bandit_either_3","A2DKVCJ3ZDJOQ","either","3","150","","","","","","","0","1","0","","0.6989182833","0.2","0.6","0.8","0.4","0.2708915048","0.6249074267","0.1063489691","0.6989182833","","","","","","","","","","","","76","L","3","","","161","main_expt",""
"","bandit","241","616484","0.0-202.0-0.0","42987423","wem/bandit_either_3","A2DKVCJ3ZDJOQ","either","3","667","","","","","","","0","1","0","","0.7679575172","0.2","0.6","0.8","0.4","0.2921592604","0.6755041601","0.09670310095","0.7679575172","","","","","","","","","","","","76","L","3","","","162","main_expt",""
"","bandit","242","618743","0.0-203.0-0.0","42987423","wem/bandit_either_3","A2DKVCJ3ZDJOQ","either","3","742","","","","","","","0","1","0","","0.6877390752","0.2","0.6","0.8","0.4","0.2050535257","0.6461818487","0.1266359811","0.6877390752","","","","","","","","","","","","76","L","3","","","163","main_expt",""
"","bandit","243","621209","0.0-204.0-0.0","42987423","wem/bandit_either_3","A2DKVCJ3ZDJOQ","either","3","944","","","","","","","1","0","0","0.6957575266","","0.2","0.6","0.8","0.4","","","","","0.1998759094","0.76368027","0.1212611996","0.6957575266","","","","","","","","76","L","3","","","164","main_expt",""
"","bandit","244","623425","0.0-205.0-0.0","42987423","wem/bandit_either_3","A2DKVCJ3ZDJOQ","either","3","679","","","","","","","0","0","1","0.6760148625","","0.2","0.6","0.8","0.4","","","","","0.1821974317","0.8400099296","0.1917887173","0.6760148625","","","","","","","","76","L","3","","","165","main_expt",""
"","bandit","245","625616","0.0-206.0-0.0","42987423","wem/bandit_either_3","A2DKVCJ3ZDJOQ","either","3","673","","","","","","","0","0","1","","0.2916844583","0.2","0.6","0.8","0.4","0.2916844583","0.8573275969","0.1560613016","0.6463317238","","","","","","","","","","","","72","H","0","img/none_selected.jpg","","166","main_expt",""
"","bandit","246","627476","0.0-207.0-0.0","42987423","wem/bandit_either_3","A2DKVCJ3ZDJOQ","either","3","340","","","","","","","0","1","0","","0.7735369509","0.2","0.6","0.8","0.4","0.3087465624","0.7735369509","0.2214887095","0.5613055562","","","","","","","","","","","","74","J","1","","","167","main_expt",""
"","bandit","247","629853","0.0-208.0-0.0","42987423","wem/bandit_either_3","A2DKVCJ3ZDJOQ","either","3","865","","","","","","","1","0","0","0.8091314607","","0.2","0.6","0.8","0.4","","","","","0.3896626528","0.8091314607","0.3463453368","0.5586162784","","","","","","","","74","J","1","","","168","main_expt",""
"","bandit","248","631691","0.0-209.0-0.0","42987423","wem/bandit_either_3","A2DKVCJ3ZDJOQ","either","3","326","","","","","","","1","0","0","0.8364166478","","0.2","0.6","0.8","0.4","","","","","0.4458805252","0.8364166478","0.3222551453","0.597448185","","","","","","","","74","J","1","","","169","main_expt",""
"","bandit","249","633668","0.0-210.0-0.0","42987423","wem/bandit_either_3","A2DKVCJ3ZDJOQ","either","3","463","","","","","","","1","0","0","0.7867883415","","0.2","0.6","0.8","0.4","","","","","0.4844269655","0.7867883415","0.2556410415","0.5351242352","","","","","","","","74","J","1","","","170","main_expt",""
"","bandit","250","635614","0.0-211.0-0.0","42987423","wem/bandit_either_3","A2DKVCJ3ZDJOQ","either","3","433","","","","","","","0","1","0","","0.8728822524","0.2","0.6","0.8","0.4","0.4858642724","0.8728822524","0.2248109201","0.4819966971","","","","","","","","","","","","74","J","1","","","171","main_expt",""
"","bandit","251","637618","0.0-212.0-0.0","42987423","wem/bandit_either_3","A2DKVCJ3ZDJOQ","either","3","484","","","","","","","1","0","0","0.7804912391","","0.2","0.6","0.8","0.4","","","","","0.5060245996","0.7804912391","0.3468742366","0.4038669266","","","","","","","","74","J","1","","","172","main_expt",""
"","bandit","252","642163","0.0-213.0-0.0","42987423","wem/bandit_either_3","A2DKVCJ3ZDJOQ","either","3","3028","","","","","","","0","0","1","0.7728490534","","0.2","0.6","0.8","0.4","","","","","0.5413528159","0.7728490534","0.234408543","0.3102533384","","","","","","","","74","J","1","","","173","main_expt",""
"","bandit","253","643888","0.0-214.0-0.0","42987423","wem/bandit_either_3","A2DKVCJ3ZDJOQ","either","3","205","","","","","","","0","0","1","0.1404050277","","0.2","0.6","0.8","0.4","","","","","0.6505326818","0.814185781","0.1404050277","0.3818943333","","","","","","","","75","K","2","","","174","main_expt",""
"","bandit","254","646861","0.0-215.0-0.0","42987423","wem/bandit_either_3","A2DKVCJ3ZDJOQ","either","3","1457","","","","","","","0","0","1","0.2893198216","","0.2","0.6","0.8","0.4","","","","","0.6470977149","0.8010682597","0.1081611795","0.2893198216","","","","","","","","76","L","3","","","175","main_expt",""
"","bandit","255","648874","0.0-216.0-0.0","42987423","wem/bandit_either_3","A2DKVCJ3ZDJOQ","either","3","499","","","","","","","0","1","0","","0.6844229635","0.2","0.6","0.8","0.4","0.6844229635","0.7083228223","0.0730283124","0.226416223","","","","","","","","","","","","72","H","0","img/none_selected.jpg","","176","main_expt",""
"","bandit","256","651880","0.0-217.0-0.0","42987423","wem/bandit_either_3","A2DKVCJ3ZDJOQ","either","3","1487","","","","","","","1","0","0","0.6883244284","","0.2","0.6","0.8","0.4","","","","","0.6883244284","0.7408938443","0.07044941978","0.2786676386","","","","","","","","72","H","0","img/none_selected.jpg","","177","main_expt",""
"","bandit","257","654574","0.0-218.0-0.0","42987423","wem/bandit_either_3","A2DKVCJ3ZDJOQ","either","3","1164","","","","","","","0","1","0","","0.6098590842","0.2","0.6","0.8","0.4","0.6098590842","0.6621187214","0.06886985111","0.2279078815","","","","","","","","","","","","72","H","0","img/none_selected.jpg","","178","main_expt",""
"","bandit","258","657632","0.0-219.0-0.0","42987423","wem/bandit_either_3","A2DKVCJ3ZDJOQ","either","3","1517","","","","","","","0","1","0","","0.5924449164","0.2","0.6","0.8","0.4","0.5924449164","0.6765487854","0.07254371148","0.1690126781","","","","","","","","","","","","72","H","0","img/none_selected.jpg","","179","main_expt",""
"","bandit","259","660252","0.0-220.0-0.0","42987423","wem/bandit_either_3","A2DKVCJ3ZDJOQ","either","3","1105","","","","","","","0","0","1","0.4915111467","","0.2","0.6","0.8","0.4","","","","","0.4915111467","0.7276027883","0.055057054","0.1356066944","","","","","","","","72","H","0","img/none_selected.jpg","","180","main_expt",""
"","bandit","260","662012","0.0-221.0-0.0","42987423","wem/bandit_either_3","A2DKVCJ3ZDJOQ","either","3","247","","","","","","","0","0","1","0.7083410305","","0.2","0.6","0.8","0.4","","","","","0.4713933083","0.7083410305","0.1187845962","0.1889441784","","","","","","","","74","J","1","","","181","main_expt",""
"","bandit","261","663641","0.0-222.0-0.0","42987423","wem/bandit_either_3","A2DKVCJ3ZDJOQ","either","3","109","","","","","","","1","0","0","0.1304227184","","0.2","0.6","0.8","0.4","","","","","0.500114893","0.6489729838","0.1304227184","0.2163976064","","","","","","","","75","K","2","","","182","main_expt",""
"","bandit","262","665562","0.0-223.0-0.0","42987423","wem/bandit_either_3","A2DKVCJ3ZDJOQ","either","3","411","","","","","","","0","0","1","0.1374638341","","0.2","0.6","0.8","0.4","","","","","0.4949273894","0.6956751073","0.1374638341","0.1902524086","","","","","","","","75","K","2","","","183","main_expt",""
"","bandit","263","667403","0.0-224.0-0.0","42987423","wem/bandit_either_3","A2DKVCJ3ZDJOQ","either","3","328","","","","","","","0","0","1","0.2265805791","","0.2","0.6","0.8","0.4","","","","","0.4271361476","0.6066537109","0.1914365344","0.2265805791","","","","","","","","76","L","3","","","184","main_expt",""
"","bandit","264","669116","0.0-225.0-0.0","42987423","wem/bandit_either_3","A2DKVCJ3ZDJOQ","either","3","200","","","","","","","0","1","0","","0.4558255176","0.2","0.6","0.8","0.4","0.4558255176","0.6337362372","0.1939872458","0.1843452782","","","","","","","","","","","","72","H","0","img/none_selected.jpg","","185","main_expt",""
"","bandit","265","671279","0.0-226.0-0.0","42987423","wem/bandit_either_3","A2DKVCJ3ZDJOQ","either","3","640","","","","","","","0","0","1","","0.4031301461","0.2","0.6","0.8","0.4","0.4031301461","0.5908962551","0.2219937035","0.1898387663","","","","","","","","","","","","72","H","0","img/none_selected.jpg","","186","main_expt",""
"","bandit","266","672907","0.0-227.0-0.0","42987423","wem/bandit_either_3","A2DKVCJ3ZDJOQ","either","3","109","","","","","","","0","0","1","0.7651761031","","0.2","0.6","0.8","0.4","","","","","0.3993697366","0.7651761031","0.2024523472","0.210498268","","","","","","","","74","J","1","","","187","main_expt",""
"","bandit","267","674442","0.0-228.0-0.0","42987423","wem/bandit_either_3","A2DKVCJ3ZDJOQ","either","3","21","","","","","","","0","0","1","","0.1930401344","0.2","0.6","0.8","0.4","0.4478687375","0.7928336054","0.1930401344","0.2368649008","","","","","","","","","","","","75","K","2","","","188","main_expt",""
"","bandit","268","676035","0.0-229.0-0.0","42987423","wem/bandit_either_3","A2DKVCJ3ZDJOQ","either","3","81","","","","","","","1","0","0","0.291591963","","0.2","0.6","0.8","0.4","","","","","0.3699601256","0.8917358491","0.3255404916","0.291591963","","","","","","","","76","L","3","","","189","main_expt",""
"","bandit","269","677967","0.0-230.0-0.0","42987423","wem/bandit_either_3","A2DKVCJ3ZDJOQ","either","3","417","","","","","","","1","0","0","0.4411779124","","0.2","0.6","0.8","0.4","","","","","0.3723251068","0.898448025","0.2364063212","0.4411779124","","","","","","","","76","L","3","","","190","main_expt",""
"","bandit","270","680309","0.0-231.0-0.0","42987423","wem/bandit_either_3","A2DKVCJ3ZDJOQ","either","3","830","","","","","","","1","0","0","0.3968704403","","0.2","0.6","0.8","0.4","","","","","0.3309849287","0.9186708851","0.2662767285","0.3968704403","","","","","","","","76","L","3","","","191","main_expt",""
"","bandit","271","682443","0.0-232.0-0.0","42987423","wem/bandit_either_3","A2DKVCJ3ZDJOQ","either","3","605","","","","","","","0","0","1","0.4512817608","","0.2","0.6","0.8","0.4","","","","","0.2865625263","0.9314477517","0.2815174114","0.4512817608","","","","","","","","76","L","3","","","192","main_expt",""
"","bandit","272","684248","0.0-233.0-0.0","42987423","wem/bandit_either_3","A2DKVCJ3ZDJOQ","either","3","289","","","","","","","0","0","1","0.2862811746","","0.2","0.6","0.8","0.4","","","","","0.2862811746","0.9090465067","0.3461293965","0.4788006455","","","","","","","","72","H","0","img/none_selected.jpg","","193","main_expt",""
"","bandit","273","685769","0.0-234.0-0.0","42987423","wem/bandit_either_3","A2DKVCJ3ZDJOQ","either","3","1","","","","","","","0","1","0","","0.8762249788","0.2","0.6","0.8","0.4","0.2785288642","0.8762249788","0.3303735913","0.4651889587","","","","","","","","","","","","74","J","1","","","194","main_expt",""
"","bandit","274","687627","0.0-235.0-0.0","42987423","wem/bandit_either_3","A2DKVCJ3ZDJOQ","either","3","348","","","","","","","0","0","1","0.8623185747","","0.2","0.6","0.8","0.4","","","","","0.2283941808","0.8623185747","0.3194565039","0.4718629942","","","","","","","","74","J","1","","","195","main_expt",""
"","bandit","275","689521","0.0-236.0-0.0","42987423","wem/bandit_either_3","A2DKVCJ3ZDJOQ","either","3","380","","","","","","","0","0","1","0.4103944464","","0.2","0.6","0.8","0.4","","","","","0.214282227","0.7745977574","0.4103944464","0.3825708332","","","","","","","","75","K","2","","","196","main_expt",""
"","bandit","276","691587","0.0-237.0-0.0","42987423","wem/bandit_either_3","A2DKVCJ3ZDJOQ","either","3","553","","","","","","","0","1","0","","0.4530864699","0.2","0.6","0.8","0.4","0.1422959513","0.7723069829","0.4445726534","0.4530864699","","","","","","","","","","","","76","L","3","","","197","main_expt",""
"","bandit","277","693446","0.0-238.0-0.0","42987423","wem/bandit_either_3","A2DKVCJ3ZDJOQ","either","3","348","","","","","","","0","0","1","","0.4337652667","0.2","0.6","0.8","0.4","0.1126324943","0.7084082875","0.4351718099","0.4337652667","","","","","","","","","","","","76","L","3","","","198","main_expt",""
"","bandit","278","695075","0.0-239.0-0.0","42987423","wem/bandit_either_3","A2DKVCJ3ZDJOQ","either","3","121","","","","","","","0","0","1","","0.1144166609","0.2","0.6","0.8","0.4","0.1144166609","0.7016883558","0.4641294157","0.4138332966","","","","","","","","","","","","72","H","0","img/none_selected.jpg","","199","main_expt",""
"","bandit","279","697222","0.0-240.0-0.0","42987423","wem/bandit_either_3","A2DKVCJ3ZDJOQ","either","3","636","","","","","","","1","0","0","0.6504384346","","0.2","0.6","0.8","0.4","","","","","0.1518003708","0.6504384346","0.4468687069","0.5005175686","","","","","","","","74","J","1","","","200","main_expt",""
"","bandit","280","699055","0.0-241.0-0.0","42987423","wem/bandit_either_3","A2DKVCJ3ZDJOQ","either","3","321","","","","","","","1","0","0","0.7904945102","","0.2","0.6","0.8","0.4","","","","","0.1974433607","0.7904945102","0.5087435212","0.5122642399","","","","","","","","74","J","1","","","201","main_expt",""
"","bandit","281","700857","0.0-242.0-0.0","42987423","wem/bandit_either_3","A2DKVCJ3ZDJOQ","either","3","290","","","","","","","0","1","0","","0.7039472437","0.2","0.6","0.8","0.4","0.2000842809","0.7039472437","0.4992132835","0.5414597976","","","","","","","","","","","","74","J","1","","","202","main_expt",""
"","bandit","282","702509","0.0-243.0-0.0","42987423","wem/bandit_either_3","A2DKVCJ3ZDJOQ","either","3","133","","","","","","","1","0","0","0.7478807213","","0.2","0.6","0.8","0.4","","","","","0.1715580826","0.7478807213","0.4859842053","0.4993649945","","","","","","","","74","J","1","","","203","main_expt",""
"","bandit","283","704451","0.0-244.0-0.0","42987423","wem/bandit_either_3","A2DKVCJ3ZDJOQ","either","3","428","","","","","","","1","0","0","0.7346150791","","0.2","0.6","0.8","0.4","","","","","0.3028604286","0.7346150791","0.6162755314","0.4056752737","","","","","","","","74","J","1","","","204","main_expt",""
"","bandit","284","706339","0.0-245.0-0.0","42987423","wem/bandit_either_3","A2DKVCJ3ZDJOQ","either","3","368","","","","","","","0","0","1","0.7240623961","","0.2","0.6","0.8","0.4","","","","","0.3714949669","0.7240623961","0.6204906845","0.4174768156","","","","","","","","74","J","1","","","205","main_expt",""
"","bandit","285","708088","0.0-246.0-0.0","42987423","wem/bandit_either_3","A2DKVCJ3ZDJOQ","either","3","234","","","","","","","0","0","1","0.733657826","","0.2","0.6","0.8","0.4","","","","","0.3034865557","0.733657826","0.6390595606","0.4364097613","","","","","","","","74","J","1","","","206","main_expt",""
"","bandit","286","709948","0.0-247.0-0.0","42987423","wem/bandit_either_3","A2DKVCJ3ZDJOQ","either","3","349","","","","","","","0","0","1","","0.6022157482","0.2","0.6","0.8","0.4","0.2688105372","0.6797091947","0.6022157482","0.4666062126","","","","","","","","","","","","75","K","2","","","207","main_expt",""
"","bandit","287","711752","0.0-248.0-0.0","42987423","wem/bandit_either_3","A2DKVCJ3ZDJOQ","either","3","280","","","","","","","0","1","0","","0.4594719295","0.2","0.6","0.8","0.4","0.2240001326","0.472157919","0.6598502583","0.4594719295","","","","","","","","","","","","76","L","3","","","208","main_expt",""
"","bandit","288","713739","0.0-249.0-0.0","42987423","wem/bandit_either_3","A2DKVCJ3ZDJOQ","either","3","446","","","","","","","0","1","0","","0.5415101973","0.2","0.6","0.8","0.4","0.3284172364","0.4993955773","0.6329069529","0.5415101973","","","","","","","","","","","","76","L","3","","","209","main_expt",""
"","bandit","289","715595","0.0-250.0-0.0","42987423","wem/bandit_either_3","A2DKVCJ3ZDJOQ","either","3","339","","","","","","","0","1","0","","0.5627952802","0.2","0.6","0.8","0.4","0.3178667136","0.3923888982","0.5418549626","0.5627952802","","","","","","","","","","","","76","L","3","","","210","main_expt",""
"","bandit","290","717506","0.0-251.0-0.0","42987423","wem/bandit_either_3","A2DKVCJ3ZDJOQ","either","3","393","","","","","","","0","1","0","","0.5779033475","0.2","0.6","0.8","0.4","0.278360526","0.4183885941","0.7265410197","0.5779033475","","","","","","","","","","","","76","L","3","","","211","main_expt",""
"","bandit","291","719306","0.0-252.0-0.0","42987423","wem/bandit_either_3","A2DKVCJ3ZDJOQ","either","3","284","","","","","","","1","0","0","0.6169713091","","0.2","0.6","0.8","0.4","","","","","0.2720231684","0.5367383083","0.6550819281","0.6169713091","","","","","","","","76","L","3","","","212","main_expt",""
"","bandit","292","721551","0.0-253.0-0.0","42987423","wem/bandit_either_3","A2DKVCJ3ZDJOQ","either","3","732","","","","","","","0","0","1","","0.5688165975","0.2","0.6","0.8","0.4","0.3445332441","0.5779451767","0.5812500281","0.5688165975","","","","","","","","","","","","76","L","3","","","213","main_expt",""
"","bandit","293","723834","0.0-254.0-0.0","42987423","wem/bandit_either_3","A2DKVCJ3ZDJOQ","either","3","765","","","","","","","0","1","0","","0.5354690829","0.2","0.6","0.8","0.4","0.331154659","0.5615700258","0.6912727382","0.5354690829","","","","","","","","","","","","76","L","3","","","214","main_expt",""
"","bandit","294","725659","0.0-255.0-0.0","42987423","wem/bandit_either_3","A2DKVCJ3ZDJOQ","either","3","314","","","","","","","0","0","1","","0.4395706401","0.2","0.6","0.8","0.4","0.3168016653","0.5361399643","0.695573978","0.4395706401","","","","","","","","","","","","76","L","3","","","215","main_expt",""
"","bandit","295","727336","0.0-256.0-0.0","42987423","wem/bandit_either_3","A2DKVCJ3ZDJOQ","either","3","164","","","","","","","0","0","1","","0.2870858596","0.2","0.6","0.8","0.4","0.2870858596","0.620750855","0.6531454011","0.4522294324","","","","","","","","","","","","72","H","0","img/none_selected.jpg","","216","main_expt",""
"","bandit","296","729014","0.0-257.0-0.0","42987423","wem/bandit_either_3","A2DKVCJ3ZDJOQ","either","3","165","","","","","","","0","1","0","","0.4812239037","0.2","0.6","0.8","0.4","0.2877345098","0.4812239037","0.6459690495","0.4141575353","","","","","","","","","","","","74","J","1","","","217","main_expt",""
"","bandit","297","731510","0.0-258.0-0.0","42987423","wem/bandit_either_3","A2DKVCJ3ZDJOQ","either","3","986","","","","","","","0","1","0","","0.4028497994","0.2","0.6","0.8","0.4","0.3608492067","0.4028497994","0.6679944541","0.3009722504","","","","","","","","","","","","74","J","1","","","218","main_expt",""
"","bandit","298","733510","0.0-259.0-0.0","42987423","wem/bandit_either_3","A2DKVCJ3ZDJOQ","either","3","490","","","","","","","0","1","0","","0.4441021312","0.2","0.6","0.8","0.4","0.4380407461","0.4441021312","0.7159195147","0.2706893249","","","","","","","","","","","","74","J","1","","","219","main_expt",""
"","bandit","299","735650","0.0-260.0-0.0","42987423","wem/bandit_either_3","A2DKVCJ3ZDJOQ","either","3","628","","","","","","","0","1","0","","0.4867825248","0.2","0.6","0.8","0.4","0.4769938592","0.4867825248","0.6874484601","0.3821277721","","","","","","","","","","","","74","J","1","","","220","main_expt",""
"","bandit","300","737745","0.0-261.0-0.0","42987423","wem/bandit_either_3","A2DKVCJ3ZDJOQ","either","3","582","","","","","","","0","1","0","","0.5428062785","0.2","0.6","0.8","0.4","0.4612627877","0.5428062785","0.6528128226","0.4534214389","","","","","","","","","","","","74","J","1","","","221","main_expt",""
"","bandit","301","739623","0.0-262.0-0.0","42987423","wem/bandit_either_3","A2DKVCJ3ZDJOQ","either","3","361","","","","","","","0","0","1","0.5993321864","","0.2","0.6","0.8","0.4","","","","","0.4192901336","0.5993321864","0.6836467719","0.6049712458","","","","","","","","74","J","1","","","222","main_expt",""
"","bandit","302","741654","0.0-263.0-0.0","42987423","wem/bandit_either_3","A2DKVCJ3ZDJOQ","either","3","509","","","","","","","0","0","1","0.7820879334","","0.2","0.6","0.8","0.4","","","","","0.5559965486","0.4920604154","0.7820879334","0.6389506418","","","","","","","","75","K","2","","","223","main_expt",""
"","bandit","303","743380","0.0-264.0-0.0","42987423","wem/bandit_either_3","A2DKVCJ3ZDJOQ","either","3","199","","","","","","","0","1","0","","0.6677375732","0.2","0.6","0.8","0.4","0.6687933923","0.5344282052","0.763226653","0.6677375732","","","","","","","","","","","","76","L","3","","","224","main_expt",""
"","bandit","304","746540","0.0-265.0-0.0","42987423","wem/bandit_either_3","A2DKVCJ3ZDJOQ","either","3","1645","","","","","","","0","0","1","","0.7706853934","0.2","0.6","0.8","0.4","0.5954484576","0.5583452501","0.6931961842","0.7706853934","","","","","","","","","","","","76","L","3","","","225","main_expt",""
"","bandit","305","752093","0.0-266.0-0.0","42987423","wem/bandit_either_3","A2DKVCJ3ZDJOQ","either","3","4036","","","","","","","0","1","0","","0.6152447968","0.2","0.6","0.8","0.4","0.6152447968","0.5126042404","0.6633974694","0.7624197083","","","","","","","","","","","","72","H","0","img/none_selected.jpg","","226","main_expt",""
"","bandit","306","754470","0.0-267.0-0.0","42987423","wem/bandit_either_3","A2DKVCJ3ZDJOQ","either","3","851","","","","","","","0","0","1","","0.6597553912","0.2","0.6","0.8","0.4","0.6597553912","0.5720595628","0.6567175756","0.7287840805","","","","","","","","","","","","72","H","0","img/none_selected.jpg","","227","main_expt",""
"","bandit","307","756621","0.0-268.0-0.0","42987423","wem/bandit_either_3","A2DKVCJ3ZDJOQ","either","3","633","","","","","","","0","1","0","","0.594895186","0.2","0.6","0.8","0.4","0.594895186","0.6134710885","0.6052730858","0.7993891034","","","","","","","","","","","","72","H","0","img/none_selected.jpg","","228","main_expt",""
"","bandit","308","759088","0.0-269.0-0.0","42987423","wem/bandit_either_3","A2DKVCJ3ZDJOQ","either","3","950","","","","","","","0","0","1","","0.5722559027","0.2","0.6","0.8","0.4","0.5722559027","0.5669106804","0.5548990383","0.8374027748","","","","","","","","","","","","72","H","0","img/none_selected.jpg","","229","main_expt",""
"","bandit","309","760718","0.0-270.0-0.0","42987423","wem/bandit_either_3","A2DKVCJ3ZDJOQ","either","3","116","","","","","","","0","1","0","","0.6286782819","0.2","0.6","0.8","0.4","0.5409090622","0.6286782819","0.6017114108","0.8414873787","","","","","","","","","","","","74","J","1","","","230","main_expt",""
"","bandit","310","762819","0.0-271.0-0.0","42987423","wem/bandit_either_3","A2DKVCJ3ZDJOQ","either","3","589","","","","","","","0","1","0","","0.5594948871","0.2","0.6","0.8","0.4","0.518727512","0.5594948871","0.5525336349","0.8531648874","","","","","","","","","","","","74","J","1","","","231","main_expt",""
"","bandit","311","765191","0.0-272.0-0.0","42987423","wem/bandit_either_3","A2DKVCJ3ZDJOQ","either","3","855","","","","","","","0","1","0","","0.5817998964","0.2","0.6","0.8","0.4","0.5200298571","0.5817998964","0.4493361955","0.8813812612","","","","","","","","","","","","74","J","1","","","232","main_expt",""
"","bandit","312","767015","0.0-273.0-0.0","42987423","wem/bandit_either_3","A2DKVCJ3ZDJOQ","either","3","312","","","","","","","0","0","1","0.5971875981","","0.2","0.6","0.8","0.4","","","","","0.4564343731","0.5971875981","0.5280832246","0.8916766345","","","","","","","","74","J","1","","","233","main_expt",""
"","bandit","313","768748","0.0-274.0-0.0","42987423","wem/bandit_either_3","A2DKVCJ3ZDJOQ","either","3","221","","","","","","","1","0","0","0.6814540918","","0.2","0.6","0.8","0.4","","","","","0.4168065644","0.5227237997","0.6814540918","0.842820862","","","","","","","","75","K","2","","","234","main_expt",""
"","bandit","314","770566","0.0-275.0-0.0","42987423","wem/bandit_either_3","A2DKVCJ3ZDJOQ","either","3","309","","","","","","","1","0","0","0.5518959403","","0.2","0.6","0.8","0.4","","","","","0.4340770274","0.6231997156","0.5518959403","0.7856269381","","","","","","","","75","K","2","","","235","main_expt",""
"","bandit","315","772467","0.0-276.0-0.0","42987423","wem/bandit_either_3","A2DKVCJ3ZDJOQ","either","3","386","","","","","","","0","1","0","","0.4965619817","0.2","0.6","0.8","0.4","0.4489205242","0.558272317","0.4965619817","0.8092971262","","","","","","","","","","","","75","K","2","","","236","main_expt",""
"","bandit","316","774322","0.0-277.0-0.0","42987423","wem/bandit_either_3","A2DKVCJ3ZDJOQ","either","3","338","","","","","","","0","1","0","","0.4762879104","0.2","0.6","0.8","0.4","0.4838648791","0.6118965497","0.4762879104","0.8125536838","","","","","","","","","","","","75","K","2","","","237","main_expt",""
"","bandit","317","776594","0.0-278.0-0.0","42987423","wem/bandit_either_3","A2DKVCJ3ZDJOQ","either","3","754","","","","","","","0","1","0","","0.4991976808","0.2","0.6","0.8","0.4","0.4615645545","0.7415542647","0.4991976808","0.8684257659","","","","","","","","","","","","75","K","2","","","238","main_expt",""
"","bandit","318","779017","0.0-279.0-0.0","42987423","wem/bandit_either_3","A2DKVCJ3ZDJOQ","either","3","912","","","","","","","1","0","0","0.4627972202","","0.2","0.6","0.8","0.4","","","","","0.4263497721","0.794517608","0.4627972202","0.8891050988","","","","","","","","75","K","2","","","239","main_expt",""
"","bandit","319","781472","0.0-280.0-0.0","42987423","wem/bandit_either_3","A2DKVCJ3ZDJOQ","either","3","944","","","","","","","0","1","0","","0.484486763","0.2","0.6","0.8","0.4","0.4372282776","0.7966429163","0.484486763","0.8983693474","","","","","","","","","","","","75","K","2","","","240","main_expt",""
"","bandit","320","783579","0.0-281.0-0.0","42987423","wem/bandit_either_3","A2DKVCJ3ZDJOQ","either","3","594","","","","","","","0","0","1","0.3450886106","","0.2","0.6","0.8","0.4","","","","","0.5558093781","0.7827696357","0.3450886106","0.8608109038","","","","","","","","75","K","2","","","241","main_expt",""
"","bandit","321","785413","0.0-282.0-0.0","42987423","wem/bandit_either_3","A2DKVCJ3ZDJOQ","either","3","323","","","","","","","0","1","0","","0.8807376199","0.2","0.6","0.8","0.4","0.654661817","0.8077769827","0.4066884652","0.8807376199","","","","","","","","","","","","76","L","3","","","242","main_expt",""
"","bandit","322","787187","0.0-283.0-0.0","42987423","wem/bandit_either_3","A2DKVCJ3ZDJOQ","either","3","258","","","","","","","0","1","0","","0.8782163565","0.2","0.6","0.8","0.4","0.5869565726","0.7680675523","0.3574054959","0.8782163565","","","","","","","","","","","","76","L","3","","","243","main_expt",""
"","bandit","323","789159","0.0-284.0-0.0","42987423","wem/bandit_either_3","A2DKVCJ3ZDJOQ","either","3","457","","","","","","","0","1","0","","0.8691088863","0.2","0.6","0.8","0.4","0.6282978891","0.6802465609","0.4200458239","0.8691088863","","","","","","","","","","","","76","L","3","","","244","main_expt",""
"","bandit","324","791601","0.0-285.0-0.0","42987423","wem/bandit_either_3","A2DKVCJ3ZDJOQ","either","3","924","","","","","","","0","1","0","","0.8516976639","0.2","0.6","0.8","0.4","0.5918678021","0.6110509309","0.3587254574","0.8516976639","","","","","","","","","","","","76","L","3","","","245","main_expt",""
"","bandit","325","793635","0.0-286.0-0.0","42987423","wem/bandit_either_3","A2DKVCJ3ZDJOQ","either","3","517","","","","","","","1","0","0","0.9024239937","","0.2","0.6","0.8","0.4","","","","","0.5768832148","0.6490463127","0.3469794694","0.9024239937","","","","","","","","76","L","3","","","246","main_expt",""
