"consent","trial_type","trial_index","time_elapsed","internal_node_id","subjID","study","MID","cond","drift","rt","responses","key_press","expt_phase","like","value","connected","gems","bombs","no_reward","GemPrChosen","BombPrChosen","GainOverPainPr_0","GainOverPainPr_1","GainOverPainPr_2","GainOverPainPr_3","LosePr_0","LosePr_1","LosePr_2","LosePr_3","WinPr_0","WinPr_1","WinPr_2","WinPr_3","Q0","Q1","Q2","gender","age","ethnicity","target","respCharCode","respKey","respChoiceNum","respChoice","practice","trial_counter","trial_label","button_pressed"
"INL_behavioral_consent_30min_online.html","consent","0","9556","0.0-0.0","43391910","wem/bandit_either_3","AEO84PDSWW0W","either","6","","","","","","","","","","","","","","","","","","","","","","","","","","","","","","","","","","","","","","",""
"","survey-text","1","15825","0.0-1.0","43391910","wem/bandit_either_3","AEO84PDSWW0W","either","6","5257","{""Q0"":""AEO84PDSWW0W""}","","","","","","","","","","","","","","","","","","","","","","","","","","","","","","","","","","","","",""
"","text","2","25948","0.0-2.0","43391910","wem/bandit_either_3","AEO84PDSWW0W","either","6","9109","","32","","","","","","","","","","","","","","","","","","","","","","","","","","","","","","","","","","","",""
"","text","3","31924","0.0-3.0","43391910","wem/bandit_either_3","AEO84PDSWW0W","either","6","5971","","32","","","","","","","","","","","","","","","","","","","","","","","","","","","","","","","","","","","",""
"","text","4","47404","0.0-4.0","43391910","wem/bandit_either_3","AEO84PDSWW0W","either","6","15473","","32","","","","","","","","","","","","","","","","","","","","","","","","","","","","","","","","","","","",""
"","text","5","59737","0.0-5.0","43391910","wem/bandit_either_3","AEO84PDSWW0W","either","6","12327","","32","","","","","","","","","","","","","","","","","","","","","","","","","","","","","","","","","","","",""
"","text","6","73997","0.0-6.0","43391910","wem/bandit_either_3","AEO84PDSWW0W","either","6","14252","","32","","","","","","","","","","","","","","","","","","","","","","","","","","","","","","","","","","","",""
"","text","7","79643","0.0-7.0","43391910","wem/bandit_either_3","AEO84PDSWW0W","either","6","5641","","32","","","","","","","","","","","","","","","","","","","","","","","","","","","","","","","","","","","",""
"","text","8","83201","0.0-8.0","43391910","wem/bandit_either_3","AEO84PDSWW0W","either","6","3555","","32","","","","","","","","","","","","","","","","","","","","","","","","","","","","","","","","","","","",""
"","identification","9","92835","0.0-9.0-0.0","43391910","wem/bandit_either_3","AEO84PDSWW0W","either","6","9601","","","","3","3","1","","","","","","","","","","","","","","","","","","","","","","","","the village of Zur","","","","","","","",""
"","identification","10","98487","0.0-9.0-1.0","43391910","wem/bandit_either_3","AEO84PDSWW0W","either","6","4606","","","","3","3","1","","","","","","","","","","","","","","","","","","","","","","","","the village of Nyx","","","","","","","",""
"","text","11","106225","0.0-10.0","43391910","wem/bandit_either_3","AEO84PDSWW0W","either","6","6722","","32","","","","","","","","","","","","","","","","","","","","","","","","","","","","","","","","","","","",""
"","text","12","109027","0.0-11.0","43391910","wem/bandit_either_3","AEO84PDSWW0W","either","6","2797","","32","","","","","","","","","","","","","","","","","","","","","","","","","","","","","","","","","","","",""
"","text","13","111043","0.0-12.0","43391910","wem/bandit_either_3","AEO84PDSWW0W","either","6","2010","","32","","","","","","","","","","","","","","","","","","","","","","","","","","","","","","","","","","","",""
"","text","14","114858","0.0-13.0","43391910","wem/bandit_either_3","AEO84PDSWW0W","either","6","3810","","32","","","","","","","","","","","","","","","","","","","","","","","","","","","","","","","","","","","",""
"","bandit","15","120385","0.0-14.0-0.0","43391910","wem/bandit_either_3","AEO84PDSWW0W","either","6","4000","","","","","","","0","0","1","0","0","","","","","0","","","","0","","","","","","","","","","","74","J","0","img/none_selected_demo.jpg","true","0","",""
"","bandit","16","123058","0.0-15.0-0.0","43391910","wem/bandit_either_3","AEO84PDSWW0W","either","6","1138","","","","","","","0","0","1","0","0","","","","","0","","","","0","","","","","","","","","","","75","K","0","img/none_selected_demo.jpg","true","0","",""
"","text","17","129496","0.0-16.0","43391910","wem/bandit_either_3","AEO84PDSWW0W","either","6","6435","","32","","","","","","","","","","","","","","","","","","","","","","","","","","","","","","","","","","","",""
"","text","18","138360","0.0-17.0","43391910","wem/bandit_either_3","AEO84PDSWW0W","either","6","8861","","32","","","","","","","","","","","","","","","","","","","","","","","","","","","","","","","","","","","",""
"","text","19","143328","0.0-18.0","43391910","wem/bandit_either_3","AEO84PDSWW0W","either","6","4966","","32","","","","","","","","","","","","","","","","","","","","","","","","","","","","","","","","","","","",""
"","text","20","146768","0.0-19.0","43391910","wem/bandit_either_3","AEO84PDSWW0W","either","6","3438","","32","","","","","","","","","","","","","","","","","","","","","","","","","","","","","","","","","","","",""
"","bandit","21","149798","0.0-20.0-0.0","43391910","wem/bandit_either_3","AEO84PDSWW0W","either","6","1505","","","","","","","0","0","1","","0.2","0.5","0.5","","","0.8","0.2","","","","","","","","","","","","","","75","K","1","","true","0","80_20_practice",""
"","bandit","22","156737","0.0-20.0-1.0","43391910","wem/bandit_either_3","AEO84PDSWW0W","either","6","5418","","","","","","","0","0","1","0.2","","0.5","0.5","","","","","","","0.8","0.2","","","","","","","","","","75","K","1","","true","0","80_20_practice",""
"","bandit","23","159160","0.0-20.0-2.0","43391910","wem/bandit_either_3","AEO84PDSWW0W","either","6","895","","","","","","","0","0","1","","0.8","0.5","0.5","","","0.8","0.2","","","","","","","","","","","","","","74","J","0","img/none_selected_demo.jpg","true","0","80_20_practice",""
"","bandit","24","161474","0.0-20.0-3.0","43391910","wem/bandit_either_3","AEO84PDSWW0W","either","6","795","","","","","","","1","0","0","0.8","","0.5","0.5","","","","","","","0.8","0.2","","","","","","","","","","74","J","0","img/none_selected_demo.jpg","true","0","80_20_practice",""
"","bandit","25","163685","0.0-20.0-4.0","43391910","wem/bandit_either_3","AEO84PDSWW0W","either","6","686","","","","","","","0","1","0","","0.8","0.5","0.5","","","0.8","0.2","","","","","","","","","","","","","","74","J","0","img/none_selected_demo.jpg","true","0","80_20_practice",""
"","bandit","26","165831","0.0-20.0-5.0","43391910","wem/bandit_either_3","AEO84PDSWW0W","either","6","608","","","","","","","0","0","1","0.8","","0.5","0.5","","","","","","","0.8","0.2","","","","","","","","","","74","J","0","img/none_selected_demo.jpg","true","0","80_20_practice",""
"","bandit","27","167904","0.0-20.0-6.0","43391910","wem/bandit_either_3","AEO84PDSWW0W","either","6","545","","","","","","","0","0","1","","0.2","0.5","0.5","","","0.8","0.2","","","","","","","","","","","","","","75","K","1","","true","0","80_20_practice",""
"","bandit","28","169732","0.0-20.0-7.0","43391910","wem/bandit_either_3","AEO84PDSWW0W","either","6","297","","","","","","","1","0","0","0.8","","0.5","0.5","","","","","","","0.8","0.2","","","","","","","","","","74","J","0","img/none_selected_demo.jpg","true","0","80_20_practice",""
"","bandit","29","171675","0.0-20.0-8.0","43391910","wem/bandit_either_3","AEO84PDSWW0W","either","6","389","","","","","","","1","0","0","0.8","","0.5","0.5","","","","","","","0.8","0.2","","","","","","","","","","74","J","0","img/none_selected_demo.jpg","true","0","80_20_practice",""
"","bandit","30","173702","0.0-20.0-9.0","43391910","wem/bandit_either_3","AEO84PDSWW0W","either","6","476","","","","","","","1","0","0","0.8","","0.5","0.5","","","","","","","0.8","0.2","","","","","","","","","","74","J","0","img/none_selected_demo.jpg","true","0","80_20_practice",""
"","bandit","31","175694","0.0-20.0-10.0","43391910","wem/bandit_either_3","AEO84PDSWW0W","either","6","448","","","","","","","0","1","0","","0.8","0.5","0.5","","","0.8","0.2","","","","","","","","","","","","","","74","J","0","img/none_selected_demo.jpg","true","0","80_20_practice",""
"","bandit","32","177650","0.0-20.0-11.0","43391910","wem/bandit_either_3","AEO84PDSWW0W","either","6","426","","","","","","","0","1","0","","0.8","0.5","0.5","","","0.8","0.2","","","","","","","","","","","","","","74","J","0","img/none_selected_demo.jpg","true","0","80_20_practice",""
"","bandit","33","179502","0.0-20.0-12.0","43391910","wem/bandit_either_3","AEO84PDSWW0W","either","6","296","","","","","","","0","0","1","","0.8","0.5","0.5","","","0.8","0.2","","","","","","","","","","","","","","74","J","0","img/none_selected_demo.jpg","true","0","80_20_practice",""
"","bandit","34","181459","0.0-20.0-13.0","43391910","wem/bandit_either_3","AEO84PDSWW0W","either","6","418","","","","","","","0","1","0","","0.8","0.5","0.5","","","0.8","0.2","","","","","","","","","","","","","","74","J","0","img/none_selected_demo.jpg","true","0","80_20_practice",""
"","bandit","35","183498","0.0-20.0-14.0","43391910","wem/bandit_either_3","AEO84PDSWW0W","either","6","517","","","","","","","0","1","0","","0.8","0.5","0.5","","","0.8","0.2","","","","","","","","","","","","","","74","J","0","img/none_selected_demo.jpg","true","0","80_20_practice",""
"","bandit","36","185400","0.0-20.0-15.0","43391910","wem/bandit_either_3","AEO84PDSWW0W","either","6","384","","","","","","","0","1","0","","0.8","0.5","0.5","","","0.8","0.2","","","","","","","","","","","","","","74","J","0","img/none_selected_demo.jpg","true","0","80_20_practice",""
"","bandit","37","187257","0.0-20.0-16.0","43391910","wem/bandit_either_3","AEO84PDSWW0W","either","6","316","","","","","","","0","1","0","","0.8","0.5","0.5","","","0.8","0.2","","","","","","","","","","","","","","74","J","0","img/none_selected_demo.jpg","true","0","80_20_practice",""
"","bandit","38","189938","0.0-20.0-17.0","43391910","wem/bandit_either_3","AEO84PDSWW0W","either","6","1125","","","","","","","0","0","1","0.8","","0.5","0.5","","","","","","","0.8","0.2","","","","","","","","","","74","J","0","img/none_selected_demo.jpg","true","0","80_20_practice",""
"","bandit","39","191687","0.0-20.0-18.0","43391910","wem/bandit_either_3","AEO84PDSWW0W","either","6","231","","","","","","","1","0","0","0.8","","0.5","0.5","","","","","","","0.8","0.2","","","","","","","","","","74","J","0","img/none_selected_demo.jpg","true","0","80_20_practice",""
"","bandit","40","193522","0.0-20.0-19.0","43391910","wem/bandit_either_3","AEO84PDSWW0W","either","6","312","","","","","","","0","1","0","","0.8","0.5","0.5","","","0.8","0.2","","","","","","","","","","","","","","74","J","0","img/none_selected_demo.jpg","true","0","80_20_practice",""
"","text","41","198792","0.0-21.0","43391910","wem/bandit_either_3","AEO84PDSWW0W","either","6","5255","","32","","","","","","","","","","","","","","","","","","","","","","","","","","","","","","","","","","","",""
"","bandit","42","201109","0.0-22.0-0.0","43391910","wem/bandit_either_3","AEO84PDSWW0W","either","6","775","","","","","","","1","0","0","1","0","","","","","0","1","","","1","0","","","","","","","","","","74","J","0","img/none_selected_demo.jpg","true","0","",""
"","text","43","205502","0.0-23.0","43391910","wem/bandit_either_3","AEO84PDSWW0W","either","6","4390","","32","","","","","","","","","","","","","","","","","","","","","","","","","","","","","","","","","","","",""
"","text","44","208706","0.0-24.0","43391910","wem/bandit_either_3","AEO84PDSWW0W","either","6","3198","","32","","","","","","","","","","","","","","","","","","","","","","","","","","","","","","","","","","","",""
"","text","45","210961","0.0-25.0","43391910","wem/bandit_either_3","AEO84PDSWW0W","either","6","2248","","32","","","","","","","","","","","","","","","","","","","","","","","","","","","","","","","","","","","",""
"","text","46","214890","0.0-26.0","43391910","wem/bandit_either_3","AEO84PDSWW0W","either","6","3918","","32","","","","","","","","","","","","","","","","","","","","","","","","","","","","","","","","","","","",""
"","text","47","220762","0.0-27.0","43391910","wem/bandit_either_3","AEO84PDSWW0W","either","6","5859","","32","","","","","","","","","","","","","","","","","","","","","","","","","","","","","","","","","","","",""
"","text","48","223362","0.0-28.0","43391910","wem/bandit_either_3","AEO84PDSWW0W","either","6","2586","","32","","","","","","","","","","","","","","","","","","","","","","","","","","","","","","","","","","","",""
"","text","49","229176","0.0-29.0","43391910","wem/bandit_either_3","AEO84PDSWW0W","either","6","5806","","32","","","","","","","","","","","","","","","","","","","","","","","","","","","","","","","","","","","",""
"","text","50","233234","0.0-30.0","43391910","wem/bandit_either_3","AEO84PDSWW0W","either","6","4048","","32","","","","","","","","","","","","","","","","","","","","","","","","","","","","","","","","","","","",""
"","text","51","237488","0.0-31.0","43391910","wem/bandit_either_3","AEO84PDSWW0W","either","6","4243","","32","","","","","","","","","","","","","","","","","","","","","","","","","","","","","","","","","","","",""
"","text","52","240040","0.0-32.0","43391910","wem/bandit_either_3","AEO84PDSWW0W","either","6","2546","","32","","","","","","","","","","","","","","","","","","","","","","","","","","","","","","","","","","","",""
"","text","53","245978","0.0-33.0","43391910","wem/bandit_either_3","AEO84PDSWW0W","either","6","5931","","32","","","","","","","","","","","","","","","","","","","","","","","","","","","","","","","","","","","",""
"","bandit","54","248560","0.0-34.0-0.0","43391910","wem/bandit_either_3","AEO84PDSWW0W","either","6","1050","","","","","","","0","1","0","","0.8","0.5","0.5","0.5","0.5","0.8","0.2","0.6","0.2","","","","","","","","","","","","72","H","0","img/none_selected.jpg","true","0","full_practice",""
"","bandit","55","250398","0.0-34.0-1.0","43391910","wem/bandit_either_3","AEO84PDSWW0W","either","6","312","","","","","","","0","0","1","","0.8","0.5","0.5","0.5","0.5","0.8","0.2","0.6","0.2","","","","","","","","","","","","72","H","0","img/none_selected.jpg","true","0","full_practice",""
"","bandit","56","252315","0.0-34.0-2.0","43391910","wem/bandit_either_3","AEO84PDSWW0W","either","6","343","","","","","","","1","0","0","0.8","","0.5","0.5","0.5","0.5","","","","","0.8","0.2","0.6","0.2","","","","","","","","72","H","0","img/none_selected.jpg","true","0","full_practice",""
"","bandit","57","254132","0.0-34.0-3.0","43391910","wem/bandit_either_3","AEO84PDSWW0W","either","6","302","","","","","","","1","0","0","0.8","","0.5","0.5","0.5","0.5","","","","","0.8","0.2","0.6","0.2","","","","","","","","72","H","0","img/none_selected.jpg","true","0","full_practice",""
"","bandit","58","256053","0.0-34.0-4.0","43391910","wem/bandit_either_3","AEO84PDSWW0W","either","6","387","","","","","","","0","1","0","","0.8","0.5","0.5","0.5","0.5","0.8","0.2","0.6","0.2","","","","","","","","","","","","72","H","0","img/none_selected.jpg","true","0","full_practice",""
"","bandit","59","257839","0.0-34.0-5.0","43391910","wem/bandit_either_3","AEO84PDSWW0W","either","6","261","","","","","","","0","1","0","","0.8","0.5","0.5","0.5","0.5","0.8","0.2","0.6","0.2","","","","","","","","","","","","72","H","0","img/none_selected.jpg","true","0","full_practice",""
"","bandit","60","259613","0.0-34.0-6.0","43391910","wem/bandit_either_3","AEO84PDSWW0W","either","6","248","","","","","","","0","1","0","","0.8","0.5","0.5","0.5","0.5","0.8","0.2","0.6","0.2","","","","","","","","","","","","72","H","0","img/none_selected.jpg","true","0","full_practice",""
"","bandit","61","261169","0.0-34.0-7.0","43391910","wem/bandit_either_3","AEO84PDSWW0W","either","6","25","","","","","","","0","1","0","","0.8","0.5","0.5","0.5","0.5","0.8","0.2","0.6","0.2","","","","","","","","","","","","72","H","0","img/none_selected.jpg","true","0","full_practice",""
"","bandit","62","263519","0.0-34.0-8.0","43391910","wem/bandit_either_3","AEO84PDSWW0W","either","6","823","","","","","","","0","0","1","","0.8","0.5","0.5","0.5","0.5","0.8","0.2","0.6","0.2","","","","","","","","","","","","72","H","0","img/none_selected.jpg","true","0","full_practice",""
"","bandit","63","265376","0.0-34.0-9.0","43391910","wem/bandit_either_3","AEO84PDSWW0W","either","6","334","","","","","","","1","0","0","0.8","","0.5","0.5","0.5","0.5","","","","","0.8","0.2","0.6","0.2","","","","","","","","72","H","0","img/none_selected.jpg","true","0","full_practice",""
"","bandit","64","266970","0.0-34.0-10.0","43391910","wem/bandit_either_3","AEO84PDSWW0W","either","6","62","","","","","","","0","1","0","","0.8","0.5","0.5","0.5","0.5","0.8","0.2","0.6","0.2","","","","","","","","","","","","72","H","0","img/none_selected.jpg","true","0","full_practice",""
"","bandit","65","268977","0.0-34.0-11.0","43391910","wem/bandit_either_3","AEO84PDSWW0W","either","6","461","","","","","","","1","0","0","0.8","","0.5","0.5","0.5","0.5","","","","","0.8","0.2","0.6","0.2","","","","","","","","72","H","0","img/none_selected.jpg","true","0","full_practice",""
"","bandit","66","270758","0.0-34.0-12.0","43391910","wem/bandit_either_3","AEO84PDSWW0W","either","6","248","","","","","","","1","0","0","0.8","","0.5","0.5","0.5","0.5","","","","","0.8","0.2","0.6","0.2","","","","","","","","72","H","0","img/none_selected.jpg","true","0","full_practice",""
"","bandit","67","272439","0.0-34.0-13.0","43391910","wem/bandit_either_3","AEO84PDSWW0W","either","6","150","","","","","","","0","1","0","","0.8","0.5","0.5","0.5","0.5","0.8","0.2","0.6","0.2","","","","","","","","","","","","72","H","0","img/none_selected.jpg","true","0","full_practice",""
"","bandit","68","274320","0.0-34.0-14.0","43391910","wem/bandit_either_3","AEO84PDSWW0W","either","6","355","","","","","","","1","0","0","0.8","","0.5","0.5","0.5","0.5","","","","","0.8","0.2","0.6","0.2","","","","","","","","72","H","0","img/none_selected.jpg","true","0","full_practice",""
"","bandit","69","276187","0.0-34.0-15.0","43391910","wem/bandit_either_3","AEO84PDSWW0W","either","6","335","","","","","","","0","1","0","","0.8","0.5","0.5","0.5","0.5","0.8","0.2","0.6","0.2","","","","","","","","","","","","72","H","0","img/none_selected.jpg","true","0","full_practice",""
"","bandit","70","277993","0.0-34.0-16.0","43391910","wem/bandit_either_3","AEO84PDSWW0W","either","6","277","","","","","","","1","0","0","0.8","","0.5","0.5","0.5","0.5","","","","","0.8","0.2","0.6","0.2","","","","","","","","72","H","0","img/none_selected.jpg","true","0","full_practice",""
"","bandit","71","279869","0.0-34.0-17.0","43391910","wem/bandit_either_3","AEO84PDSWW0W","either","6","349","","","","","","","0","0","1","","0.8","0.5","0.5","0.5","0.5","0.8","0.2","0.6","0.2","","","","","","","","","","","","72","H","0","img/none_selected.jpg","true","0","full_practice",""
"","bandit","72","281585","0.0-34.0-18.0","43391910","wem/bandit_either_3","AEO84PDSWW0W","either","6","176","","","","","","","0","1","0","","0.8","0.5","0.5","0.5","0.5","0.8","0.2","0.6","0.2","","","","","","","","","","","","72","H","0","img/none_selected.jpg","true","0","full_practice",""
"","bandit","73","283441","0.0-34.0-19.0","43391910","wem/bandit_either_3","AEO84PDSWW0W","either","6","320","","","","","","","0","0","1","0.8","","0.5","0.5","0.5","0.5","","","","","0.8","0.2","0.6","0.2","","","","","","","","72","H","0","img/none_selected.jpg","true","0","full_practice",""
"","text","74","285127","0.0-35.0","43391910","wem/bandit_either_3","AEO84PDSWW0W","either","6","1677","","32","","","","","","","","","","","","","","","","","","","","","","","","","","","","","","","","","","","",""
"","text","75","296406","0.0-36.0","43391910","wem/bandit_either_3","AEO84PDSWW0W","either","6","10258","","32","","","","","","","","","","","","","","","","","","","","","","","","","","","","","","","","","","","",""
"","text","76","304002","0.0-37.0","43391910","wem/bandit_either_3","AEO84PDSWW0W","either","6","7586","","32","","","","","","","","","","","","","","","","","","","","","","","","","","","","","","","","","","","",""
"","text","77","308122","0.0-38.0","43391910","wem/bandit_either_3","AEO84PDSWW0W","either","6","4105","","32","","","","","","","","","","","","","","","","","","","","","","","","","","","","","","","","","","","",""
"","text","78","314554","0.0-39.0","43391910","wem/bandit_either_3","AEO84PDSWW0W","either","6","6420","","32","","","","","","","","","","","","","","","","","","","","","","","","","","","","","","","","","","","",""
"","text","79","319034","0.0-40.0","43391910","wem/bandit_either_3","AEO84PDSWW0W","either","6","4467","","32","","","","","","","","","","","","","","","","","","","","","","","","","","","","","","","","","","","",""
"","bandit","80","322607","0.0-41.0-0.0","43391910","wem/bandit_either_3","AEO84PDSWW0W","either","6","2023","","","","","","","1","0","0","0.7197236342","","0.8","0.4","0.2","0.6","","","","","0.3049938501","0.2309914537","0.1947351938","0.7197236342","","","","","","","","76","L","3","","","1","main_expt",""
"","bandit","81","324502","0.0-42.0-0.0","43391910","wem/bandit_either_3","AEO84PDSWW0W","either","6","342","","","","","","","1","0","0","0.7453792406","","0.8","0.4","0.2","0.6","","","","","0.3105507028","0.2351366282","0.1865171684","0.7453792406","","","","","","","","76","L","3","","","2","main_expt",""
"","bandit","82","326310","0.0-43.0-0.0","43391910","wem/bandit_either_3","AEO84PDSWW0W","either","6","279","","","","","","","0","0","1","0.7422746785","","0.8","0.4","0.2","0.6","","","","","0.347932066","0.3338792953","0.1578482069","0.7422746785","","","","","","","","76","L","3","","","3","main_expt",""
"","bandit","83","328141","0.0-44.0-0.0","43391910","wem/bandit_either_3","AEO84PDSWW0W","either","6","298","","","","","","","0","1","0","","0.8152876082","0.8","0.4","0.2","0.6","0.294099503","0.2578124611","0.1733557992","0.8152876082","","","","","","","","","","","","76","L","3","","","4","main_expt",""
"","bandit","84","330131","0.0-45.0-0.0","43391910","wem/bandit_either_3","AEO84PDSWW0W","either","6","454","","","","","","","0","1","0","","0.8494846052","0.8","0.4","0.2","0.6","0.256228135","0.152782507","0.1275681293","0.8494846052","","","","","","","","","","","","76","L","3","","","5","main_expt",""
"","bandit","85","331951","0.0-46.0-0.0","43391910","wem/bandit_either_3","AEO84PDSWW0W","either","6","290","","","","","","","1","0","0","0.8036792828","","0.8","0.4","0.2","0.6","","","","","0.3142053347","0.200224935","0.1776351543","0.8036792828","","","","","","","","76","L","3","","","6","main_expt",""
"","bandit","86","333810","0.0-47.0-0.0","43391910","wem/bandit_either_3","AEO84PDSWW0W","either","6","342","","","","","","","0","1","0","","0.8659664865","0.8","0.4","0.2","0.6","0.2382568898","0.2200442108","0.1412615145","0.8659664865","","","","","","","","","","","","76","L","3","","","7","main_expt",""
"","bandit","87","335769","0.0-48.0-0.0","43391910","wem/bandit_either_3","AEO84PDSWW0W","either","6","411","","","","","","","1","0","0","0.8475436228","","0.8","0.4","0.2","0.6","","","","","0.220471749","0.1516915951","0.1508054742","0.8475436228","","","","","","","","76","L","3","","","8","main_expt",""
"","bandit","88","337646","0.0-49.0-0.0","43391910","wem/bandit_either_3","AEO84PDSWW0W","either","6","356","","","","","","","1","0","0","0.8034999265","","0.8","0.4","0.2","0.6","","","","","0.2842820234","0.1468829212","0.1882404854","0.8034999265","","","","","","","","76","L","3","","","9","main_expt",""
"","bandit","89","339532","0.0-50.0-0.0","43391910","wem/bandit_either_3","AEO84PDSWW0W","either","6","359","","","","","","","0","1","0","","0.7148412232","0.8","0.4","0.2","0.6","0.3392415315","0.1507643719","0.1731305678","0.7148412232","","","","","","","","","","","","76","L","3","","","10","main_expt",""
"","bandit","90","341368","0.0-51.0-0.0","43391910","wem/bandit_either_3","AEO84PDSWW0W","either","6","305","","","","","","","1","0","0","0.7213030285","","0.8","0.4","0.2","0.6","","","","","0.4470346709","0.18301","0.2475279461","0.7213030285","","","","","","","","76","L","3","","","11","main_expt",""
"","bandit","91","343194","0.0-52.0-0.0","43391910","wem/bandit_either_3","AEO84PDSWW0W","either","6","294","","","","","","","1","0","0","0.7396148754","","0.8","0.4","0.2","0.6","","","","","0.5143820195","0.209562337","0.2068792089","0.7396148754","","","","","","","","76","L","3","","","12","main_expt",""
"","bandit","92","344972","0.0-53.0-0.0","43391910","wem/bandit_either_3","AEO84PDSWW0W","either","6","253","","","","","","","1","0","0","0.6870781676","","0.8","0.4","0.2","0.6","","","","","0.4934308908","0.2133897639","0.1594062408","0.6870781676","","","","","","","","76","L","3","","","13","main_expt",""
"","bandit","93","346567","0.0-54.0-0.0","43391910","wem/bandit_either_3","AEO84PDSWW0W","either","6","64","","","","","","","0","0","1","0.6561171826","","0.8","0.4","0.2","0.6","","","","","0.5884397519","0.1865122749","0.1808320347","0.6561171826","","","","","","","","76","L","3","","","14","main_expt",""
"","bandit","94","348430","0.0-55.0-0.0","43391910","wem/bandit_either_3","AEO84PDSWW0W","either","6","300","","","","","","","0","0","1","","0.6255101569","0.8","0.4","0.2","0.6","0.425765204","0.3169691733","0.2401125286","0.6255101569","","","","","","","","","","","","76","L","3","","","15","main_expt",""
"","bandit","95","350251","0.0-56.0-0.0","43391910","wem/bandit_either_3","AEO84PDSWW0W","either","6","306","","","","","","","0","0","1","0.6101220295","","0.8","0.4","0.2","0.6","","","","","0.4458974369","0.3927767979","0.1823220599","0.6101220295","","","","","","","","76","L","3","","","16","main_expt",""
"","bandit","96","352165","0.0-57.0-0.0","43391910","wem/bandit_either_3","AEO84PDSWW0W","either","6","378","","","","","","","1","0","0","0.6233337625","","0.8","0.4","0.2","0.6","","","","","0.4907358526","0.2882183284","0.2076179308","0.6233337625","","","","","","","","76","L","3","","","17","main_expt",""
"","bandit","97","353813","0.0-58.0-0.0","43391910","wem/bandit_either_3","AEO84PDSWW0W","either","6","121","","","","","","","0","0","1","0.598865074","","0.8","0.4","0.2","0.6","","","","","0.4895096529","0.3212622409","0.2310064443","0.598865074","","","","","","","","76","L","3","","","18","main_expt",""
"","bandit","98","355635","0.0-59.0-0.0","43391910","wem/bandit_either_3","AEO84PDSWW0W","either","6","304","","","","","","","0","0","1","","0.6318918302","0.8","0.4","0.2","0.6","0.5437378015","0.3678238944","0.1919199612","0.6318918302","","","","","","","","","","","","76","L","3","","","19","main_expt",""
"","bandit","99","357275","0.0-60.0-0.0","43391910","wem/bandit_either_3","AEO84PDSWW0W","either","6","93","","","","","","","0","1","0","","0.5667690756","0.8","0.4","0.2","0.6","0.543071052","0.4357360734","0.2150176637","0.5667690756","","","","","","","","","","","","76","L","3","","","20","main_expt",""
"","bandit","100","359106","0.0-61.0-0.0","43391910","wem/bandit_either_3","AEO84PDSWW0W","either","6","292","","","","","","","0","1","0","","0.6364396753","0.8","0.4","0.2","0.6","0.5457928974","0.4486518506","0.2980309021","0.6364396753","","","","","","","","","","","","76","L","3","","","21","main_expt",""
"","bandit","101","360898","0.0-62.0-0.0","43391910","wem/bandit_either_3","AEO84PDSWW0W","either","6","266","","","","","","","0","1","0","","0.5563436533","0.8","0.4","0.2","0.6","0.4531799458","0.5145372488","0.3238742104","0.5563436533","","","","","","","","","","","","76","L","3","","","22","main_expt",""
"","bandit","102","362732","0.0-63.0-0.0","43391910","wem/bandit_either_3","AEO84PDSWW0W","either","6","294","","","","","","","0","0","1","","0.4555064456","0.8","0.4","0.2","0.6","0.4321579995","0.6324996067","0.4158928209","0.4555064456","","","","","","","","","","","","76","L","3","","","23","main_expt",""
"","bandit","103","364586","0.0-64.0-0.0","43391910","wem/bandit_either_3","AEO84PDSWW0W","either","6","336","","","","","","","0","0","1","0.4398961724","","0.8","0.4","0.2","0.6","","","","","0.3892872195","0.6665025749","0.2798670784","0.4398961724","","","","","","","","76","L","3","","","24","main_expt",""
"","bandit","104","366423","0.0-65.0-0.0","43391910","wem/bandit_either_3","AEO84PDSWW0W","either","6","303","","","","","","","0","0","1","0.3810464824","","0.8","0.4","0.2","0.6","","","","","0.4322880781","0.5316582614","0.3932164435","0.3810464824","","","","","","","","76","L","3","","","25","main_expt",""
"","bandit","105","368311","0.0-66.0-0.0","43391910","wem/bandit_either_3","AEO84PDSWW0W","either","6","368","","","","","","","0","0","1","0.451695138","","0.8","0.4","0.2","0.6","","","","","0.4560392573","0.4282094451","0.3243459504","0.451695138","","","","","","","","76","L","3","","","26","main_expt",""
"","bandit","106","370119","0.0-67.0-0.0","43391910","wem/bandit_either_3","AEO84PDSWW0W","either","6","277","","","","","","","1","0","0","0.4423729324","","0.8","0.4","0.2","0.6","","","","","0.5372901799","0.4711380508","0.4266302179","0.4423729324","","","","","","","","76","L","3","","","27","main_expt",""
"","bandit","107","371896","0.0-68.0-0.0","43391910","wem/bandit_either_3","AEO84PDSWW0W","either","6","253","","","","","","","0","1","0","","0.4221124674","0.8","0.4","0.2","0.6","0.6619872032","0.4539290932","0.4206607535","0.4221124674","","","","","","","","","","","","76","L","3","","","28","main_expt",""
"","bandit","108","373778","0.0-69.0-0.0","43391910","wem/bandit_either_3","AEO84PDSWW0W","either","6","356","","","","","","","1","0","0","0.489207998","","0.8","0.4","0.2","0.6","","","","","0.5939885142","0.4378511583","0.440099583","0.489207998","","","","","","","","76","L","3","","","29","main_expt",""
"","bandit","109","375677","0.0-70.0-0.0","43391910","wem/bandit_either_3","AEO84PDSWW0W","either","6","362","","","","","","","1","0","0","0.4406356357","","0.8","0.4","0.2","0.6","","","","","0.5602145404","0.3425428874","0.3982168329","0.4406356357","","","","","","","","76","L","3","","","30","main_expt",""
"","bandit","110","377523","0.0-71.0-0.0","43391910","wem/bandit_either_3","AEO84PDSWW0W","either","6","319","","","","","","","0","0","1","","0.484130952","0.8","0.4","0.2","0.6","0.5376870091","0.2354865125","0.3573437221","0.484130952","","","","","","","","","","","","76","L","3","","","31","main_expt",""
"","bandit","111","379564","0.0-72.0-0.0","43391910","wem/bandit_either_3","AEO84PDSWW0W","either","6","513","","","","","","","0","0","1","","0.432294219","0.8","0.4","0.2","0.6","0.6346195819","0.2552437171","0.3712986889","0.432294219","","","","","","","","","","","","76","L","3","","","32","main_expt",""
"","bandit","112","381388","0.0-73.0-0.0","43391910","wem/bandit_either_3","AEO84PDSWW0W","either","6","308","","","","","","","0","0","1","0.4821309474","","0.8","0.4","0.2","0.6","","","","","0.7540961955","0.2470382599","0.45096985","0.4821309474","","","","","","","","76","L","3","","","33","main_expt",""
"","bandit","113","383211","0.0-74.0-0.0","43391910","wem/bandit_either_3","AEO84PDSWW0W","either","6","296","","","","","","","0","1","0","","0.4702474349","0.8","0.4","0.2","0.6","0.699797925","0.2951894024","0.5559331637","0.4702474349","","","","","","","","","","","","76","L","3","","","34","main_expt",""
"","bandit","114","385071","0.0-75.0-0.0","43391910","wem/bandit_either_3","AEO84PDSWW0W","either","6","336","","","","","","","0","0","1","","0.5363697359","0.8","0.4","0.2","0.6","0.7410295452","0.2596626779","0.7354386419","0.5363697359","","","","","","","","","","","","76","L","3","","","35","main_expt",""
"","bandit","115","386868","0.0-76.0-0.0","43391910","wem/bandit_either_3","AEO84PDSWW0W","either","6","253","","","","","","","1","0","0","0.602250539","","0.8","0.4","0.2","0.6","","","","","0.7332281969","0.3164764808","0.6934166837","0.602250539","","","","","","","","76","L","3","","","36","main_expt",""
"","bandit","116","388795","0.0-77.0-0.0","43391910","wem/bandit_either_3","AEO84PDSWW0W","either","6","339","","","","","","","1","0","0","0.5337433964","","0.8","0.4","0.2","0.6","","","","","0.736713329","0.3672962009","0.6311869688","0.5337433964","","","","","","","","76","L","3","","","37","main_expt",""
"","bandit","117","391368","0.0-78.0-0.0","43391910","wem/bandit_either_3","AEO84PDSWW0W","either","6","1051","","","","","","","1","0","0","0.5970413872","","0.8","0.4","0.2","0.6","","","","","0.6860808007","0.4056598401","0.6583504975","0.5970413872","","","","","","","","76","L","3","","","38","main_expt",""
"","bandit","118","393229","0.0-79.0-0.0","43391910","wem/bandit_either_3","AEO84PDSWW0W","either","6","303","","","","","","","1","0","0","0.6529448079","","0.8","0.4","0.2","0.6","","","","","0.7498761973","0.4236995386","0.5861321806","0.6529448079","","","","","","","","76","L","3","","","39","main_expt",""
"","bandit","119","395082","0.0-80.0-0.0","43391910","wem/bandit_either_3","AEO84PDSWW0W","either","6","332","","","","","","","0","0","1","","0.6612991154","0.8","0.4","0.2","0.6","0.7043283504","0.4365163158","0.4892836735","0.6612991154","","","","","","","","","","","","76","L","3","","","40","main_expt",""
"","bandit","120","396904","0.0-81.0-0.0","43391910","wem/bandit_either_3","AEO84PDSWW0W","either","6","293","","","","","","","1","0","0","0.7390431107","","0.8","0.4","0.2","0.6","","","","","0.6469690382","0.4854269132","0.3479900608","0.7390431107","","","","","","","","76","L","3","","","41","main_expt",""
"","bandit","121","398719","0.0-82.0-0.0","43391910","wem/bandit_either_3","AEO84PDSWW0W","either","6","282","","","","","","","1","0","0","0.7609423287","","0.8","0.4","0.2","0.6","","","","","0.6388905256","0.4753587859","0.376709287","0.7609423287","","","","","","","","76","L","3","","","42","main_expt",""
"","bandit","122","400561","0.0-83.0-0.0","43391910","wem/bandit_either_3","AEO84PDSWW0W","either","6","290","","","","","","","1","0","0","0.8039673949","","0.8","0.4","0.2","0.6","","","","","0.6383372244","0.452202747","0.4319300722","0.8039673949","","","","","","","","76","L","3","","","43","main_expt",""
"","bandit","123","402398","0.0-84.0-0.0","43391910","wem/bandit_either_3","AEO84PDSWW0W","either","6","289","","","","","","","1","0","0","0.8216753652","","0.8","0.4","0.2","0.6","","","","","0.6247854939","0.5522191005","0.4458636389","0.8216753652","","","","","","","","76","L","3","","","44","main_expt",""
"","bandit","124","404281","0.0-85.0-0.0","43391910","wem/bandit_either_3","AEO84PDSWW0W","either","6","347","","","","","","","0","1","0","","0.7636866317","0.8","0.4","0.2","0.6","0.6341880498","0.4878962787","0.4323480181","0.7636866317","","","","","","","","","","","","76","L","3","","","45","main_expt",""
"","bandit","125","406118","0.0-86.0-0.0","43391910","wem/bandit_either_3","AEO84PDSWW0W","either","6","301","","","","","","","0","1","0","","0.8203755575","0.8","0.4","0.2","0.6","0.5081310512","0.487595293","0.4348202433","0.8203755575","","","","","","","","","","","","76","L","3","","","46","main_expt",""
"","bandit","126","407954","0.0-87.0-0.0","43391910","wem/bandit_either_3","AEO84PDSWW0W","either","6","307","","","","","","","1","0","0","0.8706375764","","0.8","0.4","0.2","0.6","","","","","0.4202927251","0.444754188","0.3430847618","0.8706375764","","","","","","","","76","L","3","","","47","main_expt",""
"","bandit","127","409791","0.0-88.0-0.0","43391910","wem/bandit_either_3","AEO84PDSWW0W","either","6","293","","","","","","","1","0","0","0.8019506245","","0.8","0.4","0.2","0.6","","","","","0.4767868938","0.5044276746","0.2601977795","0.8019506245","","","","","","","","76","L","3","","","48","main_expt",""
"","bandit","128","411661","0.0-89.0-0.0","43391910","wem/bandit_either_3","AEO84PDSWW0W","either","6","334","","","","","","","0","1","0","","0.7331224435","0.8","0.4","0.2","0.6","0.3749468019","0.3766714482","0.2368144698","0.7331224435","","","","","","","","","","","","76","L","3","","","49","main_expt",""
"","bandit","129","413492","0.0-90.0-0.0","43391910","wem/bandit_either_3","AEO84PDSWW0W","either","6","304","","","","","","","1","0","0","0.7908344101","","0.8","0.4","0.2","0.6","","","","","0.3532902347","0.406992786","0.2484527115","0.7908344101","","","","","","","","76","L","3","","","50","main_expt",""
"","bandit","130","415276","0.0-91.0-0.0","43391910","wem/bandit_either_3","AEO84PDSWW0W","either","6","246","","","","","","","1","0","0","0.7922828235","","0.8","0.4","0.2","0.6","","","","","0.2413466802","0.3854505747","0.230268934","0.7922828235","","","","","","","","76","L","3","","","51","main_expt",""
"","bandit","131","417068","0.0-92.0-0.0","43391910","wem/bandit_either_3","AEO84PDSWW0W","either","6","267","","","","","","","0","0","1","","0.7485378942","0.8","0.4","0.2","0.6","0.2673723166","0.3956915145","0.3429002399","0.7485378942","","","","","","","","","","","","76","L","3","","","52","main_expt",""
"","bandit","132","418936","0.0-93.0-0.0","43391910","wem/bandit_either_3","AEO84PDSWW0W","either","6","328","","","","","","","1","0","0","0.6603794952","","0.8","0.4","0.2","0.6","","","","","0.2806035608","0.3062348001","0.2871029552","0.6603794952","","","","","","","","76","L","3","","","53","main_expt",""
"","bandit","133","420763","0.0-94.0-0.0","43391910","wem/bandit_either_3","AEO84PDSWW0W","either","6","297","","","","","","","1","0","0","0.6931449795","","0.8","0.4","0.2","0.6","","","","","0.2544312064","0.2996500993","0.2594444468","0.6931449795","","","","","","","","76","L","3","","","54","main_expt",""
"","bandit","134","422609","0.0-95.0-0.0","43391910","wem/bandit_either_3","AEO84PDSWW0W","either","6","325","","","","","","","0","0","1","","0.7553272845","0.8","0.4","0.2","0.6","0.3362815808","0.2518247787","0.3333749245","0.7553272845","","","","","","","","","","","","76","L","3","","","55","main_expt",""
"","bandit","135","424560","0.0-96.0-0.0","43391910","wem/bandit_either_3","AEO84PDSWW0W","either","6","417","","","","","","","0","0","1","0.7231548626","","0.8","0.4","0.2","0.6","","","","","0.3798256012","0.3014763065","0.3049104067","0.7231548626","","","","","","","","76","L","3","","","56","main_expt",""
"","bandit","136","426454","0.0-97.0-0.0","43391910","wem/bandit_either_3","AEO84PDSWW0W","either","6","354","","","","","","","1","0","0","0.7485901337","","0.8","0.4","0.2","0.6","","","","","0.3989549393","0.2730843718","0.3623273811","0.7485901337","","","","","","","","76","L","3","","","57","main_expt",""
"","bandit","137","428312","0.0-98.0-0.0","43391910","wem/bandit_either_3","AEO84PDSWW0W","either","6","301","","","","","","","1","0","0","0.797082508","","0.8","0.4","0.2","0.6","","","","","0.3373398956","0.367239041","0.3621169042","0.797082508","","","","","","","","76","L","3","","","58","main_expt",""
"","bandit","138","430119","0.0-99.0-0.0","43391910","wem/bandit_either_3","AEO84PDSWW0W","either","6","287","","","","","","","1","0","0","0.7466963627","","0.8","0.4","0.2","0.6","","","","","0.3381045731","0.4005220403","0.3672848169","0.7466963627","","","","","","","","76","L","3","","","59","main_expt",""
"","bandit","139","431937","0.0-100.0-0.0","43391910","wem/bandit_either_3","AEO84PDSWW0W","either","6","300","","","","","","","0","0","1","0.6359615323","","0.8","0.4","0.2","0.6","","","","","0.4838111383","0.4863912708","0.5123874715","0.6359615323","","","","","","","","76","L","3","","","60","main_expt",""
"","bandit","140","433760","0.0-101.0-0.0","43391910","wem/bandit_either_3","AEO84PDSWW0W","either","6","297","","","","","","","0","0","1","0.7125939799","","0.8","0.4","0.2","0.6","","","","","0.4290776342","0.5220595343","0.5218319631","0.7125939799","","","","","","","","76","L","3","","","61","main_expt",""
"","bandit","141","435589","0.0-102.0-0.0","43391910","wem/bandit_either_3","AEO84PDSWW0W","either","6","290","","","","","","","1","0","0","0.5978650666","","0.8","0.4","0.2","0.6","","","","","0.4387439774","0.5447889898","0.6482151027","0.5978650666","","","","","","","","76","L","3","","","62","main_expt",""
"","bandit","142","437399","0.0-103.0-0.0","43391910","wem/bandit_either_3","AEO84PDSWW0W","either","6","286","","","","","","","1","0","0","0.5166338879","","0.8","0.4","0.2","0.6","","","","","0.3670418014","0.5517390004","0.6966290852","0.5166338879","","","","","","","","76","L","3","","","63","main_expt",""
"","bandit","143","439205","0.0-104.0-0.0","43391910","wem/bandit_either_3","AEO84PDSWW0W","either","6","268","","","","","","","0","0","1","0.4901650138","","0.8","0.4","0.2","0.6","","","","","0.3470393933","0.6576188384","0.6497033777","0.4901650138","","","","","","","","76","L","3","","","64","main_expt",""
"","bandit","144","441025","0.0-105.0-0.0","43391910","wem/bandit_either_3","AEO84PDSWW0W","either","6","285","","","","","","","0","0","1","","0.459365688","0.8","0.4","0.2","0.6","0.3361574661","0.5156176703","0.6925184903","0.459365688","","","","","","","","","","","","76","L","3","","","65","main_expt",""
"","bandit","145","442632","0.0-106.0-0.0","43391910","wem/bandit_either_3","AEO84PDSWW0W","either","6","86","","","","","","","0","0","1","","0.4666104807","0.8","0.4","0.2","0.6","0.34308242","0.3851410914","0.8298767513","0.4666104807","","","","","","","","","","","","76","L","3","","","66","main_expt",""
"","bandit","146","444377","0.0-107.0-0.0","43391910","wem/bandit_either_3","AEO84PDSWW0W","either","6","218","","","","","","","1","0","0","0.5547259005","","0.8","0.4","0.2","0.6","","","","","0.3730603492","0.3925250542","0.8506596021","0.5547259005","","","","","","","","76","L","3","","","67","main_expt",""
"","bandit","147","446178","0.0-108.0-0.0","43391910","wem/bandit_either_3","AEO84PDSWW0W","either","6","265","","","","","","","0","0","1","0.6038719492","","0.8","0.4","0.2","0.6","","","","","0.4089949532","0.3884113518","0.8536910832","0.6038719492","","","","","","","","76","L","3","","","68","main_expt",""
"","bandit","148","447739","0.0-109.0-0.0","43391910","wem/bandit_either_3","AEO84PDSWW0W","either","6","18","","","","","","","0","0","1","0.6148283845","","0.8","0.4","0.2","0.6","","","","","0.3749002533","0.3434478979","0.8642538991","0.6148283845","","","","","","","","76","L","3","","","69","main_expt",""
"","bandit","149","450209","0.0-110.0-0.0","43391910","wem/bandit_either_3","AEO84PDSWW0W","either","6","936","","","","","","","1","0","0","0.6683283761","","0.8","0.4","0.2","0.6","","","","","0.4133869845","0.4426642051","0.8073802352","0.6683283761","","","","","","","","76","L","3","","","70","main_expt",""
"","bandit","150","452026","0.0-111.0-0.0","43391910","wem/bandit_either_3","AEO84PDSWW0W","either","6","277","","","","","","","1","0","0","0.738459761","","0.8","0.4","0.2","0.6","","","","","0.3302164541","0.4518046004","0.8059201048","0.738459761","","","","","","","","76","L","3","","","71","main_expt",""
"","bandit","151","453987","0.0-112.0-0.0","43391910","wem/bandit_either_3","AEO84PDSWW0W","either","6","416","","","","","","","0","1","0","","0.6525166508","0.8","0.4","0.2","0.6","0.2570952275","0.4903223245","0.8262275011","0.6525166508","","","","","","","","","","","","76","L","3","","","72","main_expt",""
"","bandit","152","455806","0.0-113.0-0.0","43391910","wem/bandit_either_3","AEO84PDSWW0W","either","6","285","","","","","","","1","0","0","0.5715134512","","0.8","0.4","0.2","0.6","","","","","0.2042885023","0.5296083002","0.7334390718","0.5715134512","","","","","","","","76","L","3","","","73","main_expt",""
"","bandit","153","457659","0.0-114.0-0.0","43391910","wem/bandit_either_3","AEO84PDSWW0W","either","6","327","","","","","","","0","0","1","","0.6228045854","0.8","0.4","0.2","0.6","0.2152837516","0.4883026933","0.7490977197","0.6228045854","","","","","","","","","","","","76","L","3","","","74","main_expt",""
"","bandit","154","459436","0.0-115.0-0.0","43391910","wem/bandit_either_3","AEO84PDSWW0W","either","6","253","","","","","","","1","0","0","0.613630376","","0.8","0.4","0.2","0.6","","","","","0.2044775694","0.4914171484","0.7554087461","0.613630376","","","","","","","","76","L","3","","","75","main_expt",""
"","bandit","155","461220","0.0-116.0-0.0","43391910","wem/bandit_either_3","AEO84PDSWW0W","either","6","246","","","","","","","0","1","0","","0.7047266053","0.8","0.4","0.2","0.6","0.2247613499","0.6059218973","0.804443878","0.7047266053","","","","","","","","","","","","76","L","3","","","76","main_expt",""
"","bandit","156","462976","0.0-117.0-0.0","43391910","wem/bandit_either_3","AEO84PDSWW0W","either","6","231","","","","","","","0","0","1","0.6910360943","","0.8","0.4","0.2","0.6","","","","","0.2266335256","0.553792366","0.6656620098","0.6910360943","","","","","","","","76","L","3","","","77","main_expt",""
"","bandit","157","464751","0.0-118.0-0.0","43391910","wem/bandit_either_3","AEO84PDSWW0W","either","6","250","","","","","","","0","0","1","0.5515992215","","0.8","0.4","0.2","0.6","","","","","0.1659731505","0.6884193839","0.5898140708","0.5515992215","","","","","","","","76","L","3","","","78","main_expt",""
"","bandit","158","466571","0.0-119.0-0.0","43391910","wem/bandit_either_3","AEO84PDSWW0W","either","6","281","","","","","","","1","0","0","0.6448399581","","0.8","0.4","0.2","0.6","","","","","0.2343921172","0.7214277645","0.613215191","0.6448399581","","","","","","","","76","L","3","","","79","main_expt",""
"","bandit","159","468367","0.0-120.0-0.0","43391910","wem/bandit_either_3","AEO84PDSWW0W","either","6","272","","","","","","","0","0","1","0.739479497","","0.8","0.4","0.2","0.6","","","","","0.2164054515","0.7328142644","0.4605925783","0.739479497","","","","","","","","76","L","3","","","80","main_expt",""
"","bandit","160","470109","0.0-121.0-0.0","43391910","wem/bandit_either_3","AEO84PDSWW0W","either","6","204","","","","","","","0","1","0","","0.6956071838","0.8","0.4","0.2","0.6","0.1361232007","0.7101675561","0.5390789087","0.6956071838","","","","","","","","","","","","76","L","3","","","81","main_expt",""
"","bandit","161","471902","0.0-122.0-0.0","43391910","wem/bandit_either_3","AEO84PDSWW0W","either","6","270","","","","","","","0","1","0","","0.5886517937","0.8","0.4","0.2","0.6","0.2275447725","0.6984384541","0.621290364","0.5886517937","","","","","","","","","","","","76","L","3","","","82","main_expt",""
"","bandit","162","473708","0.0-123.0-0.0","43391910","wem/bandit_either_3","AEO84PDSWW0W","either","6","263","","","","","","","0","0","1","0.4764182235","","0.8","0.4","0.2","0.6","","","","","0.1900607051","0.7447883659","0.6359424421","0.4764182235","","","","","","","","76","L","3","","","83","main_expt",""
"","bandit","163","475333","0.0-124.0-0.0","43391910","wem/bandit_either_3","AEO84PDSWW0W","either","6","73","","","","","","","1","0","0","0.5149027494","","0.8","0.4","0.2","0.6","","","","","0.1306868958","0.6900592863","0.6133664729","0.5149027494","","","","","","","","76","L","3","","","84","main_expt",""
"","bandit","164","477975","0.0-125.0-0.0","43391910","wem/bandit_either_3","AEO84PDSWW0W","either","6","1097","","","","","","","0","0","1","","0.4908067213","0.8","0.4","0.2","0.6","0.1683201849","0.7010597455","0.7815463305","0.4908067213","","","","","","","","","","","","76","L","3","","","85","main_expt",""
"","bandit","165","479765","0.0-126.0-0.0","43391910","wem/bandit_either_3","AEO84PDSWW0W","either","6","250","","","","","","","1","0","0","0.4139472458","","0.8","0.4","0.2","0.6","","","","","0.1290314955","0.6171062652","0.7355789231","0.4139472458","","","","","","","","76","L","3","","","86","main_expt",""
"","bandit","166","481620","0.0-127.0-0.0","43391910","wem/bandit_either_3","AEO84PDSWW0W","either","6","312","","","","","","","0","0","1","0.4253818619","","0.8","0.4","0.2","0.6","","","","","0.2297537383","0.5629375242","0.7267399876","0.4253818619","","","","","","","","76","L","3","","","87","main_expt",""
"","bandit","167","483599","0.0-128.0-0.0","43391910","wem/bandit_either_3","AEO84PDSWW0W","either","6","451","","","","","","","0","1","0","","0.4448862761","0.8","0.4","0.2","0.6","0.1878263516","0.6434443074","0.7703195612","0.4448862761","","","","","","","","","","","","76","L","3","","","88","main_expt",""
"","bandit","168","485556","0.0-129.0-0.0","43391910","wem/bandit_either_3","AEO84PDSWW0W","either","6","400","","","","","","","0","0","1","0.4295642349","","0.8","0.4","0.2","0.6","","","","","0.1896964823","0.7296698787","0.81872988","0.4295642349","","","","","","","","76","L","3","","","89","main_expt",""
"","bandit","169","487503","0.0-130.0-0.0","43391910","wem/bandit_either_3","AEO84PDSWW0W","either","6","419","","","","","","","0","0","1","","0.3655203192","0.8","0.4","0.2","0.6","0.1614970172","0.7042864347","0.8032570632","0.3655203192","","","","","","","","","","","","76","L","3","","","90","main_expt",""
"","bandit","170","489279","0.0-131.0-0.0","43391910","wem/bandit_either_3","AEO84PDSWW0W","either","6","247","","","","","","","0","1","0","","0.402428746","0.8","0.4","0.2","0.6","0.2107705911","0.7606559624","0.8257352781","0.402428746","","","","","","","","","","","","76","L","3","","","91","main_expt",""
"","bandit","171","491253","0.0-132.0-0.0","43391910","wem/bandit_either_3","AEO84PDSWW0W","either","6","442","","","","","","","0","0","1","0.452733603","","0.8","0.4","0.2","0.6","","","","","0.1317951273","0.8466818248","0.7762210657","0.452733603","","","","","","","","76","L","3","","","92","main_expt",""
"","bandit","172","493074","0.0-133.0-0.0","43391910","wem/bandit_either_3","AEO84PDSWW0W","either","6","273","","","","","","","0","0","1","","0.5416456901","0.8","0.4","0.2","0.6","0.09268613222","0.8181600593","0.8293629201","0.5416456901","","","","","","","","","","","","76","L","3","","","93","main_expt",""
"","bandit","173","494940","0.0-134.0-0.0","43391910","wem/bandit_either_3","AEO84PDSWW0W","either","6","311","","","","","","","1","0","0","0.5246039132","","0.8","0.4","0.2","0.6","","","","","0.06418168538","0.7259749053","0.7849393417","0.5246039132","","","","","","","","76","L","3","","","94","main_expt",""
"","bandit","174","496900","0.0-135.0-0.0","43391910","wem/bandit_either_3","AEO84PDSWW0W","either","6","431","","","","","","","0","0","1","0.606801291","","0.8","0.4","0.2","0.6","","","","","0.100072779","0.6538641892","0.7850226125","0.606801291","","","","","","","","76","L","3","","","95","main_expt",""
"","bandit","175","498911","0.0-136.0-0.0","43391910","wem/bandit_either_3","AEO84PDSWW0W","either","6","474","","","","","","","0","0","1","0.7175242067","","0.8","0.4","0.2","0.6","","","","","0.09628221604","0.6384360591","0.8013150942","0.7175242067","","","","","","","","76","L","3","","","96","main_expt",""
"","bandit","176","500930","0.0-137.0-0.0","43391910","wem/bandit_either_3","AEO84PDSWW0W","either","6","460","","","","","","","1","0","0","0.7706560561","","0.8","0.4","0.2","0.6","","","","","0.1335622201","0.6836118029","0.70340399","0.7706560561","","","","","","","","76","L","3","","","97","main_expt",""
"","bandit","177","503817","0.0-138.0-0.0","43391910","wem/bandit_either_3","AEO84PDSWW0W","either","6","1340","","","","","","","0","1","0","","0.7234704616","0.8","0.4","0.2","0.6","0.167202632","0.659457158","0.7562517051","0.7234704616","","","","","","","","","","","","76","L","3","","","98","main_expt",""
"","bandit","178","506071","0.0-139.0-0.0","43391910","wem/bandit_either_3","AEO84PDSWW0W","either","6","723","","","","","","","0","1","0","","0.6582042781","0.8","0.4","0.2","0.6","0.1216125457","0.7726162223","0.6514659141","0.6582042781","","","","","","","","","","","","76","L","3","","","99","main_expt",""
"","bandit","179","508099","0.0-140.0-0.0","43391910","wem/bandit_either_3","AEO84PDSWW0W","either","6","494","","","","","","","0","0","1","","0.6530973887","0.8","0.4","0.2","0.6","0.1163239148","0.8446518706","0.7112237606","0.6530973887","","","","","","","","","","","","76","L","3","","","100","main_expt",""
"","bandit","180","510021","0.0-141.0-0.0","43391910","wem/bandit_either_3","AEO84PDSWW0W","either","6","331","","","","","","","1","0","0","0.6690961394","","0.8","0.4","0.2","0.6","","","","","0.1037928869","0.8784151442","0.6865981462","0.6690961394","","","","","","","","76","L","3","","","101","main_expt",""
"","bandit","181","511897","0.0-142.0-0.0","43391910","wem/bandit_either_3","AEO84PDSWW0W","either","6","357","","","","","","","0","0","1","0.6268844929","","0.8","0.4","0.2","0.6","","","","","0.0991068806","0.8781202538","0.6663704066","0.6268844929","","","","","","","","76","L","3","","","102","main_expt",""
"","bandit","182","513747","0.0-143.0-0.0","43391910","wem/bandit_either_3","AEO84PDSWW0W","either","6","312","","","","","","","0","0","1","0.6657789595","","0.8","0.4","0.2","0.6","","","","","0.1226752409","0.8123732176","0.6006744832","0.6657789595","","","","","","","","76","L","3","","","103","main_expt",""
"","bandit","183","515603","0.0-144.0-0.0","43391910","wem/bandit_either_3","AEO84PDSWW0W","either","6","319","","","","","","","0","1","0","","0.6951589836","0.8","0.4","0.2","0.6","0.1552466415","0.8461937008","0.518723913","0.6951589836","","","","","","","","","","","","76","L","3","","","104","main_expt",""
"","bandit","184","517488","0.0-145.0-0.0","43391910","wem/bandit_either_3","AEO84PDSWW0W","either","6","344","","","","","","","0","0","1","","0.6382729445","0.8","0.4","0.2","0.6","0.1702138509","0.8664825842","0.5343999165","0.6382729445","","","","","","","","","","","","76","L","3","","","105","main_expt",""
"","bandit","185","519157","0.0-146.0-0.0","43391910","wem/bandit_either_3","AEO84PDSWW0W","either","6","130","","","","","","","1","0","0","0.8703997655","","0.8","0.4","0.2","0.6","","","","","0.2021425125","0.8703997655","0.4959998489","0.7139624249","","","","","","","","74","J","1","","","106","main_expt",""
"","bandit","186","520965","0.0-147.0-0.0","43391910","wem/bandit_either_3","AEO84PDSWW0W","either","6","281","","","","","","","1","0","0","0.8964314806","","0.8","0.4","0.2","0.6","","","","","0.2196373816","0.8964314806","0.5052663648","0.7718136471","","","","","","","","74","J","1","","","107","main_expt",""
"","bandit","187","522827","0.0-148.0-0.0","43391910","wem/bandit_either_3","AEO84PDSWW0W","either","6","314","","","","","","","1","0","0","0.9080126319","","0.8","0.4","0.2","0.6","","","","","0.2393661099","0.9080126319","0.4859582203","0.8818715302","","","","","","","","74","J","1","","","108","main_expt",""
"","bandit","188","524709","0.0-149.0-0.0","43391910","wem/bandit_either_3","AEO84PDSWW0W","either","6","316","","","","","","","0","1","0","","0.8880845243","0.8","0.4","0.2","0.6","0.2516352594","0.8880845243","0.523617738","0.8757741924","","","","","","","","","","","","74","J","1","","","109","main_expt",""
"","bandit","189","526521","0.0-150.0-0.0","43391910","wem/bandit_either_3","AEO84PDSWW0W","either","6","278","","","","","","","1","0","0","0.899251136","","0.8","0.4","0.2","0.6","","","","","0.2424291788","0.899251136","0.5492010791","0.8657151097","","","","","","","","74","J","1","","","110","main_expt",""
"","bandit","190","528371","0.0-151.0-0.0","43391910","wem/bandit_either_3","AEO84PDSWW0W","either","6","313","","","","","","","0","1","0","","0.9019514556","0.8","0.4","0.2","0.6","0.2033086481","0.9019514556","0.5467154696","0.8457624762","","","","","","","","","","","","74","J","1","","","111","main_expt",""
"","bandit","191","530200","0.0-152.0-0.0","43391910","wem/bandit_either_3","AEO84PDSWW0W","either","6","298","","","","","","","0","1","0","","0.9315537639","0.8","0.4","0.2","0.6","0.208613213","0.9315537639","0.5396215981","0.8756116827","","","","","","","","","","","","74","J","1","","","112","main_expt",""
"","bandit","192","532089","0.0-153.0-0.0","43391910","wem/bandit_either_3","AEO84PDSWW0W","either","6","358","","","","","","","0","1","0","","0.9254394702","0.8","0.4","0.2","0.6","0.2743958833","0.9254394702","0.5542875214","0.8773181328","","","","","","","","","","","","74","J","1","","","113","main_expt",""
"","bandit","193","533940","0.0-154.0-0.0","43391910","wem/bandit_either_3","AEO84PDSWW0W","either","6","314","","","","","","","1","0","0","0.9394904604","","0.8","0.4","0.2","0.6","","","","","0.2657329006","0.9394904604","0.6411428718","0.8842236373","","","","","","","","74","J","1","","","114","main_expt",""
"","bandit","194","535760","0.0-155.0-0.0","43391910","wem/bandit_either_3","AEO84PDSWW0W","either","6","296","","","","","","","0","1","0","","0.9533355239","0.8","0.4","0.2","0.6","0.3234316928","0.9533355239","0.7261400339","0.8499121835","","","","","","","","","","","","74","J","1","","","115","main_expt",""
"","bandit","195","537566","0.0-156.0-0.0","43391910","wem/bandit_either_3","AEO84PDSWW0W","either","6","285","","","","","","","1","0","0","0.960842596","","0.8","0.4","0.2","0.6","","","","","0.3625587123","0.960842596","0.7395407697","0.7890056153","","","","","","","","74","J","1","","","116","main_expt",""
"","bandit","196","539391","0.0-157.0-0.0","43391910","wem/bandit_either_3","AEO84PDSWW0W","either","6","295","","","","","","","0","0","1","","0.937733065","0.8","0.4","0.2","0.6","0.4946904956","0.937733065","0.8231731708","0.7709890197","","","","","","","","","","","","74","J","1","","","117","main_expt",""
"","bandit","197","541230","0.0-158.0-0.0","43391910","wem/bandit_either_3","AEO84PDSWW0W","either","6","304","","","","","","","1","0","0","0.9561499645","","0.8","0.4","0.2","0.6","","","","","0.6246330079","0.9561499645","0.8278750807","0.7459937787","","","","","","","","74","J","1","","","118","main_expt",""
"","bandit","198","543100","0.0-159.0-0.0","43391910","wem/bandit_either_3","AEO84PDSWW0W","either","6","353","","","","","","","1","0","0","0.9595118281","","0.8","0.4","0.2","0.6","","","","","0.5818097722","0.9595118281","0.8715827524","0.716881491","","","","","","","","74","J","1","","","119","main_expt",""
"","bandit","199","544951","0.0-160.0-0.0","43391910","wem/bandit_either_3","AEO84PDSWW0W","either","6","307","","","","","","","0","1","0","","0.9548463758","0.8","0.4","0.2","0.6","0.5990025551","0.9548463758","0.8522670476","0.6595649419","","","","","","","","","","","","74","J","1","","","120","main_expt",""
"","bandit","200","546486","0.0-161.0-0.0","43391910","wem/bandit_either_3","AEO84PDSWW0W","either","6","1","","","","","","","1","0","0","0.958085665","","0.8","0.4","0.2","0.6","","","","","0.6534424477","0.958085665","0.8266542562","0.6576447048","","","","","","","","74","J","1","","","121","main_expt",""
"","bandit","201","548216","0.0-162.0-0.0","43391910","wem/bandit_either_3","AEO84PDSWW0W","either","6","210","","","","","","","1","0","0","0.9630601427","","0.8","0.4","0.2","0.6","","","","","0.5952731017","0.9630601427","0.81688531","0.6391957719","","","","","","","","74","J","1","","","122","main_expt",""
"","bandit","202","550052","0.0-163.0-0.0","43391910","wem/bandit_either_3","AEO84PDSWW0W","either","6","301","","","","","","","0","1","0","","0.9790283764","0.8","0.4","0.2","0.6","0.6469086187","0.9790283764","0.8307363081","0.5873908865","","","","","","","","","","","","74","J","1","","","123","main_expt",""
"","bandit","203","551840","0.0-164.0-0.0","43391910","wem/bandit_either_3","AEO84PDSWW0W","either","6","246","","","","","","","0","1","0","","0.9718765302","0.8","0.4","0.2","0.6","0.6911454426","0.9718765302","0.6943824695","0.6592760984","","","","","","","","","","","","74","J","1","","","124","main_expt",""
"","bandit","204","554428","0.0-165.0-0.0","43391910","wem/bandit_either_3","AEO84PDSWW0W","either","6","1064","","","","","","","1","0","0","0.9845173964","","0.8","0.4","0.2","0.6","","","","","0.750572215","0.9845173964","0.7137568944","0.6012083746","","","","","","","","74","J","1","","","125","main_expt",""
"","bandit","205","556176","0.0-166.0-0.0","43391910","wem/bandit_either_3","AEO84PDSWW0W","either","6","220","","","","","","","1","0","0","0.9804670004","","0.8","0.4","0.2","0.6","","","","","0.8108432581","0.9804670004","0.6878742658","0.6043440275","","","","","","","","74","J","1","","","126","main_expt",""
"","bandit","206","558004","0.0-167.0-0.0","43391910","wem/bandit_either_3","AEO84PDSWW0W","either","6","280","","","","","","","0","1","0","","0.9792667249","0.8","0.4","0.2","0.6","0.8338196277","0.9792667249","0.6175454059","0.5043142332","","","","","","","","","","","","74","J","1","","","127","main_expt",""
"","bandit","207","559885","0.0-168.0-0.0","43391910","wem/bandit_either_3","AEO84PDSWW0W","either","6","322","","","","","","","1","0","0","0.9853815399","","0.8","0.4","0.2","0.6","","","","","0.8624128669","0.9853815399","0.5556505876","0.5778209799","","","","","","","","74","J","1","","","128","main_expt",""
"","bandit","208","562032","0.0-169.0-0.0","43391910","wem/bandit_either_3","AEO84PDSWW0W","either","6","628","","","","","","","1","0","0","0.9838319732","","0.8","0.4","0.2","0.6","","","","","0.9026068167","0.9838319732","0.5948532478","0.5806273004","","","","","","","","74","J","1","","","129","main_expt",""
"","bandit","209","563643","0.0-170.0-0.0","43391910","wem/bandit_either_3","AEO84PDSWW0W","either","6","84","","","","","","","1","0","0","0.9798768453","","0.8","0.4","0.2","0.6","","","","","0.8983636673","0.9798768453","0.6646968067","0.4152233618","","","","","","","","74","J","1","","","130","main_expt",""
"","bandit","210","565450","0.0-171.0-0.0","43391910","wem/bandit_either_3","AEO84PDSWW0W","either","6","277","","","","","","","0","1","0","","0.9628017066","0.8","0.4","0.2","0.6","0.888478962","0.9628017066","0.6676177377","0.4527057242","","","","","","","","","","","","74","J","1","","","131","main_expt",""
"","bandit","211","567270","0.0-172.0-0.0","43391910","wem/bandit_either_3","AEO84PDSWW0W","either","6","275","","","","","","","0","1","0","","0.9723970119","0.8","0.4","0.2","0.6","0.8470567254","0.9723970119","0.7638630926","0.5185753891","","","","","","","","","","","","74","J","1","","","132","main_expt",""
"","bandit","212","569095","0.0-173.0-0.0","43391910","wem/bandit_either_3","AEO84PDSWW0W","either","6","298","","","","","","","0","1","0","","0.9754432393","0.8","0.4","0.2","0.6","0.8852081265","0.9754432393","0.726350598","0.4567386081","","","","","","","","","","","","74","J","1","","","133","main_expt",""
"","bandit","213","570887","0.0-174.0-0.0","43391910","wem/bandit_either_3","AEO84PDSWW0W","either","6","258","","","","","","","0","1","0","","0.9635376407","0.8","0.4","0.2","0.6","0.8317422298","0.9635376407","0.7638059904","0.4494056808","","","","","","","","","","","","74","J","1","","","134","main_expt",""
"","bandit","214","572750","0.0-175.0-0.0","43391910","wem/bandit_either_3","AEO84PDSWW0W","either","6","320","","","","","","","0","1","0","","0.9304273523","0.8","0.4","0.2","0.6","0.8121858422","0.9304273523","0.7337835984","0.4608562393","","","","","","","","","","","","74","J","1","","","135","main_expt",""
"","bandit","215","574575","0.0-176.0-0.0","43391910","wem/bandit_either_3","AEO84PDSWW0W","either","6","289","","","","","","","1","0","0","0.9295592062","","0.8","0.4","0.2","0.6","","","","","0.8473276522","0.9295592062","0.7869055623","0.6684020244","","","","","","","","74","J","1","","","136","main_expt",""
"","bandit","216","576430","0.0-177.0-0.0","43391910","wem/bandit_either_3","AEO84PDSWW0W","either","6","333","","","","","","","1","0","0","0.9343332129","","0.8","0.4","0.2","0.6","","","","","0.8251243182","0.9343332129","0.8033651193","0.614137061","","","","","","","","74","J","1","","","137","main_expt",""
"","bandit","217","578355","0.0-178.0-0.0","43391910","wem/bandit_either_3","AEO84PDSWW0W","either","6","392","","","","","","","1","0","0","0.9325781127","","0.8","0.4","0.2","0.6","","","","","0.7892590299","0.9325781127","0.7620089345","0.711021659","","","","","","","","74","J","1","","","138","main_expt",""
"","bandit","218","580208","0.0-179.0-0.0","43391910","wem/bandit_either_3","AEO84PDSWW0W","either","6","315","","","","","","","0","0","1","0.9687763229","","0.8","0.4","0.2","0.6","","","","","0.753698647","0.9687763229","0.8098853196","0.5731932267","","","","","","","","74","J","1","","","139","main_expt",""
"","bandit","219","582053","0.0-180.0-0.0","43391910","wem/bandit_either_3","AEO84PDSWW0W","either","6","311","","","","","","","0","1","0","","0.9520204639","0.8","0.4","0.2","0.6","0.7281837229","0.9520204639","0.8737133651","0.6553783698","","","","","","","","","","","","74","J","1","","","140","main_expt",""
"","bandit","220","583927","0.0-181.0-0.0","43391910","wem/bandit_either_3","AEO84PDSWW0W","either","6","305","","","","","","","0","1","0","","0.9615613541","0.8","0.4","0.2","0.6","0.7913145473","0.9615613541","0.8464817719","0.5665224918","","","","","","","","","","","","74","J","1","","","141","main_expt",""
"","bandit","221","585826","0.0-182.0-0.0","43391910","wem/bandit_either_3","AEO84PDSWW0W","either","6","348","","","","","","","1","0","0","0.9438722422","","0.8","0.4","0.2","0.6","","","","","0.7498898283","0.9438722422","0.8457688645","0.5230460729","","","","","","","","74","J","1","","","142","main_expt",""
"","bandit","222","587636","0.0-183.0-0.0","43391910","wem/bandit_either_3","AEO84PDSWW0W","either","6","278","","","","","","","0","1","0","","0.9419241064","0.8","0.4","0.2","0.6","0.723110339","0.9419241064","0.8801682128","0.5401897842","","","","","","","","","","","","74","J","1","","","143","main_expt",""
"","bandit","223","589500","0.0-184.0-0.0","43391910","wem/bandit_either_3","AEO84PDSWW0W","either","6","335","","","","","","","0","1","0","","0.9383966058","0.8","0.4","0.2","0.6","0.7697142539","0.9383966058","0.7806105972","0.5495292383","","","","","","","","","","","","74","J","1","","","144","main_expt",""
"","bandit","224","591644","0.0-185.0-0.0","43391910","wem/bandit_either_3","AEO84PDSWW0W","either","6","614","","","","","","","0","1","0","","0.9442204223","0.8","0.4","0.2","0.6","0.8279494337","0.9442204223","0.7384744451","0.4718854897","","","","","","","","","","","","74","J","1","","","145","main_expt",""
"","bandit","225","593554","0.0-186.0-0.0","43391910","wem/bandit_either_3","AEO84PDSWW0W","either","6","340","","","","","","","1","0","0","0.9461270134","","0.8","0.4","0.2","0.6","","","","","0.747104877","0.9461270134","0.7078417075","0.3790577705","","","","","","","","74","J","1","","","146","main_expt",""
"","bandit","226","595436","0.0-187.0-0.0","43391910","wem/bandit_either_3","AEO84PDSWW0W","either","6","353","","","","","","","0","1","0","","0.9677113618","0.8","0.4","0.2","0.6","0.7635883185","0.9677113618","0.7671729372","0.3671333747","","","","","","","","","","","","74","J","1","","","147","main_expt",""
"","bandit","227","597383","0.0-188.0-0.0","43391910","wem/bandit_either_3","AEO84PDSWW0W","either","6","401","","","","","","","1","0","0","0.9603287673","","0.8","0.4","0.2","0.6","","","","","0.6650729927","0.9603287673","0.7515071201","0.4462771912","","","","","","","","74","J","1","","","148","main_expt",""
"","bandit","228","599251","0.0-189.0-0.0","43391910","wem/bandit_either_3","AEO84PDSWW0W","either","6","335","","","","","","","1","0","0","0.9256305183","","0.8","0.4","0.2","0.6","","","","","0.594527628","0.9256305183","0.7582160768","0.3929125452","","","","","","","","74","J","1","","","149","main_expt",""
"","bandit","229","601151","0.0-190.0-0.0","43391910","wem/bandit_either_3","AEO84PDSWW0W","either","6","371","","","","","","","0","1","0","","0.9222609783","0.8","0.4","0.2","0.6","0.5101412162","0.9222609783","0.6843302658","0.3825194633","","","","","","","","","","","","74","J","1","","","150","main_expt",""
"","bandit","230","603027","0.0-191.0-0.0","43391910","wem/bandit_either_3","AEO84PDSWW0W","either","6","344","","","","","","","0","1","0","","0.9522131909","0.8","0.4","0.2","0.6","0.5755011036","0.9522131909","0.4980827124","0.3889652011","","","","","","","","","","","","74","J","1","","","151","main_expt",""
"","bandit","231","604990","0.0-192.0-0.0","43391910","wem/bandit_either_3","AEO84PDSWW0W","either","6","442","","","","","","","0","1","0","","0.9351777179","0.8","0.4","0.2","0.6","0.5415628766","0.9351777179","0.5418861514","0.372169082","","","","","","","","","","","","74","J","1","","","152","main_expt",""
"","bandit","232","606863","0.0-193.0-0.0","43391910","wem/bandit_either_3","AEO84PDSWW0W","either","6","295","","","","","","","1","0","0","0.9526549669","","0.8","0.4","0.2","0.6","","","","","0.6392888902","0.9526549669","0.6424708626","0.4275919172","","","","","","","","74","J","1","","","153","main_expt",""
"","bandit","233","608722","0.0-194.0-0.0","43391910","wem/bandit_either_3","AEO84PDSWW0W","either","6","324","","","","","","","1","0","0","0.944677936","","0.8","0.4","0.2","0.6","","","","","0.6798835142","0.944677936","0.6200403258","0.3978897223","","","","","","","","74","J","1","","","154","main_expt",""
"","bandit","234","610581","0.0-195.0-0.0","43391910","wem/bandit_either_3","AEO84PDSWW0W","either","6","305","","","","","","","0","0","1","0.9443948233","","0.8","0.4","0.2","0.6","","","","","0.7376683638","0.9443948233","0.5087788092","0.4922143253","","","","","","","","74","J","1","","","155","main_expt",""
"","bandit","235","612459","0.0-196.0-0.0","43391910","wem/bandit_either_3","AEO84PDSWW0W","either","6","330","","","","","","","1","0","0","0.9312029685","","0.8","0.4","0.2","0.6","","","","","0.7740838489","0.9312029685","0.4397360723","0.5060601407","","","","","","","","74","J","1","","","156","main_expt",""
"","bandit","236","614280","0.0-197.0-0.0","43391910","wem/bandit_either_3","AEO84PDSWW0W","either","6","271","","","","","","","0","1","0","","0.9009413449","0.8","0.4","0.2","0.6","0.7526352547","0.9009413449","0.4529934193","0.56460533","","","","","","","","","","","","74","J","1","","","157","main_expt",""
"","bandit","237","616089","0.0-198.0-0.0","43391910","wem/bandit_either_3","AEO84PDSWW0W","either","6","284","","","","","","","1","0","0","0.8799225656","","0.8","0.4","0.2","0.6","","","","","0.807066173","0.8799225656","0.522014142","0.5551408743","","","","","","","","74","J","1","","","158","main_expt",""
"","bandit","238","617696","0.0-199.0-0.0","43391910","wem/bandit_either_3","AEO84PDSWW0W","either","6","73","","","","","","","1","0","0","0.9103166083","","0.8","0.4","0.2","0.6","","","","","0.8348587906","0.9103166083","0.447178695","0.6362487126","","","","","","","","74","J","1","","","159","main_expt",""
"","bandit","239","619541","0.0-200.0-0.0","43391910","wem/bandit_either_3","AEO84PDSWW0W","either","6","301","","","","","","","1","0","0","0.9575168601","","0.8","0.4","0.2","0.6","","","","","0.8054329593","0.9575168601","0.4293784973","0.5818198138","","","","","","","","74","J","1","","","160","main_expt",""
"","bandit","240","621407","0.0-201.0-0.0","43391910","wem/bandit_either_3","AEO84PDSWW0W","either","6","324","","","","","","","1","0","0","0.9323430526","","0.8","0.4","0.2","0.6","","","","","0.8263011938","0.9323430526","0.4263694152","0.5079421761","","","","","","","","74","J","1","","","161","main_expt",""
"","bandit","241","623275","0.0-202.0-0.0","43391910","wem/bandit_either_3","AEO84PDSWW0W","either","6","321","","","","","","","0","1","0","","0.8731035433","0.8","0.4","0.2","0.6","0.8468561623","0.8731035433","0.4394756583","0.3944353318","","","","","","","","","","","","74","J","1","","","162","main_expt",""
"","bandit","242","625098","0.0-203.0-0.0","43391910","wem/bandit_either_3","AEO84PDSWW0W","either","6","276","","","","","","","0","1","0","","0.860239847","0.8","0.4","0.2","0.6","0.866861138","0.860239847","0.4632532181","0.4560534757","","","","","","","","","","","","74","J","1","","","163","main_expt",""
"","bandit","243","626996","0.0-204.0-0.0","43391910","wem/bandit_either_3","AEO84PDSWW0W","either","6","362","","","","","","","0","1","0","","0.8327160304","0.8","0.4","0.2","0.6","0.8621839131","0.8327160304","0.469091439","0.4338988853","","","","","","","","","","","","74","J","1","","","164","main_expt",""
"","bandit","244","628905","0.0-205.0-0.0","43391910","wem/bandit_either_3","AEO84PDSWW0W","either","6","353","","","","","","","1","0","0","0.8780399083","","0.8","0.4","0.2","0.6","","","","","0.8368369455","0.8780399083","0.4691854483","0.3640020004","","","","","","","","74","J","1","","","165","main_expt",""
"","bandit","245","630772","0.0-206.0-0.0","43391910","wem/bandit_either_3","AEO84PDSWW0W","either","6","337","","","","","","","1","0","0","0.8659509199","","0.8","0.4","0.2","0.6","","","","","0.8543831227","0.8659509199","0.424594696","0.4433911144","","","","","","","","74","J","1","","","166","main_expt",""
"","bandit","246","632599","0.0-207.0-0.0","43391910","wem/bandit_either_3","AEO84PDSWW0W","either","6","297","","","","","","","1","0","0","0.8458676595","","0.8","0.4","0.2","0.6","","","","","0.8444257961","0.8458676595","0.4691217736","0.4852122499","","","","","","","","74","J","1","","","167","main_expt",""
"","bandit","247","634504","0.0-208.0-0.0","43391910","wem/bandit_either_3","AEO84PDSWW0W","either","6","367","","","","","","","0","1","0","","0.7368025647","0.8","0.4","0.2","0.6","0.8895061166","0.7368025647","0.4605946041","0.4829488348","","","","","","","","","","","","74","J","1","","","168","main_expt",""
"","bandit","248","636390","0.0-209.0-0.0","43391910","wem/bandit_either_3","AEO84PDSWW0W","either","6","365","","","","","","","1","0","0","0.6811301937","","0.8","0.4","0.2","0.6","","","","","0.8980662015","0.6811301937","0.4302520818","0.467087579","","","","","","","","74","J","1","","","169","main_expt",""
"","bandit","249","638441","0.0-210.0-0.0","43391910","wem/bandit_either_3","AEO84PDSWW0W","either","6","518","","","","","","","0","0","1","","0.6781719117","0.8","0.4","0.2","0.6","0.9399190154","0.6781719117","0.3846086554","0.3575164989","","","","","","","","","","","","74","J","1","","","170","main_expt",""
"","bandit","250","640285","0.0-211.0-0.0","43391910","wem/bandit_either_3","AEO84PDSWW0W","either","6","328","","","","","","","0","1","0","","0.5779776893","0.8","0.4","0.2","0.6","0.9199626721","0.5779776893","0.4938912128","0.3433755155","","","","","","","","","","","","74","J","1","","","171","main_expt",""
"","bandit","251","642092","0.0-212.0-0.0","43391910","wem/bandit_either_3","AEO84PDSWW0W","either","6","269","","","","","","","0","0","1","","0.5461867433","0.8","0.4","0.2","0.6","0.8885959212","0.5461867433","0.5409242696","0.2921203137","","","","","","","","","","","","74","J","1","","","172","main_expt",""
"","bandit","252","643906","0.0-213.0-0.0","43391910","wem/bandit_either_3","AEO84PDSWW0W","either","6","289","","","","","","","0","0","1","","0.5898781272","0.8","0.4","0.2","0.6","0.8502068985","0.5898781272","0.4899310385","0.3237382503","","","","","","","","","","","","74","J","1","","","173","main_expt",""
"","bandit","253","645809","0.0-214.0-0.0","43391910","wem/bandit_either_3","AEO84PDSWW0W","either","6","376","","","","","","","1","0","0","0.5990225055","","0.8","0.4","0.2","0.6","","","","","0.9054067092","0.5990225055","0.4464532747","0.2935635685","","","","","","","","74","J","1","","","174","main_expt",""
"","bandit","254","647634","0.0-215.0-0.0","43391910","wem/bandit_either_3","AEO84PDSWW0W","either","6","291","","","","","","","0","1","0","","0.6129624105","0.8","0.4","0.2","0.6","0.9096893241","0.6129624105","0.4363040476","0.2797951809","","","","","","","","","","","","74","J","1","","","175","main_expt",""
"","bandit","255","649446","0.0-216.0-0.0","43391910","wem/bandit_either_3","AEO84PDSWW0W","either","6","275","","","","","","","0","0","1","0.5434192492","","0.8","0.4","0.2","0.6","","","","","0.9081003197","0.5434192492","0.4198776974","0.2067270565","","","","","","","","74","J","1","","","176","main_expt",""
"","bandit","256","651628","0.0-217.0-0.0","43391910","wem/bandit_either_3","AEO84PDSWW0W","either","6","643","","","","","","","1","0","0","0.8417535431","","0.8","0.4","0.2","0.6","","","","","0.8417535431","0.5893108522","0.4001478854","0.19266164","","","","","","","","72","H","0","img/none_selected.jpg","","177","main_expt",""
"","bandit","257","653487","0.0-218.0-0.0","43391910","wem/bandit_either_3","AEO84PDSWW0W","either","6","295","","","","","","","1","0","0","0.8045518304","","0.8","0.4","0.2","0.6","","","","","0.8045518304","0.4862463398","0.3015477047","0.1393448617","","","","","","","","72","H","0","img/none_selected.jpg","","178","main_expt",""
"","bandit","258","655528","0.0-219.0-0.0","43391910","wem/bandit_either_3","AEO84PDSWW0W","either","6","486","","","","","","","0","1","0","","0.8250115846","0.8","0.4","0.2","0.6","0.8250115846","0.4227787996","0.2700131006","0.1149816072","","","","","","","","","","","","72","H","0","img/none_selected.jpg","","179","main_expt",""
"","bandit","259","657274","0.0-220.0-0.0","43391910","wem/bandit_either_3","AEO84PDSWW0W","either","6","200","","","","","","","1","0","0","0.7418096358","","0.8","0.4","0.2","0.6","","","","","0.7418096358","0.3583368423","0.3473069","0.1231561222","","","","","","","","72","H","0","img/none_selected.jpg","","180","main_expt",""
"","bandit","260","658833","0.0-221.0-0.0","43391910","wem/bandit_either_3","AEO84PDSWW0W","either","6","19","","","","","","","1","0","0","0.7180260456","","0.8","0.4","0.2","0.6","","","","","0.7180260456","0.3820052134","0.3478804011","0.1134989143","","","","","","","","72","H","0","img/none_selected.jpg","","181","main_expt",""
"","bandit","261","660487","0.0-222.0-0.0","43391910","wem/bandit_either_3","AEO84PDSWW0W","either","6","107","","","","","","","0","0","1","0.6777378447","","0.8","0.4","0.2","0.6","","","","","0.6777378447","0.437769555","0.3304981007","0.07317944644","","","","","","","","72","H","0","img/none_selected.jpg","","182","main_expt",""
"","bandit","262","662765","0.0-223.0-0.0","43391910","wem/bandit_either_3","AEO84PDSWW0W","either","6","753","","","","","","","1","0","0","0.6331465848","","0.8","0.4","0.2","0.6","","","","","0.6331465848","0.3951330089","0.2578466268","0.05085611098","","","","","","","","72","H","0","img/none_selected.jpg","","183","main_expt",""
"","bandit","263","664687","0.0-224.0-0.0","43391910","wem/bandit_either_3","AEO84PDSWW0W","either","6","373","","","","","","","1","0","0","0.6578519513","","0.8","0.4","0.2","0.6","","","","","0.6578519513","0.4062376343","0.3550464129","0.07152820202","","","","","","","","72","H","0","img/none_selected.jpg","","184","main_expt",""
"","bandit","264","666490","0.0-225.0-0.0","43391910","wem/bandit_either_3","AEO84PDSWW0W","either","6","283","","","","","","","0","0","1","","0.7160298793","0.8","0.4","0.2","0.6","0.7160298793","0.4035727276","0.2993299556","0.08814522307","","","","","","","","","","","","72","H","0","img/none_selected.jpg","","185","main_expt",""
"","bandit","265","668453","0.0-226.0-0.0","43391910","wem/bandit_either_3","AEO84PDSWW0W","either","6","440","","","","","","","1","0","0","0.7081703269","","0.8","0.4","0.2","0.6","","","","","0.7081703269","0.4595565904","0.3985972224","0.0931487442","","","","","","","","72","H","0","img/none_selected.jpg","","186","main_expt",""
"","bandit","266","670419","0.0-227.0-0.0","43391910","wem/bandit_either_3","AEO84PDSWW0W","either","6","430","","","","","","","1","0","0","0.7670757258","","0.8","0.4","0.2","0.6","","","","","0.7670757258","0.4956959756","0.4563810555","0.05847154344","","","","","","","","72","H","0","img/none_selected.jpg","","187","main_expt",""
"","bandit","267","672428","0.0-228.0-0.0","43391910","wem/bandit_either_3","AEO84PDSWW0W","either","6","479","","","","","","","1","0","0","0.7986884496","","0.8","0.4","0.2","0.6","","","","","0.7986884496","0.4295585103","0.4621092719","0.05005107021","","","","","","","","72","H","0","img/none_selected.jpg","","188","main_expt",""
"","bandit","268","674454","0.0-229.0-0.0","43391910","wem/bandit_either_3","AEO84PDSWW0W","either","6","487","","","","","","","1","0","0","0.8113194514","","0.8","0.4","0.2","0.6","","","","","0.8113194514","0.4121259827","0.4214675273","0.05158958255","","","","","","","","72","H","0","img/none_selected.jpg","","189","main_expt",""
"","bandit","269","676361","0.0-230.0-0.0","43391910","wem/bandit_either_3","AEO84PDSWW0W","either","6","373","","","","","","","1","0","0","0.8311477635","","0.8","0.4","0.2","0.6","","","","","0.8311477635","0.40505342","0.4445162903","0.0530996007","","","","","","","","72","H","0","img/none_selected.jpg","","190","main_expt",""
"","bandit","270","678213","0.0-231.0-0.0","43391910","wem/bandit_either_3","AEO84PDSWW0W","either","6","318","","","","","","","0","1","0","","0.7941336253","0.8","0.4","0.2","0.6","0.7941336253","0.3671493273","0.4077799102","0.05342003941","","","","","","","","","","","","72","H","0","img/none_selected.jpg","","191","main_expt",""
"","bandit","271","680226","0.0-232.0-0.0","43391910","wem/bandit_either_3","AEO84PDSWW0W","either","6","438","","","","","","","0","1","0","","0.841847859","0.8","0.4","0.2","0.6","0.841847859","0.3367263454","0.413117206","0.05264216412","","","","","","","","","","","","72","H","0","img/none_selected.jpg","","192","main_expt",""
"","bandit","272","682126","0.0-233.0-0.0","43391910","wem/bandit_either_3","AEO84PDSWW0W","either","6","347","","","","","","","1","0","0","0.865127625","","0.8","0.4","0.2","0.6","","","","","0.865127625","0.2587514209","0.374663265","0.07418965368","","","","","","","","72","H","0","img/none_selected.jpg","","193","main_expt",""
"","bandit","273","684207","0.0-234.0-0.0","43391910","wem/bandit_either_3","AEO84PDSWW0W","either","6","550","","","","","","","1","0","0","0.8369883383","","0.8","0.4","0.2","0.6","","","","","0.8369883383","0.2123696513","0.2792309937","0.1148515542","","","","","","","","72","H","0","img/none_selected.jpg","","194","main_expt",""
"","bandit","274","686155","0.0-235.0-0.0","43391910","wem/bandit_either_3","AEO84PDSWW0W","either","6","412","","","","","","","1","0","0","0.8226177272","","0.8","0.4","0.2","0.6","","","","","0.8226177272","0.2551117677","0.3090424304","0.1102075851","","","","","","","","72","H","0","img/none_selected.jpg","","195","main_expt",""
"","bandit","275","688092","0.0-236.0-0.0","43391910","wem/bandit_either_3","AEO84PDSWW0W","either","6","407","","","","","","","0","0","1","","0.8759919892","0.8","0.4","0.2","0.6","0.8759919892","0.2948177706","0.2254203465","0.09307195637","","","","","","","","","","","","72","H","0","img/none_selected.jpg","","196","main_expt",""
"","bandit","276","689954","0.0-237.0-0.0","43391910","wem/bandit_either_3","AEO84PDSWW0W","either","6","301","","","","","","","1","0","0","0.9413038234","","0.8","0.4","0.2","0.6","","","","","0.9413038234","0.2864074111","0.2104085952","0.08341332984","","","","","","","","72","H","0","img/none_selected.jpg","","197","main_expt",""
"","bandit","277","691798","0.0-238.0-0.0","43391910","wem/bandit_either_3","AEO84PDSWW0W","either","6","297","","","","","","","1","0","0","0.9384937307","","0.8","0.4","0.2","0.6","","","","","0.9384937307","0.3044962429","0.1686499416","0.06206278739","","","","","","","","72","H","0","img/none_selected.jpg","","198","main_expt",""
"","bandit","278","693723","0.0-239.0-0.0","43391910","wem/bandit_either_3","AEO84PDSWW0W","either","6","354","","","","","","","0","1","0","","0.927250614","0.8","0.4","0.2","0.6","0.927250614","0.2804127106","0.1696058054","0.1015706687","","","","","","","","","","","","72","H","0","img/none_selected.jpg","","199","main_expt",""
"","bandit","279","695763","0.0-240.0-0.0","43391910","wem/bandit_either_3","AEO84PDSWW0W","either","6","470","","","","","","","0","1","0","","0.8840406778","0.8","0.4","0.2","0.6","0.8840406778","0.3151112274","0.1940139532","0.07348353789","","","","","","","","","","","","72","H","0","img/none_selected.jpg","","200","main_expt",""
"","bandit","280","697630","0.0-241.0-0.0","43391910","wem/bandit_either_3","AEO84PDSWW0W","either","6","342","","","","","","","0","1","0","","0.8866639954","0.8","0.4","0.2","0.6","0.8866639954","0.3124471347","0.2384341862","0.09218994405","","","","","","","","","","","","72","H","0","img/none_selected.jpg","","201","main_expt",""
"","bandit","281","699445","0.0-242.0-0.0","43391910","wem/bandit_either_3","AEO84PDSWW0W","either","6","277","","","","","","","0","0","1","0.8188103646","","0.8","0.4","0.2","0.6","","","","","0.8188103646","0.3418115628","0.2069173963","0.1662378481","","","","","","","","72","H","0","img/none_selected.jpg","","202","main_expt",""
"","bandit","282","701322","0.0-243.0-0.0","43391910","wem/bandit_either_3","AEO84PDSWW0W","either","6","333","","","","","","","1","0","0","0.8026106274","","0.8","0.4","0.2","0.6","","","","","0.8026106274","0.2676578736","0.2502389624","0.1808123801","","","","","","","","72","H","0","img/none_selected.jpg","","203","main_expt",""
"","bandit","283","703142","0.0-244.0-0.0","43391910","wem/bandit_either_3","AEO84PDSWW0W","either","6","281","","","","","","","1","0","0","0.6613987003","","0.8","0.4","0.2","0.6","","","","","0.6613987003","0.2513587973","0.2226806","0.2011980288","","","","","","","","72","H","0","img/none_selected.jpg","","204","main_expt",""
"","bandit","284","704699","0.0-245.0-0.0","43391910","wem/bandit_either_3","AEO84PDSWW0W","either","6","29","","","","","","","1","0","0","0.7402115251","","0.8","0.4","0.2","0.6","","","","","0.7402115251","0.2733703365","0.2327973494","0.1877492959","","","","","","","","72","H","0","img/none_selected.jpg","","205","main_expt",""
"","bandit","285","706604","0.0-246.0-0.0","43391910","wem/bandit_either_3","AEO84PDSWW0W","either","6","343","","","","","","","0","1","0","","0.6792505986","0.8","0.4","0.2","0.6","0.6792505986","0.3212331514","0.3134624789","0.1891298069","","","","","","","","","","","","72","H","0","img/none_selected.jpg","","206","main_expt",""
"","bandit","286","708425","0.0-247.0-0.0","43391910","wem/bandit_either_3","AEO84PDSWW0W","either","6","284","","","","","","","0","0","1","0.6510378203","","0.8","0.4","0.2","0.6","","","","","0.6510378203","0.3381772831","0.3808856429","0.2092890992","","","","","","","","72","H","0","img/none_selected.jpg","","207","main_expt",""
"","bandit","287","710188","0.0-248.0-0.0","43391910","wem/bandit_either_3","AEO84PDSWW0W","either","6","236","","","","","","","1","0","0","0.5971377862","","0.8","0.4","0.2","0.6","","","","","0.5971377862","0.2370260631","0.318509643","0.2563161799","","","","","","","","72","H","0","img/none_selected.jpg","","208","main_expt",""
"","bandit","288","712027","0.0-249.0-0.0","43391910","wem/bandit_either_3","AEO84PDSWW0W","either","6","285","","","","","","","0","1","0","","0.6040603887","0.8","0.4","0.2","0.6","0.6040603887","0.2157004535","0.2932847295","0.2643940457","","","","","","","","","","","","72","H","0","img/none_selected.jpg","","209","main_expt",""
"","bandit","289","713861","0.0-250.0-0.0","43391910","wem/bandit_either_3","AEO84PDSWW0W","either","6","261","","","","","","","1","0","0","0.7794442159","","0.8","0.4","0.2","0.6","","","","","0.7794442159","0.2655169153","0.2230023122","0.2710870001","","","","","","","","72","H","0","img/none_selected.jpg","","210","main_expt",""
"","bandit","290","715680","0.0-251.0-0.0","43391910","wem/bandit_either_3","AEO84PDSWW0W","either","6","271","","","","","","","0","1","0","","0.8397026392","0.8","0.4","0.2","0.6","0.8397026392","0.2359505063","0.1899351836","0.2056380183","","","","","","","","","","","","72","H","0","img/none_selected.jpg","","211","main_expt",""
"","bandit","291","717445","0.0-252.0-0.0","43391910","wem/bandit_either_3","AEO84PDSWW0W","either","6","223","","","","","","","0","0","1","0.7883870126","","0.8","0.4","0.2","0.6","","","","","0.7883870126","0.2431981852","0.2593929449","0.2487045614","","","","","","","","72","H","0","img/none_selected.jpg","","212","main_expt",""
"","bandit","292","719026","0.0-253.0-0.0","43391910","wem/bandit_either_3","AEO84PDSWW0W","either","6","33","","","","","","","1","0","0","0.7160446845","","0.8","0.4","0.2","0.6","","","","","0.7160446845","0.3385658967","0.2304425673","0.3520378668","","","","","","","","72","H","0","img/none_selected.jpg","","213","main_expt",""
"","bandit","293","721142","0.0-254.0-0.0","43391910","wem/bandit_either_3","AEO84PDSWW0W","either","6","566","","","","","","","1","0","0","0.7501162241","","0.8","0.4","0.2","0.6","","","","","0.7501162241","0.445002088","0.2849244028","0.3455661114","","","","","","","","72","H","0","img/none_selected.jpg","","214","main_expt",""
"","bandit","294","722934","0.0-255.0-0.0","43391910","wem/bandit_either_3","AEO84PDSWW0W","either","6","264","","","","","","","1","0","0","0.7574589115","","0.8","0.4","0.2","0.6","","","","","0.7574589115","0.4340580748","0.3184819088","0.3290646698","","","","","","","","72","H","0","img/none_selected.jpg","","215","main_expt",""
"","bandit","295","724694","0.0-256.0-0.0","43391910","wem/bandit_either_3","AEO84PDSWW0W","either","6","234","","","","","","","0","0","1","","0.7376674805","0.8","0.4","0.2","0.6","0.7376674805","0.3996931216","0.2989728513","0.2737258078","","","","","","","","","","","","72","H","0","img/none_selected.jpg","","216","main_expt",""
"","bandit","296","726536","0.0-257.0-0.0","43391910","wem/bandit_either_3","AEO84PDSWW0W","either","6","290","","","","","","","0","1","0","","0.5538830624","0.8","0.4","0.2","0.6","0.67262171","0.453570069","0.5538830624","0.2401291484","","","","","","","","","","","","75","K","2","","","217","main_expt",""
"","bandit","297","728375","0.0-258.0-0.0","43391910","wem/bandit_either_3","AEO84PDSWW0W","either","6","298","","","","","","","0","0","1","","0.5331458927","0.8","0.4","0.2","0.6","0.6309662891","0.3566620654","0.5331458927","0.2395298113","","","","","","","","","","","","75","K","2","","","218","main_expt",""
"","bandit","298","730330","0.0-259.0-0.0","43391910","wem/bandit_either_3","AEO84PDSWW0W","either","6","422","","","","","","","0","0","1","","0.409279481","0.8","0.4","0.2","0.6","0.610488243","0.3114207129","0.409279481","0.2333127667","","","","","","","","","","","","75","K","2","","","219","main_expt",""
"","bandit","299","732056","0.0-260.0-0.0","43391910","wem/bandit_either_3","AEO84PDSWW0W","either","6","178","","","","","","","0","0","1","","0.3910907299","0.8","0.4","0.2","0.6","0.6741838821","0.348491043","0.3910907299","0.2097963002","","","","","","","","","","","","75","K","2","","","220","main_expt",""
"","bandit","300","734096","0.0-261.0-0.0","43391910","wem/bandit_either_3","AEO84PDSWW0W","either","6","486","","","","","","","1","0","0","0.1761429423","","0.8","0.4","0.2","0.6","","","","","0.6938787555","0.325682353","0.37386253","0.1761429423","","","","","","","","76","L","3","","","221","main_expt",""
"","bandit","301","735943","0.0-262.0-0.0","43391910","wem/bandit_either_3","AEO84PDSWW0W","either","6","312","","","","","","","0","0","1","","0.1770547834","0.8","0.4","0.2","0.6","0.622086605","0.3582518194","0.5460784034","0.1770547834","","","","","","","","","","","","76","L","3","","","222","main_expt",""
"","bandit","302","737556","0.0-263.0-0.0","43391910","wem/bandit_either_3","AEO84PDSWW0W","either","6","49","","","","","","","0","0","1","","0.1494166006","0.8","0.4","0.2","0.6","0.6190419158","0.3596631187","0.5484594206","0.1494166006","","","","","","","","","","","","76","L","3","","","223","main_expt",""
"","bandit","303","739727","0.0-264.0-0.0","43391910","wem/bandit_either_3","AEO84PDSWW0W","either","6","654","","","","","","","0","0","1","0.1444184755","","0.8","0.4","0.2","0.6","","","","","0.6525227655","0.4757784632","0.5156266917","0.1444184755","","","","","","","","76","L","3","","","224","main_expt",""
"","bandit","304","741860","0.0-265.0-0.0","43391910","wem/bandit_either_3","AEO84PDSWW0W","either","6","594","","","","","","","0","0","1","0.5739960468","","0.8","0.4","0.2","0.6","","","","","0.5739960468","0.5384710229","0.5120039273","0.2381889698","","","","","","","","72","H","0","img/none_selected.jpg","","225","main_expt",""
"","bandit","305","743421","0.0-266.0-0.0","43391910","wem/bandit_either_3","AEO84PDSWW0W","either","6","19","","","","","","","1","0","0","0.5308581489","","0.8","0.4","0.2","0.6","","","","","0.6038380469","0.5308581489","0.5568413113","0.1429230379","","","","","","","","74","J","1","","","226","main_expt",""
"","bandit","306","745263","0.0-267.0-0.0","43391910","wem/bandit_either_3","AEO84PDSWW0W","either","6","316","","","","","","","0","1","0","","0.488482713","0.8","0.4","0.2","0.6","0.5203417309","0.488482713","0.5277183188","0.124100867","","","","","","","","","","","","74","J","1","","","227","main_expt",""
"","bandit","307","747085","0.0-268.0-0.0","43391910","wem/bandit_either_3","AEO84PDSWW0W","either","6","286","","","","","","","0","1","0","","0.4406219513","0.8","0.4","0.2","0.6","0.4263922038","0.4406219513","0.5041270258","0.1762219884","","","","","","","","","","","","74","J","1","","","228","main_expt",""
"","bandit","308","748954","0.0-269.0-0.0","43391910","wem/bandit_either_3","AEO84PDSWW0W","either","6","331","","","","","","","0","0","1","","0.4892119921","0.8","0.4","0.2","0.6","0.3475105047","0.4892119921","0.4541369304","0.1910325121","","","","","","","","","","","","74","J","1","","","229","main_expt",""
"","bandit","309","750827","0.0-270.0-0.0","43391910","wem/bandit_either_3","AEO84PDSWW0W","either","6","342","","","","","","","0","0","1","","0.5129573662","0.8","0.4","0.2","0.6","0.3353007417","0.5129573662","0.4504381994","0.2571549068","","","","","","","","","","","","74","J","1","","","230","main_expt",""
"","bandit","310","752729","0.0-271.0-0.0","43391910","wem/bandit_either_3","AEO84PDSWW0W","either","6","355","","","","","","","0","0","1","","0.4698668598","0.8","0.4","0.2","0.6","0.2870546929","0.4382888871","0.4698668598","0.1781345747","","","","","","","","","","","","75","K","2","","","231","main_expt",""
"","bandit","311","754538","0.0-272.0-0.0","43391910","wem/bandit_either_3","AEO84PDSWW0W","either","6","270","","","","","","","0","0","1","0.1748933913","","0.8","0.4","0.2","0.6","","","","","0.3092655517","0.42174841","0.5460008395","0.1748933913","","","","","","","","76","L","3","","","232","main_expt",""
"","bandit","312","756361","0.0-273.0-0.0","43391910","wem/bandit_either_3","AEO84PDSWW0W","either","6","294","","","","","","","0","0","1","0.4231157335","","0.8","0.4","0.2","0.6","","","","","0.4231157335","0.4297142637","0.5345299581","0.2196371411","","","","","","","","72","H","0","img/none_selected.jpg","","233","main_expt",""
"","bandit","313","758263","0.0-274.0-0.0","43391910","wem/bandit_either_3","AEO84PDSWW0W","either","6","374","","","","","","","0","0","1","0.5525929145","","0.8","0.4","0.2","0.6","","","","","0.5525929145","0.3016140143","0.508060833","0.2052749597","","","","","","","","72","H","0","img/none_selected.jpg","","234","main_expt",""
"","bandit","314","760088","0.0-275.0-0.0","43391910","wem/bandit_either_3","AEO84PDSWW0W","either","6","289","","","","","","","1","0","0","0.7239072418","","0.8","0.4","0.2","0.6","","","","","0.7239072418","0.2735586703","0.4956589368","0.3158924645","","","","","","","","72","H","0","img/none_selected.jpg","","235","main_expt",""
"","bandit","315","761929","0.0-276.0-0.0","43391910","wem/bandit_either_3","AEO84PDSWW0W","either","6","295","","","","","","","1","0","0","0.8076920848","","0.8","0.4","0.2","0.6","","","","","0.8076920848","0.2536827631","0.5514737959","0.3668106878","","","","","","","","72","H","0","img/none_selected.jpg","","236","main_expt",""
"","bandit","316","763784","0.0-277.0-0.0","43391910","wem/bandit_either_3","AEO84PDSWW0W","either","6","299","","","","","","","0","0","1","","0.7703095863","0.8","0.4","0.2","0.6","0.7703095863","0.2478783488","0.5183580196","0.3866395083","","","","","","","","","","","","72","H","0","img/none_selected.jpg","","237","main_expt",""
"","bandit","317","765418","0.0-278.0-0.0","43391910","wem/bandit_either_3","AEO84PDSWW0W","either","6","95","","","","","","","0","0","1","0.6485929649","","0.8","0.4","0.2","0.6","","","","","0.6485929649","0.1688186905","0.5320509842","0.4108821033","","","","","","","","72","H","0","img/none_selected.jpg","","238","main_expt",""
"","bandit","318","767182","0.0-279.0-0.0","43391910","wem/bandit_either_3","AEO84PDSWW0W","either","6","245","","","","","","","0","0","1","0.7028133827","","0.8","0.4","0.2","0.6","","","","","0.7028133827","0.1232648298","0.46832295","0.4384900471","","","","","","","","72","H","0","img/none_selected.jpg","","239","main_expt",""
"","bandit","319","769078","0.0-280.0-0.0","43391910","wem/bandit_either_3","AEO84PDSWW0W","either","6","358","","","","","","","1","0","0","0.6620055833","","0.8","0.4","0.2","0.6","","","","","0.6620055833","0.1720424997","0.5024711131","0.4246438665","","","","","","","","72","H","0","img/none_selected.jpg","","240","main_expt",""
"","bandit","320","770870","0.0-281.0-0.0","43391910","wem/bandit_either_3","AEO84PDSWW0W","either","6","261","","","","","","","1","0","0","0.6925250702","","0.8","0.4","0.2","0.6","","","","","0.6925250702","0.1045812876","0.6092933485","0.3783755671","","","","","","","","72","H","0","img/none_selected.jpg","","241","main_expt",""
"","bandit","321","772755","0.0-282.0-0.0","43391910","wem/bandit_either_3","AEO84PDSWW0W","either","6","361","","","","","","","1","0","0","0.7076428944","","0.8","0.4","0.2","0.6","","","","","0.7076428944","0.08136382084","0.5812412386","0.3619864671","","","","","","","","72","H","0","img/none_selected.jpg","","242","main_expt",""
"","bandit","322","774633","0.0-283.0-0.0","43391910","wem/bandit_either_3","AEO84PDSWW0W","either","6","348","","","","","","","0","0","1","0.6671697692","","0.8","0.4","0.2","0.6","","","","","0.6671697692","0.08711917736","0.5582769518","0.4143237557","","","","","","","","72","H","0","img/none_selected.jpg","","243","main_expt",""
"","bandit","323","776578","0.0-284.0-0.0","43391910","wem/bandit_either_3","AEO84PDSWW0W","either","6","420","","","","","","","0","0","1","0.07033008343","","0.8","0.4","0.2","0.6","","","","","0.6829807443","0.07033008343","0.5728611736","0.3883911391","","","","","","","","74","J","1","","","244","main_expt",""
"","bandit","324","778419","0.0-285.0-0.0","43391910","wem/bandit_either_3","AEO84PDSWW0W","either","6","307","","","","","","","0","0","1","","0.04273118291","0.8","0.4","0.2","0.6","0.6068076256","0.04273118291","0.4821733131","0.3724790504","","","","","","","","","","","","74","J","1","","","245","main_expt",""
"","bandit","325","780257","0.0-286.0-0.0","43391910","wem/bandit_either_3","AEO84PDSWW0W","either","6","309","","","","","","","0","0","1","","0.04042754574","0.8","0.4","0.2","0.6","0.5724816315","0.04042754574","0.4114560805","0.4537085426","","","","","","","","","","","","74","J","1","","","246","main_expt",""
