"consent","trial_type","trial_index","time_elapsed","internal_node_id","subjID","study","MID","cond","drift","rt","responses","key_press","expt_phase","like","value","connected","gems","bombs","no_reward","GemPrChosen","BombPrChosen","GainOverPainPr_0","GainOverPainPr_1","GainOverPainPr_2","GainOverPainPr_3","LosePr_0","LosePr_1","LosePr_2","LosePr_3","WinPr_0","WinPr_1","WinPr_2","WinPr_3","Q0","Q1","Q2","gender","age","ethnicity","target","respCharCode","respKey","respChoiceNum","respChoice","practice","trial_counter","trial_label","button_pressed"
"INL_behavioral_consent_30min_online.html","consent","0","6901","0.0-0.0","44367503","wem/bandit_either_3","A2YO837C0O1E91","either","4","","","","","","","","","","","","","","","","","","","","","","","","","","","","","","","","","","","","","","",""
"","survey-text","1","9402","0.0-1.0","44367503","wem/bandit_either_3","A2YO837C0O1E91","either","4","1495","{""Q0"":""A2YO837C0O1E91""}","","","","","","","","","","","","","","","","","","","","","","","","","","","","","","","","","","","","",""
"","text","2","16698","0.0-2.0","44367503","wem/bandit_either_3","A2YO837C0O1E91","either","4","6293","","32","","","","","","","","","","","","","","","","","","","","","","","","","","","","","","","","","","","",""
"","text","3","18975","0.0-3.0","44367503","wem/bandit_either_3","A2YO837C0O1E91","either","4","2277","","32","","","","","","","","","","","","","","","","","","","","","","","","","","","","","","","","","","","",""
"","text","4","27581","0.0-4.0","44367503","wem/bandit_either_3","A2YO837C0O1E91","either","4","8604","","32","","","","","","","","","","","","","","","","","","","","","","","","","","","","","","","","","","","",""
"","text","5","39079","0.0-5.0","44367503","wem/bandit_either_3","A2YO837C0O1E91","either","4","11498","","32","","","","","","","","","","","","","","","","","","","","","","","","","","","","","","","","","","","",""
"","text","6","47327","0.0-6.0","44367503","wem/bandit_either_3","A2YO837C0O1E91","either","4","8247","","32","","","","","","","","","","","","","","","","","","","","","","","","","","","","","","","","","","","",""
"","text","7","49395","0.0-7.0","44367503","wem/bandit_either_3","A2YO837C0O1E91","either","4","2066","","32","","","","","","","","","","","","","","","","","","","","","","","","","","","","","","","","","","","",""
"","text","8","50388","0.0-8.0","44367503","wem/bandit_either_3","A2YO837C0O1E91","either","4","993","","32","","","","","","","","","","","","","","","","","","","","","","","","","","","","","","","","","","","",""
"","identification","9","56089","0.0-9.0-0.0","44367503","wem/bandit_either_3","A2YO837C0O1E91","either","4","5690","","","","5","5","5","","","","","","","","","","","","","","","","","","","","","","","","the village of Zur","","","","","","","",""
"","identification","10","59564","0.0-9.0-1.0","44367503","wem/bandit_either_3","A2YO837C0O1E91","either","4","2465","","","","1","1","1","","","","","","","","","","","","","","","","","","","","","","","","the village of Nyx","","","","","","","",""
"","text","11","73963","0.0-10.0","44367503","wem/bandit_either_3","A2YO837C0O1E91","either","4","13397","","32","","","","","","","","","","","","","","","","","","","","","","","","","","","","","","","","","","","",""
"","text","12","75611","0.0-11.0","44367503","wem/bandit_either_3","A2YO837C0O1E91","either","4","1647","","32","","","","","","","","","","","","","","","","","","","","","","","","","","","","","","","","","","","",""
"","text","13","76910","0.0-12.0","44367503","wem/bandit_either_3","A2YO837C0O1E91","either","4","1298","","32","","","","","","","","","","","","","","","","","","","","","","","","","","","","","","","","","","","",""
"","text","14","78658","0.0-13.0","44367503","wem/bandit_either_3","A2YO837C0O1E91","either","4","1748","","32","","","","","","","","","","","","","","","","","","","","","","","","","","","","","","","","","","","",""
"","bandit","15","81879","0.0-14.0-0.0","44367503","wem/bandit_either_3","A2YO837C0O1E91","either","4","1706","","","","","","","0","0","1","0","0","","","","","0","","","","0","","","","","","","","","","","74","J","0","img/none_selected_demo.jpg","true","0","",""
"","bandit","16","85014","0.0-15.0-0.0","44367503","wem/bandit_either_3","A2YO837C0O1E91","either","4","1613","","","","","","","0","0","1","0","0","","","","","0","","","","0","","","","","","","","","","","75","K","0","img/none_selected_demo.jpg","true","0","",""
"","text","17","87509","0.0-16.0","44367503","wem/bandit_either_3","A2YO837C0O1E91","either","4","2493","","32","","","","","","","","","","","","","","","","","","","","","","","","","","","","","","","","","","","",""
"","text","18","93675","0.0-17.0","44367503","wem/bandit_either_3","A2YO837C0O1E91","either","4","6165","","32","","","","","","","","","","","","","","","","","","","","","","","","","","","","","","","","","","","",""
"","text","19","98223","0.0-18.0","44367503","wem/bandit_either_3","A2YO837C0O1E91","either","4","4547","","32","","","","","","","","","","","","","","","","","","","","","","","","","","","","","","","","","","","",""
"","text","20","100777","0.0-19.0","44367503","wem/bandit_either_3","A2YO837C0O1E91","either","4","2554","","32","","","","","","","","","","","","","","","","","","","","","","","","","","","","","","","","","","","",""
"","bandit","21","102928","0.0-20.0-0.0","44367503","wem/bandit_either_3","A2YO837C0O1E91","either","4","637","","","","","","","0","1","0","","0.8","0.5","0.5","","","0.8","0.2","","","","","","","","","","","","","","74","J","0","img/none_selected_demo.jpg","true","0","80_20_practice",""
"","bandit","22","104783","0.0-20.0-1.0","44367503","wem/bandit_either_3","A2YO837C0O1E91","either","4","334","","","","","","","0","0","1","","0.8","0.5","0.5","","","0.8","0.2","","","","","","","","","","","","","","74","J","0","img/none_selected_demo.jpg","true","0","80_20_practice",""
"","bandit","23","107275","0.0-20.0-2.0","44367503","wem/bandit_either_3","A2YO837C0O1E91","either","4","987","","","","","","","0","1","0","","0.8","0.5","0.5","","","0.8","0.2","","","","","","","","","","","","","","74","J","0","img/none_selected_demo.jpg","true","0","80_20_practice",""
"","bandit","24","108806","0.0-20.0-3.0","44367503","wem/bandit_either_3","A2YO837C0O1E91","either","4","22","","","","","","","0","0","1","0.2","","0.5","0.5","","","","","","","0.8","0.2","","","","","","","","","","75","K","1","","true","0","80_20_practice",""
"","bandit","25","110396","0.0-20.0-4.0","44367503","wem/bandit_either_3","A2YO837C0O1E91","either","4","65","","","","","","","0","0","1","","0.2","0.5","0.5","","","0.8","0.2","","","","","","","","","","","","","","75","K","1","","true","0","80_20_practice",""
"","bandit","26","112431","0.0-20.0-5.0","44367503","wem/bandit_either_3","A2YO837C0O1E91","either","4","526","","","","","","","0","0","1","","0.2","0.5","0.5","","","0.8","0.2","","","","","","","","","","","","","","75","K","1","","true","0","80_20_practice",""
"","bandit","27","114192","0.0-20.0-6.0","44367503","wem/bandit_either_3","A2YO837C0O1E91","either","4","240","","","","","","","0","0","1","","0.2","0.5","0.5","","","0.8","0.2","","","","","","","","","","","","","","75","K","1","","true","0","80_20_practice",""
"","bandit","28","115903","0.0-20.0-7.0","44367503","wem/bandit_either_3","A2YO837C0O1E91","either","4","205","","","","","","","0","0","1","0.2","","0.5","0.5","","","","","","","0.8","0.2","","","","","","","","","","75","K","1","","true","0","80_20_practice",""
"","bandit","29","117786","0.0-20.0-8.0","44367503","wem/bandit_either_3","A2YO837C0O1E91","either","4","365","","","","","","","0","0","1","0.2","","0.5","0.5","","","","","","","0.8","0.2","","","","","","","","","","75","K","1","","true","0","80_20_practice",""
"","bandit","30","119521","0.0-20.0-9.0","44367503","wem/bandit_either_3","A2YO837C0O1E91","either","4","227","","","","","","","0","0","1","","0.2","0.5","0.5","","","0.8","0.2","","","","","","","","","","","","","","75","K","1","","true","0","80_20_practice",""
"","bandit","31","121356","0.0-20.0-10.0","44367503","wem/bandit_either_3","A2YO837C0O1E91","either","4","319","","","","","","","0","0","1","","0.2","0.5","0.5","","","0.8","0.2","","","","","","","","","","","","","","75","K","1","","true","0","80_20_practice",""
"","bandit","32","123073","0.0-20.0-11.0","44367503","wem/bandit_either_3","A2YO837C0O1E91","either","4","201","","","","","","","0","0","1","0.2","","0.5","0.5","","","","","","","0.8","0.2","","","","","","","","","","75","K","1","","true","0","80_20_practice",""
"","bandit","33","124959","0.0-20.0-12.0","44367503","wem/bandit_either_3","A2YO837C0O1E91","either","4","362","","","","","","","0","1","0","","0.8","0.5","0.5","","","0.8","0.2","","","","","","","","","","","","","","74","J","0","img/none_selected_demo.jpg","true","0","80_20_practice",""
"","bandit","34","126666","0.0-20.0-13.0","44367503","wem/bandit_either_3","A2YO837C0O1E91","either","4","199","","","","","","","0","0","1","0.2","","0.5","0.5","","","","","","","0.8","0.2","","","","","","","","","","75","K","1","","true","0","80_20_practice",""
"","bandit","35","128209","0.0-20.0-14.0","44367503","wem/bandit_either_3","A2YO837C0O1E91","either","4","29","","","","","","","0","0","1","","0.2","0.5","0.5","","","0.8","0.2","","","","","","","","","","","","","","75","K","1","","true","0","80_20_practice",""
"","bandit","36","129913","0.0-20.0-15.0","44367503","wem/bandit_either_3","A2YO837C0O1E91","either","4","182","","","","","","","0","0","1","0.2","","0.5","0.5","","","","","","","0.8","0.2","","","","","","","","","","75","K","1","","true","0","80_20_practice",""
"","bandit","37","131580","0.0-20.0-16.0","44367503","wem/bandit_either_3","A2YO837C0O1E91","either","4","152","","","","","","","0","0","1","0.2","","0.5","0.5","","","","","","","0.8","0.2","","","","","","","","","","75","K","1","","true","0","80_20_practice",""
"","bandit","38","133287","0.0-20.0-17.0","44367503","wem/bandit_either_3","A2YO837C0O1E91","either","4","176","","","","","","","0","0","1","","0.2","0.5","0.5","","","0.8","0.2","","","","","","","","","","","","","","75","K","1","","true","0","80_20_practice",""
"","bandit","39","134841","0.0-20.0-18.0","44367503","wem/bandit_either_3","A2YO837C0O1E91","either","4","43","","","","","","","0","0","1","0.2","","0.5","0.5","","","","","","","0.8","0.2","","","","","","","","","","75","K","1","","true","0","80_20_practice",""
"","bandit","40","136552","0.0-20.0-19.0","44367503","wem/bandit_either_3","A2YO837C0O1E91","either","4","204","","","","","","","1","0","0","0.2","","0.5","0.5","","","","","","","0.8","0.2","","","","","","","","","","75","K","1","","true","0","80_20_practice",""
"","text","41","137886","0.0-21.0","44367503","wem/bandit_either_3","A2YO837C0O1E91","either","4","1333","","32","","","","","","","","","","","","","","","","","","","","","","","","","","","","","","","","","","","",""
"","bandit","42","140552","0.0-22.0-0.0","44367503","wem/bandit_either_3","A2YO837C0O1E91","either","4","1140","","","","","","","0","1","0","0","1","","","","","0","1","","","1","0","","","","","","","","","","75","K","1","","true","0","",""
"","text","43","146833","0.0-23.0","44367503","wem/bandit_either_3","A2YO837C0O1E91","either","4","6279","","32","","","","","","","","","","","","","","","","","","","","","","","","","","","","","","","","","","","",""
"","text","44","149869","0.0-24.0","44367503","wem/bandit_either_3","A2YO837C0O1E91","either","4","3034","","32","","","","","","","","","","","","","","","","","","","","","","","","","","","","","","","","","","","",""
"","text","45","150638","0.0-25.0","44367503","wem/bandit_either_3","A2YO837C0O1E91","either","4","768","","32","","","","","","","","","","","","","","","","","","","","","","","","","","","","","","","","","","","",""
"","text","46","151327","0.0-26.0","44367503","wem/bandit_either_3","A2YO837C0O1E91","either","4","687","","32","","","","","","","","","","","","","","","","","","","","","","","","","","","","","","","","","","","",""
"","text","47","153836","0.0-27.0","44367503","wem/bandit_either_3","A2YO837C0O1E91","either","4","2507","","32","","","","","","","","","","","","","","","","","","","","","","","","","","","","","","","","","","","",""
"","text","48","154882","0.0-28.0","44367503","wem/bandit_either_3","A2YO837C0O1E91","either","4","1044","","32","","","","","","","","","","","","","","","","","","","","","","","","","","","","","","","","","","","",""
"","text","49","155723","0.0-29.0","44367503","wem/bandit_either_3","A2YO837C0O1E91","either","4","840","","32","","","","","","","","","","","","","","","","","","","","","","","","","","","","","","","","","","","",""
"","text","50","156803","0.0-30.0","44367503","wem/bandit_either_3","A2YO837C0O1E91","either","4","1078","","32","","","","","","","","","","","","","","","","","","","","","","","","","","","","","","","","","","","",""
"","text","51","157816","0.0-31.0","44367503","wem/bandit_either_3","A2YO837C0O1E91","either","4","1012","","32","","","","","","","","","","","","","","","","","","","","","","","","","","","","","","","","","","","",""
"","text","52","158758","0.0-32.0","44367503","wem/bandit_either_3","A2YO837C0O1E91","either","4","941","","32","","","","","","","","","","","","","","","","","","","","","","","","","","","","","","","","","","","",""
"","text","53","161691","0.0-33.0","44367503","wem/bandit_either_3","A2YO837C0O1E91","either","4","2931","","32","","","","","","","","","","","","","","","","","","","","","","","","","","","","","","","","","","","",""
"","bandit","54","164024","0.0-34.0-0.0","44367503","wem/bandit_either_3","A2YO837C0O1E91","either","4","805","","","","","","","0","0","1","0.8","","0.5","0.5","0.5","0.5","","","","","0.8","0.2","0.6","0.2","","","","","","","","72","H","0","img/none_selected.jpg","true","0","full_practice",""
"","bandit","55","165830","0.0-34.0-1.0","44367503","wem/bandit_either_3","A2YO837C0O1E91","either","4","290","","","","","","","0","0","1","0.2","","0.5","0.5","0.5","0.5","","","","","0.8","0.2","0.6","0.2","","","","","","","","74","J","1","","true","0","full_practice",""
"","bandit","56","167672","0.0-34.0-2.0","44367503","wem/bandit_either_3","A2YO837C0O1E91","either","4","319","","","","","","","0","1","0","","0.6","0.5","0.5","0.5","0.5","0.8","0.2","0.6","0.2","","","","","","","","","","","","75","K","2","","true","0","full_practice",""
"","bandit","57","169197","0.0-34.0-3.0","44367503","wem/bandit_either_3","A2YO837C0O1E91","either","4","11","","","","","","","0","0","1","","0.6","0.5","0.5","0.5","0.5","0.8","0.2","0.6","0.2","","","","","","","","","","","","75","K","2","","true","0","full_practice",""
"","bandit","58","170774","0.0-34.0-4.0","44367503","wem/bandit_either_3","A2YO837C0O1E91","either","4","72","","","","","","","0","0","1","","0.2","0.5","0.5","0.5","0.5","0.8","0.2","0.6","0.2","","","","","","","","","","","","76","L","3","","true","0","full_practice",""
"","bandit","59","172517","0.0-34.0-5.0","44367503","wem/bandit_either_3","A2YO837C0O1E91","either","4","224","","","","","","","1","0","0","0.2","","0.5","0.5","0.5","0.5","","","","","0.8","0.2","0.6","0.2","","","","","","","","76","L","3","","true","0","full_practice",""
"","bandit","60","174147","0.0-34.0-6.0","44367503","wem/bandit_either_3","A2YO837C0O1E91","either","4","116","","","","","","","0","0","1","0.2","","0.5","0.5","0.5","0.5","","","","","0.8","0.2","0.6","0.2","","","","","","","","76","L","3","","true","0","full_practice",""
"","bandit","61","175859","0.0-34.0-7.0","44367503","wem/bandit_either_3","A2YO837C0O1E91","either","4","185","","","","","","","1","0","0","0.6","","0.5","0.5","0.5","0.5","","","","","0.8","0.2","0.6","0.2","","","","","","","","75","K","2","","true","0","full_practice",""
"","bandit","62","177451","0.0-34.0-8.0","44367503","wem/bandit_either_3","A2YO837C0O1E91","either","4","87","","","","","","","0","0","1","0.6","","0.5","0.5","0.5","0.5","","","","","0.8","0.2","0.6","0.2","","","","","","","","75","K","2","","true","0","full_practice",""
"","bandit","63","179175","0.0-34.0-9.0","44367503","wem/bandit_either_3","A2YO837C0O1E91","either","4","199","","","","","","","0","0","1","0.6","","0.5","0.5","0.5","0.5","","","","","0.8","0.2","0.6","0.2","","","","","","","","75","K","2","","true","0","full_practice",""
"","bandit","64","180823","0.0-34.0-10.0","44367503","wem/bandit_either_3","A2YO837C0O1E91","either","4","123","","","","","","","0","1","0","","0.6","0.5","0.5","0.5","0.5","0.8","0.2","0.6","0.2","","","","","","","","","","","","75","K","2","","true","0","full_practice",""
"","bandit","65","182499","0.0-34.0-11.0","44367503","wem/bandit_either_3","A2YO837C0O1E91","either","4","163","","","","","","","1","0","0","0.6","","0.5","0.5","0.5","0.5","","","","","0.8","0.2","0.6","0.2","","","","","","","","75","K","2","","true","0","full_practice",""
"","bandit","66","184087","0.0-34.0-12.0","44367503","wem/bandit_either_3","A2YO837C0O1E91","either","4","74","","","","","","","0","0","1","","0.6","0.5","0.5","0.5","0.5","0.8","0.2","0.6","0.2","","","","","","","","","","","","75","K","2","","true","0","full_practice",""
"","bandit","67","185818","0.0-34.0-13.0","44367503","wem/bandit_either_3","A2YO837C0O1E91","either","4","204","","","","","","","0","1","0","","0.6","0.5","0.5","0.5","0.5","0.8","0.2","0.6","0.2","","","","","","","","","","","","75","K","2","","true","0","full_practice",""
"","bandit","68","187712","0.0-34.0-14.0","44367503","wem/bandit_either_3","A2YO837C0O1E91","either","4","379","","","","","","","1","0","0","0.6","","0.5","0.5","0.5","0.5","","","","","0.8","0.2","0.6","0.2","","","","","","","","75","K","2","","true","0","full_practice",""
"","bandit","69","189934","0.0-34.0-15.0","44367503","wem/bandit_either_3","A2YO837C0O1E91","either","4","711","","","","","","","0","0","1","","0.6","0.5","0.5","0.5","0.5","0.8","0.2","0.6","0.2","","","","","","","","","","","","75","K","2","","true","0","full_practice",""
"","bandit","70","191543","0.0-34.0-16.0","44367503","wem/bandit_either_3","A2YO837C0O1E91","either","4","85","","","","","","","0","1","0","","0.6","0.5","0.5","0.5","0.5","0.8","0.2","0.6","0.2","","","","","","","","","","","","75","K","2","","true","0","full_practice",""
"","bandit","71","193294","0.0-34.0-17.0","44367503","wem/bandit_either_3","A2YO837C0O1E91","either","4","237","","","","","","","1","0","0","0.6","","0.5","0.5","0.5","0.5","","","","","0.8","0.2","0.6","0.2","","","","","","","","75","K","2","","true","0","full_practice",""
"","bandit","72","194941","0.0-34.0-18.0","44367503","wem/bandit_either_3","A2YO837C0O1E91","either","4","125","","","","","","","1","0","0","0.6","","0.5","0.5","0.5","0.5","","","","","0.8","0.2","0.6","0.2","","","","","","","","75","K","2","","true","0","full_practice",""
"","bandit","73","196600","0.0-34.0-19.0","44367503","wem/bandit_either_3","A2YO837C0O1E91","either","4","144","","","","","","","0","0","1","","0.6","0.5","0.5","0.5","0.5","0.8","0.2","0.6","0.2","","","","","","","","","","","","75","K","2","","true","0","full_practice",""
"","text","74","198327","0.0-35.0","44367503","wem/bandit_either_3","A2YO837C0O1E91","either","4","1724","","32","","","","","","","","","","","","","","","","","","","","","","","","","","","","","","","","","","","",""
"","text","75","205409","0.0-36.0","44367503","wem/bandit_either_3","A2YO837C0O1E91","either","4","6076","","32","","","","","","","","","","","","","","","","","","","","","","","","","","","","","","","","","","","",""
"","text","76","211957","0.0-37.0","44367503","wem/bandit_either_3","A2YO837C0O1E91","either","4","6547","","32","","","","","","","","","","","","","","","","","","","","","","","","","","","","","","","","","","","",""
"","text","77","214906","0.0-38.0","44367503","wem/bandit_either_3","A2YO837C0O1E91","either","4","2947","","32","","","","","","","","","","","","","","","","","","","","","","","","","","","","","","","","","","","",""
"","text","78","217903","0.0-39.0","44367503","wem/bandit_either_3","A2YO837C0O1E91","either","4","2994","","32","","","","","","","","","","","","","","","","","","","","","","","","","","","","","","","","","","","",""
"","text","79","219638","0.0-40.0","44367503","wem/bandit_either_3","A2YO837C0O1E91","either","4","1734","","32","","","","","","","","","","","","","","","","","","","","","","","","","","","","","","","","","","","",""
"","bandit","80","221676","0.0-41.0-0.0","44367503","wem/bandit_either_3","A2YO837C0O1E91","either","4","515","","","","","","","0","0","1","","0.2887693562","0.8","0.6","0.2","0.4","0.9858900825","0.7267404998","0.2887693562","0.8209843215","","","","","","","","","","","","75","K","2","","","1","main_expt",""
"","bandit","81","223397","0.0-42.0-0.0","44367503","wem/bandit_either_3","A2YO837C0O1E91","either","4","205","","","","","","","0","0","1","","0.2986217167","0.8","0.6","0.2","0.4","0.9854924354","0.7034907646","0.2986217167","0.8179122382","","","","","","","","","","","","75","K","2","","","2","main_expt",""
"","bandit","82","224928","0.0-43.0-0.0","44367503","wem/bandit_either_3","A2YO837C0O1E91","either","4","24","","","","","","","0","1","0","","0.8301291561","0.8","0.6","0.2","0.4","0.9789624529","0.6574847675","0.261346942","0.8301291561","","","","","","","","","","","","76","L","3","","","3","main_expt",""
"","bandit","83","226619","0.0-44.0-0.0","44367503","wem/bandit_either_3","A2YO837C0O1E91","either","4","182","","","","","","","0","1","0","","0.8219157537","0.8","0.6","0.2","0.4","0.9565345184","0.5092805277","0.2757740293","0.8219157537","","","","","","","","","","","","76","L","3","","","4","main_expt",""
"","bandit","84","228381","0.0-45.0-0.0","44367503","wem/bandit_either_3","A2YO837C0O1E91","either","4","232","","","","","","","0","1","0","","0.7759220463","0.8","0.6","0.2","0.4","0.941194936","0.5952926025","0.3329857669","0.7759220463","","","","","","","","","","","","76","L","3","","","5","main_expt",""
"","bandit","85","230061","0.0-46.0-0.0","44367503","wem/bandit_either_3","A2YO837C0O1E91","either","4","159","","","","","","","0","1","0","","0.7495930044","0.8","0.6","0.2","0.4","0.9305219143","0.6160758637","0.331878758","0.7495930044","","","","","","","","","","","","76","L","3","","","6","main_expt",""
"","bandit","86","231588","0.0-47.0-0.0","44367503","wem/bandit_either_3","A2YO837C0O1E91","either","4","18","","","","","","","0","0","1","","0.7078030286","0.8","0.6","0.2","0.4","0.937738562","0.6381806331","0.3863389794","0.7078030286","","","","","","","","","","","","76","L","3","","","7","main_expt",""
"","bandit","87","233190","0.0-48.0-0.0","44367503","wem/bandit_either_3","A2YO837C0O1E91","either","4","98","","","","","","","0","0","1","","0.689407674","0.8","0.6","0.2","0.4","0.8269671957","0.7047831713","0.4242016385","0.689407674","","","","","","","","","","","","76","L","3","","","8","main_expt",""
"","bandit","88","234919","0.0-49.0-0.0","44367503","wem/bandit_either_3","A2YO837C0O1E91","either","4","219","","","","","","","0","1","0","","0.6222923336","0.8","0.6","0.2","0.4","0.7696709776","0.6222923336","0.379169242","0.7848236408","","","","","","","","","","","","74","J","1","","","9","main_expt",""
"","bandit","89","236597","0.0-50.0-0.0","44367503","wem/bandit_either_3","A2YO837C0O1E91","either","4","164","","","","","","","0","0","1","0.5629201009","","0.8","0.6","0.2","0.4","","","","","0.7313552403","0.5629201009","0.40569916","0.791363481","","","","","","","","74","J","1","","","10","main_expt",""
"","bandit","90","238450","0.0-51.0-0.0","44367503","wem/bandit_either_3","A2YO837C0O1E91","either","4","341","","","","","","","1","0","0","0.644159789","","0.8","0.6","0.2","0.4","","","","","0.8129169819","0.644159789","0.4188021694","0.7800632456","","","","","","","","74","J","1","","","11","main_expt",""
"","bandit","91","240239","0.0-52.0-0.0","44367503","wem/bandit_either_3","A2YO837C0O1E91","either","4","272","","","","","","","1","0","0","0.6840372722","","0.8","0.6","0.2","0.4","","","","","0.7611571711","0.6840372722","0.3689559917","0.7559884596","","","","","","","","74","J","1","","","12","main_expt",""
"","bandit","92","241977","0.0-53.0-0.0","44367503","wem/bandit_either_3","A2YO837C0O1E91","either","4","221","","","","","","","1","0","0","0.6236151953","","0.8","0.6","0.2","0.4","","","","","0.7628417147","0.6236151953","0.4584943612","0.7695577991","","","","","","","","74","J","1","","","13","main_expt",""
"","bandit","93","243691","0.0-54.0-0.0","44367503","wem/bandit_either_3","A2YO837C0O1E91","either","4","195","","","","","","","0","0","1","0.5388331182","","0.8","0.6","0.2","0.4","","","","","0.7436451733","0.5388331182","0.455083938","0.8509931145","","","","","","","","74","J","1","","","14","main_expt",""
"","bandit","94","245432","0.0-55.0-0.0","44367503","wem/bandit_either_3","A2YO837C0O1E91","either","4","213","","","","","","","0","0","1","0.4802769188","","0.8","0.6","0.2","0.4","","","","","0.8256008488","0.4802769188","0.5360112786","0.7745856811","","","","","","","","74","J","1","","","15","main_expt",""
"","bandit","95","246949","0.0-56.0-0.0","44367503","wem/bandit_either_3","A2YO837C0O1E91","either","4","0","","","","","","","1","0","0","0.7683027423","","0.8","0.6","0.2","0.4","","","","","0.7683027423","0.4688000192","0.4791571541","0.7576521113","","","","","","","","72","H","0","img/none_selected.jpg","","16","main_expt",""
"","bandit","96","248576","0.0-57.0-0.0","44367503","wem/bandit_either_3","A2YO837C0O1E91","either","4","112","","","","","","","1","0","0","0.7857675768","","0.8","0.6","0.2","0.4","","","","","0.7857675768","0.6000602573","0.5263630166","0.8099558365","","","","","","","","72","H","0","img/none_selected.jpg","","17","main_expt",""
"","bandit","97","250318","0.0-58.0-0.0","44367503","wem/bandit_either_3","A2YO837C0O1E91","either","4","218","","","","","","","0","0","1","0.7303419725","","0.8","0.6","0.2","0.4","","","","","0.7303419725","0.6046592687","0.543945959","0.7535280451","","","","","","","","72","H","0","img/none_selected.jpg","","18","main_expt",""
"","bandit","98","251889","0.0-59.0-0.0","44367503","wem/bandit_either_3","A2YO837C0O1E91","either","4","54","","","","","","","1","0","0","0.7243255268","","0.8","0.6","0.2","0.4","","","","","0.7243255268","0.6177236116","0.4579801682","0.7206444799","","","","","","","","72","H","0","img/none_selected.jpg","","19","main_expt",""
"","bandit","99","253621","0.0-60.0-0.0","44367503","wem/bandit_either_3","A2YO837C0O1E91","either","4","203","","","","","","","0","0","1","","0.7691283854","0.8","0.6","0.2","0.4","0.7691283854","0.5484637992","0.5439896582","0.6388551968","","","","","","","","","","","","72","H","0","img/none_selected.jpg","","20","main_expt",""
"","bandit","100","255151","0.0-61.0-0.0","44367503","wem/bandit_either_3","A2YO837C0O1E91","either","4","25","","","","","","","1","0","0","0.7068464658","","0.8","0.6","0.2","0.4","","","","","0.7068464658","0.6646151354","0.5796019833","0.4956822649","","","","","","","","72","H","0","img/none_selected.jpg","","21","main_expt",""
"","bandit","101","256692","0.0-62.0-0.0","44367503","wem/bandit_either_3","A2YO837C0O1E91","either","4","21","","","","","","","0","0","1","","0.5885929095","0.8","0.6","0.2","0.4","0.7407239748","0.7223938077","0.5885929095","0.4316307404","","","","","","","","","","","","75","K","2","","","22","main_expt",""
"","bandit","102","258341","0.0-63.0-0.0","44367503","wem/bandit_either_3","A2YO837C0O1E91","either","4","129","","","","","","","0","0","1","0.4899642796","","0.8","0.6","0.2","0.4","","","","","0.7300920021","0.7548690184","0.4899642796","0.4158022912","","","","","","","","75","K","2","","","23","main_expt",""
"","bandit","103","259886","0.0-64.0-0.0","44367503","wem/bandit_either_3","A2YO837C0O1E91","either","4","31","","","","","","","0","0","1","","0.4099928258","0.8","0.6","0.2","0.4","0.7074307303","0.7794954679","0.4984159311","0.4099928258","","","","","","","","","","","","76","L","3","","","24","main_expt",""
"","bandit","104","261528","0.0-65.0-0.0","44367503","wem/bandit_either_3","A2YO837C0O1E91","either","4","117","","","","","","","0","0","1","","0.4303724308","0.8","0.6","0.2","0.4","0.6228099684","0.8029664172","0.5885503773","0.4303724308","","","","","","","","","","","","76","L","3","","","25","main_expt",""
"","bandit","105","263112","0.0-66.0-0.0","44367503","wem/bandit_either_3","A2YO837C0O1E91","either","4","67","","","","","","","1","0","0","0.5588879168","","0.8","0.6","0.2","0.4","","","","","0.5588879168","0.6980766755","0.6978100054","0.3291624114","","","","","","","","72","H","0","img/none_selected.jpg","","26","main_expt",""
"","bandit","106","264692","0.0-67.0-0.0","44367503","wem/bandit_either_3","A2YO837C0O1E91","either","4","57","","","","","","","1","0","0","0.5033257713","","0.8","0.6","0.2","0.4","","","","","0.5033257713","0.7021498626","0.6442468271","0.3795789415","","","","","","","","72","H","0","img/none_selected.jpg","","27","main_expt",""
"","bandit","107","266212","0.0-68.0-0.0","44367503","wem/bandit_either_3","A2YO837C0O1E91","either","4","14","","","","","","","1","0","0","0.4915102133","","0.8","0.6","0.2","0.4","","","","","0.4915102133","0.7802436781","0.7399213538","0.3208573938","","","","","","","","72","H","0","img/none_selected.jpg","","28","main_expt",""
"","bandit","108","267924","0.0-69.0-0.0","44367503","wem/bandit_either_3","A2YO837C0O1E91","either","4","192","","","","","","","0","1","0","","0.4291187576","0.8","0.6","0.2","0.4","0.4291187576","0.6907923131","0.7520253205","0.3352919619","","","","","","","","","","","","72","H","0","img/none_selected.jpg","","29","main_expt",""
"","bandit","109","269446","0.0-70.0-0.0","44367503","wem/bandit_either_3","A2YO837C0O1E91","either","4","6","","","","","","","1","0","0","0.5379907803","","0.8","0.6","0.2","0.4","","","","","0.5379907803","0.6771306444","0.7528469829","0.3452717309","","","","","","","","72","H","0","img/none_selected.jpg","","30","main_expt",""
"","bandit","110","271136","0.0-71.0-0.0","44367503","wem/bandit_either_3","A2YO837C0O1E91","either","4","163","","","","","","","1","0","0","0.646046857","","0.8","0.6","0.2","0.4","","","","","0.646046857","0.7130915948","0.7571908429","0.2967094522","","","","","","","","72","H","0","img/none_selected.jpg","","31","main_expt",""
"","bandit","111","272687","0.0-72.0-0.0","44367503","wem/bandit_either_3","A2YO837C0O1E91","either","4","34","","","","","","","1","0","0","0.5608885347","","0.8","0.6","0.2","0.4","","","","","0.5608885347","0.6849190202","0.7530934884","0.255781972","","","","","","","","72","H","0","img/none_selected.jpg","","32","main_expt",""
"","bandit","112","274318","0.0-73.0-0.0","44367503","wem/bandit_either_3","A2YO837C0O1E91","either","4","123","","","","","","","1","0","0","0.5952322697","","0.8","0.6","0.2","0.4","","","","","0.5952322697","0.7392612035","0.7163673585","0.2703771925","","","","","","","","72","H","0","img/none_selected.jpg","","33","main_expt",""
"","bandit","113","275890","0.0-74.0-0.0","44367503","wem/bandit_either_3","A2YO837C0O1E91","either","4","58","","","","","","","1","0","0","0.6206609301","","0.8","0.6","0.2","0.4","","","","","0.6206609301","0.7026009082","0.6817248107","0.3572673824","","","","","","","","72","H","0","img/none_selected.jpg","","34","main_expt",""
"","bandit","114","277546","0.0-75.0-0.0","44367503","wem/bandit_either_3","A2YO837C0O1E91","either","4","136","","","","","","","0","0","1","0.6223058769","","0.8","0.6","0.2","0.4","","","","","0.6223058769","0.632003728","0.6903641832","0.3237575066","","","","","","","","72","H","0","img/none_selected.jpg","","35","main_expt",""
"","bandit","115","283825","0.0-76.0-0.0","44367503","wem/bandit_either_3","A2YO837C0O1E91","either","4","4774","","","","","","","1","0","0","0.7304722347","","0.8","0.6","0.2","0.4","","","","","0.7304722347","0.7266912659","0.6953747248","0.3724209237","","","","","","","","72","H","0","img/none_selected.jpg","","36","main_expt",""
"","bandit","116","285481","0.0-77.0-0.0","44367503","wem/bandit_either_3","A2YO837C0O1E91","either","4","149","","","","","","","0","0","1","0.6789706255","","0.8","0.6","0.2","0.4","","","","","0.6789706255","0.5512211225","0.7552078918","0.3848591071","","","","","","","","72","H","0","img/none_selected.jpg","","37","main_expt",""
"","bandit","117","287058","0.0-78.0-0.0","44367503","wem/bandit_either_3","A2YO837C0O1E91","either","4","72","","","","","","","1","0","0","0.6758320082","","0.8","0.6","0.2","0.4","","","","","0.6758320082","0.5888446875","0.7095976639","0.4026628424","","","","","","","","72","H","0","img/none_selected.jpg","","38","main_expt",""
"","bandit","118","288688","0.0-79.0-0.0","44367503","wem/bandit_either_3","A2YO837C0O1E91","either","4","125","","","","","","","1","0","0","0.753286291","","0.8","0.6","0.2","0.4","","","","","0.753286291","0.7349010221","0.7813817897","0.460229008","","","","","","","","72","H","0","img/none_selected.jpg","","39","main_expt",""
"","bandit","119","290245","0.0-80.0-0.0","44367503","wem/bandit_either_3","A2YO837C0O1E91","either","4","51","","","","","","","0","0","1","0.6715391024","","0.8","0.6","0.2","0.4","","","","","0.7527041006","0.6715391024","0.7604460558","0.3392787789","","","","","","","","74","J","1","","","40","main_expt",""
"","bandit","120","291984","0.0-81.0-0.0","44367503","wem/bandit_either_3","A2YO837C0O1E91","either","4","232","","","","","","","1","0","0","0.7900808451","","0.8","0.6","0.2","0.4","","","","","0.7900808451","0.688235262","0.7588214983","0.2983701942","","","","","","","","72","H","0","img/none_selected.jpg","","41","main_expt",""
"","bandit","121","293636","0.0-82.0-0.0","44367503","wem/bandit_either_3","A2YO837C0O1E91","either","4","145","","","","","","","1","0","0","0.7261157662","","0.8","0.6","0.2","0.4","","","","","0.7261157662","0.750516412","0.8204813903","0.2390858253","","","","","","","","72","H","0","img/none_selected.jpg","","42","main_expt",""
"","bandit","122","295294","0.0-83.0-0.0","44367503","wem/bandit_either_3","A2YO837C0O1E91","either","4","153","","","","","","","1","0","0","0.772887471","","0.8","0.6","0.2","0.4","","","","","0.772887471","0.775378891","0.8310219988","0.1877526289","","","","","","","","72","H","0","img/none_selected.jpg","","43","main_expt",""
"","bandit","123","297028","0.0-84.0-0.0","44367503","wem/bandit_either_3","A2YO837C0O1E91","either","4","228","","","","","","","0","0","1","0.7359848823","","0.8","0.6","0.2","0.4","","","","","0.7359848823","0.5983035632","0.8165903167","0.2713877418","","","","","","","","72","H","0","img/none_selected.jpg","","44","main_expt",""
"","bandit","124","298634","0.0-85.0-0.0","44367503","wem/bandit_either_3","A2YO837C0O1E91","either","4","100","","","","","","","1","0","0","0.6223954065","","0.8","0.6","0.2","0.4","","","","","0.6223954065","0.6453890447","0.6765015189","0.2600408605","","","","","","","","72","H","0","img/none_selected.jpg","","45","main_expt",""
"","bandit","125","300276","0.0-86.0-0.0","44367503","wem/bandit_either_3","A2YO837C0O1E91","either","4","136","","","","","","","0","1","0","","0.5963379238","0.8","0.6","0.2","0.4","0.5963379238","0.4979639723","0.6613510417","0.2435580982","","","","","","","","","","","","72","H","0","img/none_selected.jpg","","46","main_expt",""
"","bandit","126","302013","0.0-87.0-0.0","44367503","wem/bandit_either_3","A2YO837C0O1E91","either","4","230","","","","","","","0","0","1","0.6161308884","","0.8","0.6","0.2","0.4","","","","","0.6161308884","0.4475739324","0.7373034573","0.3258971046","","","","","","","","72","H","0","img/none_selected.jpg","","47","main_expt",""
"","bandit","127","303628","0.0-88.0-0.0","44367503","wem/bandit_either_3","A2YO837C0O1E91","either","4","107","","","","","","","1","0","0","0.6354722558","","0.8","0.6","0.2","0.4","","","","","0.6354722558","0.570942939","0.6580913366","0.2934977076","","","","","","","","72","H","0","img/none_selected.jpg","","48","main_expt",""
"","bandit","128","305232","0.0-89.0-0.0","44367503","wem/bandit_either_3","A2YO837C0O1E91","either","4","98","","","","","","","0","0","1","","0.5941747261","0.8","0.6","0.2","0.4","0.5941747261","0.5943858444","0.6518545324","0.3381222087","","","","","","","","","","","","72","H","0","img/none_selected.jpg","","49","main_expt",""
"","bandit","129","306942","0.0-90.0-0.0","44367503","wem/bandit_either_3","A2YO837C0O1E91","either","4","204","","","","","","","1","0","0","0.5510631732","","0.8","0.6","0.2","0.4","","","","","0.5510631732","0.72156704","0.6362385309","0.4149653651","","","","","","","","72","H","0","img/none_selected.jpg","","50","main_expt",""
"","bandit","130","308658","0.0-91.0-0.0","44367503","wem/bandit_either_3","A2YO837C0O1E91","either","4","210","","","","","","","1","0","0","0.5580995271","","0.8","0.6","0.2","0.4","","","","","0.5580995271","0.6453884322","0.6673370403","0.315936401","","","","","","","","72","H","0","img/none_selected.jpg","","51","main_expt",""
"","bandit","131","310564","0.0-92.0-0.0","44367503","wem/bandit_either_3","A2YO837C0O1E91","either","4","400","","","","","","","0","0","1","0.4492126091","","0.8","0.6","0.2","0.4","","","","","0.4492126091","0.635653338","0.6614759556","0.34776451","","","","","","","","72","H","0","img/none_selected.jpg","","52","main_expt",""
"","bandit","132","312071","0.0-93.0-0.0","44367503","wem/bandit_either_3","A2YO837C0O1E91","either","4","0","","","","","","","0","0","1","","0.4600129001","0.8","0.6","0.2","0.4","0.4600129001","0.5700640027","0.5099009019","0.2946288454","","","","","","","","","","","","72","H","0","img/none_selected.jpg","","53","main_expt",""
"","bandit","133","313612","0.0-94.0-0.0","44367503","wem/bandit_either_3","A2YO837C0O1E91","either","4","37","","","","","","","0","0","1","","0.4535518587","0.8","0.6","0.2","0.4","0.4005354829","0.4535518587","0.5323874036","0.3757560715","","","","","","","","","","","","74","J","1","","","54","main_expt",""
"","bandit","134","315293","0.0-95.0-0.0","44367503","wem/bandit_either_3","A2YO837C0O1E91","either","4","174","","","","","","","1","0","0","0.4271895083","","0.8","0.6","0.2","0.4","","","","","0.3305694417","0.4271895083","0.5410243768","0.3258455482","","","","","","","","74","J","1","","","55","main_expt",""
"","bandit","135","317153","0.0-96.0-0.0","44367503","wem/bandit_either_3","A2YO837C0O1E91","either","4","353","","","","","","","1","0","0","0.3506641683","","0.8","0.6","0.2","0.4","","","","","0.3443449075","0.3506641683","0.5594159285","0.4350401219","","","","","","","","74","J","1","","","56","main_expt",""
"","bandit","136","318761","0.0-97.0-0.0","44367503","wem/bandit_either_3","A2YO837C0O1E91","either","4","101","","","","","","","1","0","0","0.3266461122","","0.8","0.6","0.2","0.4","","","","","0.3719720486","0.3266461122","0.5057935102","0.3707313189","","","","","","","","74","J","1","","","57","main_expt",""
"","bandit","137","320474","0.0-98.0-0.0","44367503","wem/bandit_either_3","A2YO837C0O1E91","either","4","208","","","","","","","1","0","0","0.3024401834","","0.8","0.6","0.2","0.4","","","","","0.2230753252","0.3024401834","0.4921421838","0.5588799977","","","","","","","","74","J","1","","","58","main_expt",""
"","bandit","138","322263","0.0-99.0-0.0","44367503","wem/bandit_either_3","A2YO837C0O1E91","either","4","282","","","","","","","1","0","0","0.4306619987","","0.8","0.6","0.2","0.4","","","","","0.2255195526","0.4306619987","0.4740341295","0.6863198467","","","","","","","","74","J","1","","","59","main_expt",""
"","bandit","139","323989","0.0-100.0-0.0","44367503","wem/bandit_either_3","A2YO837C0O1E91","either","4","221","","","","","","","0","0","1","0.4710521126","","0.8","0.6","0.2","0.4","","","","","0.2150487889","0.4710521126","0.4853159436","0.6998437478","","","","","","","","74","J","1","","","60","main_expt",""
"","bandit","140","325583","0.0-101.0-0.0","44367503","wem/bandit_either_3","A2YO837C0O1E91","either","4","90","","","","","","","0","0","1","","0.4797168847","0.8","0.6","0.2","0.4","0.2670703017","0.4797168847","0.4843563089","0.7027468204","","","","","","","","","","","","74","J","1","","","61","main_expt",""
"","bandit","141","327246","0.0-102.0-0.0","44367503","wem/bandit_either_3","A2YO837C0O1E91","either","4","156","","","","","","","1","0","0","0.441351191","","0.8","0.6","0.2","0.4","","","","","0.1622034337","0.441351191","0.4970562682","0.7461433662","","","","","","","","74","J","1","","","62","main_expt",""
"","bandit","142","328781","0.0-103.0-0.0","44367503","wem/bandit_either_3","A2YO837C0O1E91","either","4","28","","","","","","","1","0","0","0.6405696824","","0.8","0.6","0.2","0.4","","","","","0.1872430185","0.6405696824","0.4870743105","0.7956877632","","","","","","","","74","J","1","","","63","main_expt",""
"","bandit","143","330362","0.0-104.0-0.0","44367503","wem/bandit_either_3","A2YO837C0O1E91","either","4","76","","","","","","","0","0","1","","0.5093225209","0.8","0.6","0.2","0.4","0.1921602407","0.5093225209","0.5297884171","0.7533911137","","","","","","","","","","","","74","J","1","","","64","main_expt",""
"","bandit","144","332008","0.0-105.0-0.0","44367503","wem/bandit_either_3","A2YO837C0O1E91","either","4","139","","","","","","","0","1","0","","0.5190422554","0.8","0.6","0.2","0.4","0.1747679693","0.5190422554","0.5510281753","0.8407665504","","","","","","","","","","","","74","J","1","","","65","main_expt",""
"","bandit","145","333695","0.0-106.0-0.0","44367503","wem/bandit_either_3","A2YO837C0O1E91","either","4","181","","","","","","","0","1","0","","0.4367989657","0.8","0.6","0.2","0.4","0.149475979","0.4367989657","0.6548378986","0.8392190168","","","","","","","","","","","","74","J","1","","","66","main_expt",""
"","bandit","146","335270","0.0-107.0-0.0","44367503","wem/bandit_either_3","A2YO837C0O1E91","either","4","68","","","","","","","0","0","1","","0.4515976155","0.8","0.6","0.2","0.4","0.1340316754","0.4515976155","0.7873643744","0.7998105719","","","","","","","","","","","","74","J","1","","","67","main_expt",""
"","bandit","147","336959","0.0-108.0-0.0","44367503","wem/bandit_either_3","A2YO837C0O1E91","either","4","183","","","","","","","1","0","0","0.4605235732","","0.8","0.6","0.2","0.4","","","","","0.1635100664","0.4605235732","0.8374830125","0.8055175736","","","","","","","","74","J","1","","","68","main_expt",""
"","bandit","148","338815","0.0-109.0-0.0","44367503","wem/bandit_either_3","A2YO837C0O1E91","either","4","351","","","","","","","0","1","0","","0.3799115548","0.8","0.6","0.2","0.4","0.1227365859","0.3799115548","0.7948054761","0.9157616325","","","","","","","","","","","","74","J","1","","","69","main_expt",""
"","bandit","149","340696","0.0-110.0-0.0","44367503","wem/bandit_either_3","A2YO837C0O1E91","either","4","373","","","","","","","0","0","1","0.4215965018","","0.8","0.6","0.2","0.4","","","","","0.1248437045","0.4215965018","0.8257183208","0.9575411193","","","","","","","","74","J","1","","","70","main_expt",""
"","bandit","150","342616","0.0-111.0-0.0","44367503","wem/bandit_either_3","A2YO837C0O1E91","either","4","413","","","","","","","0","0","1","0.4069040491","","0.8","0.6","0.2","0.4","","","","","0.1153860856","0.4069040491","0.7378076352","0.9604429572","","","","","","","","74","J","1","","","71","main_expt",""
"","bandit","151","344175","0.0-112.0-0.0","44367503","wem/bandit_either_3","A2YO837C0O1E91","either","4","53","","","","","","","0","0","1","0.4396577013","","0.8","0.6","0.2","0.4","","","","","0.1355011504","0.4396577013","0.7402058239","0.9598545795","","","","","","","","74","J","1","","","72","main_expt",""
"","bandit","152","345933","0.0-113.0-0.0","44367503","wem/bandit_either_3","A2YO837C0O1E91","either","4","252","","","","","","","0","0","1","0.05996807606","","0.8","0.6","0.2","0.4","","","","","0.05996807606","0.6562772762","0.6976791507","0.944667289","","","","","","","","72","H","0","img/none_selected.jpg","","73","main_expt",""
"","bandit","153","347616","0.0-114.0-0.0","44367503","wem/bandit_either_3","A2YO837C0O1E91","either","4","176","","","","","","","0","0","1","0.05405538329","","0.8","0.6","0.2","0.4","","","","","0.05405538329","0.6973429816","0.7918365236","0.9226304804","","","","","","","","72","H","0","img/none_selected.jpg","","74","main_expt",""
"","bandit","154","349328","0.0-115.0-0.0","44367503","wem/bandit_either_3","A2YO837C0O1E91","either","4","207","","","","","","","1","0","0","0.7822783488","","0.8","0.6","0.2","0.4","","","","","0.02989929625","0.7736122178","0.7822783488","0.9398646798","","","","","","","","75","K","2","","","75","main_expt",""
"","bandit","155","350895","0.0-116.0-0.0","44367503","wem/bandit_either_3","A2YO837C0O1E91","either","4","58","","","","","","","0","1","0","","0.7290889389","0.8","0.6","0.2","0.4","0.0563551135","0.8130420724","0.7290889389","0.9344412274","","","","","","","","","","","","75","K","2","","","76","main_expt",""
"","bandit","156","352502","0.0-117.0-0.0","44367503","wem/bandit_either_3","A2YO837C0O1E91","either","4","100","","","","","","","1","0","0","0.7903383215","","0.8","0.6","0.2","0.4","","","","","0.0510075381","0.8182773084","0.7903383215","0.9512527415","","","","","","","","75","K","2","","","77","main_expt",""
"","bandit","157","354269","0.0-118.0-0.0","44367503","wem/bandit_either_3","A2YO837C0O1E91","either","4","260","","","","","","","1","0","0","0.8093770606","","0.8","0.6","0.2","0.4","","","","","0.07280641377","0.910984946","0.8093770606","0.945324638","","","","","","","","75","K","2","","","78","main_expt",""
"","bandit","158","355982","0.0-119.0-0.0","44367503","wem/bandit_either_3","A2YO837C0O1E91","either","4","205","","","","","","","0","1","0","","0.7310189459","0.8","0.6","0.2","0.4","0.06591604593","0.9303795674","0.7310189459","0.9313693401","","","","","","","","","","","","75","K","2","","","79","main_expt",""
"","bandit","159","357571","0.0-120.0-0.0","44367503","wem/bandit_either_3","A2YO837C0O1E91","either","4","83","","","","","","","1","0","0","0.7915113188","","0.8","0.6","0.2","0.4","","","","","0.02790121052","0.9581515868","0.7915113188","0.9272018461","","","","","","","","75","K","2","","","80","main_expt",""
"","bandit","160","359080","0.0-121.0-0.0","44367503","wem/bandit_either_3","A2YO837C0O1E91","either","4","1","","","","","","","0","1","0","","0.8463201033","0.8","0.6","0.2","0.4","0.03997429631","0.9107397581","0.8463201033","0.9340165544","","","","","","","","","","","","75","K","2","","","81","main_expt",""
"","bandit","161","360665","0.0-122.0-0.0","44367503","wem/bandit_either_3","A2YO837C0O1E91","either","4","79","","","","","","","1","0","0","0.9043915002","","0.8","0.6","0.2","0.4","","","","","0.03692483048","0.9531247327","0.9043915002","0.9778602254","","","","","","","","75","K","2","","","82","main_expt",""
"","bandit","162","362337","0.0-123.0-0.0","44367503","wem/bandit_either_3","A2YO837C0O1E91","either","4","167","","","","","","","0","1","0","","0.922294541","0.8","0.6","0.2","0.4","0.04167024954","0.91574064","0.922294541","0.9593015187","","","","","","","","","","","","75","K","2","","","83","main_expt",""
"","bandit","163","364018","0.0-124.0-0.0","44367503","wem/bandit_either_3","A2YO837C0O1E91","either","4","176","","","","","","","0","0","1","","0.9079954767","0.8","0.6","0.2","0.4","0.03449326924","0.9287460716","0.9079954767","0.9398758864","","","","","","","","","","","","75","K","2","","","84","main_expt",""
"","bandit","164","365657","0.0-125.0-0.0","44367503","wem/bandit_either_3","A2YO837C0O1E91","either","4","133","","","","","","","0","1","0","","0.92293493","0.8","0.6","0.2","0.4","0.07382848834","0.9817994773","0.92293493","0.9256746213","","","","","","","","","","","","75","K","2","","","85","main_expt",""
"","bandit","165","367229","0.0-126.0-0.0","44367503","wem/bandit_either_3","A2YO837C0O1E91","either","4","66","","","","","","","0","1","0","","0.8831043051","0.8","0.6","0.2","0.4","0.08839198485","0.9651028603","0.8831043051","0.8910640916","","","","","","","","","","","","75","K","2","","","86","main_expt",""
"","bandit","166","368736","0.0-127.0-0.0","44367503","wem/bandit_either_3","A2YO837C0O1E91","either","4","0","","","","","","","0","0","1","","0.876749115","0.8","0.6","0.2","0.4","0.08767612821","0.9364705545","0.876749115","0.8729480744","","","","","","","","","","","","75","K","2","","","87","main_expt",""
"","bandit","167","370486","0.0-128.0-0.0","44367503","wem/bandit_either_3","A2YO837C0O1E91","either","4","244","","","","","","","0","0","1","","0.9189432589","0.8","0.6","0.2","0.4","0.1606359608","0.9235767634","0.9189432589","0.8780151739","","","","","","","","","","","","75","K","2","","","88","main_expt",""
"","bandit","168","372057","0.0-129.0-0.0","44367503","wem/bandit_either_3","A2YO837C0O1E91","either","4","63","","","","","","","1","0","0","0.8856980863","","0.8","0.6","0.2","0.4","","","","","0.2051996915","0.9375107972","0.8770582065","0.8856980863","","","","","","","","76","L","3","","","89","main_expt",""
"","bandit","169","373741","0.0-130.0-0.0","44367503","wem/bandit_either_3","A2YO837C0O1E91","either","4","178","","","","","","","0","1","0","","0.8828292745","0.8","0.6","0.2","0.4","0.1757431166","0.9201099193","0.9303780437","0.8828292745","","","","","","","","","","","","76","L","3","","","90","main_expt",""
"","bandit","170","375387","0.0-131.0-0.0","44367503","wem/bandit_either_3","A2YO837C0O1E91","either","4","138","","","","","","","0","1","0","","0.9016480115","0.8","0.6","0.2","0.4","0.3470073597","0.9416722714","0.8870296602","0.9016480115","","","","","","","","","","","","76","L","3","","","91","main_expt",""
"","bandit","171","377065","0.0-132.0-0.0","44367503","wem/bandit_either_3","A2YO837C0O1E91","either","4","172","","","","","","","0","1","0","","0.9077272713","0.8","0.6","0.2","0.4","0.4969118024","0.943817784","0.8466670433","0.9077272713","","","","","","","","","","","","76","L","3","","","92","main_expt",""
"","bandit","172","378633","0.0-133.0-0.0","44367503","wem/bandit_either_3","A2YO837C0O1E91","either","4","62","","","","","","","1","0","0","0.875936713","","0.8","0.6","0.2","0.4","","","","","0.5773598144","0.9078517942","0.850017275","0.875936713","","","","","","","","76","L","3","","","93","main_expt",""
"","bandit","173","380288","0.0-134.0-0.0","44367503","wem/bandit_either_3","A2YO837C0O1E91","either","4","148","","","","","","","0","0","1","0.8089346838","","0.8","0.6","0.2","0.4","","","","","0.5513550223","0.8983200186","0.6893652978","0.8089346838","","","","","","","","76","L","3","","","94","main_expt",""
"","bandit","174","381995","0.0-135.0-0.0","44367503","wem/bandit_either_3","A2YO837C0O1E91","either","4","200","","","","","","","0","0","1","","0.6025630118","0.8","0.6","0.2","0.4","0.5461825447","0.8744309931","0.6025630118","0.7472177953","","","","","","","","","","","","75","K","2","","","95","main_expt",""
"","bandit","175","383586","0.0-136.0-0.0","44367503","wem/bandit_either_3","A2YO837C0O1E91","either","4","84","","","","","","","1","0","0","0.8894212924","","0.8","0.6","0.2","0.4","","","","","0.5564841108","0.8894212924","0.5565182624","0.631257407","","","","","","","","74","J","1","","","96","main_expt",""
"","bandit","176","385237","0.0-137.0-0.0","44367503","wem/bandit_either_3","A2YO837C0O1E91","either","4","145","","","","","","","0","1","0","","0.891162681","0.8","0.6","0.2","0.4","0.6513715187","0.891162681","0.4820287155","0.7474787878","","","","","","","","","","","","74","J","1","","","97","main_expt",""
"","bandit","177","386870","0.0-138.0-0.0","44367503","wem/bandit_either_3","A2YO837C0O1E91","either","4","126","","","","","","","1","0","0","0.8495400438","","0.8","0.6","0.2","0.4","","","","","0.7004254565","0.8495400438","0.4599621431","0.7753317291","","","","","","","","74","J","1","","","98","main_expt",""
"","bandit","178","388388","0.0-139.0-0.0","44367503","wem/bandit_either_3","A2YO837C0O1E91","either","4","10","","","","","","","0","1","0","","0.8671572546","0.8","0.6","0.2","0.4","0.6473310623","0.8671572546","0.4109144258","0.7088399779","","","","","","","","","","","","74","J","1","","","99","main_expt",""
"","bandit","179","389935","0.0-140.0-0.0","44367503","wem/bandit_either_3","A2YO837C0O1E91","either","4","40","","","","","","","0","1","0","","0.8312294914","0.8","0.6","0.2","0.4","0.6160818326","0.8312294914","0.3466085394","0.7328055719","","","","","","","","","","","","74","J","1","","","100","main_expt",""
"","bandit","180","391748","0.0-141.0-0.0","44367503","wem/bandit_either_3","A2YO837C0O1E91","either","4","308","","","","","","","1","0","0","0.8135240708","","0.8","0.6","0.2","0.4","","","","","0.6963675268","0.8135240708","0.3712289037","0.8183789849","","","","","","","","74","J","1","","","101","main_expt",""
"","bandit","181","393488","0.0-142.0-0.0","44367503","wem/bandit_either_3","A2YO837C0O1E91","either","4","233","","","","","","","1","0","0","0.8556055773","","0.8","0.6","0.2","0.4","","","","","0.6339579424","0.8556055773","0.3626324234","0.7854635714","","","","","","","","74","J","1","","","102","main_expt",""
"","bandit","182","395166","0.0-143.0-0.0","44367503","wem/bandit_either_3","A2YO837C0O1E91","either","4","170","","","","","","","0","0","1","","0.7632006143","0.8","0.6","0.2","0.4","0.6908430899","0.7632006143","0.2748825764","0.8481411385","","","","","","","","","","","","74","J","1","","","103","main_expt",""
"","bandit","183","396867","0.0-144.0-0.0","44367503","wem/bandit_either_3","A2YO837C0O1E91","either","4","193","","","","","","","1","0","0","0.8273213265","","0.8","0.6","0.2","0.4","","","","","0.6866318891","0.8273213265","0.2381725209","0.8129446485","","","","","","","","74","J","1","","","104","main_expt",""
"","bandit","184","398374","0.0-145.0-0.0","44367503","wem/bandit_either_3","A2YO837C0O1E91","either","4","0","","","","","","","0","1","0","","0.7930501456","0.8","0.6","0.2","0.4","0.6749941214","0.7930501456","0.1939551764","0.7898688037","","","","","","","","","","","","74","J","1","","","105","main_expt",""
"","bandit","185","399968","0.0-146.0-0.0","44367503","wem/bandit_either_3","A2YO837C0O1E91","either","4","87","","","","","","","0","1","0","","0.7186603115","0.8","0.6","0.2","0.4","0.7300347885","0.7186603115","0.1884153881","0.7810744832","","","","","","","","","","","","74","J","1","","","106","main_expt",""
"","bandit","186","401512","0.0-147.0-0.0","44367503","wem/bandit_either_3","A2YO837C0O1E91","either","4","37","","","","","","","0","1","0","","0.7155595947","0.8","0.6","0.2","0.4","0.8133516847","0.7155595947","0.1011451677","0.7837395221","","","","","","","","","","","","74","J","1","","","107","main_expt",""
"","bandit","187","403044","0.0-148.0-0.0","44367503","wem/bandit_either_3","A2YO837C0O1E91","either","4","26","","","","","","","1","0","0","0.7654707556","","0.8","0.6","0.2","0.4","","","","","0.8009432675","0.7654707556","0.1500242655","0.787971135","","","","","","","","74","J","1","","","108","main_expt",""
"","bandit","188","404595","0.0-149.0-0.0","44367503","wem/bandit_either_3","A2YO837C0O1E91","either","4","44","","","","","","","0","0","1","0.6288612937","","0.8","0.6","0.2","0.4","","","","","0.7379370491","0.6288612937","0.1285750889","0.6866525704","","","","","","","","74","J","1","","","109","main_expt",""
"","bandit","189","406138","0.0-150.0-0.0","44367503","wem/bandit_either_3","A2YO837C0O1E91","either","4","36","","","","","","","0","0","1","0.6309058105","","0.8","0.6","0.2","0.4","","","","","0.7379992527","0.6309058105","0.06279291231","0.5824748378","","","","","","","","74","J","1","","","110","main_expt",""
"","bandit","190","407868","0.0-151.0-0.0","44367503","wem/bandit_either_3","A2YO837C0O1E91","either","4","225","","","","","","","0","0","1","0.7464430213","","0.8","0.6","0.2","0.4","","","","","0.7464430213","0.6218965746","0.07144278273","0.659702805","","","","","","","","72","H","0","img/none_selected.jpg","","111","main_expt",""
"","bandit","191","409443","0.0-152.0-0.0","44367503","wem/bandit_either_3","A2YO837C0O1E91","either","4","67","","","","","","","0","0","1","","0.7736339118","0.8","0.6","0.2","0.4","0.7736339118","0.6741482942","0.06013221683","0.5111205641","","","","","","","","","","","","72","H","0","img/none_selected.jpg","","112","main_expt",""
"","bandit","192","411002","0.0-153.0-0.0","44367503","wem/bandit_either_3","A2YO837C0O1E91","either","4","54","","","","","","","0","0","1","0.1442356489","","0.8","0.6","0.2","0.4","","","","","0.8480767854","0.7405202534","0.1442356489","0.4852392648","","","","","","","","75","K","2","","","113","main_expt",""
"","bandit","193","412615","0.0-154.0-0.0","44367503","wem/bandit_either_3","A2YO837C0O1E91","either","4","106","","","","","","","0","1","0","","0.1733870882","0.8","0.6","0.2","0.4","0.8016933152","0.743157628","0.1733870882","0.3531287621","","","","","","","","","","","","75","K","2","","","114","main_expt",""
"","bandit","194","414203","0.0-155.0-0.0","44367503","wem/bandit_either_3","A2YO837C0O1E91","either","4","80","","","","","","","0","1","0","","0.2198725907","0.8","0.6","0.2","0.4","0.8200260584","0.7732583829","0.2198725907","0.4090792957","","","","","","","","","","","","75","K","2","","","115","main_expt",""
"","bandit","195","415767","0.0-156.0-0.0","44367503","wem/bandit_either_3","A2YO837C0O1E91","either","4","59","","","","","","","0","0","1","","0.2116870815","0.8","0.6","0.2","0.4","0.7761954976","0.6224016225","0.2116870815","0.4927933112","","","","","","","","","","","","75","K","2","","","116","main_expt",""
"","bandit","196","417398","0.0-157.0-0.0","44367503","wem/bandit_either_3","A2YO837C0O1E91","either","4","124","","","","","","","0","0","1","","0.1293815938","0.8","0.6","0.2","0.4","0.7722233998","0.6784399158","0.1293815938","0.4255499736","","","","","","","","","","","","75","K","2","","","117","main_expt",""
"","bandit","197","419010","0.0-158.0-0.0","44367503","wem/bandit_either_3","A2YO837C0O1E91","either","4","107","","","","","","","0","0","1","0.4073726931","","0.8","0.6","0.2","0.4","","","","","0.8049831996","0.7499631032","0.1442073762","0.4073726931","","","","","","","","76","L","3","","","118","main_expt",""
"","bandit","198","420648","0.0-159.0-0.0","44367503","wem/bandit_either_3","A2YO837C0O1E91","either","4","131","","","","","","","0","0","1","","0.5447318884","0.8","0.6","0.2","0.4","0.8469405197","0.6258432538","0.2098334931","0.5447318884","","","","","","","","","","","","76","L","3","","","119","main_expt",""
"","bandit","199","422232","0.0-160.0-0.0","44367503","wem/bandit_either_3","A2YO837C0O1E91","either","4","78","","","","","","","0","0","1","0.243218138","","0.8","0.6","0.2","0.4","","","","","0.783925966","0.5602994123","0.243218138","0.5336717705","","","","","","","","75","K","2","","","120","main_expt",""
"","bandit","200","423740","0.0-161.0-0.0","44367503","wem/bandit_either_3","A2YO837C0O1E91","either","4","1","","","","","","","0","0","1","0.1595445902","","0.8","0.6","0.2","0.4","","","","","0.8031476983","0.5850644561","0.1595445902","0.5621279662","","","","","","","","75","K","2","","","121","main_expt",""
"","bandit","201","426415","0.0-162.0-0.0","44367503","wem/bandit_either_3","A2YO837C0O1E91","either","4","1169","","","","","","","1","0","0","0.6205732407","","0.8","0.6","0.2","0.4","","","","","0.776878313","0.6205732407","0.1939767007","0.5664238538","","","","","","","","74","J","1","","","122","main_expt",""
"","bandit","202","427988","0.0-163.0-0.0","44367503","wem/bandit_either_3","A2YO837C0O1E91","either","4","65","","","","","","","0","0","1","0.7954206102","","0.8","0.6","0.2","0.4","","","","","0.7695343448","0.7954206102","0.2265728871","0.6501842916","","","","","","","","74","J","1","","","123","main_expt",""
"","bandit","203","429928","0.0-164.0-0.0","44367503","wem/bandit_either_3","A2YO837C0O1E91","either","4","433","","","","","","","0","1","0","","0.881213352","0.8","0.6","0.2","0.4","0.6154230174","0.881213352","0.2027469411","0.5413703051","","","","","","","","","","","","74","J","1","","","124","main_expt",""
"","bandit","204","431699","0.0-165.0-0.0","44367503","wem/bandit_either_3","A2YO837C0O1E91","either","4","264","","","","","","","1","0","0","0.8598562332","","0.8","0.6","0.2","0.4","","","","","0.4710930195","0.8598562332","0.1506135949","0.5191338098","","","","","","","","74","J","1","","","125","main_expt",""
"","bandit","205","433241","0.0-166.0-0.0","44367503","wem/bandit_either_3","A2YO837C0O1E91","either","4","35","","","","","","","0","1","0","","0.867144728","0.8","0.6","0.2","0.4","0.5258886302","0.867144728","0.1875851228","0.6232591378","","","","","","","","","","","","74","J","1","","","126","main_expt",""
"","bandit","206","434754","0.0-167.0-0.0","44367503","wem/bandit_either_3","A2YO837C0O1E91","either","4","7","","","","","","","0","1","0","","0.8677917819","0.8","0.6","0.2","0.4","0.3996486754","0.8677917819","0.2106184636","0.601333273","","","","","","","","","","","","74","J","1","","","127","main_expt",""
"","bandit","207","437028","0.0-168.0-0.0","44367503","wem/bandit_either_3","A2YO837C0O1E91","either","4","767","","","","","","","0","0","1","","0.8194058857","0.8","0.6","0.2","0.4","0.3557241191","0.8194058857","0.1276240755","0.6312294041","","","","","","","","","","","","74","J","1","","","128","main_expt",""
"","bandit","208","438624","0.0-169.0-0.0","44367503","wem/bandit_either_3","A2YO837C0O1E91","either","4","89","","","","","","","0","1","0","","0.813940224","0.8","0.6","0.2","0.4","0.2432070908","0.813940224","0.2163335705","0.6655034733","","","","","","","","","","","","74","J","1","","","129","main_expt",""
"","bandit","209","440239","0.0-170.0-0.0","44367503","wem/bandit_either_3","A2YO837C0O1E91","either","4","108","","","","","","","1","0","0","0.7296764962","","0.8","0.6","0.2","0.4","","","","","0.1722843937","0.7296764962","0.2448863899","0.6882303755","","","","","","","","74","J","1","","","130","main_expt",""
"","bandit","210","441836","0.0-171.0-0.0","44367503","wem/bandit_either_3","A2YO837C0O1E91","either","4","91","","","","","","","0","0","1","","0.614258276","0.8","0.6","0.2","0.4","0.1336027919","0.614258276","0.3447645787","0.6772884453","","","","","","","","","","","","74","J","1","","","131","main_expt",""
"","bandit","211","443403","0.0-172.0-0.0","44367503","wem/bandit_either_3","A2YO837C0O1E91","either","4","59","","","","","","","1","0","0","0.5349540706","","0.8","0.6","0.2","0.4","","","","","0.1351629047","0.5349540706","0.3622527956","0.6773684555","","","","","","","","74","J","1","","","132","main_expt",""
"","bandit","212","444985","0.0-173.0-0.0","44367503","wem/bandit_either_3","A2YO837C0O1E91","either","4","76","","","","","","","0","0","1","0.5449090787","","0.8","0.6","0.2","0.4","","","","","0.2495029","0.5449090787","0.2961885878","0.7437755928","","","","","","","","74","J","1","","","133","main_expt",""
"","bandit","213","446547","0.0-174.0-0.0","44367503","wem/bandit_either_3","A2YO837C0O1E91","either","4","55","","","","","","","0","0","1","0.5037108559","","0.8","0.6","0.2","0.4","","","","","0.2118512663","0.5037108559","0.2932126781","0.7423545867","","","","","","","","74","J","1","","","134","main_expt",""
"","bandit","214","448926","0.0-175.0-0.0","44367503","wem/bandit_either_3","A2YO837C0O1E91","either","4","872","","","","","","","0","0","1","0.2474577379","","0.8","0.6","0.2","0.4","","","","","0.2474577379","0.5131336393","0.2836439675","0.7462440124","","","","","","","","72","H","0","img/none_selected.jpg","","135","main_expt",""
"","bandit","215","450584","0.0-176.0-0.0","44367503","wem/bandit_either_3","A2YO837C0O1E91","either","4","152","","","","","","","0","0","1","0.1496333288","","0.8","0.6","0.2","0.4","","","","","0.1496333288","0.5847952324","0.1985775905","0.6372772774","","","","","","","","72","H","0","img/none_selected.jpg","","136","main_expt",""
"","bandit","216","452176","0.0-177.0-0.0","44367503","wem/bandit_either_3","A2YO837C0O1E91","either","4","85","","","","","","","1","0","0","0.2655975","","0.8","0.6","0.2","0.4","","","","","0.164835495","0.5191620222","0.2655975","0.6587707878","","","","","","","","75","K","2","","","137","main_expt",""
"","bandit","217","453858","0.0-178.0-0.0","44367503","wem/bandit_either_3","A2YO837C0O1E91","either","4","176","","","","","","","0","0","1","0.4066298912","","0.8","0.6","0.2","0.4","","","","","0.1629561883","0.3830682141","0.4066298912","0.6545472314","","","","","","","","75","K","2","","","138","main_expt",""
"","bandit","218","455456","0.0-179.0-0.0","44367503","wem/bandit_either_3","A2YO837C0O1E91","either","4","92","","","","","","","0","0","1","","0.4537429859","0.8","0.6","0.2","0.4","0.1162724323","0.3036015776","0.4537429859","0.5773899651","","","","","","","","","","","","75","K","2","","","139","main_expt",""
"","bandit","219","457953","0.0-180.0-0.0","44367503","wem/bandit_either_3","A2YO837C0O1E91","either","4","991","","","","","","","0","0","1","","0.5786924042","0.8","0.6","0.2","0.4","0.1262651596","0.2541790234","0.410026376","0.5786924042","","","","","","","","","","","","76","L","3","","","140","main_expt",""
"","bandit","220","459579","0.0-181.0-0.0","44367503","wem/bandit_either_3","A2YO837C0O1E91","either","4","119","","","","","","","0","0","1","0.4589731036","","0.8","0.6","0.2","0.4","","","","","0.1258799353","0.1899663758","0.3978668086","0.4589731036","","","","","","","","76","L","3","","","141","main_expt",""
"","bandit","221","461157","0.0-182.0-0.0","44367503","wem/bandit_either_3","A2YO837C0O1E91","either","4","70","","","","","","","0","0","1","","0.4096738096","0.8","0.6","0.2","0.4","0.1220135665","0.214868544","0.4096738096","0.3667804619","","","","","","","","","","","","75","K","2","","","142","main_expt",""
"","bandit","222","463777","0.0-183.0-0.0","44367503","wem/bandit_either_3","A2YO837C0O1E91","either","4","1115","","","","","","","0","0","1","","0.1549416237","0.8","0.6","0.2","0.4","0.1600355681","0.1549416237","0.5422751762","0.3563831379","","","","","","","","","","","","74","J","1","","","143","main_expt",""
"","bandit","223","465446","0.0-184.0-0.0","44367503","wem/bandit_either_3","A2YO837C0O1E91","either","4","163","","","","","","","1","0","0","0.2142728447","","0.8","0.6","0.2","0.4","","","","","0.103653669","0.2142728447","0.6045197677","0.3675361202","","","","","","","","74","J","1","","","144","main_expt",""
"","bandit","224","467041","0.0-185.0-0.0","44367503","wem/bandit_either_3","A2YO837C0O1E91","either","4","88","","","","","","","0","0","1","0.2166472609","","0.8","0.6","0.2","0.4","","","","","0.1417267119","0.2166472609","0.6140727406","0.3266856562","","","","","","","","74","J","1","","","145","main_expt",""
"","bandit","225","468598","0.0-186.0-0.0","44367503","wem/bandit_either_3","A2YO837C0O1E91","either","4","51","","","","","","","1","0","0","0.2446047688","","0.8","0.6","0.2","0.4","","","","","0.1508894681","0.2446047688","0.5553742365","0.2815179259","","","","","","","","74","J","1","","","146","main_expt",""
"","bandit","226","470111","0.0-187.0-0.0","44367503","wem/bandit_either_3","A2YO837C0O1E91","either","4","4","","","","","","","0","0","1","0.3011136322","","0.8","0.6","0.2","0.4","","","","","0.1207147728","0.3011136322","0.52787167","0.3560244833","","","","","","","","74","J","1","","","147","main_expt",""
"","bandit","227","471712","0.0-188.0-0.0","44367503","wem/bandit_either_3","A2YO837C0O1E91","either","4","94","","","","","","","0","0","1","","0.2519777133","0.8","0.6","0.2","0.4","0.1362234148","0.2519777133","0.5053851794","0.3585854149","","","","","","","","","","","","74","J","1","","","148","main_expt",""
"","bandit","228","473309","0.0-189.0-0.0","44367503","wem/bandit_either_3","A2YO837C0O1E91","either","4","90","","","","","","","0","0","1","0.2996109941","","0.8","0.6","0.2","0.4","","","","","0.1244444975","0.2996109941","0.5431256022","0.284478414","","","","","","","","74","J","1","","","149","main_expt",""
"","bandit","229","474889","0.0-190.0-0.0","44367503","wem/bandit_either_3","A2YO837C0O1E91","either","4","72","","","","","","","0","1","0","","0.2963563975","0.8","0.6","0.2","0.4","0.1109305632","0.2963563975","0.422574086","0.2617238314","","","","","","","","","","","","74","J","1","","","150","main_expt",""
"","bandit","230","476513","0.0-191.0-0.0","44367503","wem/bandit_either_3","A2YO837C0O1E91","either","4","117","","","","","","","0","0","1","","0.11412436","0.8","0.6","0.2","0.4","0.11412436","0.4327396174","0.3907227364","0.2709462114","","","","","","","","","","","","72","H","0","img/none_selected.jpg","","151","main_expt",""
"","bandit","231","478069","0.0-192.0-0.0","44367503","wem/bandit_either_3","A2YO837C0O1E91","either","4","49","","","","","","","0","0","1","0.1469045903","","0.8","0.6","0.2","0.4","","","","","0.1469045903","0.4303068123","0.5580814469","0.2993716907","","","","","","","","72","H","0","img/none_selected.jpg","","152","main_expt",""
"","bandit","232","479618","0.0-193.0-0.0","44367503","wem/bandit_either_3","A2YO837C0O1E91","either","4","43","","","","","","","0","1","0","","0.51223936","0.8","0.6","0.2","0.4","0.1633028487","0.455197397","0.51223936","0.2733354782","","","","","","","","","","","","75","K","2","","","153","main_expt",""
"","bandit","233","481322","0.0-194.0-0.0","44367503","wem/bandit_either_3","A2YO837C0O1E91","either","4","195","","","","","","","0","0","1","0.4811601507","","0.8","0.6","0.2","0.4","","","","","0.1340882311","0.6184454144","0.4811601507","0.3264007987","","","","","","","","75","K","2","","","154","main_expt",""
"","bandit","234","482948","0.0-195.0-0.0","44367503","wem/bandit_either_3","A2YO837C0O1E91","either","4","120","","","","","","","0","0","1","","0.575425417","0.8","0.6","0.2","0.4","0.1041462846","0.5833601464","0.575425417","0.204433578","","","","","","","","","","","","75","K","2","","","155","main_expt",""
"","bandit","235","484475","0.0-196.0-0.0","44367503","wem/bandit_either_3","A2YO837C0O1E91","either","4","19","","","","","","","0","1","0","","0.6109018817","0.8","0.6","0.2","0.4","0.08564190031","0.646897734","0.6109018817","0.07451572188","","","","","","","","","","","","75","K","2","","","156","main_expt",""
"","bandit","236","486080","0.0-197.0-0.0","44367503","wem/bandit_either_3","A2YO837C0O1E91","either","4","97","","","","","","","0","1","0","","0.6812883852","0.8","0.6","0.2","0.4","0.06977116317","0.6912470103","0.6812883852","0.1251686374","","","","","","","","","","","","75","K","2","","","157","main_expt",""
"","bandit","237","487704","0.0-198.0-0.0","44367503","wem/bandit_either_3","A2YO837C0O1E91","either","4","117","","","","","","","0","1","0","","0.73777041","0.8","0.6","0.2","0.4","0.1504927074","0.7865398282","0.73777041","0.1292052795","","","","","","","","","","","","75","K","2","","","158","main_expt",""
"","bandit","238","489269","0.0-199.0-0.0","44367503","wem/bandit_either_3","A2YO837C0O1E91","either","4","57","","","","","","","0","1","0","","0.8388849062","0.8","0.6","0.2","0.4","0.1429264201","0.7220910122","0.8388849062","0.1200050714","","","","","","","","","","","","75","K","2","","","159","main_expt",""
"","bandit","239","491034","0.0-200.0-0.0","44367503","wem/bandit_either_3","A2YO837C0O1E91","either","4","258","","","","","","","0","1","0","","0.8006667519","0.8","0.6","0.2","0.4","0.1832893837","0.710563805","0.8006667519","0.1156014834","","","","","","","","","","","","75","K","2","","","160","main_expt",""
"","bandit","240","493632","0.0-201.0-0.0","44367503","wem/bandit_either_3","A2YO837C0O1E91","either","4","1090","","","","","","","0","1","0","","0.7406956812","0.8","0.6","0.2","0.4","0.2337310763","0.6205281072","0.7406956812","0.1425751263","","","","","","","","","","","","75","K","2","","","161","main_expt",""
"","bandit","241","495319","0.0-202.0-0.0","44367503","wem/bandit_either_3","A2YO837C0O1E91","either","4","179","","","","","","","0","1","0","","0.775259894","0.8","0.6","0.2","0.4","0.2326198937","0.5246840185","0.775259894","0.2108345254","","","","","","","","","","","","75","K","2","","","162","main_expt",""
"","bandit","242","496941","0.0-203.0-0.0","44367503","wem/bandit_either_3","A2YO837C0O1E91","either","4","114","","","","","","","0","1","0","","0.6539471222","0.8","0.6","0.2","0.4","0.1584290897","0.569340372","0.6539471222","0.1664621688","","","","","","","","","","","","75","K","2","","","163","main_expt",""
"","bandit","243","498672","0.0-204.0-0.0","44367503","wem/bandit_either_3","A2YO837C0O1E91","either","4","224","","","","","","","0","0","1","","0.7914062868","0.8","0.6","0.2","0.4","0.1417900361","0.5688323765","0.7914062868","0.1741279052","","","","","","","","","","","","75","K","2","","","164","main_expt",""
"","bandit","244","500447","0.0-205.0-0.0","44367503","wem/bandit_either_3","A2YO837C0O1E91","either","4","266","","","","","","","0","1","0","","0.8415061218","0.8","0.6","0.2","0.4","0.08849486786","0.5195648955","0.8415061218","0.1891196979","","","","","","","","","","","","75","K","2","","","165","main_expt",""
"","bandit","245","502217","0.0-206.0-0.0","44367503","wem/bandit_either_3","A2YO837C0O1E91","either","4","262","","","","","","","0","1","0","","0.9084068317","0.8","0.6","0.2","0.4","0.1010416226","0.536500984","0.9084068317","0.3016440744","","","","","","","","","","","","75","K","2","","","166","main_expt",""
"","bandit","246","503829","0.0-207.0-0.0","44367503","wem/bandit_either_3","A2YO837C0O1E91","either","4","104","","","","","","","0","1","0","","0.8857506799","0.8","0.6","0.2","0.4","0.1506776516","0.4243381616","0.8857506799","0.3427468607","","","","","","","","","","","","75","K","2","","","167","main_expt",""
"","bandit","247","505662","0.0-208.0-0.0","44367503","wem/bandit_either_3","A2YO837C0O1E91","either","4","326","","","","","","","0","1","0","","0.9247721234","0.8","0.6","0.2","0.4","0.2532220847","0.4877327119","0.9247721234","0.3759001064","","","","","","","","","","","","75","K","2","","","168","main_expt",""
"","bandit","248","507172","0.0-209.0-0.0","44367503","wem/bandit_either_3","A2YO837C0O1E91","either","4","2","","","","","","","0","1","0","","0.8870410368","0.8","0.6","0.2","0.4","0.2223654062","0.5096331713","0.8870410368","0.3824832387","","","","","","","","","","","","75","K","2","","","169","main_expt",""
"","bandit","249","508874","0.0-210.0-0.0","44367503","wem/bandit_either_3","A2YO837C0O1E91","either","4","196","","","","","","","1","0","0","0.8782412079","","0.8","0.6","0.2","0.4","","","","","0.2161840498","0.6111595203","0.8782412079","0.3257043992","","","","","","","","75","K","2","","","170","main_expt",""
"","bandit","250","510490","0.0-211.0-0.0","44367503","wem/bandit_either_3","A2YO837C0O1E91","either","4","109","","","","","","","0","0","1","","0.7978982074","0.8","0.6","0.2","0.4","0.1996440145","0.5888321224","0.7978982074","0.2943589708","","","","","","","","","","","","75","K","2","","","171","main_expt",""
"","bandit","251","512134","0.0-212.0-0.0","44367503","wem/bandit_either_3","A2YO837C0O1E91","either","4","137","","","","","","","0","0","1","0.7896885826","","0.8","0.6","0.2","0.4","","","","","0.275753823","0.6295404033","0.7896885826","0.4298537702","","","","","","","","75","K","2","","","172","main_expt",""
"","bandit","252","514842","0.0-213.0-0.0","44367503","wem/bandit_either_3","A2YO837C0O1E91","either","4","1199","","","","","","","1","0","0","0.5976712981","","0.8","0.6","0.2","0.4","","","","","0.2850946521","0.5976712981","0.7771385218","0.4196262671","","","","","","","","74","J","1","","","173","main_expt",""
"","bandit","253","516730","0.0-214.0-0.0","44367503","wem/bandit_either_3","A2YO837C0O1E91","either","4","379","","","","","","","1","0","0","0.5936331925","","0.8","0.6","0.2","0.4","","","","","0.2836726952","0.5936331925","0.8412209493","0.4056978145","","","","","","","","74","J","1","","","174","main_expt",""
"","bandit","254","518658","0.0-215.0-0.0","44367503","wem/bandit_either_3","A2YO837C0O1E91","either","4","421","","","","","","","0","0","1","","0.544145328","0.8","0.6","0.2","0.4","0.27413619","0.544145328","0.8433491626","0.3323311207","","","","","","","","","","","","74","J","1","","","175","main_expt",""
"","bandit","255","520302","0.0-216.0-0.0","44367503","wem/bandit_either_3","A2YO837C0O1E91","either","4","136","","","","","","","0","0","1","","0.3584947592","0.8","0.6","0.2","0.4","0.2369491767","0.3584947592","0.778586436","0.3087900888","","","","","","","","","","","","74","J","1","","","176","main_expt",""
"","bandit","256","523181","0.0-217.0-0.0","44367503","wem/bandit_either_3","A2YO837C0O1E91","either","4","1372","","","","","","","0","1","0","","0.3898613412","0.8","0.6","0.2","0.4","0.3440943848","0.436171931","0.7488794252","0.3898613412","","","","","","","","","","","","76","L","3","","","177","main_expt",""
"","bandit","257","524742","0.0-218.0-0.0","44367503","wem/bandit_either_3","A2YO837C0O1E91","either","4","53","","","","","","","1","0","0","0.5236321052","","0.8","0.6","0.2","0.4","","","","","0.3529135521","0.5193680035","0.7738581751","0.5236321052","","","","","","","","76","L","3","","","178","main_expt",""
"","bandit","258","526258","0.0-219.0-0.0","44367503","wem/bandit_either_3","A2YO837C0O1E91","either","4","10","","","","","","","0","0","1","0.2955080601","","0.8","0.6","0.2","0.4","","","","","0.3787243664","0.3957798075","0.7527820287","0.2955080601","","","","","","","","76","L","3","","","179","main_expt",""
"","bandit","259","528017","0.0-220.0-0.0","44367503","wem/bandit_either_3","A2YO837C0O1E91","either","4","250","","","","","","","0","1","0","","0.3174151272","0.8","0.6","0.2","0.4","0.3092677326","0.4249873197","0.8022950929","0.3174151272","","","","","","","","","","","","76","L","3","","","180","main_expt",""
"","bandit","260","529830","0.0-221.0-0.0","44367503","wem/bandit_either_3","A2YO837C0O1E91","either","4","305","","","","","","","1","0","0","0.3560995969","","0.8","0.6","0.2","0.4","","","","","0.3701559146","0.4260342439","0.7505347306","0.3560995969","","","","","","","","76","L","3","","","181","main_expt",""
"","bandit","261","531409","0.0-222.0-0.0","44367503","wem/bandit_either_3","A2YO837C0O1E91","either","4","70","","","","","","","0","0","1","","0.4649908644","0.8","0.6","0.2","0.4","0.2672844749","0.4305619521","0.603349844","0.4649908644","","","","","","","","","","","","76","L","3","","","182","main_expt",""
"","bandit","262","533150","0.0-223.0-0.0","44367503","wem/bandit_either_3","A2YO837C0O1E91","either","4","234","","","","","","","0","0","1","","0.4588174784","0.8","0.6","0.2","0.4","0.3046315644","0.4638513582","0.6464544124","0.4588174784","","","","","","","","","","","","76","L","3","","","183","main_expt",""
"","bandit","263","534835","0.0-224.0-0.0","44367503","wem/bandit_either_3","A2YO837C0O1E91","either","4","176","","","","","","","0","1","0","","0.509799977","0.8","0.6","0.2","0.4","0.3507685813","0.5084330557","0.6606024443","0.509799977","","","","","","","","","","","","76","L","3","","","184","main_expt",""
"","bandit","264","536472","0.0-225.0-0.0","44367503","wem/bandit_either_3","A2YO837C0O1E91","either","4","131","","","","","","","0","0","1","","0.4557178443","0.8","0.6","0.2","0.4","0.3250269766","0.5853778332","0.7034535028","0.4557178443","","","","","","","","","","","","76","L","3","","","185","main_expt",""
"","bandit","265","538259","0.0-226.0-0.0","44367503","wem/bandit_either_3","A2YO837C0O1E91","either","4","277","","","","","","","0","0","1","","0.3250172706","0.8","0.6","0.2","0.4","0.3636669497","0.5009207633","0.7672503758","0.3250172706","","","","","","","","","","","","76","L","3","","","186","main_expt",""
"","bandit","266","539986","0.0-227.0-0.0","44367503","wem/bandit_either_3","A2YO837C0O1E91","either","4","220","","","","","","","0","0","1","0.2982192525","","0.8","0.6","0.2","0.4","","","","","0.4095027401","0.4376492532","0.7505037824","0.2982192525","","","","","","","","76","L","3","","","187","main_expt",""
"","bandit","267","541561","0.0-228.0-0.0","44367503","wem/bandit_either_3","A2YO837C0O1E91","either","4","67","","","","","","","0","1","0","","0.7458261356","0.8","0.6","0.2","0.4","0.3356624093","0.317868257","0.7458261356","0.2647713636","","","","","","","","","","","","75","K","2","","","188","main_expt",""
"","bandit","268","543262","0.0-229.0-0.0","44367503","wem/bandit_either_3","A2YO837C0O1E91","either","4","193","","","","","","","1","0","0","0.747965221","","0.8","0.6","0.2","0.4","","","","","0.3717951419","0.3700786551","0.747965221","0.2798663258","","","","","","","","75","K","2","","","189","main_expt",""
"","bandit","269","544895","0.0-230.0-0.0","44367503","wem/bandit_either_3","A2YO837C0O1E91","either","4","124","","","","","","","0","1","0","","0.7459095382","0.8","0.6","0.2","0.4","0.3266606931","0.3423477616","0.7459095382","0.2146362806","","","","","","","","","","","","75","K","2","","","190","main_expt",""
"","bandit","270","546466","0.0-231.0-0.0","44367503","wem/bandit_either_3","A2YO837C0O1E91","either","4","64","","","","","","","0","0","1","","0.6299055833","0.8","0.6","0.2","0.4","0.4206899072","0.2488230813","0.6299055833","0.3132783624","","","","","","","","","","","","75","K","2","","","191","main_expt",""
"","bandit","271","548172","0.0-232.0-0.0","44367503","wem/bandit_either_3","A2YO837C0O1E91","either","4","198","","","","","","","0","0","1","","0.688533977","0.8","0.6","0.2","0.4","0.4982817076","0.2193108308","0.688533977","0.2488083766","","","","","","","","","","","","75","K","2","","","192","main_expt",""
"","bandit","272","549785","0.0-233.0-0.0","44367503","wem/bandit_either_3","A2YO837C0O1E91","either","4","105","","","","","","","0","0","1","","0.7176496952","0.8","0.6","0.2","0.4","0.4820211017","0.4057276106","0.7176496952","0.225611763","","","","","","","","","","","","75","K","2","","","193","main_expt",""
"","bandit","273","551501","0.0-234.0-0.0","44367503","wem/bandit_either_3","A2YO837C0O1E91","either","4","207","","","","","","","0","0","1","","0.3826056333","0.8","0.6","0.2","0.4","0.5373891537","0.3826056333","0.746212457","0.2159393038","","","","","","","","","","","","74","J","1","","","194","main_expt",""
"","bandit","274","553075","0.0-235.0-0.0","44367503","wem/bandit_either_3","A2YO837C0O1E91","either","4","66","","","","","","","0","1","0","","0.4922935908","0.8","0.6","0.2","0.4","0.3890275207","0.4922935908","0.6800784202","0.3112228701","","","","","","","","","","","","74","J","1","","","195","main_expt",""
"","bandit","275","554675","0.0-236.0-0.0","44367503","wem/bandit_either_3","A2YO837C0O1E91","either","4","91","","","","","","","1","0","0","0.5475793877","","0.8","0.6","0.2","0.4","","","","","0.4329462643","0.5475793877","0.5986295964","0.3249051539","","","","","","","","74","J","1","","","196","main_expt",""
"","bandit","276","556360","0.0-237.0-0.0","44367503","wem/bandit_either_3","A2YO837C0O1E91","either","4","178","","","","","","","1","0","0","0.6069385875","","0.8","0.6","0.2","0.4","","","","","0.416825946","0.6069385875","0.5323622673","0.2985018541","","","","","","","","74","J","1","","","197","main_expt",""
"","bandit","277","558009","0.0-238.0-0.0","44367503","wem/bandit_either_3","A2YO837C0O1E91","either","4","141","","","","","","","0","1","0","","0.4946816555","0.8","0.6","0.2","0.4","0.4063336836","0.4946816555","0.5348043844","0.3109366799","","","","","","","","","","","","74","J","1","","","198","main_expt",""
"","bandit","278","559611","0.0-239.0-0.0","44367503","wem/bandit_either_3","A2YO837C0O1E91","either","4","94","","","","","","","0","0","1","0.479635203","","0.8","0.6","0.2","0.4","","","","","0.361264989","0.479635203","0.4534403339","0.3143364341","","","","","","","","74","J","1","","","199","main_expt",""
"","bandit","279","561700","0.0-240.0-0.0","44367503","wem/bandit_either_3","A2YO837C0O1E91","either","4","582","","","","","","","0","0","1","0.4969837249","","0.8","0.6","0.2","0.4","","","","","0.4700223374","0.4969837249","0.4185876589","0.3176919365","","","","","","","","74","J","1","","","200","main_expt",""
"","bandit","280","563355","0.0-241.0-0.0","44367503","wem/bandit_either_3","A2YO837C0O1E91","either","4","147","","","","","","","0","0","1","0.4751543938","","0.8","0.6","0.2","0.4","","","","","0.4751543938","0.4548125401","0.3812211227","0.2848283651","","","","","","","","72","H","0","img/none_selected.jpg","","201","main_expt",""
"","bandit","281","564955","0.0-242.0-0.0","44367503","wem/bandit_either_3","A2YO837C0O1E91","either","4","92","","","","","","","0","0","1","0.4044794657","","0.8","0.6","0.2","0.4","","","","","0.4044794657","0.5767771981","0.4414728031","0.2439676923","","","","","","","","72","H","0","img/none_selected.jpg","","202","main_expt",""
"","bandit","282","566566","0.0-243.0-0.0","44367503","wem/bandit_either_3","A2YO837C0O1E91","either","4","103","","","","","","","0","0","1","0.3698030662","","0.8","0.6","0.2","0.4","","","","","0.3321077444","0.6118171827","0.3698030662","0.2582922662","","","","","","","","75","K","2","","","203","main_expt",""
"","bandit","283","568198","0.0-244.0-0.0","44367503","wem/bandit_either_3","A2YO837C0O1E91","either","4","124","","","","","","","0","0","1","","0.4899087748","0.8","0.6","0.2","0.4","0.3697340749","0.5373194108","0.4899087748","0.3799793739","","","","","","","","","","","","75","K","2","","","204","main_expt",""
"","bandit","284","569868","0.0-245.0-0.0","44367503","wem/bandit_either_3","A2YO837C0O1E91","either","4","163","","","","","","","0","0","1","0.4441528059","","0.8","0.6","0.2","0.4","","","","","0.3998168993","0.5501461309","0.4310108402","0.4441528059","","","","","","","","76","L","3","","","205","main_expt",""
"","bandit","285","571550","0.0-246.0-0.0","44367503","wem/bandit_either_3","A2YO837C0O1E91","either","4","174","","","","","","","0","0","1","0.4468516792","","0.8","0.6","0.2","0.4","","","","","0.4929909192","0.5094027242","0.3912115078","0.4468516792","","","","","","","","76","L","3","","","206","main_expt",""
"","bandit","286","573252","0.0-247.0-0.0","44367503","wem/bandit_either_3","A2YO837C0O1E91","either","4","194","","","","","","","0","0","1","0.399366085","","0.8","0.6","0.2","0.4","","","","","0.4960693894","0.6449696869","0.3195818707","0.399366085","","","","","","","","76","L","3","","","207","main_expt",""
"","bandit","287","574876","0.0-248.0-0.0","44367503","wem/bandit_either_3","A2YO837C0O1E91","either","4","114","","","","","","","0","1","0","","0.549996868","0.8","0.6","0.2","0.4","0.3912862986","0.549996868","0.2378171997","0.4206610772","","","","","","","","","","","","74","J","1","","","208","main_expt",""
"","bandit","288","576613","0.0-249.0-0.0","44367503","wem/bandit_either_3","A2YO837C0O1E91","either","4","229","","","","","","","0","1","0","","0.5258833792","0.8","0.6","0.2","0.4","0.4218938049","0.5258833792","0.2339104391","0.5145499259","","","","","","","","","","","","74","J","1","","","209","main_expt",""
"","bandit","289","578121","0.0-250.0-0.0","44367503","wem/bandit_either_3","A2YO837C0O1E91","either","4","1","","","","","","","1","0","0","0.5453980868","","0.8","0.6","0.2","0.4","","","","","0.6003160005","0.5453980868","0.2506558306","0.3497539355","","","","","","","","74","J","1","","","210","main_expt",""
"","bandit","290","579731","0.0-251.0-0.0","44367503","wem/bandit_either_3","A2YO837C0O1E91","either","4","101","","","","","","","1","0","0","0.5370950561","","0.8","0.6","0.2","0.4","","","","","0.5481562991","0.5370950561","0.3466578502","0.3335821388","","","","","","","","74","J","1","","","211","main_expt",""
"","bandit","291","581386","0.0-252.0-0.0","44367503","wem/bandit_either_3","A2YO837C0O1E91","either","4","147","","","","","","","0","1","0","","0.5774996514","0.8","0.6","0.2","0.4","0.6210595125","0.5774996514","0.4162959965","0.2778022227","","","","","","","","","","","","74","J","1","","","212","main_expt",""
"","bandit","292","583055","0.0-253.0-0.0","44367503","wem/bandit_either_3","A2YO837C0O1E91","either","4","161","","","","","","","0","0","1","0.4826056363","","0.8","0.6","0.2","0.4","","","","","0.7732161257","0.4826056363","0.545788555","0.2949104287","","","","","","","","74","J","1","","","213","main_expt",""
"","bandit","293","584572","0.0-254.0-0.0","44367503","wem/bandit_either_3","A2YO837C0O1E91","either","4","9","","","","","","","0","0","1","0.4913277851","","0.8","0.6","0.2","0.4","","","","","0.7689771773","0.4913277851","0.6077749924","0.2443343027","","","","","","","","74","J","1","","","214","main_expt",""
"","bandit","294","586144","0.0-255.0-0.0","44367503","wem/bandit_either_3","A2YO837C0O1E91","either","4","64","","","","","","","1","0","0","0.5415006571","","0.8","0.6","0.2","0.4","","","","","0.6841712945","0.5415006571","0.4883429648","0.2232989174","","","","","","","","74","J","1","","","215","main_expt",""
"","bandit","295","587843","0.0-256.0-0.0","44367503","wem/bandit_either_3","A2YO837C0O1E91","either","4","191","","","","","","","1","0","0","0.5198015267","","0.8","0.6","0.2","0.4","","","","","0.7019934296","0.5198015267","0.3309854328","0.2918619336","","","","","","","","74","J","1","","","216","main_expt",""
"","bandit","296","589536","0.0-257.0-0.0","44367503","wem/bandit_either_3","A2YO837C0O1E91","either","4","184","","","","","","","1","0","0","0.545097872","","0.8","0.6","0.2","0.4","","","","","0.7537099884","0.545097872","0.3310528633","0.3571058798","","","","","","","","74","J","1","","","217","main_expt",""
"","bandit","297","591416","0.0-258.0-0.0","44367503","wem/bandit_either_3","A2YO837C0O1E91","either","4","373","","","","","","","0","1","0","","0.5776025334","0.8","0.6","0.2","0.4","0.8428980993","0.5776025334","0.4147218791","0.3738303097","","","","","","","","","","","","74","J","1","","","218","main_expt",""
"","bandit","298","593168","0.0-259.0-0.0","44367503","wem/bandit_either_3","A2YO837C0O1E91","either","4","242","","","","","","","1","0","0","0.5616346574","","0.8","0.6","0.2","0.4","","","","","0.8007326434","0.5616346574","0.3402104323","0.4832874948","","","","","","","","74","J","1","","","219","main_expt",""
"","bandit","299","594687","0.0-260.0-0.0","44367503","wem/bandit_either_3","A2YO837C0O1E91","either","4","11","","","","","","","0","0","1","","0.6261942659","0.8","0.6","0.2","0.4","0.8518850648","0.6261942659","0.3448871422","0.475455537","","","","","","","","","","","","74","J","1","","","220","main_expt",""
"","bandit","300","596307","0.0-261.0-0.0","44367503","wem/bandit_either_3","A2YO837C0O1E91","either","4","111","","","","","","","0","0","1","0.6533416475","","0.8","0.6","0.2","0.4","","","","","0.8488451861","0.6533416475","0.4438284365","0.3849790123","","","","","","","","74","J","1","","","221","main_expt",""
"","bandit","301","599137","0.0-262.0-0.0","44367503","wem/bandit_either_3","A2YO837C0O1E91","either","4","1322","","","","","","","0","1","0","","0.3768672835","0.8","0.6","0.2","0.4","0.8202185963","0.6780524799","0.3768672835","0.2708628555","","","","","","","","","","","","75","K","2","","","222","main_expt",""
"","bandit","302","600681","0.0-263.0-0.0","44367503","wem/bandit_either_3","A2YO837C0O1E91","either","4","36","","","","","","","0","1","0","","0.4599748191","0.8","0.6","0.2","0.4","0.839196386","0.638470603","0.4599748191","0.3886191555","","","","","","","","","","","","75","K","2","","","223","main_expt",""
"","bandit","303","602368","0.0-264.0-0.0","44367503","wem/bandit_either_3","A2YO837C0O1E91","either","4","178","","","","","","","0","0","1","","0.5868274652","0.8","0.6","0.2","0.4","0.8340435664","0.560582988","0.5868274652","0.3352763987","","","","","","","","","","","","75","K","2","","","224","main_expt",""
"","bandit","304","604389","0.0-265.0-0.0","44367503","wem/bandit_either_3","A2YO837C0O1E91","either","4","513","","","","","","","0","0","1","0.510759767","","0.8","0.6","0.2","0.4","","","","","0.8229669419","0.5004803289","0.510759767","0.3948846532","","","","","","","","75","K","2","","","225","main_expt",""
"","bandit","305","606006","0.0-266.0-0.0","44367503","wem/bandit_either_3","A2YO837C0O1E91","either","4","108","","","","","","","0","1","0","","0.6026028704","0.8","0.6","0.2","0.4","0.8326575293","0.5109709899","0.6026028704","0.385279681","","","","","","","","","","","","75","K","2","","","226","main_expt",""
"","bandit","306","607703","0.0-267.0-0.0","44367503","wem/bandit_either_3","A2YO837C0O1E91","either","4","190","","","","","","","0","0","1","","0.588132951","0.8","0.6","0.2","0.4","0.8904476858","0.4271661703","0.588132951","0.3296530349","","","","","","","","","","","","75","K","2","","","227","main_expt",""
"","bandit","307","609271","0.0-268.0-0.0","44367503","wem/bandit_either_3","A2YO837C0O1E91","either","4","59","","","","","","","0","0","1","","0.5754590721","0.8","0.6","0.2","0.4","0.8877596604","0.374673526","0.5754590721","0.4227788413","","","","","","","","","","","","75","K","2","","","228","main_expt",""
"","bandit","308","610813","0.0-269.0-0.0","44367503","wem/bandit_either_3","A2YO837C0O1E91","either","4","34","","","","","","","0","0","1","","0.393435759","0.8","0.6","0.2","0.4","0.8647697669","0.393435759","0.6311951266","0.4470353227","","","","","","","","","","","","74","J","1","","","229","main_expt",""
"","bandit","309","612584","0.0-270.0-0.0","44367503","wem/bandit_either_3","A2YO837C0O1E91","either","4","264","","","","","","","0","0","1","0.3299431778","","0.8","0.6","0.2","0.4","","","","","0.8704214291","0.3299431778","0.6164228117","0.2986819632","","","","","","","","74","J","1","","","230","main_expt",""
"","bandit","310","614233","0.0-271.0-0.0","44367503","wem/bandit_either_3","A2YO837C0O1E91","either","4","140","","","","","","","0","0","1","0.3477061432","","0.8","0.6","0.2","0.4","","","","","0.8598686354","0.3477061432","0.5943568022","0.4508866759","","","","","","","","74","J","1","","","231","main_expt",""
"","bandit","311","615770","0.0-272.0-0.0","44367503","wem/bandit_either_3","A2YO837C0O1E91","either","4","30","","","","","","","0","1","0","","0.6032910051","0.8","0.6","0.2","0.4","0.7939027672","0.3430234075","0.6032910051","0.5125968159","","","","","","","","","","","","75","K","2","","","232","main_expt",""
"","bandit","312","617358","0.0-273.0-0.0","44367503","wem/bandit_either_3","A2YO837C0O1E91","either","4","78","","","","","","","0","1","0","","0.7225660168","0.8","0.6","0.2","0.4","0.7930400566","0.2812772396","0.7225660168","0.6020802482","","","","","","","","","","","","75","K","2","","","233","main_expt",""
"","bandit","313","619093","0.0-274.0-0.0","44367503","wem/bandit_either_3","A2YO837C0O1E91","either","4","226","","","","","","","0","1","0","","0.6718439238","0.8","0.6","0.2","0.4","0.7549101179","0.2049555934","0.6718439238","0.5927943616","","","","","","","","","","","","75","K","2","","","234","main_expt",""
"","bandit","314","620968","0.0-275.0-0.0","44367503","wem/bandit_either_3","A2YO837C0O1E91","either","4","367","","","","","","","1","0","0","0.6025803433","","0.8","0.6","0.2","0.4","","","","","0.7654291135","0.144612338","0.6025803433","0.5814417759","","","","","","","","75","K","2","","","235","main_expt",""
"","bandit","315","622734","0.0-276.0-0.0","44367503","wem/bandit_either_3","A2YO837C0O1E91","either","4","258","","","","","","","0","0","1","0.6170166349","","0.8","0.6","0.2","0.4","","","","","0.6965918162","0.1509581517","0.6170166349","0.6530024001","","","","","","","","75","K","2","","","236","main_expt",""
"","bandit","316","624462","0.0-277.0-0.0","44367503","wem/bandit_either_3","A2YO837C0O1E91","either","4","220","","","","","","","0","0","1","","0.6426153702","0.8","0.6","0.2","0.4","0.8151927982","0.2267465707","0.6426153702","0.5861490443","","","","","","","","","","","","75","K","2","","","237","main_expt",""
"","bandit","317","625979","0.0-278.0-0.0","44367503","wem/bandit_either_3","A2YO837C0O1E91","either","4","8","","","","","","","0","1","0","","0.5421138037","0.8","0.6","0.2","0.4","0.7696745118","0.1651127221","0.5421138037","0.6086881899","","","","","","","","","","","","75","K","2","","","238","main_expt",""
"","bandit","318","627628","0.0-279.0-0.0","44367503","wem/bandit_either_3","A2YO837C0O1E91","either","4","141","","","","","","","0","1","0","","0.6323362843","0.8","0.6","0.2","0.4","0.7368178416","0.1587945469","0.5534077834","0.6323362843","","","","","","","","","","","","76","L","3","","","239","main_expt",""
"","bandit","319","629373","0.0-280.0-0.0","44367503","wem/bandit_either_3","A2YO837C0O1E91","either","4","237","","","","","","","1","0","0","0.5620837446","","0.8","0.6","0.2","0.4","","","","","0.6443792527","0.08644000702","0.7267030345","0.5620837446","","","","","","","","76","L","3","","","240","main_expt",""
"","bandit","320","631068","0.0-281.0-0.0","44367503","wem/bandit_either_3","A2YO837C0O1E91","either","4","188","","","","","","","0","0","1","","0.5571148452","0.8","0.6","0.2","0.4","0.6467572307","0.06677296221","0.7211407476","0.5571148452","","","","","","","","","","","","76","L","3","","","241","main_expt",""
"","bandit","321","632638","0.0-282.0-0.0","44367503","wem/bandit_either_3","A2YO837C0O1E91","either","4","63","","","","","","","0","0","1","","0.4016720442","0.8","0.6","0.2","0.4","0.6131120494","0.08066643837","0.6764936995","0.4016720442","","","","","","","","","","","","76","L","3","","","242","main_expt",""
"","bandit","322","634227","0.0-283.0-0.0","44367503","wem/bandit_either_3","A2YO837C0O1E91","either","4","79","","","","","","","1","0","0","0.5389796081","","0.8","0.6","0.2","0.4","","","","","0.7409975133","0.08086195374","0.6677952341","0.5389796081","","","","","","","","76","L","3","","","243","main_expt",""
"","bandit","323","635868","0.0-284.0-0.0","44367503","wem/bandit_either_3","A2YO837C0O1E91","either","4","133","","","","","","","0","1","0","","0.7284567303","0.8","0.6","0.2","0.4","0.6582216966","0.1496534925","0.7284567303","0.5123058505","","","","","","","","","","","","75","K","2","","","244","main_expt",""
"","bandit","324","637415","0.0-285.0-0.0","44367503","wem/bandit_either_3","A2YO837C0O1E91","either","4","38","","","","","","","0","1","0","","0.7435316078","0.8","0.6","0.2","0.4","0.7274682542","0.1788819116","0.7435316078","0.434346282","","","","","","","","","","","","75","K","2","","","245","main_expt",""
"","bandit","325","639137","0.0-286.0-0.0","44367503","wem/bandit_either_3","A2YO837C0O1E91","either","4","214","","","","","","","1","0","0","0.7420547497","","0.8","0.6","0.2","0.4","","","","","0.7675378805","0.2147576294","0.7420547497","0.4080319695","","","","","","","","75","K","2","","","246","main_expt",""
"","bandit","326","640729","0.0-287.0-0.0","44367503","wem/bandit_either_3","A2YO837C0O1E91","either","4","83","","","","","","","1","0","0","0.7921199037","","0.8","0.6","0.2","0.4","","","","","0.6929594867","0.3362928402","0.7921199037","0.3954483373","","","","","","","","75","K","2","","","247","main_expt",""
"","bandit","327","642542","0.0-288.0-0.0","44367503","wem/bandit_either_3","A2YO837C0O1E91","either","4","304","","","","","","","0","1","0","","0.7367915269","0.8","0.6","0.2","0.4","0.6389564766","0.4361149037","0.7367915269","0.3521273756","","","","","","","","","","","","75","K","2","","","248","main_expt",""
