"consent","trial_type","trial_index","time_elapsed","internal_node_id","subjID","study","MID","cond","drift","rt","responses","key_press","expt_phase","like","value","connected","gems","bombs","no_reward","GemPrChosen","BombPrChosen","GainOverPainPr_0","GainOverPainPr_1","GainOverPainPr_2","GainOverPainPr_3","LosePr_0","LosePr_1","LosePr_2","LosePr_3","WinPr_0","WinPr_1","WinPr_2","WinPr_3","Q0","Q1","Q2","gender","age","ethnicity","target","respCharCode","respKey","respChoiceNum","respChoice","practice","trial_counter","trial_label","button_pressed"
"INL_behavioral_consent_30min_online.html","consent","0","18348","0.0-0.0","45060592","wem/bandit_either_3","A3HCGNV93TJO7R","either","1","","","","","","","","","","","","","","","","","","","","","","","","","","","","","","","","","","","","","","",""
"","survey-text","1","25831","0.0-1.0","45060592","wem/bandit_either_3","A3HCGNV93TJO7R","either","1","6455","{""Q0"":""A3HCGNV93TJO7R""}","","","","","","","","","","","","","","","","","","","","","","","","","","","","","","","","","","","","",""
"","text","2","34235","0.0-2.0","45060592","wem/bandit_either_3","A3HCGNV93TJO7R","either","1","7392","","32","","","","","","","","","","","","","","","","","","","","","","","","","","","","","","","","","","","",""
"","text","3","174686","0.0-3.0","45060592","wem/bandit_either_3","A3HCGNV93TJO7R","either","1","140419","","32","","","","","","","","","","","","","","","","","","","","","","","","","","","","","","","","","","","",""
"","text","4","223275","0.0-4.0","45060592","wem/bandit_either_3","A3HCGNV93TJO7R","either","1","48568","","32","","","","","","","","","","","","","","","","","","","","","","","","","","","","","","","","","","","",""
"","text","5","237482","0.0-5.0","45060592","wem/bandit_either_3","A3HCGNV93TJO7R","either","1","14195","","32","","","","","","","","","","","","","","","","","","","","","","","","","","","","","","","","","","","",""
"","text","6","285061","0.0-6.0","45060592","wem/bandit_either_3","A3HCGNV93TJO7R","either","1","47565","","32","","","","","","","","","","","","","","","","","","","","","","","","","","","","","","","","","","","",""
"","text","7","293716","0.0-7.0","45060592","wem/bandit_either_3","A3HCGNV93TJO7R","either","1","8648","","32","","","","","","","","","","","","","","","","","","","","","","","","","","","","","","","","","","","",""
"","text","8","298029","0.0-8.0","45060592","wem/bandit_either_3","A3HCGNV93TJO7R","either","1","4308","","32","","","","","","","","","","","","","","","","","","","","","","","","","","","","","","","","","","","",""
"","identification","9","306381","0.0-9.0-0.0","45060592","wem/bandit_either_3","A3HCGNV93TJO7R","either","1","8247","","","","6","6","6","","","","","","","","","","","","","","","","","","","","","","","","the village of Zur","","","","","","","",""
"","identification","10","314934","0.0-9.0-1.0","45060592","wem/bandit_either_3","A3HCGNV93TJO7R","either","1","7478","","","","0","1","0","","","","","","","","","","","","","","","","","","","","","","","","the village of Nyx","","","","","","","",""
"","text","11","326531","0.0-10.0","45060592","wem/bandit_either_3","A3HCGNV93TJO7R","either","1","10590","","32","","","","","","","","","","","","","","","","","","","","","","","","","","","","","","","","","","","",""
"","text","12","329128","0.0-11.0","45060592","wem/bandit_either_3","A3HCGNV93TJO7R","either","1","2587","","32","","","","","","","","","","","","","","","","","","","","","","","","","","","","","","","","","","","",""
"","text","13","331437","0.0-12.0","45060592","wem/bandit_either_3","A3HCGNV93TJO7R","either","1","2305","","32","","","","","","","","","","","","","","","","","","","","","","","","","","","","","","","","","","","",""
"","text","14","336396","0.0-13.0","45060592","wem/bandit_either_3","A3HCGNV93TJO7R","either","1","4954","","32","","","","","","","","","","","","","","","","","","","","","","","","","","","","","","","","","","","",""
"","bandit","15","339668","0.0-14.0-0.0","45060592","wem/bandit_either_3","A3HCGNV93TJO7R","either","1","1731","","","","","","","0","0","1","0","0","","","","","0","","","","0","","","","","","","","","","","74","J","0","img/none_selected_demo.jpg","true","0","",""
"","bandit","16","343166","0.0-15.0-0.0","45060592","wem/bandit_either_3","A3HCGNV93TJO7R","either","1","1952","","","","","","","0","0","1","0","0","","","","","0","","","","0","","","","","","","","","","","75","K","0","img/none_selected_demo.jpg","true","0","",""
"","text","17","359231","0.0-16.0","45060592","wem/bandit_either_3","A3HCGNV93TJO7R","either","1","16057","","32","","","","","","","","","","","","","","","","","","","","","","","","","","","","","","","","","","","",""
"","text","18","367321","0.0-17.0","45060592","wem/bandit_either_3","A3HCGNV93TJO7R","either","1","8083","","32","","","","","","","","","","","","","","","","","","","","","","","","","","","","","","","","","","","",""
"","text","19","374692","0.0-18.0","45060592","wem/bandit_either_3","A3HCGNV93TJO7R","either","1","7364","","32","","","","","","","","","","","","","","","","","","","","","","","","","","","","","","","","","","","",""
"","text","20","378861","0.0-19.0","45060592","wem/bandit_either_3","A3HCGNV93TJO7R","either","1","4163","","32","","","","","","","","","","","","","","","","","","","","","","","","","","","","","","","","","","","",""
"","bandit","21","381297","0.0-20.0-0.0","45060592","wem/bandit_either_3","A3HCGNV93TJO7R","either","1","906","","","","","","","0","1","0","","0.8","0.5","0.5","","","0.8","0.2","","","","","","","","","","","","","","74","J","0","img/none_selected_demo.jpg","true","0","80_20_practice",""
"","bandit","22","383582","0.0-20.0-1.0","45060592","wem/bandit_either_3","A3HCGNV93TJO7R","either","1","760","","","","","","","0","0","1","","0.2","0.5","0.5","","","0.8","0.2","","","","","","","","","","","","","","75","K","1","","true","0","80_20_practice",""
"","bandit","23","385633","0.0-20.0-2.0","45060592","wem/bandit_either_3","A3HCGNV93TJO7R","either","1","511","","","","","","","0","0","1","0.2","","0.5","0.5","","","","","","","0.8","0.2","","","","","","","","","","75","K","1","","true","0","80_20_practice",""
"","bandit","24","387639","0.0-20.0-3.0","45060592","wem/bandit_either_3","A3HCGNV93TJO7R","either","1","485","","","","","","","0","0","1","0.2","","0.5","0.5","","","","","","","0.8","0.2","","","","","","","","","","75","K","1","","true","0","80_20_practice",""
"","bandit","25","389577","0.0-20.0-4.0","45060592","wem/bandit_either_3","A3HCGNV93TJO7R","either","1","420","","","","","","","0","0","1","0.8","","0.5","0.5","","","","","","","0.8","0.2","","","","","","","","","","74","J","0","img/none_selected_demo.jpg","true","0","80_20_practice",""
"","bandit","26","391472","0.0-20.0-5.0","45060592","wem/bandit_either_3","A3HCGNV93TJO7R","either","1","370","","","","","","","0","1","0","","0.8","0.5","0.5","","","0.8","0.2","","","","","","","","","","","","","","74","J","0","img/none_selected_demo.jpg","true","0","80_20_practice",""
"","bandit","27","393321","0.0-20.0-6.0","45060592","wem/bandit_either_3","A3HCGNV93TJO7R","either","1","327","","","","","","","0","0","1","","0.2","0.5","0.5","","","0.8","0.2","","","","","","","","","","","","","","75","K","1","","true","0","80_20_practice",""
"","bandit","28","395019","0.0-20.0-7.0","45060592","wem/bandit_either_3","A3HCGNV93TJO7R","either","1","171","","","","","","","1","0","0","0.2","","0.5","0.5","","","","","","","0.8","0.2","","","","","","","","","","75","K","1","","true","0","80_20_practice",""
"","bandit","29","396908","0.0-20.0-8.0","45060592","wem/bandit_either_3","A3HCGNV93TJO7R","either","1","356","","","","","","","0","0","1","0.2","","0.5","0.5","","","","","","","0.8","0.2","","","","","","","","","","75","K","1","","true","0","80_20_practice",""
"","bandit","30","398861","0.0-20.0-9.0","45060592","wem/bandit_either_3","A3HCGNV93TJO7R","either","1","414","","","","","","","0","1","0","","0.2","0.5","0.5","","","0.8","0.2","","","","","","","","","","","","","","75","K","1","","true","0","80_20_practice",""
"","bandit","31","400698","0.0-20.0-10.0","45060592","wem/bandit_either_3","A3HCGNV93TJO7R","either","1","297","","","","","","","0","0","1","","0.2","0.5","0.5","","","0.8","0.2","","","","","","","","","","","","","","75","K","1","","true","0","80_20_practice",""
"","bandit","32","402511","0.0-20.0-11.0","45060592","wem/bandit_either_3","A3HCGNV93TJO7R","either","1","283","","","","","","","0","0","1","","0.2","0.5","0.5","","","0.8","0.2","","","","","","","","","","","","","","75","K","1","","true","0","80_20_practice",""
"","bandit","33","404347","0.0-20.0-12.0","45060592","wem/bandit_either_3","A3HCGNV93TJO7R","either","1","310","","","","","","","0","0","1","0.2","","0.5","0.5","","","","","","","0.8","0.2","","","","","","","","","","75","K","1","","true","0","80_20_practice",""
"","bandit","34","406337","0.0-20.0-13.0","45060592","wem/bandit_either_3","A3HCGNV93TJO7R","either","1","462","","","","","","","0","0","1","","0.2","0.5","0.5","","","0.8","0.2","","","","","","","","","","","","","","75","K","1","","true","0","80_20_practice",""
"","bandit","35","407981","0.0-20.0-14.0","45060592","wem/bandit_either_3","A3HCGNV93TJO7R","either","1","111","","","","","","","0","0","1","","0.2","0.5","0.5","","","0.8","0.2","","","","","","","","","","","","","","75","K","1","","true","0","80_20_practice",""
"","bandit","36","409787","0.0-20.0-15.0","45060592","wem/bandit_either_3","A3HCGNV93TJO7R","either","1","281","","","","","","","0","0","1","0.2","","0.5","0.5","","","","","","","0.8","0.2","","","","","","","","","","75","K","1","","true","0","80_20_practice",""
"","bandit","37","411900","0.0-20.0-16.0","45060592","wem/bandit_either_3","A3HCGNV93TJO7R","either","1","587","","","","","","","0","0","1","","0.2","0.5","0.5","","","0.8","0.2","","","","","","","","","","","","","","75","K","1","","true","0","80_20_practice",""
"","bandit","38","413638","0.0-20.0-17.0","45060592","wem/bandit_either_3","A3HCGNV93TJO7R","either","1","215","","","","","","","0","0","1","","0.8","0.5","0.5","","","0.8","0.2","","","","","","","","","","","","","","74","J","0","img/none_selected_demo.jpg","true","0","80_20_practice",""
"","bandit","39","415497","0.0-20.0-18.0","45060592","wem/bandit_either_3","A3HCGNV93TJO7R","either","1","315","","","","","","","0","1","0","","0.8","0.5","0.5","","","0.8","0.2","","","","","","","","","","","","","","74","J","0","img/none_selected_demo.jpg","true","0","80_20_practice",""
"","bandit","40","417359","0.0-20.0-19.0","45060592","wem/bandit_either_3","A3HCGNV93TJO7R","either","1","308","","","","","","","0","1","0","","0.8","0.5","0.5","","","0.8","0.2","","","","","","","","","","","","","","74","J","0","img/none_selected_demo.jpg","true","0","80_20_practice",""
"","text","41","423264","0.0-21.0","45060592","wem/bandit_either_3","A3HCGNV93TJO7R","either","1","5892","","32","","","","","","","","","","","","","","","","","","","","","","","","","","","","","","","","","","","",""
"","bandit","42","427491","0.0-22.0-0.0","45060592","wem/bandit_either_3","A3HCGNV93TJO7R","either","1","2711","","","","","","","0","1","0","0","1","","","","","0","1","","","1","0","","","","","","","","","","75","K","1","","true","0","",""
"","text","43","433959","0.0-23.0","45060592","wem/bandit_either_3","A3HCGNV93TJO7R","either","1","6460","","32","","","","","","","","","","","","","","","","","","","","","","","","","","","","","","","","","","","",""
"","text","44","443987","0.0-24.0","45060592","wem/bandit_either_3","A3HCGNV93TJO7R","either","1","10020","","32","","","","","","","","","","","","","","","","","","","","","","","","","","","","","","","","","","","",""
"","text","45","446421","0.0-25.0","45060592","wem/bandit_either_3","A3HCGNV93TJO7R","either","1","2429","","32","","","","","","","","","","","","","","","","","","","","","","","","","","","","","","","","","","","",""
"","text","46","448968","0.0-26.0","45060592","wem/bandit_either_3","A3HCGNV93TJO7R","either","1","2538","","32","","","","","","","","","","","","","","","","","","","","","","","","","","","","","","","","","","","",""
"","text","47","457259","0.0-27.0","45060592","wem/bandit_either_3","A3HCGNV93TJO7R","either","1","8285","","32","","","","","","","","","","","","","","","","","","","","","","","","","","","","","","","","","","","",""
"","text","48","459910","0.0-28.0","45060592","wem/bandit_either_3","A3HCGNV93TJO7R","either","1","2640","","32","","","","","","","","","","","","","","","","","","","","","","","","","","","","","","","","","","","",""
"","text","49","463730","0.0-29.0","45060592","wem/bandit_either_3","A3HCGNV93TJO7R","either","1","3811","","32","","","","","","","","","","","","","","","","","","","","","","","","","","","","","","","","","","","",""
"","text","50","467715","0.0-30.0","45060592","wem/bandit_either_3","A3HCGNV93TJO7R","either","1","3973","","32","","","","","","","","","","","","","","","","","","","","","","","","","","","","","","","","","","","",""
"","text","51","470955","0.0-31.0","45060592","wem/bandit_either_3","A3HCGNV93TJO7R","either","1","3232","","32","","","","","","","","","","","","","","","","","","","","","","","","","","","","","","","","","","","",""
"","text","52","472703","0.0-32.0","45060592","wem/bandit_either_3","A3HCGNV93TJO7R","either","1","1742","","32","","","","","","","","","","","","","","","","","","","","","","","","","","","","","","","","","","","",""
"","text","53","475467","0.0-33.0","45060592","wem/bandit_either_3","A3HCGNV93TJO7R","either","1","2755","","32","","","","","","","","","","","","","","","","","","","","","","","","","","","","","","","","","","","",""
"","bandit","54","478509","0.0-34.0-0.0","45060592","wem/bandit_either_3","A3HCGNV93TJO7R","either","1","1517","","","","","","","0","1","0","","0.8","0.5","0.5","0.5","0.5","0.8","0.2","0.6","0.2","","","","","","","","","","","","72","H","0","img/none_selected.jpg","true","0","full_practice",""
"","bandit","55","480426","0.0-34.0-1.0","45060592","wem/bandit_either_3","A3HCGNV93TJO7R","either","1","387","","","","","","","0","0","1","0.2","","0.5","0.5","0.5","0.5","","","","","0.8","0.2","0.6","0.2","","","","","","","","74","J","1","","true","0","full_practice",""
"","bandit","56","482193","0.0-34.0-2.0","45060592","wem/bandit_either_3","A3HCGNV93TJO7R","either","1","242","","","","","","","1","0","0","0.6","","0.5","0.5","0.5","0.5","","","","","0.8","0.2","0.6","0.2","","","","","","","","75","K","2","","true","0","full_practice",""
"","bandit","57","484072","0.0-34.0-3.0","45060592","wem/bandit_either_3","A3HCGNV93TJO7R","either","1","351","","","","","","","0","0","1","0.6","","0.5","0.5","0.5","0.5","","","","","0.8","0.2","0.6","0.2","","","","","","","","75","K","2","","true","0","full_practice",""
"","bandit","58","485825","0.0-34.0-4.0","45060592","wem/bandit_either_3","A3HCGNV93TJO7R","either","1","236","","","","","","","0","0","1","","0.2","0.5","0.5","0.5","0.5","0.8","0.2","0.6","0.2","","","","","","","","","","","","76","L","3","","true","0","full_practice",""
"","bandit","59","487479","0.0-34.0-5.0","45060592","wem/bandit_either_3","A3HCGNV93TJO7R","either","1","135","","","","","","","0","0","1","0.2","","0.5","0.5","0.5","0.5","","","","","0.8","0.2","0.6","0.2","","","","","","","","76","L","3","","true","0","full_practice",""
"","bandit","60","489240","0.0-34.0-6.0","45060592","wem/bandit_either_3","A3HCGNV93TJO7R","either","1","238","","","","","","","0","1","0","","0.2","0.5","0.5","0.5","0.5","0.8","0.2","0.6","0.2","","","","","","","","","","","","76","L","3","","true","0","full_practice",""
"","bandit","61","491126","0.0-34.0-7.0","45060592","wem/bandit_either_3","A3HCGNV93TJO7R","either","1","289","","","","","","","0","0","1","","0.2","0.5","0.5","0.5","0.5","0.8","0.2","0.6","0.2","","","","","","","","","","","","76","L","3","","true","0","full_practice",""
"","bandit","62","492928","0.0-34.0-8.0","45060592","wem/bandit_either_3","A3HCGNV93TJO7R","either","1","232","","","","","","","0","0","1","0.2","","0.5","0.5","0.5","0.5","","","","","0.8","0.2","0.6","0.2","","","","","","","","76","L","3","","true","0","full_practice",""
"","bandit","63","494768","0.0-34.0-9.0","45060592","wem/bandit_either_3","A3HCGNV93TJO7R","either","1","270","","","","","","","0","0","1","0.6","","0.5","0.5","0.5","0.5","","","","","0.8","0.2","0.6","0.2","","","","","","","","75","K","2","","true","0","full_practice",""
"","bandit","64","496376","0.0-34.0-10.0","45060592","wem/bandit_either_3","A3HCGNV93TJO7R","either","1","77","","","","","","","0","1","0","","0.6","0.5","0.5","0.5","0.5","0.8","0.2","0.6","0.2","","","","","","","","","","","","75","K","2","","true","0","full_practice",""
"","bandit","65","498205","0.0-34.0-11.0","45060592","wem/bandit_either_3","A3HCGNV93TJO7R","either","1","305","","","","","","","0","0","1","","0.6","0.5","0.5","0.5","0.5","0.8","0.2","0.6","0.2","","","","","","","","","","","","75","K","2","","true","0","full_practice",""
"","bandit","66","499981","0.0-34.0-12.0","45060592","wem/bandit_either_3","A3HCGNV93TJO7R","either","1","247","","","","","","","1","0","0","0.6","","0.5","0.5","0.5","0.5","","","","","0.8","0.2","0.6","0.2","","","","","","","","75","K","2","","true","0","full_practice",""
"","bandit","67","501837","0.0-34.0-13.0","45060592","wem/bandit_either_3","A3HCGNV93TJO7R","either","1","330","","","","","","","0","1","0","","0.6","0.5","0.5","0.5","0.5","0.8","0.2","0.6","0.2","","","","","","","","","","","","75","K","2","","true","0","full_practice",""
"","bandit","68","503581","0.0-34.0-14.0","45060592","wem/bandit_either_3","A3HCGNV93TJO7R","either","1","217","","","","","","","0","0","1","0.6","","0.5","0.5","0.5","0.5","","","","","0.8","0.2","0.6","0.2","","","","","","","","75","K","2","","true","0","full_practice",""
"","bandit","69","505192","0.0-34.0-15.0","45060592","wem/bandit_either_3","A3HCGNV93TJO7R","either","1","91","","","","","","","0","1","0","","0.2","0.5","0.5","0.5","0.5","0.8","0.2","0.6","0.2","","","","","","","","","","","","74","J","1","","true","0","full_practice",""
"","bandit","70","506853","0.0-34.0-16.0","45060592","wem/bandit_either_3","A3HCGNV93TJO7R","either","1","115","","","","","","","0","0","1","0.2","","0.5","0.5","0.5","0.5","","","","","0.8","0.2","0.6","0.2","","","","","","","","74","J","1","","true","0","full_practice",""
"","bandit","71","508468","0.0-34.0-17.0","45060592","wem/bandit_either_3","A3HCGNV93TJO7R","either","1","85","","","","","","","0","0","1","0.2","","0.5","0.5","0.5","0.5","","","","","0.8","0.2","0.6","0.2","","","","","","","","74","J","1","","true","0","full_practice",""
"","bandit","72","510080","0.0-34.0-18.0","45060592","wem/bandit_either_3","A3HCGNV93TJO7R","either","1","78","","","","","","","0","1","0","","0.2","0.5","0.5","0.5","0.5","0.8","0.2","0.6","0.2","","","","","","","","","","","","74","J","1","","true","0","full_practice",""
"","bandit","73","511799","0.0-34.0-19.0","45060592","wem/bandit_either_3","A3HCGNV93TJO7R","either","1","192","","","","","","","0","0","1","0.2","","0.5","0.5","0.5","0.5","","","","","0.8","0.2","0.6","0.2","","","","","","","","74","J","1","","true","0","full_practice",""
"","text","74","515393","0.0-35.0","45060592","wem/bandit_either_3","A3HCGNV93TJO7R","either","1","3559","","32","","","","","","","","","","","","","","","","","","","","","","","","","","","","","","","","","","","",""
"","text","75","535502","0.0-36.0","45060592","wem/bandit_either_3","A3HCGNV93TJO7R","either","1","19092","","32","","","","","","","","","","","","","","","","","","","","","","","","","","","","","","","","","","","",""
"","text","76","552451","0.0-37.0","45060592","wem/bandit_either_3","A3HCGNV93TJO7R","either","1","16940","","32","","","","","","","","","","","","","","","","","","","","","","","","","","","","","","","","","","","",""
"","text","77","573465","0.0-38.0","45060592","wem/bandit_either_3","A3HCGNV93TJO7R","either","1","21005","","32","","","","","","","","","","","","","","","","","","","","","","","","","","","","","","","","","","","",""
"","text","78","579434","0.0-39.0","45060592","wem/bandit_either_3","A3HCGNV93TJO7R","either","1","5958","","32","","","","","","","","","","","","","","","","","","","","","","","","","","","","","","","","","","","",""
"","text","79","583355","0.0-40.0","45060592","wem/bandit_either_3","A3HCGNV93TJO7R","either","1","3911","","32","","","","","","","","","","","","","","","","","","","","","","","","","","","","","","","","","","","",""
"","bandit","80","586635","0.0-41.0-0.0","45060592","wem/bandit_either_3","A3HCGNV93TJO7R","either","1","1755","","","","","","","1","0","0","0.7674833066","","0.4","0.6","0.2","0.8","","","","","0.7674833066","0.5202783506","0.4995060561","0.8101107889","","","","","","","","72","H","0","img/none_selected.jpg","","1","main_expt",""
"","bandit","81","588471","0.0-42.0-0.0","45060592","wem/bandit_either_3","A3HCGNV93TJO7R","either","1","309","","","","","","","0","1","0","","0.4559554218","0.4","0.6","0.2","0.8","0.7786696111","0.4559554218","0.4452888422","0.8827976921","","","","","","","","","","","","74","J","1","","","2","main_expt",""
"","bandit","82","590228","0.0-43.0-0.0","45060592","wem/bandit_either_3","A3HCGNV93TJO7R","either","1","217","","","","","","","0","0","1","0.3791335739","","0.4","0.6","0.2","0.8","","","","","0.7883912796","0.3791335739","0.4956599627","0.918633781","","","","","","","","74","J","1","","","3","main_expt",""
"","bandit","83","591841","0.0-44.0-0.0","45060592","wem/bandit_either_3","A3HCGNV93TJO7R","either","1","83","","","","","","","0","0","1","0.3939226057","","0.4","0.6","0.2","0.8","","","","","0.8311681014","0.362446662","0.3939226057","0.8961075186","","","","","","","","75","K","2","","","4","main_expt",""
"","bandit","84","593447","0.0-45.0-0.0","45060592","wem/bandit_either_3","A3HCGNV93TJO7R","either","1","82","","","","","","","0","0","1","","0.4737796053","0.4","0.6","0.2","0.8","0.706748425","0.4337427147","0.4737796053","0.9065038385","","","","","","","","","","","","75","K","2","","","5","main_expt",""
"","bandit","85","595230","0.0-46.0-0.0","45060592","wem/bandit_either_3","A3HCGNV93TJO7R","either","1","256","","","","","","","0","1","0","","0.5798080576","0.4","0.6","0.2","0.8","0.7246132019","0.4260566605","0.5798080576","0.9628954729","","","","","","","","","","","","75","K","2","","","6","main_expt",""
"","bandit","86","596959","0.0-47.0-0.0","45060592","wem/bandit_either_3","A3HCGNV93TJO7R","either","1","208","","","","","","","0","1","0","","0.6184433593","0.4","0.6","0.2","0.8","0.822103072","0.5595739282","0.6184433593","0.9244273404","","","","","","","","","","","","75","K","2","","","7","main_expt",""
"","bandit","87","599258","0.0-48.0-0.0","45060592","wem/bandit_either_3","A3HCGNV93TJO7R","either","1","776","","","","","","","0","1","0","","0.8176183596","0.4","0.6","0.2","0.8","0.8176183596","0.5757792393","0.5380809204","0.9214665689","","","","","","","","","","","","72","H","0","img/none_selected.jpg","","8","main_expt",""
"","bandit","88","601009","0.0-49.0-0.0","45060592","wem/bandit_either_3","A3HCGNV93TJO7R","either","1","217","","","","","","","1","0","0","0.7421782695","","0.4","0.6","0.2","0.8","","","","","0.7421782695","0.5508288143","0.4884558296","0.9604963414","","","","","","","","72","H","0","img/none_selected.jpg","","9","main_expt",""
"","bandit","89","602940","0.0-50.0-0.0","45060592","wem/bandit_either_3","A3HCGNV93TJO7R","either","1","339","","","","","","","0","1","0","","0.7112185725","0.4","0.6","0.2","0.8","0.7112185725","0.4615344473","0.6062827564","0.973544224","","","","","","","","","","","","72","H","0","img/none_selected.jpg","","10","main_expt",""
"","bandit","90","604783","0.0-51.0-0.0","45060592","wem/bandit_either_3","A3HCGNV93TJO7R","either","1","304","","","","","","","0","0","1","0.6656122322","","0.4","0.6","0.2","0.8","","","","","0.6656122322","0.4731032433","0.6618996933","0.9756729976","","","","","","","","72","H","0","img/none_selected.jpg","","11","main_expt",""
"","bandit","91","606554","0.0-52.0-0.0","45060592","wem/bandit_either_3","A3HCGNV93TJO7R","either","1","238","","","","","","","0","0","1","","0.632951522","0.4","0.6","0.2","0.8","0.632951522","0.5028989732","0.6589688621","0.9824084628","","","","","","","","","","","","72","H","0","img/none_selected.jpg","","12","main_expt",""
"","bandit","92","608241","0.0-53.0-0.0","45060592","wem/bandit_either_3","A3HCGNV93TJO7R","either","1","144","","","","","","","1","0","0","0.9852841122","","0.4","0.6","0.2","0.8","","","","","0.6428643634","0.5252386458","0.7483501345","0.9852841122","","","","","","","","76","L","3","","","13","main_expt",""
"","bandit","93","610079","0.0-54.0-0.0","45060592","wem/bandit_either_3","A3HCGNV93TJO7R","either","1","314","","","","","","","1","0","0","0.9844185579","","0.4","0.6","0.2","0.8","","","","","0.5693663763","0.4883642101","0.7642220585","0.9844185579","","","","","","","","76","L","3","","","14","main_expt",""
"","bandit","94","611967","0.0-55.0-0.0","45060592","wem/bandit_either_3","A3HCGNV93TJO7R","either","1","367","","","","","","","1","0","0","0.9716790186","","0.4","0.6","0.2","0.8","","","","","0.6354763258","0.5125695872","0.8255663415","0.9716790186","","","","","","","","76","L","3","","","15","main_expt",""
"","bandit","95","613849","0.0-56.0-0.0","45060592","wem/bandit_either_3","A3HCGNV93TJO7R","either","1","348","","","","","","","1","0","0","0.9724226268","","0.4","0.6","0.2","0.8","","","","","0.6074668868","0.483313844","0.8262734196","0.9724226268","","","","","","","","76","L","3","","","16","main_expt",""
"","bandit","96","615640","0.0-57.0-0.0","45060592","wem/bandit_either_3","A3HCGNV93TJO7R","either","1","254","","","","","","","1","0","0","0.969397438","","0.4","0.6","0.2","0.8","","","","","0.634379517","0.4764119597","0.8957105494","0.969397438","","","","","","","","76","L","3","","","17","main_expt",""
"","bandit","97","617461","0.0-58.0-0.0","45060592","wem/bandit_either_3","A3HCGNV93TJO7R","either","1","291","","","","","","","1","0","0","0.9487821198","","0.4","0.6","0.2","0.8","","","","","0.7399013172","0.4742144938","0.8243017832","0.9487821198","","","","","","","","76","L","3","","","18","main_expt",""
"","bandit","98","619244","0.0-59.0-0.0","45060592","wem/bandit_either_3","A3HCGNV93TJO7R","either","1","258","","","","","","","1","0","0","0.8822386923","","0.4","0.6","0.2","0.8","","","","","0.6892422428","0.5445729057","0.8174393347","0.8822386923","","","","","","","","76","L","3","","","19","main_expt",""
"","bandit","99","621065","0.0-60.0-0.0","45060592","wem/bandit_either_3","A3HCGNV93TJO7R","either","1","264","","","","","","","1","0","0","0.8658452863","","0.4","0.6","0.2","0.8","","","","","0.5544472153","0.5114357523","0.8457625901","0.8658452863","","","","","","","","76","L","3","","","20","main_expt",""
"","bandit","100","622811","0.0-61.0-0.0","45060592","wem/bandit_either_3","A3HCGNV93TJO7R","either","1","154","","","","","","","1","0","0","0.8597265301","","0.4","0.6","0.2","0.8","","","","","0.4705077418","0.4948626968","0.8565453533","0.8597265301","","","","","","","","76","L","3","","","21","main_expt",""
"","bandit","101","624681","0.0-62.0-0.0","45060592","wem/bandit_either_3","A3HCGNV93TJO7R","either","1","332","","","","","","","1","0","0","0.929530396","","0.4","0.6","0.2","0.8","","","","","0.5364913494","0.3750889156","0.8821281293","0.929530396","","","","","","","","76","L","3","","","22","main_expt",""
"","bandit","102","626473","0.0-63.0-0.0","45060592","wem/bandit_either_3","A3HCGNV93TJO7R","either","1","252","","","","","","","1","0","0","0.9149061772","","0.4","0.6","0.2","0.8","","","","","0.5450887529","0.3874093852","0.8253896901","0.9149061772","","","","","","","","76","L","3","","","23","main_expt",""
"","bandit","103","628220","0.0-64.0-0.0","45060592","wem/bandit_either_3","A3HCGNV93TJO7R","either","1","217","","","","","","","1","0","0","0.9389899916","","0.4","0.6","0.2","0.8","","","","","0.6013055931","0.4126546177","0.8682133559","0.9389899916","","","","","","","","76","L","3","","","24","main_expt",""
"","bandit","104","629937","0.0-65.0-0.0","45060592","wem/bandit_either_3","A3HCGNV93TJO7R","either","1","181","","","","","","","1","0","0","0.9583062328","","0.4","0.6","0.2","0.8","","","","","0.7116226269","0.3871809826","0.8186134727","0.9583062328","","","","","","","","76","L","3","","","25","main_expt",""
"","bandit","105","631660","0.0-66.0-0.0","45060592","wem/bandit_either_3","A3HCGNV93TJO7R","either","1","181","","","","","","","1","0","0","0.9349434311","","0.4","0.6","0.2","0.8","","","","","0.7284905038","0.4162773602","0.841170918","0.9349434311","","","","","","","","76","L","3","","","26","main_expt",""
"","bandit","106","633477","0.0-67.0-0.0","45060592","wem/bandit_either_3","A3HCGNV93TJO7R","either","1","285","","","","","","","1","0","0","0.9147743466","","0.4","0.6","0.2","0.8","","","","","0.7007901837","0.4153433109","0.8332298301","0.9147743466","","","","","","","","76","L","3","","","27","main_expt",""
"","bandit","107","635494","0.0-68.0-0.0","45060592","wem/bandit_either_3","A3HCGNV93TJO7R","either","1","461","","","","","","","1","0","0","0.8913744663","","0.4","0.6","0.2","0.8","","","","","0.7197690037","0.3083156359","0.8340804883","0.8913744663","","","","","","","","76","L","3","","","28","main_expt",""
"","bandit","108","637423","0.0-69.0-0.0","45060592","wem/bandit_either_3","A3HCGNV93TJO7R","either","1","396","","","","","","","0","1","0","","0.9004815278","0.4","0.6","0.2","0.8","0.7569205749","0.4048150761","0.8800986549","0.9004815278","","","","","","","","","","","","76","L","3","","","29","main_expt",""
"","bandit","109","639272","0.0-70.0-0.0","45060592","wem/bandit_either_3","A3HCGNV93TJO7R","either","1","316","","","","","","","1","0","0","0.8335499875","","0.4","0.6","0.2","0.8","","","","","0.7007062976","0.5604470694","0.800988266","0.8335499875","","","","","","","","76","L","3","","","30","main_expt",""
"","bandit","110","641151","0.0-71.0-0.0","45060592","wem/bandit_either_3","A3HCGNV93TJO7R","either","1","342","","","","","","","1","0","0","0.7904098286","","0.4","0.6","0.2","0.8","","","","","0.6218809145","0.5114456598","0.8092707987","0.7904098286","","","","","","","","76","L","3","","","31","main_expt",""
"","bandit","111","643062","0.0-72.0-0.0","45060592","wem/bandit_either_3","A3HCGNV93TJO7R","either","1","381","","","","","","","1","0","0","0.8156470634","","0.4","0.6","0.2","0.8","","","","","0.5448888872","0.5195843055","0.7600689364","0.8156470634","","","","","","","","76","L","3","","","32","main_expt",""
"","bandit","112","644870","0.0-73.0-0.0","45060592","wem/bandit_either_3","A3HCGNV93TJO7R","either","1","276","","","","","","","1","0","0","0.7458483223","","0.4","0.6","0.2","0.8","","","","","0.4396040002","0.4278216128","0.7268405739","0.7458483223","","","","","","","","76","L","3","","","33","main_expt",""
"","bandit","113","646756","0.0-74.0-0.0","45060592","wem/bandit_either_3","A3HCGNV93TJO7R","either","1","318","","","","","","","1","0","0","0.8745519215","","0.4","0.6","0.2","0.8","","","","","0.3418027302","0.4581725564","0.7867385379","0.8745519215","","","","","","","","76","L","3","","","34","main_expt",""
"","bandit","114","648570","0.0-75.0-0.0","45060592","wem/bandit_either_3","A3HCGNV93TJO7R","either","1","284","","","","","","","0","0","1","0.8761773117","","0.4","0.6","0.2","0.8","","","","","0.3770378826","0.5170179058","0.7776722478","0.8761773117","","","","","","","","76","L","3","","","35","main_expt",""
"","bandit","115","650367","0.0-76.0-0.0","45060592","wem/bandit_either_3","A3HCGNV93TJO7R","either","1","269","","","","","","","1","0","0","0.8898579413","","0.4","0.6","0.2","0.8","","","","","0.3264650107","0.5761285305","0.8110731924","0.8898579413","","","","","","","","76","L","3","","","36","main_expt",""
"","bandit","116","652219","0.0-77.0-0.0","45060592","wem/bandit_either_3","A3HCGNV93TJO7R","either","1","316","","","","","","","1","0","0","0.9189960073","","0.4","0.6","0.2","0.8","","","","","0.1696248696","0.5824592389","0.8371501114","0.9189960073","","","","","","","","76","L","3","","","37","main_expt",""
"","bandit","117","654030","0.0-78.0-0.0","45060592","wem/bandit_either_3","A3HCGNV93TJO7R","either","1","273","","","","","","","0","1","0","","0.9429067042","0.4","0.6","0.2","0.8","0.3008725236","0.5039158184","0.801984358","0.9429067042","","","","","","","","","","","","76","L","3","","","38","main_expt",""
"","bandit","118","655899","0.0-79.0-0.0","45060592","wem/bandit_either_3","A3HCGNV93TJO7R","either","1","315","","","","","","","1","0","0","0.8860185862","","0.4","0.6","0.2","0.8","","","","","0.3612597963","0.4906961915","0.836760671","0.8860185862","","","","","","","","76","L","3","","","39","main_expt",""
"","bandit","119","657729","0.0-80.0-0.0","45060592","wem/bandit_either_3","A3HCGNV93TJO7R","either","1","301","","","","","","","0","0","1","0.8958725565","","0.4","0.6","0.2","0.8","","","","","0.3316001813","0.5118773476","0.7930168878","0.8958725565","","","","","","","","76","L","3","","","40","main_expt",""
"","bandit","120","659567","0.0-81.0-0.0","45060592","wem/bandit_either_3","A3HCGNV93TJO7R","either","1","312","","","","","","","1","0","0","0.8369757826","","0.4","0.6","0.2","0.8","","","","","0.251761063","0.5207000815","0.6758505439","0.8369757826","","","","","","","","76","L","3","","","41","main_expt",""
"","bandit","121","661172","0.0-82.0-0.0","45060592","wem/bandit_either_3","A3HCGNV93TJO7R","either","1","72","","","","","","","1","0","0","0.8724413244","","0.4","0.6","0.2","0.8","","","","","0.3764367217","0.6208632684","0.669091732","0.8724413244","","","","","","","","76","L","3","","","42","main_expt",""
"","bandit","122","663029","0.0-83.0-0.0","45060592","wem/bandit_either_3","A3HCGNV93TJO7R","either","1","315","","","","","","","1","0","0","0.8721156492","","0.4","0.6","0.2","0.8","","","","","0.4280411123","0.6736877605","0.5774386383","0.8721156492","","","","","","","","76","L","3","","","43","main_expt",""
"","bandit","123","664570","0.0-84.0-0.0","45060592","wem/bandit_either_3","A3HCGNV93TJO7R","either","1","7","","","","","","","1","0","0","0.874486911","","0.4","0.6","0.2","0.8","","","","","0.4250007774","0.6770598463","0.5402750746","0.874486911","","","","","","","","76","L","3","","","44","main_expt",""
"","bandit","124","666381","0.0-85.0-0.0","45060592","wem/bandit_either_3","A3HCGNV93TJO7R","either","1","282","","","","","","","0","1","0","","0.7653026016","0.4","0.6","0.2","0.8","0.3964774122","0.6811336834","0.4769525635","0.7653026016","","","","","","","","","","","","76","L","3","","","45","main_expt",""
"","bandit","125","668093","0.0-86.0-0.0","45060592","wem/bandit_either_3","A3HCGNV93TJO7R","either","1","179","","","","","","","1","0","0","0.6884850605","","0.4","0.6","0.2","0.8","","","","","0.3755541509","0.7409040253","0.460739512","0.6884850605","","","","","","","","76","L","3","","","46","main_expt",""
"","bandit","126","669901","0.0-87.0-0.0","45060592","wem/bandit_either_3","A3HCGNV93TJO7R","either","1","277","","","","","","","1","0","0","0.6869729855","","0.4","0.6","0.2","0.8","","","","","0.3698766084","0.8602274841","0.3953603582","0.6869729855","","","","","","","","76","L","3","","","47","main_expt",""
"","bandit","127","671740","0.0-88.0-0.0","45060592","wem/bandit_either_3","A3HCGNV93TJO7R","either","1","315","","","","","","","1","0","0","0.624749708","","0.4","0.6","0.2","0.8","","","","","0.2924141828","0.8947369126","0.5194217752","0.624749708","","","","","","","","76","L","3","","","48","main_expt",""
"","bandit","128","673785","0.0-89.0-0.0","45060592","wem/bandit_either_3","A3HCGNV93TJO7R","either","1","515","","","","","","","0","0","1","0.6269608649","","0.4","0.6","0.2","0.8","","","","","0.2506794134","0.9071052574","0.5015721984","0.6269608649","","","","","","","","76","L","3","","","49","main_expt",""
"","bandit","129","676048","0.0-90.0-0.0","45060592","wem/bandit_either_3","A3HCGNV93TJO7R","either","1","733","","","","","","","1","0","0","0.5394470416","","0.4","0.6","0.2","0.8","","","","","0.2200095001","0.8569531155","0.4427204185","0.5394470416","","","","","","","","76","L","3","","","50","main_expt",""
"","bandit","130","677868","0.0-91.0-0.0","45060592","wem/bandit_either_3","A3HCGNV93TJO7R","either","1","295","","","","","","","0","0","1","0.4991806479","","0.4","0.6","0.2","0.8","","","","","0.2703780474","0.8728609703","0.5194544998","0.4991806479","","","","","","","","76","L","3","","","51","main_expt",""
"","bandit","131","679659","0.0-92.0-0.0","45060592","wem/bandit_either_3","A3HCGNV93TJO7R","either","1","264","","","","","","","0","0","1","","0.5431464126","0.4","0.6","0.2","0.8","0.3215640211","0.902184381","0.4420680866","0.5431464126","","","","","","","","","","","","76","L","3","","","52","main_expt",""
"","bandit","132","681532","0.0-93.0-0.0","45060592","wem/bandit_either_3","A3HCGNV93TJO7R","either","1","328","","","","","","","0","0","1","0.4799783957","","0.4","0.6","0.2","0.8","","","","","0.2918797996","0.8975054296","0.5541791803","0.4799783957","","","","","","","","76","L","3","","","53","main_expt",""
"","bandit","133","683419","0.0-94.0-0.0","45060592","wem/bandit_either_3","A3HCGNV93TJO7R","either","1","349","","","","","","","0","1","0","","0.3946877269","0.4","0.6","0.2","0.8","0.2432815539","0.9436546011","0.6187664305","0.3946877269","","","","","","","","","","","","76","L","3","","","54","main_expt",""
"","bandit","134","685294","0.0-95.0-0.0","45060592","wem/bandit_either_3","A3HCGNV93TJO7R","either","1","334","","","","","","","0","0","1","0.3892466866","","0.4","0.6","0.2","0.8","","","","","0.1993500609","0.9411334538","0.538030076","0.3892466866","","","","","","","","76","L","3","","","55","main_expt",""
"","bandit","135","686891","0.0-96.0-0.0","45060592","wem/bandit_either_3","A3HCGNV93TJO7R","either","1","64","","","","","","","0","0","1","","0.1832364248","0.4","0.6","0.2","0.8","0.1832364248","0.862285227","0.5137881872","0.347268188","","","","","","","","","","","","72","H","0","img/none_selected.jpg","","56","main_expt",""
"","bandit","136","688618","0.0-97.0-0.0","45060592","wem/bandit_either_3","A3HCGNV93TJO7R","either","1","197","","","","","","","0","0","1","0.1703919496","","0.4","0.6","0.2","0.8","","","","","0.1703919496","0.9034803314","0.6274604021","0.3462231845","","","","","","","","72","H","0","img/none_selected.jpg","","57","main_expt",""
"","bandit","137","690371","0.0-98.0-0.0","45060592","wem/bandit_either_3","A3HCGNV93TJO7R","either","1","214","","","","","","","0","0","1","0.2146973212","","0.4","0.6","0.2","0.8","","","","","0.2146973212","0.9062052911","0.5636132077","0.3707442777","","","","","","","","72","H","0","img/none_selected.jpg","","58","main_expt",""
"","bandit","138","692204","0.0-99.0-0.0","45060592","wem/bandit_either_3","A3HCGNV93TJO7R","either","1","298","","","","","","","1","0","0","0.2118107272","","0.4","0.6","0.2","0.8","","","","","0.2118107272","0.9169546289","0.6555757088","0.4530366532","","","","","","","","72","H","0","img/none_selected.jpg","","59","main_expt",""
"","bandit","139","694157","0.0-100.0-0.0","45060592","wem/bandit_either_3","A3HCGNV93TJO7R","either","1","416","","","","","","","0","0","1","0.2096036334","","0.4","0.6","0.2","0.8","","","","","0.2096036334","0.9048679239","0.6555481193","0.4335409142","","","","","","","","72","H","0","img/none_selected.jpg","","60","main_expt",""
"","bandit","140","695994","0.0-101.0-0.0","45060592","wem/bandit_either_3","A3HCGNV93TJO7R","either","1","297","","","","","","","0","0","1","0.1985607356","","0.4","0.6","0.2","0.8","","","","","0.1985607356","0.9346572725","0.6988977931","0.3601573371","","","","","","","","72","H","0","img/none_selected.jpg","","61","main_expt",""
"","bandit","141","697799","0.0-102.0-0.0","45060592","wem/bandit_either_3","A3HCGNV93TJO7R","either","1","272","","","","","","","0","1","0","","0.2352246004","0.4","0.6","0.2","0.8","0.2352246004","0.9332729597","0.6124712875","0.3187004912","","","","","","","","","","","","72","H","0","img/none_selected.jpg","","62","main_expt",""
"","bandit","142","699527","0.0-103.0-0.0","45060592","wem/bandit_either_3","A3HCGNV93TJO7R","either","1","180","","","","","","","0","0","1","","0.4881994696","0.4","0.6","0.2","0.8","0.1989126294","0.9300142507","0.4881994696","0.331276396","","","","","","","","","","","","75","K","2","","","63","main_expt",""
"","bandit","143","701186","0.0-104.0-0.0","45060592","wem/bandit_either_3","A3HCGNV93TJO7R","either","1","109","","","","","","","0","0","1","","0.5007509184","0.4","0.6","0.2","0.8","0.2231035509","0.8992917639","0.5007509184","0.3984677","","","","","","","","","","","","75","K","2","","","64","main_expt",""
"","bandit","144","703043","0.0-105.0-0.0","45060592","wem/bandit_either_3","A3HCGNV93TJO7R","either","1","330","","","","","","","0","1","0","","0.6077525222","0.4","0.6","0.2","0.8","0.174077904","0.7939475476","0.6077525222","0.3012021372","","","","","","","","","","","","75","K","2","","","65","main_expt",""
"","bandit","145","704901","0.0-106.0-0.0","45060592","wem/bandit_either_3","A3HCGNV93TJO7R","either","1","330","","","","","","","0","0","1","","0.4876759876","0.4","0.6","0.2","0.8","0.1505104035","0.7848839068","0.4876759876","0.2848395029","","","","","","","","","","","","75","K","2","","","66","main_expt",""
"","bandit","146","706797","0.0-107.0-0.0","45060592","wem/bandit_either_3","A3HCGNV93TJO7R","either","1","364","","","","","","","0","1","0","","0.4705728971","0.4","0.6","0.2","0.8","0.1706094741","0.7712869283","0.4705728971","0.2908363747","","","","","","","","","","","","75","K","2","","","67","main_expt",""
"","bandit","147","708389","0.0-108.0-0.0","45060592","wem/bandit_either_3","A3HCGNV93TJO7R","either","1","57","","","","","","","0","0","1","","0.5822594153","0.4","0.6","0.2","0.8","0.193375558","0.7426915226","0.5822594153","0.3226378352","","","","","","","","","","","","75","K","2","","","68","main_expt",""
"","bandit","148","709942","0.0-109.0-0.0","45060592","wem/bandit_either_3","A3HCGNV93TJO7R","either","1","20","","","","","","","1","0","0","0.592712881","","0.4","0.6","0.2","0.8","","","","","0.226811003","0.592712881","0.6189715015","0.4490581071","","","","","","","","74","J","1","","","69","main_expt",""
"","bandit","149","711711","0.0-110.0-0.0","45060592","wem/bandit_either_3","A3HCGNV93TJO7R","either","1","228","","","","","","","1","0","0","0.6587085967","","0.4","0.6","0.2","0.8","","","","","0.191142909","0.6587085967","0.5307799745","0.42365523","","","","","","","","74","J","1","","","70","main_expt",""
"","bandit","150","713547","0.0-111.0-0.0","45060592","wem/bandit_either_3","A3HCGNV93TJO7R","either","1","304","","","","","","","0","1","0","","0.7562029562","0.4","0.6","0.2","0.8","0.2371486809","0.7562029562","0.5205551237","0.427101634","","","","","","","","","","","","74","J","1","","","71","main_expt",""
"","bandit","151","715356","0.0-112.0-0.0","45060592","wem/bandit_either_3","A3HCGNV93TJO7R","either","1","261","","","","","","","0","1","0","","0.670676276","0.4","0.6","0.2","0.8","0.2602117984","0.670676276","0.5913901284","0.5387899421","","","","","","","","","","","","74","J","1","","","72","main_expt",""
"","bandit","152","717150","0.0-113.0-0.0","45060592","wem/bandit_either_3","A3HCGNV93TJO7R","either","1","268","","","","","","","0","0","1","0.6870219419","","0.4","0.6","0.2","0.8","","","","","0.1837165363","0.6870219419","0.7127465592","0.4931252492","","","","","","","","74","J","1","","","73","main_expt",""
"","bandit","153","718889","0.0-114.0-0.0","45060592","wem/bandit_either_3","A3HCGNV93TJO7R","either","1","199","","","","","","","0","1","0","","0.582898469","0.4","0.6","0.2","0.8","0.2032334464","0.582898469","0.7804212289","0.3888626504","","","","","","","","","","","","74","J","1","","","74","main_expt",""
"","bandit","154","720631","0.0-115.0-0.0","45060592","wem/bandit_either_3","A3HCGNV93TJO7R","either","1","213","","","","","","","1","0","0","0.6452442043","","0.4","0.6","0.2","0.8","","","","","0.2782751631","0.6452442043","0.7966502287","0.3866429177","","","","","","","","74","J","1","","","75","main_expt",""
"","bandit","155","722456","0.0-116.0-0.0","45060592","wem/bandit_either_3","A3HCGNV93TJO7R","either","1","274","","","","","","","1","0","0","0.7031137023","","0.4","0.6","0.2","0.8","","","","","0.3318782676","0.7031137023","0.7775959854","0.3948468247","","","","","","","","74","J","1","","","76","main_expt",""
"","bandit","156","724305","0.0-117.0-0.0","45060592","wem/bandit_either_3","A3HCGNV93TJO7R","either","1","284","","","","","","","1","0","0","0.6096498107","","0.4","0.6","0.2","0.8","","","","","0.312607664","0.6096498107","0.8523583745","0.4853082722","","","","","","","","74","J","1","","","77","main_expt",""
"","bandit","157","726140","0.0-118.0-0.0","45060592","wem/bandit_either_3","A3HCGNV93TJO7R","either","1","285","","","","","","","0","0","1","0.532302087","","0.4","0.6","0.2","0.8","","","","","0.3250695504","0.532302087","0.7707034136","0.4971609959","","","","","","","","74","J","1","","","78","main_expt",""
"","bandit","158","727874","0.0-119.0-0.0","45060592","wem/bandit_either_3","A3HCGNV93TJO7R","either","1","195","","","","","","","0","0","1","","0.4448734945","0.4","0.6","0.2","0.8","0.277144637","0.4448734945","0.7919080975","0.5349041547","","","","","","","","","","","","74","J","1","","","79","main_expt",""
"","bandit","159","729541","0.0-120.0-0.0","45060592","wem/bandit_either_3","A3HCGNV93TJO7R","either","1","127","","","","","","","1","0","0","0.34513516","","0.4","0.6","0.2","0.8","","","","","0.293018971","0.34513516","0.8107458935","0.4713204996","","","","","","","","74","J","1","","","80","main_expt",""
"","bandit","160","731272","0.0-121.0-0.0","45060592","wem/bandit_either_3","A3HCGNV93TJO7R","either","1","196","","","","","","","0","0","1","","0.406584365","0.4","0.6","0.2","0.8","0.2730851157","0.406584365","0.7851591746","0.4132476049","","","","","","","","","","","","74","J","1","","","81","main_expt",""
"","bandit","161","732996","0.0-122.0-0.0","45060592","wem/bandit_either_3","A3HCGNV93TJO7R","either","1","195","","","","","","","1","0","0","0.5068312928","","0.4","0.6","0.2","0.8","","","","","0.2436011542","0.5068312928","0.8067558171","0.4640808921","","","","","","","","74","J","1","","","82","main_expt",""
"","bandit","162","734819","0.0-123.0-0.0","45060592","wem/bandit_either_3","A3HCGNV93TJO7R","either","1","286","","","","","","","0","0","1","0.5209063211","","0.4","0.6","0.2","0.8","","","","","0.2009218657","0.5209063211","0.7777816444","0.442115463","","","","","","","","74","J","1","","","83","main_expt",""
"","bandit","163","736560","0.0-124.0-0.0","45060592","wem/bandit_either_3","A3HCGNV93TJO7R","either","1","216","","","","","","","1","0","0","0.6221591745","","0.4","0.6","0.2","0.8","","","","","0.1550904625","0.6221591745","0.7801041195","0.5117806844","","","","","","","","74","J","1","","","84","main_expt",""
"","bandit","164","738400","0.0-125.0-0.0","45060592","wem/bandit_either_3","A3HCGNV93TJO7R","either","1","303","","","","","","","1","0","0","0.6939346182","","0.4","0.6","0.2","0.8","","","","","0.1193398435","0.6939346182","0.7593249252","0.5309627618","","","","","","","","74","J","1","","","85","main_expt",""
"","bandit","165","740132","0.0-126.0-0.0","45060592","wem/bandit_either_3","A3HCGNV93TJO7R","either","1","204","","","","","","","0","1","0","","0.7533471596","0.4","0.6","0.2","0.8","0.1398572341","0.7533471596","0.7911667705","0.5482659382","","","","","","","","","","","","74","J","1","","","86","main_expt",""
"","bandit","166","741830","0.0-127.0-0.0","45060592","wem/bandit_either_3","A3HCGNV93TJO7R","either","1","159","","","","","","","0","1","0","","0.8040573679","0.4","0.6","0.2","0.8","0.1941505275","0.8040573679","0.8480662183","0.4772076429","","","","","","","","","","","","74","J","1","","","87","main_expt",""
"","bandit","167","743652","0.0-128.0-0.0","45060592","wem/bandit_either_3","A3HCGNV93TJO7R","either","1","276","","","","","","","1","0","0","0.7800800897","","0.4","0.6","0.2","0.8","","","","","0.09645570925","0.7800800897","0.8110462569","0.5202977678","","","","","","","","74","J","1","","","88","main_expt",""
"","bandit","168","745494","0.0-129.0-0.0","45060592","wem/bandit_either_3","A3HCGNV93TJO7R","either","1","284","","","","","","","1","0","0","0.7329239748","","0.4","0.6","0.2","0.8","","","","","0.1304326216","0.7329239748","0.7924414871","0.4970482359","","","","","","","","74","J","1","","","89","main_expt",""
"","bandit","169","747307","0.0-130.0-0.0","45060592","wem/bandit_either_3","A3HCGNV93TJO7R","either","1","278","","","","","","","0","0","1","0.7202813078","","0.4","0.6","0.2","0.8","","","","","0.1410434261","0.7202813078","0.8190855249","0.4671205494","","","","","","","","74","J","1","","","90","main_expt",""
"","bandit","170","749067","0.0-131.0-0.0","45060592","wem/bandit_either_3","A3HCGNV93TJO7R","either","1","209","","","","","","","0","1","0","","0.698586111","0.4","0.6","0.2","0.8","0.1277095213","0.698586111","0.858270253","0.5518401665","","","","","","","","","","","","74","J","1","","","91","main_expt",""
"","bandit","171","750769","0.0-132.0-0.0","45060592","wem/bandit_either_3","A3HCGNV93TJO7R","either","1","135","","","","","","","0","1","0","","0.6054304462","0.4","0.6","0.2","0.8","0.08596821216","0.6054304462","0.8583259383","0.620788192","","","","","","","","","","","","74","J","1","","","92","main_expt",""
"","bandit","172","752464","0.0-133.0-0.0","45060592","wem/bandit_either_3","A3HCGNV93TJO7R","either","1","159","","","","","","","0","0","1","","0.6829204303","0.4","0.6","0.2","0.8","0.05652587691","0.6829204303","0.8335107661","0.679669404","","","","","","","","","","","","74","J","1","","","93","main_expt",""
"","bandit","173","754110","0.0-134.0-0.0","45060592","wem/bandit_either_3","A3HCGNV93TJO7R","either","1","108","","","","","","","0","1","0","","0.8849423118","0.4","0.6","0.2","0.8","0.07490457358","0.6084783934","0.8849423118","0.6726581754","","","","","","","","","","","","75","K","2","","","94","main_expt",""
"","bandit","174","755740","0.0-135.0-0.0","45060592","wem/bandit_either_3","A3HCGNV93TJO7R","either","1","104","","","","","","","0","1","0","","0.9175662658","0.4","0.6","0.2","0.8","0.05201682933","0.51962455","0.9175662658","0.5983950962","","","","","","","","","","","","75","K","2","","","95","main_expt",""
"","bandit","175","757538","0.0-136.0-0.0","45060592","wem/bandit_either_3","A3HCGNV93TJO7R","either","1","240","","","","","","","0","0","1","","0.8726153548","0.4","0.6","0.2","0.8","0.0353667714","0.453067158","0.8726153548","0.6316158747","","","","","","","","","","","","75","K","2","","","96","main_expt",""
"","bandit","176","759241","0.0-137.0-0.0","45060592","wem/bandit_either_3","A3HCGNV93TJO7R","either","1","171","","","","","","","0","0","1","0.7260562137","","0.4","0.6","0.2","0.8","","","","","0.04301306848","0.4090095009","0.7260562137","0.6660601513","","","","","","","","75","K","2","","","97","main_expt",""
"","bandit","177","760900","0.0-138.0-0.0","45060592","wem/bandit_either_3","A3HCGNV93TJO7R","either","1","106","","","","","","","0","1","0","","0.6506148609","0.4","0.6","0.2","0.8","0.03950067624","0.360727585","0.6506148609","0.6185462561","","","","","","","","","","","","75","K","2","","","98","main_expt",""
"","bandit","178","762509","0.0-139.0-0.0","45060592","wem/bandit_either_3","A3HCGNV93TJO7R","either","1","53","","","","","","","1","0","0","0.581128502","","0.4","0.6","0.2","0.8","","","","","0.03156699585","0.3351327477","0.5816342488","0.581128502","","","","","","","","76","L","3","","","99","main_expt",""
"","bandit","179","764348","0.0-140.0-0.0","45060592","wem/bandit_either_3","A3HCGNV93TJO7R","either","1","304","","","","","","","0","0","1","0.479775063","","0.4","0.6","0.2","0.8","","","","","0.0248161238","0.3491912274","0.5521464449","0.479775063","","","","","","","","76","L","3","","","100","main_expt",""
"","bandit","180","766099","0.0-141.0-0.0","45060592","wem/bandit_either_3","A3HCGNV93TJO7R","either","1","222","","","","","","","1","0","0","0.5114647241","","0.4","0.6","0.2","0.8","","","","","0.02218075004","0.4105375765","0.6063232436","0.5114647241","","","","","","","","76","L","3","","","101","main_expt",""
"","bandit","181","767899","0.0-142.0-0.0","45060592","wem/bandit_either_3","A3HCGNV93TJO7R","either","1","258","","","","","","","0","0","1","","0.4718740674","0.4","0.6","0.2","0.8","0.01802152149","0.438632671","0.5636213764","0.4718740674","","","","","","","","","","","","76","L","3","","","102","main_expt",""
"","bandit","182","769600","0.0-143.0-0.0","45060592","wem/bandit_either_3","A3HCGNV93TJO7R","either","1","154","","","","","","","0","0","1","0.5245129891","","0.4","0.6","0.2","0.8","","","","","0.01877214671","0.372838406","0.5370473259","0.5245129891","","","","","","","","76","L","3","","","103","main_expt",""
"","bandit","183","771233","0.0-144.0-0.0","45060592","wem/bandit_either_3","A3HCGNV93TJO7R","either","1","102","","","","","","","1","0","0","0.5170751474","","0.4","0.6","0.2","0.8","","","","","0.01556743346","0.3057692375","0.549647281","0.5170751474","","","","","","","","76","L","3","","","104","main_expt",""
"","bandit","184","773078","0.0-145.0-0.0","45060592","wem/bandit_either_3","A3HCGNV93TJO7R","either","1","298","","","","","","","0","0","1","0.472330124","","0.4","0.6","0.2","0.8","","","","","0.03717147126","0.37369274","0.4225976111","0.472330124","","","","","","","","76","L","3","","","105","main_expt",""
"","bandit","185","774929","0.0-146.0-0.0","45060592","wem/bandit_either_3","A3HCGNV93TJO7R","either","1","309","","","","","","","1","0","0","0.568133852","","0.4","0.6","0.2","0.8","","","","","0.07687033395","0.3179799449","0.5005163425","0.568133852","","","","","","","","76","L","3","","","106","main_expt",""
"","bandit","186","776821","0.0-147.0-0.0","45060592","wem/bandit_either_3","A3HCGNV93TJO7R","either","1","344","","","","","","","1","0","0","0.536018559","","0.4","0.6","0.2","0.8","","","","","0.07659049968","0.3053765494","0.3995396385","0.536018559","","","","","","","","76","L","3","","","107","main_expt",""
"","bandit","187","778731","0.0-148.0-0.0","45060592","wem/bandit_either_3","A3HCGNV93TJO7R","either","1","378","","","","","","","0","1","0","","0.3880888981","0.4","0.6","0.2","0.8","0.07827602418","0.2732860947","0.3855926336","0.3880888981","","","","","","","","","","","","76","L","3","","","108","main_expt",""
"","bandit","188","780546","0.0-149.0-0.0","45060592","wem/bandit_either_3","A3HCGNV93TJO7R","either","1","269","","","","","","","0","0","1","0.3675045314","","0.4","0.6","0.2","0.8","","","","","0.1352418701","0.2624197952","0.3059937163","0.3675045314","","","","","","","","76","L","3","","","109","main_expt",""
"","bandit","189","782238","0.0-150.0-0.0","45060592","wem/bandit_either_3","A3HCGNV93TJO7R","either","1","157","","","","","","","0","0","1","","0.4560700489","0.4","0.6","0.2","0.8","0.1705666919","0.3303210632","0.2752892785","0.4560700489","","","","","","","","","","","","76","L","3","","","110","main_expt",""
"","bandit","190","783946","0.0-151.0-0.0","45060592","wem/bandit_either_3","A3HCGNV93TJO7R","either","1","156","","","","","","","0","0","1","0.5366389876","","0.4","0.6","0.2","0.8","","","","","0.2202970635","0.3541452024","0.3038626008","0.5366389876","","","","","","","","76","L","3","","","111","main_expt",""
"","bandit","191","785665","0.0-152.0-0.0","45060592","wem/bandit_either_3","A3HCGNV93TJO7R","either","1","179","","","","","","","0","0","1","0.5742054707","","0.4","0.6","0.2","0.8","","","","","0.2368742277","0.4468573219","0.2308866464","0.5742054707","","","","","","","","76","L","3","","","112","main_expt",""
"","bandit","192","787241","0.0-153.0-0.0","45060592","wem/bandit_either_3","A3HCGNV93TJO7R","either","1","42","","","","","","","0","0","1","0.6014260319","","0.4","0.6","0.2","0.8","","","","","0.2487241586","0.5163231944","0.2420052043","0.6014260319","","","","","","","","76","L","3","","","113","main_expt",""
"","bandit","193","788978","0.0-154.0-0.0","45060592","wem/bandit_either_3","A3HCGNV93TJO7R","either","1","209","","","","","","","0","0","1","0.5398035654","","0.4","0.6","0.2","0.8","","","","","0.238824581","0.4064640458","0.3277817495","0.5398035654","","","","","","","","76","L","3","","","114","main_expt",""
"","bandit","194","790798","0.0-155.0-0.0","45060592","wem/bandit_either_3","A3HCGNV93TJO7R","either","1","269","","","","","","","0","1","0","","0.1480638281","0.4","0.6","0.2","0.8","0.1480638281","0.4085425191","0.3280884562","0.5008208772","","","","","","","","","","","","72","H","0","img/none_selected.jpg","","115","main_expt",""
"","bandit","195","792484","0.0-156.0-0.0","45060592","wem/bandit_either_3","A3HCGNV93TJO7R","either","1","147","","","","","","","0","1","0","","0.1246447603","0.4","0.6","0.2","0.8","0.1246447603","0.4412864427","0.4137256642","0.4200837231","","","","","","","","","","","","72","H","0","img/none_selected.jpg","","116","main_expt",""
"","bandit","196","794310","0.0-157.0-0.0","45060592","wem/bandit_either_3","A3HCGNV93TJO7R","either","1","287","","","","","","","0","0","1","0.1308085784","","0.4","0.6","0.2","0.8","","","","","0.1308085784","0.5188885271","0.372751341","0.4094987027","","","","","","","","72","H","0","img/none_selected.jpg","","117","main_expt",""
"","bandit","197","795971","0.0-158.0-0.0","45060592","wem/bandit_either_3","A3HCGNV93TJO7R","either","1","110","","","","","","","0","0","1","0.09076242324","","0.4","0.6","0.2","0.8","","","","","0.09076242324","0.5728151575","0.4225631273","0.3862907493","","","","","","","","72","H","0","img/none_selected.jpg","","118","main_expt",""
"","bandit","198","797630","0.0-159.0-0.0","45060592","wem/bandit_either_3","A3HCGNV93TJO7R","either","1","127","","","","","","","0","0","1","0.09057925276","","0.4","0.6","0.2","0.8","","","","","0.09057925276","0.5065624602","0.4188482812","0.4437318585","","","","","","","","72","H","0","img/none_selected.jpg","","119","main_expt",""
"","bandit","199","799399","0.0-160.0-0.0","45060592","wem/bandit_either_3","A3HCGNV93TJO7R","either","1","185","","","","","","","0","0","1","","0.1288926122","0.4","0.6","0.2","0.8","0.1288926122","0.4064427813","0.3729077829","0.293469011","","","","","","","","","","","","72","H","0","img/none_selected.jpg","","120","main_expt",""
"","bandit","200","800964","0.0-161.0-0.0","45060592","wem/bandit_either_3","A3HCGNV93TJO7R","either","1","19","","","","","","","0","0","1","","0.1479701512","0.4","0.6","0.2","0.8","0.1479701512","0.3948988447","0.3817262037","0.2141601759","","","","","","","","","","","","72","H","0","img/none_selected.jpg","","121","main_expt",""
"","bandit","201","802610","0.0-162.0-0.0","45060592","wem/bandit_either_3","A3HCGNV93TJO7R","either","1","108","","","","","","","0","1","0","","0.316823658","0.4","0.6","0.2","0.8","0.1663524813","0.316823658","0.3537210734","0.2594293103","","","","","","","","","","","","74","J","1","","","122","main_expt",""
"","bandit","202","804435","0.0-163.0-0.0","45060592","wem/bandit_either_3","A3HCGNV93TJO7R","either","1","261","","","","","","","0","0","1","","0.3045978244","0.4","0.6","0.2","0.8","0.1993917655","0.3045978244","0.3633727708","0.1519240937","","","","","","","","","","","","74","J","1","","","123","main_expt",""
"","bandit","203","806242","0.0-164.0-0.0","45060592","wem/bandit_either_3","A3HCGNV93TJO7R","either","1","273","","","","","","","0","0","1","0.2389028675","","0.4","0.6","0.2","0.8","","","","","0.2948689786","0.2389028675","0.4139908316","0.2311656533","","","","","","","","74","J","1","","","124","main_expt",""
"","bandit","204","807976","0.0-165.0-0.0","45060592","wem/bandit_either_3","A3HCGNV93TJO7R","either","1","185","","","","","","","0","0","1","","0.2166803268","0.4","0.6","0.2","0.8","0.4054398129","0.2166803268","0.3619800754","0.1956748967","","","","","","","","","","","","74","J","1","","","125","main_expt",""
"","bandit","205","809678","0.0-166.0-0.0","45060592","wem/bandit_either_3","A3HCGNV93TJO7R","either","1","165","","","","","","","0","0","1","0.1613674106","","0.4","0.6","0.2","0.8","","","","","0.5337661481","0.1613674106","0.353362548","0.1419383156","","","","","","","","74","J","1","","","126","main_expt",""
"","bandit","206","811388","0.0-167.0-0.0","45060592","wem/bandit_either_3","A3HCGNV93TJO7R","either","1","166","","","","","","","0","0","1","","0.2888217425","0.4","0.6","0.2","0.8","0.5510518781","0.1682412955","0.2888217425","0.1768105291","","","","","","","","","","","","75","K","2","","","127","main_expt",""
"","bandit","207","813086","0.0-168.0-0.0","45060592","wem/bandit_either_3","A3HCGNV93TJO7R","either","1","169","","","","","","","0","0","1","0.3131893798","","0.4","0.6","0.2","0.8","","","","","0.4746642732","0.1655910943","0.3131893798","0.1187699492","","","","","","","","75","K","2","","","128","main_expt",""
"","bandit","208","814909","0.0-169.0-0.0","45060592","wem/bandit_either_3","A3HCGNV93TJO7R","either","1","296","","","","","","","0","0","1","","0.2826861836","0.4","0.6","0.2","0.8","0.5345142674","0.1845506081","0.2826861836","0.1860330609","","","","","","","","","","","","75","K","2","","","129","main_expt",""
"","bandit","209","816750","0.0-170.0-0.0","45060592","wem/bandit_either_3","A3HCGNV93TJO7R","either","1","309","","","","","","","0","0","1","","0.3434973012","0.4","0.6","0.2","0.8","0.6617219445","0.1548240476","0.3434973012","0.09722607165","","","","","","","","","","","","75","K","2","","","130","main_expt",""
"","bandit","210","818552","0.0-171.0-0.0","45060592","wem/bandit_either_3","A3HCGNV93TJO7R","either","1","259","","","","","","","0","0","1","","0.3848082556","0.4","0.6","0.2","0.8","0.6183560712","0.1503989","0.3848082556","0.05626421391","","","","","","","","","","","","75","K","2","","","131","main_expt",""
"","bandit","211","820431","0.0-172.0-0.0","45060592","wem/bandit_either_3","A3HCGNV93TJO7R","either","1","337","","","","","","","0","0","1","0.4140069858","","0.4","0.6","0.2","0.8","","","","","0.7009512511","0.1199593994","0.4140069858","0.1149854728","","","","","","","","75","K","2","","","132","main_expt",""
"","bandit","212","822144","0.0-173.0-0.0","45060592","wem/bandit_either_3","A3HCGNV93TJO7R","either","1","181","","","","","","","0","0","1","","0.3745017877","0.4","0.6","0.2","0.8","0.5838974895","0.1518383839","0.3745017877","0.1698175541","","","","","","","","","","","","75","K","2","","","133","main_expt",""
"","bandit","213","823897","0.0-174.0-0.0","45060592","wem/bandit_either_3","A3HCGNV93TJO7R","either","1","228","","","","","","","0","1","0","","0.3918835711","0.4","0.6","0.2","0.8","0.6628563986","0.1855528241","0.3918835711","0.1925371395","","","","","","","","","","","","75","K","2","","","134","main_expt",""
"","bandit","214","825738","0.0-175.0-0.0","45060592","wem/bandit_either_3","A3HCGNV93TJO7R","either","1","309","","","","","","","0","0","1","","0.3405764209","0.4","0.6","0.2","0.8","0.5610912218","0.2187769305","0.3405764209","0.246136332","","","","","","","","","","","","75","K","2","","","135","main_expt",""
"","bandit","215","827438","0.0-176.0-0.0","45060592","wem/bandit_either_3","A3HCGNV93TJO7R","either","1","170","","","","","","","0","0","1","0.4155430462","","0.4","0.6","0.2","0.8","","","","","0.4834649218","0.2001534018","0.4155430462","0.2277518718","","","","","","","","75","K","2","","","136","main_expt",""
"","bandit","216","829169","0.0-177.0-0.0","45060592","wem/bandit_either_3","A3HCGNV93TJO7R","either","1","185","","","","","","","1","0","0","0.252962458","","0.4","0.6","0.2","0.8","","","","","0.513072369","0.176995917","0.3389252929","0.252962458","","","","","","","","76","L","3","","","137","main_expt",""
"","bandit","217","831017","0.0-178.0-0.0","45060592","wem/bandit_either_3","A3HCGNV93TJO7R","either","1","315","","","","","","","0","0","1","0.3018696236","","0.4","0.6","0.2","0.8","","","","","0.5502636267","0.1460019238","0.2698753193","0.3018696236","","","","","","","","76","L","3","","","138","main_expt",""
"","bandit","218","832860","0.0-179.0-0.0","45060592","wem/bandit_either_3","A3HCGNV93TJO7R","either","1","298","","","","","","","1","0","0","0.347353107","","0.4","0.6","0.2","0.8","","","","","0.4564922144","0.06707115951","0.2821570394","0.347353107","","","","","","","","76","L","3","","","139","main_expt",""
"","bandit","219","834670","0.0-180.0-0.0","45060592","wem/bandit_either_3","A3HCGNV93TJO7R","either","1","216","","","","","","","1","0","0","0.2477375586","","0.4","0.6","0.2","0.8","","","","","0.4116013625","0.1071331831","0.3577533322","0.2477375586","","","","","","","","76","L","3","","","140","main_expt",""
"","bandit","220","836588","0.0-181.0-0.0","45060592","wem/bandit_either_3","A3HCGNV93TJO7R","either","1","379","","","","","","","1","0","0","0.2880826197","","0.4","0.6","0.2","0.8","","","","","0.4498847811","0.1224459691","0.4250900652","0.2880826197","","","","","","","","76","L","3","","","141","main_expt",""
"","bandit","221","838457","0.0-182.0-0.0","45060592","wem/bandit_either_3","A3HCGNV93TJO7R","either","1","324","","","","","","","0","0","1","0.2287108423","","0.4","0.6","0.2","0.8","","","","","0.4822150968","0.1127900777","0.3451055681","0.2287108423","","","","","","","","76","L","3","","","142","main_expt",""
"","bandit","222","840146","0.0-183.0-0.0","45060592","wem/bandit_either_3","A3HCGNV93TJO7R","either","1","149","","","","","","","0","0","1","0.2096850542","","0.4","0.6","0.2","0.8","","","","","0.513506041","0.1736101882","0.4661026996","0.2096850542","","","","","","","","76","L","3","","","143","main_expt",""
"","bandit","223","841964","0.0-184.0-0.0","45060592","wem/bandit_either_3","A3HCGNV93TJO7R","either","1","274","","","","","","","1","0","0","0.2214165798","","0.4","0.6","0.2","0.8","","","","","0.556822441","0.1231714597","0.4683168179","0.2214165798","","","","","","","","76","L","3","","","144","main_expt",""
"","bandit","224","843775","0.0-185.0-0.0","45060592","wem/bandit_either_3","A3HCGNV93TJO7R","either","1","250","","","","","","","0","0","1","0.2412424024","","0.4","0.6","0.2","0.8","","","","","0.5633269006","0.10514291","0.448697065","0.2412424024","","","","","","","","76","L","3","","","145","main_expt",""
"","bandit","225","845592","0.0-186.0-0.0","45060592","wem/bandit_either_3","A3HCGNV93TJO7R","either","1","270","","","","","","","0","0","1","0.1841611904","","0.4","0.6","0.2","0.8","","","","","0.6482805244","0.0972381369","0.4560677512","0.1841611904","","","","","","","","76","L","3","","","146","main_expt",""
"","bandit","226","847419","0.0-187.0-0.0","45060592","wem/bandit_either_3","A3HCGNV93TJO7R","either","1","270","","","","","","","0","0","1","","0.1577922033","0.4","0.6","0.2","0.8","0.6036290043","0.1897119627","0.513472809","0.1577922033","","","","","","","","","","","","76","L","3","","","147","main_expt",""
"","bandit","227","849278","0.0-188.0-0.0","45060592","wem/bandit_either_3","A3HCGNV93TJO7R","either","1","323","","","","","","","0","0","1","0.1663963597","","0.4","0.6","0.2","0.8","","","","","0.6110248825","0.1759094881","0.3820674583","0.1663963597","","","","","","","","76","L","3","","","148","main_expt",""
"","bandit","228","851016","0.0-189.0-0.0","45060592","wem/bandit_either_3","A3HCGNV93TJO7R","either","1","200","","","","","","","0","0","1","0.319747154","","0.4","0.6","0.2","0.8","","","","","0.6453676348","0.2204336569","0.3116557105","0.319747154","","","","","","","","76","L","3","","","149","main_expt",""
"","bandit","229","852935","0.0-190.0-0.0","45060592","wem/bandit_either_3","A3HCGNV93TJO7R","either","1","383","","","","","","","0","0","1","0.5410110608","","0.4","0.6","0.2","0.8","","","","","0.66235511","0.2328853871","0.3039338698","0.5410110608","","","","","","","","76","L","3","","","150","main_expt",""
"","bandit","230","854635","0.0-191.0-0.0","45060592","wem/bandit_either_3","A3HCGNV93TJO7R","either","1","154","","","","","","","0","0","1","0.5584745132","","0.4","0.6","0.2","0.8","","","","","0.5547575852","0.2652525627","0.3092958796","0.5584745132","","","","","","","","76","L","3","","","151","main_expt",""
"","bandit","231","856405","0.0-192.0-0.0","45060592","wem/bandit_either_3","A3HCGNV93TJO7R","either","1","225","","","","","","","0","1","0","","0.5709378499","0.4","0.6","0.2","0.8","0.5223098228","0.2654363334","0.3097370874","0.5709378499","","","","","","","","","","","","76","L","3","","","152","main_expt",""
"","bandit","232","858028","0.0-193.0-0.0","45060592","wem/bandit_either_3","A3HCGNV93TJO7R","either","1","57","","","","","","","1","0","0","0.6314515046","","0.4","0.6","0.2","0.8","","","","","0.5137303037","0.3505589273","0.2955649657","0.6314515046","","","","","","","","76","L","3","","","153","main_expt",""
"","bandit","233","859930","0.0-194.0-0.0","45060592","wem/bandit_either_3","A3HCGNV93TJO7R","either","1","367","","","","","","","0","1","0","","0.6734276465","0.4","0.6","0.2","0.8","0.5193194566","0.39889796","0.221553637","0.6734276465","","","","","","","","","","","","76","L","3","","","154","main_expt",""
"","bandit","234","861675","0.0-195.0-0.0","45060592","wem/bandit_either_3","A3HCGNV93TJO7R","either","1","204","","","","","","","0","0","1","","0.7019144477","0.4","0.6","0.2","0.8","0.4736812385","0.4202606707","0.2231547498","0.7019144477","","","","","","","","","","","","76","L","3","","","155","main_expt",""
"","bandit","235","863452","0.0-196.0-0.0","45060592","wem/bandit_either_3","A3HCGNV93TJO7R","either","1","227","","","","","","","0","0","1","0.6695455193","","0.4","0.6","0.2","0.8","","","","","0.4616442501","0.4814159609","0.2750957943","0.6695455193","","","","","","","","76","L","3","","","156","main_expt",""
"","bandit","236","865217","0.0-197.0-0.0","45060592","wem/bandit_either_3","A3HCGNV93TJO7R","either","1","215","","","","","","","1","0","0","0.6179864128","","0.4","0.6","0.2","0.8","","","","","0.5025740222","0.5316807058","0.2005793054","0.6179864128","","","","","","","","76","L","3","","","157","main_expt",""
"","bandit","237","866987","0.0-198.0-0.0","45060592","wem/bandit_either_3","A3HCGNV93TJO7R","either","1","224","","","","","","","1","0","0","0.7380689997","","0.4","0.6","0.2","0.8","","","","","0.4548105643","0.5429668589","0.2502080146","0.7380689997","","","","","","","","76","L","3","","","158","main_expt",""
"","bandit","238","868818","0.0-199.0-0.0","45060592","wem/bandit_either_3","A3HCGNV93TJO7R","either","1","294","","","","","","","1","0","0","0.7632184112","","0.4","0.6","0.2","0.8","","","","","0.4622667215","0.5991419929","0.2729805177","0.7632184112","","","","","","","","76","L","3","","","159","main_expt",""
"","bandit","239","870644","0.0-200.0-0.0","45060592","wem/bandit_either_3","A3HCGNV93TJO7R","either","1","294","","","","","","","1","0","0","0.6917664031","","0.4","0.6","0.2","0.8","","","","","0.4600517474","0.6480894682","0.2801697818","0.6917664031","","","","","","","","76","L","3","","","160","main_expt",""
"","bandit","240","872522","0.0-201.0-0.0","45060592","wem/bandit_either_3","A3HCGNV93TJO7R","either","1","331","","","","","","","0","0","1","0.7106531984","","0.4","0.6","0.2","0.8","","","","","0.481388234","0.6776161973","0.2437938608","0.7106531984","","","","","","","","76","L","3","","","161","main_expt",""
"","bandit","241","874297","0.0-202.0-0.0","45060592","wem/bandit_either_3","A3HCGNV93TJO7R","either","1","246","","","","","","","1","0","0","0.809310282","","0.4","0.6","0.2","0.8","","","","","0.3850106192","0.7134031715","0.2687553501","0.809310282","","","","","","","","76","L","3","","","162","main_expt",""
"","bandit","242","876178","0.0-203.0-0.0","45060592","wem/bandit_either_3","A3HCGNV93TJO7R","either","1","346","","","","","","","1","0","0","0.7492875705","","0.4","0.6","0.2","0.8","","","","","0.3498723973","0.6215635068","0.245991677","0.7492875705","","","","","","","","76","L","3","","","163","main_expt",""
"","bandit","243","878021","0.0-204.0-0.0","45060592","wem/bandit_either_3","A3HCGNV93TJO7R","either","1","308","","","","","","","1","0","0","0.7561394707","","0.4","0.6","0.2","0.8","","","","","0.4287417444","0.5219240024","0.270385563","0.7561394707","","","","","","","","76","L","3","","","164","main_expt",""
"","bandit","244","879857","0.0-205.0-0.0","45060592","wem/bandit_either_3","A3HCGNV93TJO7R","either","1","294","","","","","","","1","0","0","0.8111415702","","0.4","0.6","0.2","0.8","","","","","0.3150145745","0.4727302842","0.3037855967","0.8111415702","","","","","","","","76","L","3","","","165","main_expt",""
"","bandit","245","881738","0.0-206.0-0.0","45060592","wem/bandit_either_3","A3HCGNV93TJO7R","either","1","320","","","","","","","1","0","0","0.7759938205","","0.4","0.6","0.2","0.8","","","","","0.2927018344","0.5181018645","0.3395577104","0.7759938205","","","","","","","","76","L","3","","","166","main_expt",""
"","bandit","246","883623","0.0-207.0-0.0","45060592","wem/bandit_either_3","A3HCGNV93TJO7R","either","1","351","","","","","","","1","0","0","0.8267633335","","0.4","0.6","0.2","0.8","","","","","0.3610256338","0.5280433419","0.3443901906","0.8267633335","","","","","","","","76","L","3","","","167","main_expt",""
"","bandit","247","885480","0.0-208.0-0.0","45060592","wem/bandit_either_3","A3HCGNV93TJO7R","either","1","316","","","","","","","0","0","1","0.8136073627","","0.4","0.6","0.2","0.8","","","","","0.3137127159","0.5470010145","0.2552323567","0.8136073627","","","","","","","","76","L","3","","","168","main_expt",""
"","bandit","248","887256","0.0-209.0-0.0","45060592","wem/bandit_either_3","A3HCGNV93TJO7R","either","1","232","","","","","","","1","0","0","0.7308533614","","0.4","0.6","0.2","0.8","","","","","0.2292796242","0.5558845962","0.289352286","0.7308533614","","","","","","","","76","L","3","","","169","main_expt",""
"","bandit","249","889060","0.0-210.0-0.0","45060592","wem/bandit_either_3","A3HCGNV93TJO7R","either","1","260","","","","","","","0","0","1","0.7090730391","","0.4","0.6","0.2","0.8","","","","","0.221948569","0.5799309324","0.2262743404","0.7090730391","","","","","","","","76","L","3","","","170","main_expt",""
"","bandit","250","890823","0.0-211.0-0.0","45060592","wem/bandit_either_3","A3HCGNV93TJO7R","either","1","228","","","","","","","1","0","0","0.7229684446","","0.4","0.6","0.2","0.8","","","","","0.159615594","0.6643953266","0.2644351609","0.7229684446","","","","","","","","76","L","3","","","171","main_expt",""
"","bandit","251","892650","0.0-212.0-0.0","45060592","wem/bandit_either_3","A3HCGNV93TJO7R","either","1","268","","","","","","","0","0","1","0.6612043244","","0.4","0.6","0.2","0.8","","","","","0.1303854457","0.7610666705","0.4136296373","0.6612043244","","","","","","","","76","L","3","","","172","main_expt",""
"","bandit","252","894417","0.0-213.0-0.0","45060592","wem/bandit_either_3","A3HCGNV93TJO7R","either","1","221","","","","","","","1","0","0","0.7669021743","","0.4","0.6","0.2","0.8","","","","","0.07729024622","0.8006149786","0.491318492","0.7669021743","","","","","","","","76","L","3","","","173","main_expt",""
"","bandit","253","896210","0.0-214.0-0.0","45060592","wem/bandit_either_3","A3HCGNV93TJO7R","either","1","248","","","","","","","1","0","0","0.8111867287","","0.4","0.6","0.2","0.8","","","","","0.1227026474","0.791095403","0.4966763124","0.8111867287","","","","","","","","76","L","3","","","174","main_expt",""
"","bandit","254","898087","0.0-215.0-0.0","45060592","wem/bandit_either_3","A3HCGNV93TJO7R","either","1","334","","","","","","","1","0","0","0.8192498968","","0.4","0.6","0.2","0.8","","","","","0.09483306355","0.8572088762","0.5109350621","0.8192498968","","","","","","","","76","L","3","","","175","main_expt",""
"","bandit","255","899882","0.0-216.0-0.0","45060592","wem/bandit_either_3","A3HCGNV93TJO7R","either","1","259","","","","","","","1","0","0","0.8371283275","","0.4","0.6","0.2","0.8","","","","","0.143069758","0.8576080684","0.6321295754","0.8371283275","","","","","","","","76","L","3","","","176","main_expt",""
"","bandit","256","901686","0.0-217.0-0.0","45060592","wem/bandit_either_3","A3HCGNV93TJO7R","either","1","254","","","","","","","0","1","0","","0.8545140947","0.4","0.6","0.2","0.8","0.1741656422","0.8678158231","0.5515755996","0.8545140947","","","","","","","","","","","","76","L","3","","","177","main_expt",""
"","bandit","257","903535","0.0-218.0-0.0","45060592","wem/bandit_either_3","A3HCGNV93TJO7R","either","1","279","","","","","","","1","0","0","0.8794893657","","0.4","0.6","0.2","0.8","","","","","0.1904086474","0.8820542777","0.5086275016","0.8794893657","","","","","","","","76","L","3","","","178","main_expt",""
"","bandit","258","905382","0.0-219.0-0.0","45060592","wem/bandit_either_3","A3HCGNV93TJO7R","either","1","307","","","","","","","1","0","0","0.8939587296","","0.4","0.6","0.2","0.8","","","","","0.1778905233","0.8907334788","0.5215192908","0.8939587296","","","","","","","","76","L","3","","","179","main_expt",""
"","bandit","259","907269","0.0-220.0-0.0","45060592","wem/bandit_either_3","A3HCGNV93TJO7R","either","1","331","","","","","","","1","0","0","0.868077767","","0.4","0.6","0.2","0.8","","","","","0.2112817454","0.9161653667","0.5193414217","0.868077767","","","","","","","","76","L","3","","","180","main_expt",""
"","bandit","260","909108","0.0-221.0-0.0","45060592","wem/bandit_either_3","A3HCGNV93TJO7R","either","1","277","","","","","","","1","0","0","0.9295405476","","0.4","0.6","0.2","0.8","","","","","0.2236312472","0.9327112184","0.4613460131","0.9295405476","","","","","","","","76","L","3","","","181","main_expt",""
"","bandit","261","911164","0.0-222.0-0.0","45060592","wem/bandit_either_3","A3HCGNV93TJO7R","either","1","502","","","","","","","1","0","0","0.9213574857","","0.4","0.6","0.2","0.8","","","","","0.264467441","0.9284398706","0.4468633868","0.9213574857","","","","","","","","76","L","3","","","182","main_expt",""
"","bandit","262","913071","0.0-223.0-0.0","45060592","wem/bandit_either_3","A3HCGNV93TJO7R","either","1","361","","","","","","","1","0","0","0.9374560388","","0.4","0.6","0.2","0.8","","","","","0.2240632979","0.89591471","0.4985091709","0.9374560388","","","","","","","","76","L","3","","","183","main_expt",""
"","bandit","263","914850","0.0-224.0-0.0","45060592","wem/bandit_either_3","A3HCGNV93TJO7R","either","1","220","","","","","","","1","0","0","0.9120054929","","0.4","0.6","0.2","0.8","","","","","0.1671404848","0.9146434193","0.6057575335","0.9120054929","","","","","","","","76","L","3","","","184","main_expt",""
"","bandit","264","916732","0.0-225.0-0.0","45060592","wem/bandit_either_3","A3HCGNV93TJO7R","either","1","348","","","","","","","0","1","0","","0.8428471033","0.4","0.6","0.2","0.8","0.1932257563","0.8575823977","0.4915456485","0.8428471033","","","","","","","","","","","","76","L","3","","","185","main_expt",""
"","bandit","265","918858","0.0-226.0-0.0","45060592","wem/bandit_either_3","A3HCGNV93TJO7R","either","1","570","","","","","","","0","1","0","","0.7734335662","0.4","0.6","0.2","0.8","0.155472597","0.8487952361","0.5976273718","0.7734335662","","","","","","","","","","","","76","L","3","","","186","main_expt",""
"","bandit","266","920810","0.0-227.0-0.0","45060592","wem/bandit_either_3","A3HCGNV93TJO7R","either","1","407","","","","","","","1","0","0","0.7667319261","","0.4","0.6","0.2","0.8","","","","","0.1895871356","0.8603972339","0.5743595779","0.7667319261","","","","","","","","76","L","3","","","187","main_expt",""
"","bandit","267","922625","0.0-228.0-0.0","45060592","wem/bandit_either_3","A3HCGNV93TJO7R","either","1","256","","","","","","","1","0","0","0.5945875292","","0.4","0.6","0.2","0.8","","","","","0.2119556673","0.8834510925","0.6833173747","0.5945875292","","","","","","","","76","L","3","","","188","main_expt",""
"","bandit","268","924532","0.0-229.0-0.0","45060592","wem/bandit_either_3","A3HCGNV93TJO7R","either","1","356","","","","","","","0","1","0","","0.7406569186","0.4","0.6","0.2","0.8","0.2255007403","0.8973947779","0.651089354","0.7406569186","","","","","","","","","","","","76","L","3","","","189","main_expt",""
"","bandit","269","926424","0.0-230.0-0.0","45060592","wem/bandit_either_3","A3HCGNV93TJO7R","either","1","341","","","","","","","0","0","1","0.7371931777","","0.4","0.6","0.2","0.8","","","","","0.1754842532","0.8824587855","0.6599652607","0.7371931777","","","","","","","","76","L","3","","","190","main_expt",""
"","bandit","270","928237","0.0-231.0-0.0","45060592","wem/bandit_either_3","A3HCGNV93TJO7R","either","1","278","","","","","","","1","0","0","0.7019705866","","0.4","0.6","0.2","0.8","","","","","0.1936311571","0.9076431997","0.6960236584","0.7019705866","","","","","","","","76","L","3","","","191","main_expt",""
"","bandit","271","930048","0.0-232.0-0.0","45060592","wem/bandit_either_3","A3HCGNV93TJO7R","either","1","255","","","","","","","1","0","0","0.6198122665","","0.4","0.6","0.2","0.8","","","","","0.215612591","0.8673165995","0.6713911156","0.6198122665","","","","","","","","76","L","3","","","192","main_expt",""
"","bandit","272","931849","0.0-233.0-0.0","45060592","wem/bandit_either_3","A3HCGNV93TJO7R","either","1","246","","","","","","","0","0","1","0.6100930929","","0.4","0.6","0.2","0.8","","","","","0.2818734505","0.8264401474","0.7244072205","0.6100930929","","","","","","","","76","L","3","","","193","main_expt",""
"","bandit","273","933766","0.0-234.0-0.0","45060592","wem/bandit_either_3","A3HCGNV93TJO7R","either","1","367","","","","","","","0","0","1","0.6332739585","","0.4","0.6","0.2","0.8","","","","","0.3616108755","0.8546086414","0.7397798508","0.6332739585","","","","","","","","76","L","3","","","194","main_expt",""
"","bandit","274","935869","0.0-235.0-0.0","45060592","wem/bandit_either_3","A3HCGNV93TJO7R","either","1","556","","","","","","","0","0","1","0.609207161","","0.4","0.6","0.2","0.8","","","","","0.3979961615","0.7914914872","0.7602069811","0.609207161","","","","","","","","76","L","3","","","195","main_expt",""
"","bandit","275","937597","0.0-236.0-0.0","45060592","wem/bandit_either_3","A3HCGNV93TJO7R","either","1","180","","","","","","","1","0","0","0.6560649547","","0.4","0.6","0.2","0.8","","","","","0.4366641927","0.7608346536","0.7114092524","0.6560649547","","","","","","","","76","L","3","","","196","main_expt",""
"","bandit","276","939992","0.0-237.0-0.0","45060592","wem/bandit_either_3","A3HCGNV93TJO7R","either","1","850","","","","","","","1","0","0","0.6656533059","","0.4","0.6","0.2","0.8","","","","","0.560782874","0.7003784325","0.6917424169","0.6656533059","","","","","","","","76","L","3","","","197","main_expt",""
"","bandit","277","942139","0.0-238.0-0.0","45060592","wem/bandit_either_3","A3HCGNV93TJO7R","either","1","607","","","","","","","1","0","0","0.6841747727","","0.4","0.6","0.2","0.8","","","","","0.5649388288","0.6036075577","0.6561069913","0.6841747727","","","","","","","","76","L","3","","","198","main_expt",""
"","bandit","278","944221","0.0-239.0-0.0","45060592","wem/bandit_either_3","A3HCGNV93TJO7R","either","1","551","","","","","","","1","0","0","0.7105065455","","0.4","0.6","0.2","0.8","","","","","0.5375892324","0.5843314555","0.6948346643","0.7105065455","","","","","","","","76","L","3","","","199","main_expt",""
"","bandit","279","946167","0.0-240.0-0.0","45060592","wem/bandit_either_3","A3HCGNV93TJO7R","either","1","414","","","","","","","1","0","0","0.7380433654","","0.4","0.6","0.2","0.8","","","","","0.5625167851","0.539414212","0.7369743936","0.7380433654","","","","","","","","76","L","3","","","200","main_expt",""
"","bandit","280","948296","0.0-241.0-0.0","45060592","wem/bandit_either_3","A3HCGNV93TJO7R","either","1","568","","","","","","","1","0","0","0.6432951689","","0.4","0.6","0.2","0.8","","","","","0.6266810217","0.3774065742","0.8347268415","0.6432951689","","","","","","","","76","L","3","","","201","main_expt",""
"","bandit","281","950530","0.0-242.0-0.0","45060592","wem/bandit_either_3","A3HCGNV93TJO7R","either","1","654","","","","","","","1","0","0","0.4995879772","","0.4","0.6","0.2","0.8","","","","","0.6661075828","0.2824615609","0.7612264534","0.4995879772","","","","","","","","76","L","3","","","202","main_expt",""
"","bandit","282","953415","0.0-243.0-0.0","45060592","wem/bandit_either_3","A3HCGNV93TJO7R","either","1","1342","","","","","","","0","0","1","0.4767352753","","0.4","0.6","0.2","0.8","","","","","0.7534099026","0.210170224","0.6904596671","0.4767352753","","","","","","","","76","L","3","","","203","main_expt",""
"","bandit","283","955118","0.0-244.0-0.0","45060592","wem/bandit_either_3","A3HCGNV93TJO7R","either","1","164","","","","","","","1","0","0","0.3680612217","","0.4","0.6","0.2","0.8","","","","","0.7033522103","0.2708138581","0.6855485072","0.3680612217","","","","","","","","76","L","3","","","204","main_expt",""
"","bandit","284","957640","0.0-245.0-0.0","45060592","wem/bandit_either_3","A3HCGNV93TJO7R","either","1","961","","","","","","","0","0","1","0.3404512965","","0.4","0.6","0.2","0.8","","","","","0.6105989365","0.3319820794","0.7006332368","0.3404512965","","","","","","","","76","L","3","","","205","main_expt",""
"","bandit","285","960086","0.0-246.0-0.0","45060592","wem/bandit_either_3","A3HCGNV93TJO7R","either","1","907","","","","","","","0","0","1","","0.2774568564","0.4","0.6","0.2","0.8","0.725137222","0.3517339603","0.7533130943","0.2774568564","","","","","","","","","","","","76","L","3","","","206","main_expt",""
"","bandit","286","962373","0.0-247.0-0.0","45060592","wem/bandit_either_3","A3HCGNV93TJO7R","either","1","730","","","","","","","0","0","1","0.2228883469","","0.4","0.6","0.2","0.8","","","","","0.5888984072","0.2871079035","0.7191760557","0.2228883469","","","","","","","","76","L","3","","","207","main_expt",""
"","bandit","287","964427","0.0-248.0-0.0","45060592","wem/bandit_either_3","A3HCGNV93TJO7R","either","1","489","","","","","","","0","0","1","0.2829247412","","0.4","0.6","0.2","0.8","","","","","0.4650323514","0.2642306377","0.6264293856","0.2829247412","","","","","","","","76","L","3","","","208","main_expt",""
"","bandit","288","969535","0.0-249.0-0.0","45060592","wem/bandit_either_3","A3HCGNV93TJO7R","either","1","3567","","","","","","","1","0","0","0.3169104167","","0.4","0.6","0.2","0.8","","","","","0.4100719568","0.3587725811","0.6500478562","0.3169104167","","","","","","","","76","L","3","","","209","main_expt",""
"","bandit","289","971925","0.0-250.0-0.0","45060592","wem/bandit_either_3","A3HCGNV93TJO7R","either","1","832","","","","","","","0","1","0","","0.2090062306","0.4","0.6","0.2","0.8","0.5177296744","0.3103342645","0.6498865343","0.2090062306","","","","","","","","","","","","76","L","3","","","210","main_expt",""
"","bandit","290","974297","0.0-251.0-0.0","45060592","wem/bandit_either_3","A3HCGNV93TJO7R","either","1","833","","","","","","","0","0","1","","0.1481662818","0.4","0.6","0.2","0.8","0.5950812693","0.3760595068","0.6056301442","0.1481662818","","","","","","","","","","","","76","L","3","","","211","main_expt",""
"","bandit","291","976068","0.0-252.0-0.0","45060592","wem/bandit_either_3","A3HCGNV93TJO7R","either","1","226","","","","","","","0","0","1","0.2114888193","","0.4","0.6","0.2","0.8","","","","","0.7169745983","0.447023013","0.5524844402","0.2114888193","","","","","","","","76","L","3","","","212","main_expt",""
"","bandit","292","977765","0.0-253.0-0.0","45060592","wem/bandit_either_3","A3HCGNV93TJO7R","either","1","151","","","","","","","0","0","1","0.2234642754","","0.4","0.6","0.2","0.8","","","","","0.6766124197","0.4529182837","0.6984249358","0.2234642754","","","","","","","","76","L","3","","","213","main_expt",""
"","bandit","293","979582","0.0-254.0-0.0","45060592","wem/bandit_either_3","A3HCGNV93TJO7R","either","1","276","","","","","","","1","0","0","0.2315139555","","0.4","0.6","0.2","0.8","","","","","0.8005648136","0.4306534983","0.5996975418","0.2315139555","","","","","","","","76","L","3","","","214","main_expt",""
"","bandit","294","981337","0.0-255.0-0.0","45060592","wem/bandit_either_3","A3HCGNV93TJO7R","either","1","217","","","","","","","0","0","1","","0.1949488974","0.4","0.6","0.2","0.8","0.8487964291","0.4314469479","0.6067129047","0.1949488974","","","","","","","","","","","","76","L","3","","","215","main_expt",""
"","bandit","295","983176","0.0-256.0-0.0","45060592","wem/bandit_either_3","A3HCGNV93TJO7R","either","1","298","","","","","","","0","0","1","0.2333303883","","0.4","0.6","0.2","0.8","","","","","0.8674123454","0.45439575","0.6297976658","0.2333303883","","","","","","","","76","L","3","","","216","main_expt",""
"","bandit","296","985017","0.0-257.0-0.0","45060592","wem/bandit_either_3","A3HCGNV93TJO7R","either","1","299","","","","","","","1","0","0","0.2027763819","","0.4","0.6","0.2","0.8","","","","","0.8774404243","0.5228861726","0.6095272491","0.2027763819","","","","","","","","76","L","3","","","217","main_expt",""
"","bandit","297","986774","0.0-258.0-0.0","45060592","wem/bandit_either_3","A3HCGNV93TJO7R","either","1","204","","","","","","","0","0","1","0.1895874514","","0.4","0.6","0.2","0.8","","","","","0.8836448068","0.463703458","0.7058099393","0.1895874514","","","","","","","","76","L","3","","","218","main_expt",""
"","bandit","298","988360","0.0-259.0-0.0","45060592","wem/bandit_either_3","A3HCGNV93TJO7R","either","1","53","","","","","","","1","0","0","0.1537120117","","0.4","0.6","0.2","0.8","","","","","0.880498508","0.4522864467","0.7396246451","0.1537120117","","","","","","","","76","L","3","","","219","main_expt",""
"","bandit","299","990218","0.0-260.0-0.0","45060592","wem/bandit_either_3","A3HCGNV93TJO7R","either","1","324","","","","","","","0","0","1","","0.2022747423","0.4","0.6","0.2","0.8","0.8740874997","0.4561576612","0.7091968036","0.2022747423","","","","","","","","","","","","76","L","3","","","220","main_expt",""
"","bandit","300","991999","0.0-261.0-0.0","45060592","wem/bandit_either_3","A3HCGNV93TJO7R","either","1","223","","","","","","","0","0","1","0.3174413427","","0.4","0.6","0.2","0.8","","","","","0.8527830905","0.4264657168","0.7116308873","0.3174413427","","","","","","","","76","L","3","","","221","main_expt",""
"","bandit","301","993739","0.0-262.0-0.0","45060592","wem/bandit_either_3","A3HCGNV93TJO7R","either","1","198","","","","","","","0","0","1","0.2315667073","","0.4","0.6","0.2","0.8","","","","","0.7717907476","0.3055141729","0.769465391","0.2315667073","","","","","","","","76","L","3","","","222","main_expt",""
"","bandit","302","995479","0.0-263.0-0.0","45060592","wem/bandit_either_3","A3HCGNV93TJO7R","either","1","180","","","","","","","0","0","1","0.2261006122","","0.4","0.6","0.2","0.8","","","","","0.8359700354","0.2868954791","0.7509006974","0.2261006122","","","","","","","","76","L","3","","","223","main_expt",""
"","bandit","303","997263","0.0-264.0-0.0","45060592","wem/bandit_either_3","A3HCGNV93TJO7R","either","1","237","","","","","","","0","0","1","0.2662378096","","0.4","0.6","0.2","0.8","","","","","0.819670806","0.2698185242","0.7007688409","0.2662378096","","","","","","","","76","L","3","","","224","main_expt",""
"","bandit","304","999050","0.0-265.0-0.0","45060592","wem/bandit_either_3","A3HCGNV93TJO7R","either","1","230","","","","","","","0","1","0","","0.2163280173","0.4","0.6","0.2","0.8","0.8512382749","0.213842325","0.7409020096","0.2163280173","","","","","","","","","","","","76","L","3","","","225","main_expt",""
"","bandit","305","1000920","0.0-266.0-0.0","45060592","wem/bandit_either_3","A3HCGNV93TJO7R","either","1","308","","","","","","","0","0","1","0.2809353625","","0.4","0.6","0.2","0.8","","","","","0.8342861847","0.1616408491","0.7052945704","0.2809353625","","","","","","","","76","L","3","","","226","main_expt",""
"","bandit","306","1002649","0.0-267.0-0.0","45060592","wem/bandit_either_3","A3HCGNV93TJO7R","either","1","176","","","","","","","0","0","1","0.7736041865","","0.4","0.6","0.2","0.8","","","","","0.7736041865","0.1777599287","0.606091252","0.2396571279","","","","","","","","72","H","0","img/none_selected.jpg","","227","main_expt",""
"","bandit","307","1004471","0.0-268.0-0.0","45060592","wem/bandit_either_3","A3HCGNV93TJO7R","either","1","267","","","","","","","0","1","0","","0.8094350608","0.4","0.6","0.2","0.8","0.8094350608","0.2866543064","0.5834203199","0.3430446928","","","","","","","","","","","","72","H","0","img/none_selected.jpg","","228","main_expt",""
"","bandit","308","1006308","0.0-269.0-0.0","45060592","wem/bandit_either_3","A3HCGNV93TJO7R","either","1","274","","","","","","","0","1","0","","0.8078722129","0.4","0.6","0.2","0.8","0.8078722129","0.3948293382","0.5466214007","0.2886233194","","","","","","","","","","","","72","H","0","img/none_selected.jpg","","229","main_expt",""
"","bandit","309","1008150","0.0-270.0-0.0","45060592","wem/bandit_either_3","A3HCGNV93TJO7R","either","1","273","","","","","","","0","1","0","","0.7719043616","0.4","0.6","0.2","0.8","0.7719043616","0.3291786684","0.5519014059","0.3213731463","","","","","","","","","","","","72","H","0","img/none_selected.jpg","","230","main_expt",""
"","bandit","310","1009955","0.0-271.0-0.0","45060592","wem/bandit_either_3","A3HCGNV93TJO7R","either","1","250","","","","","","","1","0","0","0.8049264475","","0.4","0.6","0.2","0.8","","","","","0.8049264475","0.2378236032","0.4527164215","0.2771614906","","","","","","","","72","H","0","img/none_selected.jpg","","231","main_expt",""
"","bandit","311","1011780","0.0-272.0-0.0","45060592","wem/bandit_either_3","A3HCGNV93TJO7R","either","1","287","","","","","","","0","1","0","","0.8850589997","0.4","0.6","0.2","0.8","0.8850589997","0.246393804","0.5135082398","0.2249105956","","","","","","","","","","","","72","H","0","img/none_selected.jpg","","232","main_expt",""
"","bandit","312","1013484","0.0-273.0-0.0","45060592","wem/bandit_either_3","A3HCGNV93TJO7R","either","1","154","","","","","","","0","0","1","0.2141634692","","0.4","0.6","0.2","0.8","","","","","0.9183615156","0.2141634692","0.5502454751","0.2447973041","","","","","","","","74","J","1","","","233","main_expt",""
"","bandit","313","1015155","0.0-274.0-0.0","45060592","wem/bandit_either_3","A3HCGNV93TJO7R","either","1","121","","","","","","","0","1","0","","0.2876436191","0.4","0.6","0.2","0.8","0.9639410842","0.2876436191","0.3783923662","0.24601643","","","","","","","","","","","","74","J","1","","","234","main_expt",""
"","bandit","314","1017019","0.0-275.0-0.0","45060592","wem/bandit_either_3","A3HCGNV93TJO7R","either","1","308","","","","","","","0","0","1","0.2769077257","","0.4","0.6","0.2","0.8","","","","","0.9697187448","0.2769077257","0.2814299379","0.1629844561","","","","","","","","74","J","1","","","235","main_expt",""
"","bandit","315","1018935","0.0-276.0-0.0","45060592","wem/bandit_either_3","A3HCGNV93TJO7R","either","1","352","","","","","","","0","1","0","","0.136865198","0.4","0.6","0.2","0.8","0.9571573523","0.136865198","0.3106100538","0.1929455839","","","","","","","","","","","","74","J","1","","","236","main_expt",""
"","bandit","316","1020664","0.0-277.0-0.0","45060592","wem/bandit_either_3","A3HCGNV93TJO7R","either","1","170","","","","","","","0","0","1","","0.3152445528","0.4","0.6","0.2","0.8","0.9170696074","0.1123790732","0.3152445528","0.1497712966","","","","","","","","","","","","75","K","2","","","237","main_expt",""
"","bandit","317","1022517","0.0-278.0-0.0","45060592","wem/bandit_either_3","A3HCGNV93TJO7R","either","1","301","","","","","","","0","0","1","","0.2637175197","0.4","0.6","0.2","0.8","0.9207491077","0.09027024906","0.2637175197","0.1526491196","","","","","","","","","","","","75","K","2","","","238","main_expt",""
"","bandit","318","1024315","0.0-279.0-0.0","45060592","wem/bandit_either_3","A3HCGNV93TJO7R","either","1","252","","","","","","","0","1","0","","0.1889878372","0.4","0.6","0.2","0.8","0.9211301165","0.08323179304","0.1889878372","0.1745924244","","","","","","","","","","","","75","K","2","","","239","main_expt",""
"","bandit","319","1026156","0.0-280.0-0.0","45060592","wem/bandit_either_3","A3HCGNV93TJO7R","either","1","295","","","","","","","0","0","1","0.1159399908","","0.4","0.6","0.2","0.8","","","","","0.8992774771","0.08130265934","0.1710885746","0.1159399908","","","","","","","","76","L","3","","","240","main_expt",""
"","bandit","320","1027939","0.0-281.0-0.0","45060592","wem/bandit_either_3","A3HCGNV93TJO7R","either","1","250","","","","","","","0","0","1","0.1682101231","","0.4","0.6","0.2","0.8","","","","","0.8977441673","0.1424736114","0.1232632504","0.1682101231","","","","","","","","76","L","3","","","241","main_expt",""
"","bandit","321","1029803","0.0-282.0-0.0","45060592","wem/bandit_either_3","A3HCGNV93TJO7R","either","1","313","","","","","","","0","0","1","0.1643169396","","0.4","0.6","0.2","0.8","","","","","0.853076495","0.2433221762","0.210295675","0.1643169396","","","","","","","","76","L","3","","","242","main_expt",""
"","bandit","322","1031632","0.0-283.0-0.0","45060592","wem/bandit_either_3","A3HCGNV93TJO7R","either","1","274","","","","","","","0","0","1","0.1355776028","","0.4","0.6","0.2","0.8","","","","","0.8942427246","0.3185073654","0.289349801","0.1355776028","","","","","","","","76","L","3","","","243","main_expt",""
"","bandit","323","1033417","0.0-284.0-0.0","45060592","wem/bandit_either_3","A3HCGNV93TJO7R","either","1","242","","","","","","","0","0","1","","0.1311829495","0.4","0.6","0.2","0.8","0.8701402288","0.3533170098","0.4071614743","0.1311829495","","","","","","","","","","","","76","L","3","","","244","main_expt",""
"","bandit","324","1035098","0.0-285.0-0.0","45060592","wem/bandit_either_3","A3HCGNV93TJO7R","either","1","135","","","","","","","0","0","1","0.1273238","","0.4","0.6","0.2","0.8","","","","","0.8552475109","0.3482220419","0.453462755","0.1273238","","","","","","","","76","L","3","","","245","main_expt",""
"","bandit","325","1036922","0.0-286.0-0.0","45060592","wem/bandit_either_3","A3HCGNV93TJO7R","either","1","273","","","","","","","1","0","0","0.1321090015","","0.4","0.6","0.2","0.8","","","","","0.9191842349","0.3016988832","0.4717344544","0.1321090015","","","","","","","","76","L","3","","","246","main_expt",""
"","bandit","326","1038665","0.0-287.0-0.0","45060592","wem/bandit_either_3","A3HCGNV93TJO7R","either","1","167","","","","","","","0","0","1","0.08557432637","","0.4","0.6","0.2","0.8","","","","","0.8742447582","0.3955710819","0.389453332","0.08557432637","","","","","","","","76","L","3","","","247","main_expt",""
"","bandit","327","1040457","0.0-288.0-0.0","45060592","wem/bandit_either_3","A3HCGNV93TJO7R","either","1","247","","","","","","","0","0","1","","0.0513455047","0.4","0.6","0.2","0.8","0.9171345481","0.4988312754","0.3449625019","0.0513455047","","","","","","","","","","","","76","L","3","","","248","main_expt",""
