"consent","trial_type","trial_index","time_elapsed","internal_node_id","subjID","study","MID","cond","drift","rt","responses","key_press","expt_phase","like","value","connected","gems","bombs","no_reward","GemPrChosen","BombPrChosen","GainOverPainPr_0","GainOverPainPr_1","GainOverPainPr_2","GainOverPainPr_3","LosePr_0","LosePr_1","LosePr_2","LosePr_3","WinPr_0","WinPr_1","WinPr_2","WinPr_3","Q0","Q1","Q2","gender","age","ethnicity","target","respCharCode","respKey","respChoiceNum","respChoice","practice","trial_counter","trial_label","button_pressed"
"INL_behavioral_consent_30min_online.html","consent","0","3791","0.0-0.0","45240721","wem/bandit_either_3","A1M7LS52Q27AHU","either","7","","","","","","","","","","","","","","","","","","","","","","","","","","","","","","","","","","","","","","",""
"","survey-text","1","6714","0.0-1.0","45240721","wem/bandit_either_3","A1M7LS52Q27AHU","either","7","1918","{""Q0"":""A1M7LS52Q27AHU""}","","","","","","","","","","","","","","","","","","","","","","","","","","","","","","","","","","","","",""
"","text","2","15428","0.0-2.0","45240721","wem/bandit_either_3","A1M7LS52Q27AHU","either","7","7713","","32","","","","","","","","","","","","","","","","","","","","","","","","","","","","","","","","","","","",""
"","text","3","39596","0.0-3.0","45240721","wem/bandit_either_3","A1M7LS52Q27AHU","either","7","24166","","32","","","","","","","","","","","","","","","","","","","","","","","","","","","","","","","","","","","",""
"","text","4","40180","0.0-4.0","45240721","wem/bandit_either_3","A1M7LS52Q27AHU","either","7","583","","32","","","","","","","","","","","","","","","","","","","","","","","","","","","","","","","","","","","",""
"","text","5","42940","0.0-5.0","45240721","wem/bandit_either_3","A1M7LS52Q27AHU","either","7","2759","","32","","","","","","","","","","","","","","","","","","","","","","","","","","","","","","","","","","","",""
"","text","6","43637","0.0-6.0","45240721","wem/bandit_either_3","A1M7LS52Q27AHU","either","7","695","","32","","","","","","","","","","","","","","","","","","","","","","","","","","","","","","","","","","","",""
"","text","7","44124","0.0-7.0","45240721","wem/bandit_either_3","A1M7LS52Q27AHU","either","7","486","","32","","","","","","","","","","","","","","","","","","","","","","","","","","","","","","","","","","","",""
"","text","8","44364","0.0-8.0","45240721","wem/bandit_either_3","A1M7LS52Q27AHU","either","7","239","","32","","","","","","","","","","","","","","","","","","","","","","","","","","","","","","","","","","","",""
"","identification","9","47319","0.0-9.0-0.0","45240721","wem/bandit_either_3","A1M7LS52Q27AHU","either","7","2946","","","","3","3","3","","","","","","","","","","","","","","","","","","","","","","","","the village of Zur","","","","","","","",""
"","identification","10","50813","0.0-9.0-1.0","45240721","wem/bandit_either_3","A1M7LS52Q27AHU","either","7","2486","","","","3","3","3","","","","","","","","","","","","","","","","","","","","","","","","the village of Nyx","","","","","","","",""
"","text","11","52900","0.0-10.0","45240721","wem/bandit_either_3","A1M7LS52Q27AHU","either","7","1085","","32","","","","","","","","","","","","","","","","","","","","","","","","","","","","","","","","","","","",""
"","text","12","53212","0.0-11.0","45240721","wem/bandit_either_3","A1M7LS52Q27AHU","either","7","311","","32","","","","","","","","","","","","","","","","","","","","","","","","","","","","","","","","","","","",""
"","text","13","53435","0.0-12.0","45240721","wem/bandit_either_3","A1M7LS52Q27AHU","either","7","223","","32","","","","","","","","","","","","","","","","","","","","","","","","","","","","","","","","","","","",""
"","text","14","53844","0.0-13.0","45240721","wem/bandit_either_3","A1M7LS52Q27AHU","either","7","407","","32","","","","","","","","","","","","","","","","","","","","","","","","","","","","","","","","","","","",""
"","bandit","15","58081","0.0-14.0-0.0","45240721","wem/bandit_either_3","A1M7LS52Q27AHU","either","7","2733","","","","","","","0","0","1","0","0","","","","","0","","","","0","","","","","","","","","","","74","J","0","img/none_selected_demo.jpg","true","0","",""
"","bandit","16","59826","0.0-15.0-0.0","45240721","wem/bandit_either_3","A1M7LS52Q27AHU","either","7","240","","","","","","","0","0","1","0","0","","","","","0","","","","0","","","","","","","","","","","75","K","0","img/none_selected_demo.jpg","true","0","",""
"","text","17","61388","0.0-16.0","45240721","wem/bandit_either_3","A1M7LS52Q27AHU","either","7","1561","","32","","","","","","","","","","","","","","","","","","","","","","","","","","","","","","","","","","","",""
"","text","18","61724","0.0-17.0","45240721","wem/bandit_either_3","A1M7LS52Q27AHU","either","7","335","","32","","","","","","","","","","","","","","","","","","","","","","","","","","","","","","","","","","","",""
"","text","19","61956","0.0-18.0","45240721","wem/bandit_either_3","A1M7LS52Q27AHU","either","7","231","","32","","","","","","","","","","","","","","","","","","","","","","","","","","","","","","","","","","","",""
"","text","20","62140","0.0-19.0","45240721","wem/bandit_either_3","A1M7LS52Q27AHU","either","7","183","","32","","","","","","","","","","","","","","","","","","","","","","","","","","","","","","","","","","","",""
"","bandit","21","64992","0.0-20.0-0.0","45240721","wem/bandit_either_3","A1M7LS52Q27AHU","either","7","1350","","","","","","","0","1","0","","0.8","0.5","0.5","","","0.8","0.2","","","","","","","","","","","","","","74","J","0","img/none_selected_demo.jpg","true","0","80_20_practice",""
"","bandit","22","68517","0.0-20.0-1.0","45240721","wem/bandit_either_3","A1M7LS52Q27AHU","either","7","2021","","","","","","","0","0","1","","0.2","0.5","0.5","","","0.8","0.2","","","","","","","","","","","","","","75","K","1","","true","0","80_20_practice",""
"","bandit","23","70137","0.0-20.0-2.0","45240721","wem/bandit_either_3","A1M7LS52Q27AHU","either","7","119","","","","","","","0","0","1","0.2","","0.5","0.5","","","","","","","0.8","0.2","","","","","","","","","","75","K","1","","true","0","80_20_practice",""
"","bandit","24","71765","0.0-20.0-3.0","45240721","wem/bandit_either_3","A1M7LS52Q27AHU","either","7","125","","","","","","","0","0","1","","0.2","0.5","0.5","","","0.8","0.2","","","","","","","","","","","","","","75","K","1","","true","0","80_20_practice",""
"","bandit","25","73385","0.0-20.0-4.0","45240721","wem/bandit_either_3","A1M7LS52Q27AHU","either","7","118","","","","","","","0","1","0","","0.2","0.5","0.5","","","0.8","0.2","","","","","","","","","","","","","","75","K","1","","true","0","80_20_practice",""
"","bandit","26","75014","0.0-20.0-5.0","45240721","wem/bandit_either_3","A1M7LS52Q27AHU","either","7","126","","","","","","","0","0","1","","0.2","0.5","0.5","","","0.8","0.2","","","","","","","","","","","","","","75","K","1","","true","0","80_20_practice",""
"","bandit","27","76642","0.0-20.0-6.0","45240721","wem/bandit_either_3","A1M7LS52Q27AHU","either","7","126","","","","","","","0","1","0","","0.2","0.5","0.5","","","0.8","0.2","","","","","","","","","","","","","","75","K","1","","true","0","80_20_practice",""
"","bandit","28","78263","0.0-20.0-7.0","45240721","wem/bandit_either_3","A1M7LS52Q27AHU","either","7","117","","","","","","","0","0","1","","0.2","0.5","0.5","","","0.8","0.2","","","","","","","","","","","","","","75","K","1","","true","0","80_20_practice",""
"","bandit","29","112891","0.0-20.0-8.0","45240721","wem/bandit_either_3","A1M7LS52Q27AHU","either","7","33125","","","","","","","0","0","1","0.8","","0.5","0.5","","","","","","","0.8","0.2","","","","","","","","","","74","J","0","img/none_selected_demo.jpg","true","0","80_20_practice",""
"","bandit","30","114483","0.0-20.0-9.0","45240721","wem/bandit_either_3","A1M7LS52Q27AHU","either","7","90","","","","","","","0","1","0","","0.8","0.5","0.5","","","0.8","0.2","","","","","","","","","","","","","","74","J","0","img/none_selected_demo.jpg","true","0","80_20_practice",""
"","bandit","31","116102","0.0-20.0-10.0","45240721","wem/bandit_either_3","A1M7LS52Q27AHU","either","7","118","","","","","","","0","0","1","","0.8","0.5","0.5","","","0.8","0.2","","","","","","","","","","","","","","74","J","0","img/none_selected_demo.jpg","true","0","80_20_practice",""
"","bandit","32","117729","0.0-20.0-11.0","45240721","wem/bandit_either_3","A1M7LS52Q27AHU","either","7","125","","","","","","","1","0","0","0.8","","0.5","0.5","","","","","","","0.8","0.2","","","","","","","","","","74","J","0","img/none_selected_demo.jpg","true","0","80_20_practice",""
"","bandit","33","119354","0.0-20.0-12.0","45240721","wem/bandit_either_3","A1M7LS52Q27AHU","either","7","122","","","","","","","0","1","0","","0.8","0.5","0.5","","","0.8","0.2","","","","","","","","","","","","","","74","J","0","img/none_selected_demo.jpg","true","0","80_20_practice",""
"","bandit","34","120987","0.0-20.0-13.0","45240721","wem/bandit_either_3","A1M7LS52Q27AHU","either","7","130","","","","","","","0","1","0","","0.8","0.5","0.5","","","0.8","0.2","","","","","","","","","","","","","","74","J","0","img/none_selected_demo.jpg","true","0","80_20_practice",""
"","bandit","35","122603","0.0-20.0-14.0","45240721","wem/bandit_either_3","A1M7LS52Q27AHU","either","7","114","","","","","","","1","0","0","0.8","","0.5","0.5","","","","","","","0.8","0.2","","","","","","","","","","74","J","0","img/none_selected_demo.jpg","true","0","80_20_practice",""
"","bandit","36","124234","0.0-20.0-15.0","45240721","wem/bandit_either_3","A1M7LS52Q27AHU","either","7","128","","","","","","","0","0","1","","0.8","0.5","0.5","","","0.8","0.2","","","","","","","","","","","","","","74","J","0","img/none_selected_demo.jpg","true","0","80_20_practice",""
"","bandit","37","125862","0.0-20.0-16.0","45240721","wem/bandit_either_3","A1M7LS52Q27AHU","either","7","126","","","","","","","1","0","0","0.8","","0.5","0.5","","","","","","","0.8","0.2","","","","","","","","","","74","J","0","img/none_selected_demo.jpg","true","0","80_20_practice",""
"","bandit","38","127478","0.0-20.0-17.0","45240721","wem/bandit_either_3","A1M7LS52Q27AHU","either","7","114","","","","","","","0","0","1","0.8","","0.5","0.5","","","","","","","0.8","0.2","","","","","","","","","","74","J","0","img/none_selected_demo.jpg","true","0","80_20_practice",""
"","bandit","39","129107","0.0-20.0-18.0","45240721","wem/bandit_either_3","A1M7LS52Q27AHU","either","7","127","","","","","","","0","1","0","","0.8","0.5","0.5","","","0.8","0.2","","","","","","","","","","","","","","74","J","0","img/none_selected_demo.jpg","true","0","80_20_practice",""
"","bandit","40","130737","0.0-20.0-19.0","45240721","wem/bandit_either_3","A1M7LS52Q27AHU","either","7","128","","","","","","","1","0","0","0.8","","0.5","0.5","","","","","","","0.8","0.2","","","","","","","","","","74","J","0","img/none_selected_demo.jpg","true","0","80_20_practice",""
"","text","41","130842","0.0-21.0","45240721","wem/bandit_either_3","A1M7LS52Q27AHU","either","7","103","","32","","","","","","","","","","","","","","","","","","","","","","","","","","","","","","","","","","","",""
"","bandit","42","132353","0.0-22.0-0.0","45240721","wem/bandit_either_3","A1M7LS52Q27AHU","either","7","9","","","","","","","1","0","0","1","0","","","","","0","1","","","1","0","","","","","","","","","","74","J","0","img/none_selected_demo.jpg","true","0","",""
"","text","43","132470","0.0-23.0","45240721","wem/bandit_either_3","A1M7LS52Q27AHU","either","7","115","","32","","","","","","","","","","","","","","","","","","","","","","","","","","","","","","","","","","","",""
"","text","44","132874","0.0-24.0","45240721","wem/bandit_either_3","A1M7LS52Q27AHU","either","7","402","","32","","","","","","","","","","","","","","","","","","","","","","","","","","","","","","","","","","","",""
"","text","45","133282","0.0-25.0","45240721","wem/bandit_either_3","A1M7LS52Q27AHU","either","7","408","","32","","","","","","","","","","","","","","","","","","","","","","","","","","","","","","","","","","","",""
"","text","46","133681","0.0-26.0","45240721","wem/bandit_either_3","A1M7LS52Q27AHU","either","7","398","","32","","","","","","","","","","","","","","","","","","","","","","","","","","","","","","","","","","","",""
"","text","47","134091","0.0-27.0","45240721","wem/bandit_either_3","A1M7LS52Q27AHU","either","7","409","","32","","","","","","","","","","","","","","","","","","","","","","","","","","","","","","","","","","","",""
"","text","48","134501","0.0-28.0","45240721","wem/bandit_either_3","A1M7LS52Q27AHU","either","7","409","","32","","","","","","","","","","","","","","","","","","","","","","","","","","","","","","","","","","","",""
"","text","49","134902","0.0-29.0","45240721","wem/bandit_either_3","A1M7LS52Q27AHU","either","7","399","","32","","","","","","","","","","","","","","","","","","","","","","","","","","","","","","","","","","","",""
"","text","50","135307","0.0-30.0","45240721","wem/bandit_either_3","A1M7LS52Q27AHU","either","7","403","","32","","","","","","","","","","","","","","","","","","","","","","","","","","","","","","","","","","","",""
"","text","51","135714","0.0-31.0","45240721","wem/bandit_either_3","A1M7LS52Q27AHU","either","7","406","","32","","","","","","","","","","","","","","","","","","","","","","","","","","","","","","","","","","","",""
"","text","52","136120","0.0-32.0","45240721","wem/bandit_either_3","A1M7LS52Q27AHU","either","7","404","","32","","","","","","","","","","","","","","","","","","","","","","","","","","","","","","","","","","","",""
"","text","53","136526","0.0-33.0","45240721","wem/bandit_either_3","A1M7LS52Q27AHU","either","7","406","","32","","","","","","","","","","","","","","","","","","","","","","","","","","","","","","","","","","","",""
"","bandit","54","138048","0.0-34.0-0.0","45240721","wem/bandit_either_3","A1M7LS52Q27AHU","either","7","18","","","","","","","0","0","1","0.2","","0.5","0.5","0.5","0.5","","","","","0.8","0.2","0.6","0.2","","","","","","","","74","J","1","","true","0","full_practice",""
"","bandit","55","139674","0.0-34.0-1.0","45240721","wem/bandit_either_3","A1M7LS52Q27AHU","either","7","124","","","","","","","0","0","1","0.2","","0.5","0.5","0.5","0.5","","","","","0.8","0.2","0.6","0.2","","","","","","","","74","J","1","","true","0","full_practice",""
"","bandit","56","141291","0.0-34.0-2.0","45240721","wem/bandit_either_3","A1M7LS52Q27AHU","either","7","115","","","","","","","0","0","1","","0.2","0.5","0.5","0.5","0.5","0.8","0.2","0.6","0.2","","","","","","","","","","","","74","J","1","","true","0","full_practice",""
"","bandit","57","142916","0.0-34.0-3.0","45240721","wem/bandit_either_3","A1M7LS52Q27AHU","either","7","123","","","","","","","0","0","1","0.2","","0.5","0.5","0.5","0.5","","","","","0.8","0.2","0.6","0.2","","","","","","","","74","J","1","","true","0","full_practice",""
"","bandit","58","144542","0.0-34.0-4.0","45240721","wem/bandit_either_3","A1M7LS52Q27AHU","either","7","123","","","","","","","1","0","0","0.2","","0.5","0.5","0.5","0.5","","","","","0.8","0.2","0.6","0.2","","","","","","","","74","J","1","","true","0","full_practice",""
"","bandit","59","146167","0.0-34.0-5.0","45240721","wem/bandit_either_3","A1M7LS52Q27AHU","either","7","123","","","","","","","0","0","1","0.2","","0.5","0.5","0.5","0.5","","","","","0.8","0.2","0.6","0.2","","","","","","","","74","J","1","","true","0","full_practice",""
"","bandit","60","147794","0.0-34.0-6.0","45240721","wem/bandit_either_3","A1M7LS52Q27AHU","either","7","123","","","","","","","0","0","1","","0.2","0.5","0.5","0.5","0.5","0.8","0.2","0.6","0.2","","","","","","","","","","","","74","J","1","","true","0","full_practice",""
"","bandit","61","149415","0.0-34.0-7.0","45240721","wem/bandit_either_3","A1M7LS52Q27AHU","either","7","120","","","","","","","0","0","1","","0.2","0.5","0.5","0.5","0.5","0.8","0.2","0.6","0.2","","","","","","","","","","","","74","J","1","","true","0","full_practice",""
"","bandit","62","151042","0.0-34.0-8.0","45240721","wem/bandit_either_3","A1M7LS52Q27AHU","either","7","124","","","","","","","0","0","1","","0.2","0.5","0.5","0.5","0.5","0.8","0.2","0.6","0.2","","","","","","","","","","","","74","J","1","","true","0","full_practice",""
"","bandit","63","152665","0.0-34.0-9.0","45240721","wem/bandit_either_3","A1M7LS52Q27AHU","either","7","121","","","","","","","0","1","0","","0.2","0.5","0.5","0.5","0.5","0.8","0.2","0.6","0.2","","","","","","","","","","","","74","J","1","","true","0","full_practice",""
"","bandit","64","154292","0.0-34.0-10.0","45240721","wem/bandit_either_3","A1M7LS52Q27AHU","either","7","124","","","","","","","0","0","1","","0.2","0.5","0.5","0.5","0.5","0.8","0.2","0.6","0.2","","","","","","","","","","","","74","J","1","","true","0","full_practice",""
"","bandit","65","155924","0.0-34.0-11.0","45240721","wem/bandit_either_3","A1M7LS52Q27AHU","either","7","128","","","","","","","0","0","1","","0.2","0.5","0.5","0.5","0.5","0.8","0.2","0.6","0.2","","","","","","","","","","","","74","J","1","","true","0","full_practice",""
"","bandit","66","157542","0.0-34.0-12.0","45240721","wem/bandit_either_3","A1M7LS52Q27AHU","either","7","115","","","","","","","0","0","1","","0.2","0.5","0.5","0.5","0.5","0.8","0.2","0.6","0.2","","","","","","","","","","","","74","J","1","","true","0","full_practice",""
"","bandit","67","159175","0.0-34.0-13.0","45240721","wem/bandit_either_3","A1M7LS52Q27AHU","either","7","131","","","","","","","0","1","0","","0.2","0.5","0.5","0.5","0.5","0.8","0.2","0.6","0.2","","","","","","","","","","","","74","J","1","","true","0","full_practice",""
"","bandit","68","160793","0.0-34.0-14.0","45240721","wem/bandit_either_3","A1M7LS52Q27AHU","either","7","114","","","","","","","0","0","1","","0.2","0.5","0.5","0.5","0.5","0.8","0.2","0.6","0.2","","","","","","","","","","","","74","J","1","","true","0","full_practice",""
"","bandit","69","162422","0.0-34.0-15.0","45240721","wem/bandit_either_3","A1M7LS52Q27AHU","either","7","127","","","","","","","0","0","1","","0.2","0.5","0.5","0.5","0.5","0.8","0.2","0.6","0.2","","","","","","","","","","","","74","J","1","","true","0","full_practice",""
"","bandit","70","164043","0.0-34.0-16.0","45240721","wem/bandit_either_3","A1M7LS52Q27AHU","either","7","115","","","","","","","0","0","1","","0.2","0.5","0.5","0.5","0.5","0.8","0.2","0.6","0.2","","","","","","","","","","","","74","J","1","","true","0","full_practice",""
"","bandit","71","165675","0.0-34.0-17.0","45240721","wem/bandit_either_3","A1M7LS52Q27AHU","either","7","130","","","","","","","0","0","1","","0.2","0.5","0.5","0.5","0.5","0.8","0.2","0.6","0.2","","","","","","","","","","","","74","J","1","","true","0","full_practice",""
"","bandit","72","167292","0.0-34.0-18.0","45240721","wem/bandit_either_3","A1M7LS52Q27AHU","either","7","115","","","","","","","1","0","0","0.2","","0.5","0.5","0.5","0.5","","","","","0.8","0.2","0.6","0.2","","","","","","","","74","J","1","","true","0","full_practice",""
"","bandit","73","168923","0.0-34.0-19.0","45240721","wem/bandit_either_3","A1M7LS52Q27AHU","either","7","130","","","","","","","0","0","1","","0.2","0.5","0.5","0.5","0.5","0.8","0.2","0.6","0.2","","","","","","","","","","","","74","J","1","","true","0","full_practice",""
"","text","74","169032","0.0-35.0","45240721","wem/bandit_either_3","A1M7LS52Q27AHU","either","7","106","","32","","","","","","","","","","","","","","","","","","","","","","","","","","","","","","","","","","","",""
"","text","75","170251","0.0-36.0","45240721","wem/bandit_either_3","A1M7LS52Q27AHU","either","7","217","","32","","","","","","","","","","","","","","","","","","","","","","","","","","","","","","","","","","","",""
"","text","76","170651","0.0-37.0","45240721","wem/bandit_either_3","A1M7LS52Q27AHU","either","7","398","","32","","","","","","","","","","","","","","","","","","","","","","","","","","","","","","","","","","","",""
"","text","77","171059","0.0-38.0","45240721","wem/bandit_either_3","A1M7LS52Q27AHU","either","7","406","","32","","","","","","","","","","","","","","","","","","","","","","","","","","","","","","","","","","","",""
"","text","78","171471","0.0-39.0","45240721","wem/bandit_either_3","A1M7LS52Q27AHU","either","7","411","","32","","","","","","","","","","","","","","","","","","","","","","","","","","","","","","","","","","","",""
"","text","79","171871","0.0-40.0","45240721","wem/bandit_either_3","A1M7LS52Q27AHU","either","7","399","","32","","","","","","","","","","","","","","","","","","","","","","","","","","","","","","","","","","","",""
"","bandit","80","173392","0.0-41.0-0.0","45240721","wem/bandit_either_3","A1M7LS52Q27AHU","either","7","18","","","","","","","0","0","1","","0.1731741302","0.6","0.2","0.8","0.4","0.5514722813","0.1731741302","0.2888626749","0.7088318221","","","","","","","","","","","","74","J","1","","","1","main_expt",""
"","bandit","81","175011","0.0-42.0-0.0","45240721","wem/bandit_either_3","A1M7LS52Q27AHU","either","7","115","","","","","","","0","0","1","","0.2874485847","0.6","0.2","0.8","0.4","0.5039303977","0.2874485847","0.3999538902","0.6292935488","","","","","","","","","","","","74","J","1","","","2","main_expt",""
"","bandit","82","176635","0.0-43.0-0.0","45240721","wem/bandit_either_3","A1M7LS52Q27AHU","either","7","122","","","","","","","0","1","0","","0.2683250969","0.6","0.2","0.8","0.4","0.5527877924","0.2683250969","0.4126831114","0.5285482983","","","","","","","","","","","","74","J","1","","","3","main_expt",""
"","bandit","83","178276","0.0-44.0-0.0","45240721","wem/bandit_either_3","A1M7LS52Q27AHU","either","7","125","","","","","","","0","0","1","","0.3988631097","0.6","0.2","0.8","0.4","0.6336700584","0.3988631097","0.3923803367","0.6744491701","","","","","","","","","","","","74","J","1","","","4","main_expt",""
"","bandit","84","179894","0.0-45.0-0.0","45240721","wem/bandit_either_3","A1M7LS52Q27AHU","either","7","113","","","","","","","0","0","1","","0.3568799457","0.6","0.2","0.8","0.4","0.6340088104","0.3568799457","0.3803283439","0.7922285807","","","","","","","","","","","","74","J","1","","","5","main_expt",""
"","bandit","85","181513","0.0-46.0-0.0","45240721","wem/bandit_either_3","A1M7LS52Q27AHU","either","7","115","","","","","","","0","0","1","","0.3188731731","0.6","0.2","0.8","0.4","0.5784181907","0.3188731731","0.4214296899","0.7459441126","","","","","","","","","","","","74","J","1","","","6","main_expt",""
"","bandit","86","183143","0.0-47.0-0.0","45240721","wem/bandit_either_3","A1M7LS52Q27AHU","either","7","127","","","","","","","0","0","1","0.4574196012","","0.6","0.2","0.8","0.4","","","","","0.6727083857","0.4574196012","0.4755968838","0.7681481668","","","","","","","","74","J","1","","","7","main_expt",""
"","bandit","87","184761","0.0-48.0-0.0","45240721","wem/bandit_either_3","A1M7LS52Q27AHU","either","7","116","","","","","","","0","1","0","","0.5037884951","0.6","0.2","0.8","0.4","0.7574508858","0.5037884951","0.5353568537","0.7251609313","","","","","","","","","","","","74","J","1","","","8","main_expt",""
"","bandit","88","186387","0.0-49.0-0.0","45240721","wem/bandit_either_3","A1M7LS52Q27AHU","either","7","124","","","","","","","0","1","0","","0.5750013994","0.6","0.2","0.8","0.4","0.8280759311","0.5750013994","0.6246831942","0.7403055102","","","","","","","","","","","","74","J","1","","","9","main_expt",""
"","bandit","89","188013","0.0-50.0-0.0","45240721","wem/bandit_either_3","A1M7LS52Q27AHU","either","7","123","","","","","","","0","1","0","","0.5399040382","0.6","0.2","0.8","0.4","0.859726102","0.5399040382","0.4475954046","0.722944265","","","","","","","","","","","","74","J","1","","","10","main_expt",""
"","bandit","90","189637","0.0-51.0-0.0","45240721","wem/bandit_either_3","A1M7LS52Q27AHU","either","7","121","","","","","","","1","0","0","0.5181098662","","0.6","0.2","0.8","0.4","","","","","0.877956501","0.5181098662","0.4514702697","0.6833847698","","","","","","","","74","J","1","","","11","main_expt",""
"","bandit","91","191261","0.0-52.0-0.0","45240721","wem/bandit_either_3","A1M7LS52Q27AHU","either","7","122","","","","","","","0","1","0","","0.5489165229","0.6","0.2","0.8","0.4","0.8883669707","0.5489165229","0.4873058782","0.689227163","","","","","","","","","","","","74","J","1","","","12","main_expt",""
"","bandit","92","192885","0.0-53.0-0.0","45240721","wem/bandit_either_3","A1M7LS52Q27AHU","either","7","121","","","","","","","0","1","0","","0.6186986429","0.6","0.2","0.8","0.4","0.817149195","0.6186986429","0.4862469224","0.5178623456","","","","","","","","","","","","74","J","1","","","13","main_expt",""
"","bandit","93","194510","0.0-54.0-0.0","45240721","wem/bandit_either_3","A1M7LS52Q27AHU","either","7","121","","","","","","","0","0","1","","0.4944095791","0.6","0.2","0.8","0.4","0.8589139609","0.4944095791","0.360908092","0.4768489018","","","","","","","","","","","","74","J","1","","","14","main_expt",""
"","bandit","94","196135","0.0-55.0-0.0","45240721","wem/bandit_either_3","A1M7LS52Q27AHU","either","7","122","","","","","","","0","0","1","","0.4820951366","0.6","0.2","0.8","0.4","0.7955781648","0.4820951366","0.4126647893","0.5201849276","","","","","","","","","","","","74","J","1","","","15","main_expt",""
"","bandit","95","197762","0.0-56.0-0.0","45240721","wem/bandit_either_3","A1M7LS52Q27AHU","either","7","124","","","","","","","0","1","0","","0.4888848296","0.6","0.2","0.8","0.4","0.8864445785","0.4888848296","0.4930686601","0.6862231469","","","","","","","","","","","","74","J","1","","","16","main_expt",""
"","bandit","96","199387","0.0-57.0-0.0","45240721","wem/bandit_either_3","A1M7LS52Q27AHU","either","7","123","","","","","","","0","1","0","","0.381306026","0.6","0.2","0.8","0.4","0.8746062981","0.381306026","0.5162343008","0.7297328357","","","","","","","","","","","","74","J","1","","","17","main_expt",""
"","bandit","97","201013","0.0-58.0-0.0","45240721","wem/bandit_either_3","A1M7LS52Q27AHU","either","7","122","","","","","","","0","0","1","","0.3537135189","0.6","0.2","0.8","0.4","0.8910236512","0.3537135189","0.5627456494","0.6686287009","","","","","","","","","","","","74","J","1","","","18","main_expt",""
"","bandit","98","202634","0.0-59.0-0.0","45240721","wem/bandit_either_3","A1M7LS52Q27AHU","either","7","118","","","","","","","0","0","1","","0.4891458502","0.6","0.2","0.8","0.4","0.8932054573","0.4891458502","0.4478227807","0.7885428456","","","","","","","","","","","","74","J","1","","","19","main_expt",""
"","bandit","99","204262","0.0-60.0-0.0","45240721","wem/bandit_either_3","A1M7LS52Q27AHU","either","7","123","","","","","","","1","0","0","0.5440957398","","0.6","0.2","0.8","0.4","","","","","0.8900063933","0.5440957398","0.5306796692","0.7442236049","","","","","","","","74","J","1","","","20","main_expt",""
"","bandit","100","205997","0.0-61.0-0.0","45240721","wem/bandit_either_3","A1M7LS52Q27AHU","either","7","124","","","","","","","0","0","1","0.5621313733","","0.6","0.2","0.8","0.4","","","","","0.8748704397","0.5621313733","0.5423611418","0.7908218503","","","","","","","","74","J","1","","","21","main_expt",""
"","bandit","101","207519","0.0-62.0-0.0","45240721","wem/bandit_either_3","A1M7LS52Q27AHU","either","7","17","","","","","","","0","0","1","","0.5296345876","0.6","0.2","0.8","0.4","0.8498769136","0.5296345876","0.4190568807","0.7163236006","","","","","","","","","","","","74","J","1","","","22","main_expt",""
"","bandit","102","209140","0.0-63.0-0.0","45240721","wem/bandit_either_3","A1M7LS52Q27AHU","either","7","119","","","","","","","0","1","0","","0.5187107172","0.6","0.2","0.8","0.4","0.8357449374","0.5187107172","0.4329937009","0.7061190667","","","","","","","","","","","","74","J","1","","","23","main_expt",""
"","bandit","103","210762","0.0-64.0-0.0","45240721","wem/bandit_either_3","A1M7LS52Q27AHU","either","7","120","","","","","","","0","1","0","","0.6000521927","0.6","0.2","0.8","0.4","0.8431908073","0.6000521927","0.4298879426","0.7470556917","","","","","","","","","","","","74","J","1","","","24","main_expt",""
"","bandit","104","212391","0.0-65.0-0.0","45240721","wem/bandit_either_3","A1M7LS52Q27AHU","either","7","125","","","","","","","0","1","0","","0.5443047256","0.6","0.2","0.8","0.4","0.8741885854","0.5443047256","0.2992323157","0.8154180688","","","","","","","","","","","","74","J","1","","","25","main_expt",""
"","bandit","105","214069","0.0-66.0-0.0","45240721","wem/bandit_either_3","A1M7LS52Q27AHU","either","7","119","","","","","","","0","1","0","","0.592493964","0.6","0.2","0.8","0.4","0.8940719671","0.592493964","0.3857263224","0.8395379789","","","","","","","","","","","","74","J","1","","","26","main_expt",""
"","bandit","106","215633","0.0-67.0-0.0","45240721","wem/bandit_either_3","A1M7LS52Q27AHU","either","7","62","","","","","","","0","1","0","","0.5779569403","0.6","0.2","0.8","0.4","0.8733378856","0.5779569403","0.3715251318","0.8023078409","","","","","","","","","","","","74","J","1","","","27","main_expt",""
"","bandit","107","217261","0.0-68.0-0.0","45240721","wem/bandit_either_3","A1M7LS52Q27AHU","either","7","125","","","","","","","0","1","0","","0.7077223562","0.6","0.2","0.8","0.4","0.8695586723","0.7077223562","0.3387808014","0.8248968235","","","","","","","","","","","","74","J","1","","","28","main_expt",""
"","bandit","108","218886","0.0-69.0-0.0","45240721","wem/bandit_either_3","A1M7LS52Q27AHU","either","7","120","","","","","","","0","1","0","","0.7070353494","0.6","0.2","0.8","0.4","0.7908290088","0.7070353494","0.3737397218","0.8621011303","","","","","","","","","","","","74","J","1","","","29","main_expt",""
"","bandit","109","220512","0.0-70.0-0.0","45240721","wem/bandit_either_3","A1M7LS52Q27AHU","either","7","123","","","","","","","0","0","1","","0.6585428656","0.6","0.2","0.8","0.4","0.8518997755","0.6585428656","0.3232047389","0.8873668535","","","","","","","","","","","","74","J","1","","","30","main_expt",""
"","bandit","110","222135","0.0-71.0-0.0","45240721","wem/bandit_either_3","A1M7LS52Q27AHU","either","7","121","","","","","","","1","0","0","0.6724088618","","0.6","0.2","0.8","0.4","","","","","0.8509842625","0.6724088618","0.4130267239","0.9318975106","","","","","","","","74","J","1","","","31","main_expt",""
"","bandit","111","223762","0.0-72.0-0.0","45240721","wem/bandit_either_3","A1M7LS52Q27AHU","either","7","124","","","","","","","0","1","0","","0.6416581209","0.6","0.2","0.8","0.4","0.872996121","0.6416581209","0.4167758813","0.9013609786","","","","","","","","","","","","74","J","1","","","32","main_expt",""
"","bandit","112","225394","0.0-73.0-0.0","45240721","wem/bandit_either_3","A1M7LS52Q27AHU","either","7","128","","","","","","","0","1","0","","0.7055802426","0.6","0.2","0.8","0.4","0.8571046391","0.7055802426","0.4546052232","0.9041531295","","","","","","","","","","","","74","J","1","","","33","main_expt",""
"","bandit","113","227013","0.0-74.0-0.0","45240721","wem/bandit_either_3","A1M7LS52Q27AHU","either","7","114","","","","","","","1","0","0","0.7554114371","","0.6","0.2","0.8","0.4","","","","","0.9175819521","0.7554114371","0.5231803088","0.9386104272","","","","","","","","74","J","1","","","34","main_expt",""
"","bandit","114","228644","0.0-75.0-0.0","45240721","wem/bandit_either_3","A1M7LS52Q27AHU","either","7","127","","","","","","","0","1","0","","0.8008095759","0.6","0.2","0.8","0.4","0.9503165686","0.8008095759","0.4661188593","0.9180645683","","","","","","","","","","","","74","J","1","","","35","main_expt",""
"","bandit","115","230264","0.0-76.0-0.0","45240721","wem/bandit_either_3","A1M7LS52Q27AHU","either","7","115","","","","","","","1","0","0","0.6925109639","","0.6","0.2","0.8","0.4","","","","","0.9327615424","0.6925109639","0.4106027186","0.9095107155","","","","","","","","74","J","1","","","36","main_expt",""
"","bandit","116","231891","0.0-77.0-0.0","45240721","wem/bandit_either_3","A1M7LS52Q27AHU","either","7","123","","","","","","","1","0","0","0.7764255689","","0.6","0.2","0.8","0.4","","","","","0.9196494001","0.7764255689","0.5021263718","0.9405648028","","","","","","","","74","J","1","","","37","main_expt",""
"","bandit","117","233511","0.0-78.0-0.0","45240721","wem/bandit_either_3","A1M7LS52Q27AHU","either","7","116","","","","","","","0","1","0","","0.8392953971","0.6","0.2","0.8","0.4","0.928530414","0.8392953971","0.5065313343","0.9058459248","","","","","","","","","","","","74","J","1","","","38","main_expt",""
"","bandit","118","235140","0.0-79.0-0.0","45240721","wem/bandit_either_3","A1M7LS52Q27AHU","either","7","126","","","","","","","0","1","0","","0.7614495855","0.6","0.2","0.8","0.4","0.9001545702","0.7614495855","0.6098243774","0.8784462517","","","","","","","","","","","","74","J","1","","","39","main_expt",""
"","bandit","119","236764","0.0-80.0-0.0","45240721","wem/bandit_either_3","A1M7LS52Q27AHU","either","7","121","","","","","","","0","1","0","","0.8060705796","0.6","0.2","0.8","0.4","0.8432481254","0.8060705796","0.679699592","0.8408568766","","","","","","","","","","","","74","J","1","","","40","main_expt",""
"","bandit","120","238394","0.0-81.0-0.0","45240721","wem/bandit_either_3","A1M7LS52Q27AHU","either","7","127","","","","","","","0","1","0","","0.7539991053","0.6","0.2","0.8","0.4","0.8326479564","0.7539991053","0.616488607","0.811342849","","","","","","","","","","","","74","J","1","","","41","main_expt",""
"","bandit","121","240014","0.0-82.0-0.0","45240721","wem/bandit_either_3","A1M7LS52Q27AHU","either","7","117","","","","","","","0","1","0","","0.7717369324","0.6","0.2","0.8","0.4","0.8602810298","0.7717369324","0.6307104111","0.8058808774","","","","","","","","","","","","74","J","1","","","42","main_expt",""
"","bandit","122","241637","0.0-83.0-0.0","45240721","wem/bandit_either_3","A1M7LS52Q27AHU","either","7","120","","","","","","","0","0","1","","0.7625968551","0.6","0.2","0.8","0.4","0.894365654","0.7625968551","0.554567591","0.7899844578","","","","","","","","","","","","74","J","1","","","43","main_expt",""
"","bandit","123","243263","0.0-84.0-0.0","45240721","wem/bandit_either_3","A1M7LS52Q27AHU","either","7","123","","","","","","","0","1","0","","0.8488621298","0.6","0.2","0.8","0.4","0.9033664713","0.8488621298","0.5281861223","0.7654486741","","","","","","","","","","","","74","J","1","","","44","main_expt",""
"","bandit","124","244886","0.0-85.0-0.0","45240721","wem/bandit_either_3","A1M7LS52Q27AHU","either","7","121","","","","","","","0","1","0","","0.8522077325","0.6","0.2","0.8","0.4","0.8829964613","0.8522077325","0.5043334007","0.7674111825","","","","","","","","","","","","74","J","1","","","45","main_expt",""
"","bandit","125","246511","0.0-86.0-0.0","45240721","wem/bandit_either_3","A1M7LS52Q27AHU","either","7","122","","","","","","","1","0","0","0.8618589195","","0.6","0.2","0.8","0.4","","","","","0.8674694879","0.8618589195","0.5426256613","0.6301273516","","","","","","","","74","J","1","","","46","main_expt",""
"","bandit","126","248140","0.0-87.0-0.0","45240721","wem/bandit_either_3","A1M7LS52Q27AHU","either","7","127","","","","","","","0","1","0","","0.905897833","0.6","0.2","0.8","0.4","0.8886720039","0.905897833","0.5024796093","0.7885969413","","","","","","","","","","","","74","J","1","","","47","main_expt",""
"","bandit","127","249764","0.0-88.0-0.0","45240721","wem/bandit_either_3","A1M7LS52Q27AHU","either","7","119","","","","","","","0","1","0","","0.8929468812","0.6","0.2","0.8","0.4","0.9229902905","0.8929468812","0.4689138593","0.7983786211","","","","","","","","","","","","74","J","1","","","48","main_expt",""
"","bandit","128","251394","0.0-89.0-0.0","45240721","wem/bandit_either_3","A1M7LS52Q27AHU","either","7","126","","","","","","","0","1","0","","0.854905512","0.6","0.2","0.8","0.4","0.9141434128","0.854905512","0.4439560463","0.8249867574","","","","","","","","","","","","74","J","1","","","49","main_expt",""
"","bandit","129","253013","0.0-90.0-0.0","45240721","wem/bandit_either_3","A1M7LS52Q27AHU","either","7","116","","","","","","","0","1","0","","0.8363103738","0.6","0.2","0.8","0.4","0.9181160336","0.8363103738","0.4079842927","0.7532301684","","","","","","","","","","","","74","J","1","","","50","main_expt",""
"","bandit","130","254644","0.0-91.0-0.0","45240721","wem/bandit_either_3","A1M7LS52Q27AHU","either","7","126","","","","","","","0","1","0","","0.7168506975","0.6","0.2","0.8","0.4","0.9266489825","0.7168506975","0.4675199832","0.6750909554","","","","","","","","","","","","74","J","1","","","51","main_expt",""
"","bandit","131","256264","0.0-92.0-0.0","45240721","wem/bandit_either_3","A1M7LS52Q27AHU","either","7","117","","","","","","","1","0","0","0.6507986152","","0.6","0.2","0.8","0.4","","","","","0.9285581488","0.6507986152","0.4368052975","0.6762079337","","","","","","","","74","J","1","","","52","main_expt",""
"","bandit","132","257888","0.0-93.0-0.0","45240721","wem/bandit_either_3","A1M7LS52Q27AHU","either","7","121","","","","","","","0","0","1","","0.6531867096","0.6","0.2","0.8","0.4","0.9171724481","0.6531867096","0.4967902672","0.7882030045","","","","","","","","","","","","74","J","1","","","53","main_expt",""
"","bandit","133","259511","0.0-94.0-0.0","45240721","wem/bandit_either_3","A1M7LS52Q27AHU","either","7","119","","","","","","","0","0","1","","0.6178049746","0.6","0.2","0.8","0.4","0.8709862684","0.6178049746","0.5321533453","0.8759533557","","","","","","","","","","","","74","J","1","","","54","main_expt",""
"","bandit","134","261144","0.0-95.0-0.0","45240721","wem/bandit_either_3","A1M7LS52Q27AHU","either","7","130","","","","","","","0","0","1","","0.5501477499","0.6","0.2","0.8","0.4","0.9016108676","0.5501477499","0.593251847","0.9307112091","","","","","","","","","","","","74","J","1","","","55","main_expt",""
"","bandit","135","262764","0.0-96.0-0.0","45240721","wem/bandit_either_3","A1M7LS52Q27AHU","either","7","117","","","","","","","0","0","1","","0.5181914202","0.6","0.2","0.8","0.4","0.9123335035","0.5181914202","0.602347159","0.9486344027","","","","","","","","","","","","74","J","1","","","56","main_expt",""
"","bandit","136","264385","0.0-97.0-0.0","45240721","wem/bandit_either_3","A1M7LS52Q27AHU","either","7","118","","","","","","","0","1","0","","0.5052283364","0.6","0.2","0.8","0.4","0.9338523698","0.5052283364","0.736851976","0.9450559811","","","","","","","","","","","","74","J","1","","","57","main_expt",""
"","bandit","137","266015","0.0-98.0-0.0","45240721","wem/bandit_either_3","A1M7LS52Q27AHU","either","7","126","","","","","","","0","1","0","","0.4494585665","0.6","0.2","0.8","0.4","0.9023069914","0.4494585665","0.7112026436","0.960587128","","","","","","","","","","","","74","J","1","","","58","main_expt",""
"","bandit","138","267644","0.0-99.0-0.0","45240721","wem/bandit_either_3","A1M7LS52Q27AHU","either","7","125","","","","","","","0","0","1","","0.4431029696","0.6","0.2","0.8","0.4","0.903153386","0.4431029696","0.7605469626","0.9272570312","","","","","","","","","","","","74","J","1","","","59","main_expt",""
"","bandit","139","269271","0.0-100.0-0.0","45240721","wem/bandit_either_3","A1M7LS52Q27AHU","either","7","120","","","","","","","0","0","1","","0.4213069188","0.6","0.2","0.8","0.4","0.8975643475","0.4213069188","0.6504737249","0.9075075979","","","","","","","","","","","","74","J","1","","","60","main_expt",""
"","bandit","140","270890","0.0-101.0-0.0","45240721","wem/bandit_either_3","A1M7LS52Q27AHU","either","7","114","","","","","","","0","0","1","0.4735464544","","0.6","0.2","0.8","0.4","","","","","0.8455107238","0.4735464544","0.7417300409","0.9011961695","","","","","","","","74","J","1","","","61","main_expt",""
"","bandit","141","272515","0.0-102.0-0.0","45240721","wem/bandit_either_3","A1M7LS52Q27AHU","either","7","122","","","","","","","0","0","1","","0.4260239588","0.6","0.2","0.8","0.4","0.8423106617","0.4260239588","0.6889655243","0.9025442902","","","","","","","","","","","","74","J","1","","","62","main_expt",""
"","bandit","142","274143","0.0-103.0-0.0","45240721","wem/bandit_either_3","A1M7LS52Q27AHU","either","7","124","","","","","","","0","0","1","","0.4048641732","0.6","0.2","0.8","0.4","0.6997676278","0.4048641732","0.7532165261","0.900711875","","","","","","","","","","","","74","J","1","","","63","main_expt",""
"","bandit","143","275765","0.0-104.0-0.0","45240721","wem/bandit_either_3","A1M7LS52Q27AHU","either","7","118","","","","","","","0","0","1","0.261135461","","0.6","0.2","0.8","0.4","","","","","0.8033841581","0.261135461","0.7614619666","0.8445511995","","","","","","","","74","J","1","","","64","main_expt",""
"","bandit","144","277393","0.0-105.0-0.0","45240721","wem/bandit_either_3","A1M7LS52Q27AHU","either","7","125","","","","","","","0","1","0","","0.4398785507","0.6","0.2","0.8","0.4","0.8458775523","0.4398785507","0.7474824059","0.7838665633","","","","","","","","","","","","74","J","1","","","65","main_expt",""
"","bandit","145","279018","0.0-106.0-0.0","45240721","wem/bandit_either_3","A1M7LS52Q27AHU","either","7","121","","","","","","","0","0","1","","0.4549930047","0.6","0.2","0.8","0.4","0.8612648572","0.4549930047","0.7083026918","0.8399866527","","","","","","","","","","","","74","J","1","","","66","main_expt",""
"","bandit","146","280641","0.0-107.0-0.0","45240721","wem/bandit_either_3","A1M7LS52Q27AHU","either","7","119","","","","","","","0","1","0","","0.5565794079","0.6","0.2","0.8","0.4","0.8686018104","0.5565794079","0.6535093674","0.9109535201","","","","","","","","","","","","74","J","1","","","67","main_expt",""
"","bandit","147","282265","0.0-108.0-0.0","45240721","wem/bandit_either_3","A1M7LS52Q27AHU","either","7","120","","","","","","","0","0","1","","0.4211802827","0.6","0.2","0.8","0.4","0.8693437115","0.4211802827","0.4923739087","0.9064065477","","","","","","","","","","","","74","J","1","","","68","main_expt",""
"","bandit","148","283890","0.0-109.0-0.0","45240721","wem/bandit_either_3","A1M7LS52Q27AHU","either","7","122","","","","","","","0","1","0","","0.3687693293","0.6","0.2","0.8","0.4","0.9168970181","0.3687693293","0.4898097669","0.9315833469","","","","","","","","","","","","74","J","1","","","69","main_expt",""
"","bandit","149","285513","0.0-110.0-0.0","45240721","wem/bandit_either_3","A1M7LS52Q27AHU","either","7","120","","","","","","","0","1","0","","0.3460903474","0.6","0.2","0.8","0.4","0.9293527272","0.3460903474","0.4369614599","0.9393923483","","","","","","","","","","","","74","J","1","","","70","main_expt",""
"","bandit","150","287143","0.0-111.0-0.0","45240721","wem/bandit_either_3","A1M7LS52Q27AHU","either","7","127","","","","","","","0","0","1","","0.3278112836","0.6","0.2","0.8","0.4","0.949087413","0.3278112836","0.5031037484","0.9568343035","","","","","","","","","","","","74","J","1","","","71","main_expt",""
"","bandit","151","288760","0.0-112.0-0.0","45240721","wem/bandit_either_3","A1M7LS52Q27AHU","either","7","113","","","","","","","0","0","1","","0.2720469766","0.6","0.2","0.8","0.4","0.906373323","0.2720469766","0.5397903688","0.947758434","","","","","","","","","","","","74","J","1","","","72","main_expt",""
"","bandit","152","290389","0.0-113.0-0.0","45240721","wem/bandit_either_3","A1M7LS52Q27AHU","either","7","127","","","","","","","0","1","0","","0.2451019773","0.6","0.2","0.8","0.4","0.93965919","0.2451019773","0.5540652028","0.9052010222","","","","","","","","","","","","74","J","1","","","73","main_expt",""
"","bandit","153","292010","0.0-114.0-0.0","45240721","wem/bandit_either_3","A1M7LS52Q27AHU","either","7","118","","","","","","","0","0","1","0.2645862521","","0.6","0.2","0.8","0.4","","","","","0.9416319858","0.2645862521","0.61733434","0.927704936","","","","","","","","74","J","1","","","74","main_expt",""
"","bandit","154","293641","0.0-115.0-0.0","45240721","wem/bandit_either_3","A1M7LS52Q27AHU","either","7","129","","","","","","","0","0","1","","0.2298582","0.6","0.2","0.8","0.4","0.9535384208","0.2298582","0.6341908543","0.8769567517","","","","","","","","","","","","74","J","1","","","75","main_expt",""
"","bandit","155","295259","0.0-116.0-0.0","45240721","wem/bandit_either_3","A1M7LS52Q27AHU","either","7","114","","","","","","","1","0","0","0.3460043445","","0.6","0.2","0.8","0.4","","","","","0.9585479729","0.3460043445","0.6355577018","0.8456064169","","","","","","","","74","J","1","","","76","main_expt",""
"","bandit","156","296941","0.0-117.0-0.0","45240721","wem/bandit_either_3","A1M7LS52Q27AHU","either","7","130","","","","","","","0","0","1","","0.2526488818","0.6","0.2","0.8","0.4","0.9610253773","0.2526488818","0.7055426269","0.8325595713","","","","","","","","","","","","74","J","1","","","77","main_expt",""
"","bandit","157","298519","0.0-118.0-0.0","45240721","wem/bandit_either_3","A1M7LS52Q27AHU","either","7","73","","","","","","","0","0","1","","0.2625396382","0.6","0.2","0.8","0.4","0.9580320452","0.2625396382","0.6137882531","0.9128982172","","","","","","","","","","","","74","J","1","","","78","main_expt",""
"","bandit","158","300135","0.0-119.0-0.0","45240721","wem/bandit_either_3","A1M7LS52Q27AHU","either","7","113","","","","","","","0","0","1","","0.2957535945","0.6","0.2","0.8","0.4","0.9403834825","0.2957535945","0.668392527","0.9213349282","","","","","","","","","","","","74","J","1","","","79","main_expt",""
"","bandit","159","301762","0.0-120.0-0.0","45240721","wem/bandit_either_3","A1M7LS52Q27AHU","either","7","124","","","","","","","0","0","1","","0.1831261498","0.6","0.2","0.8","0.4","0.946171157","0.1831261498","0.7457361895","0.8935563746","","","","","","","","","","","","74","J","1","","","80","main_expt",""
"","bandit","160","303392","0.0-121.0-0.0","45240721","wem/bandit_either_3","A1M7LS52Q27AHU","either","7","127","","","","","","","0","1","0","","0.1450659425","0.6","0.2","0.8","0.4","0.9800092583","0.1450659425","0.8028050151","0.932831263","","","","","","","","","","","","74","J","1","","","81","main_expt",""
"","bandit","161","305013","0.0-122.0-0.0","45240721","wem/bandit_either_3","A1M7LS52Q27AHU","either","7","116","","","","","","","0","0","1","","0.1486641529","0.6","0.2","0.8","0.4","0.9666397243","0.1486641529","0.8727424511","0.9403650082","","","","","","","","","","","","74","J","1","","","82","main_expt",""
"","bandit","162","306635","0.0-123.0-0.0","45240721","wem/bandit_either_3","A1M7LS52Q27AHU","either","7","118","","","","","","","0","0","1","","0.1567811066","0.6","0.2","0.8","0.4","0.9637330664","0.1567811066","0.8283068274","0.9066396881","","","","","","","","","","","","74","J","1","","","83","main_expt",""
"","bandit","163","308267","0.0-124.0-0.0","45240721","wem/bandit_either_3","A1M7LS52Q27AHU","either","7","129","","","","","","","0","0","1","","0.196091916","0.6","0.2","0.8","0.4","0.9617949183","0.196091916","0.8030064341","0.8962006295","","","","","","","","","","","","74","J","1","","","84","main_expt",""
"","bandit","164","309893","0.0-125.0-0.0","45240721","wem/bandit_either_3","A1M7LS52Q27AHU","either","7","122","","","","","","","0","0","1","","0.1512390112","0.6","0.2","0.8","0.4","0.9561985801","0.1512390112","0.8622567251","0.9093999993","","","","","","","","","","","","74","J","1","","","85","main_expt",""
"","bandit","165","311510","0.0-126.0-0.0","45240721","wem/bandit_either_3","A1M7LS52Q27AHU","either","7","113","","","","","","","0","0","1","0.1486491559","","0.6","0.2","0.8","0.4","","","","","0.9422505668","0.1486491559","0.896584634","0.9326862648","","","","","","","","74","J","1","","","86","main_expt",""
"","bandit","166","313141","0.0-127.0-0.0","45240721","wem/bandit_either_3","A1M7LS52Q27AHU","either","7","128","","","","","","","0","0","1","","0.1047878604","0.6","0.2","0.8","0.4","0.926711091","0.1047878604","0.9208758521","0.9039434857","","","","","","","","","","","","74","J","1","","","87","main_expt",""
"","bandit","167","314763","0.0-128.0-0.0","45240721","wem/bandit_either_3","A1M7LS52Q27AHU","either","7","119","","","","","","","0","0","1","","0.07038149384","0.6","0.2","0.8","0.4","0.9092576496","0.07038149384","0.9266301883","0.9195127861","","","","","","","","","","","","74","J","1","","","88","main_expt",""
"","bandit","168","316392","0.0-129.0-0.0","45240721","wem/bandit_either_3","A1M7LS52Q27AHU","either","7","125","","","","","","","0","0","1","0.1311535074","","0.6","0.2","0.8","0.4","","","","","0.8948591238","0.1311535074","0.9259215542","0.9225053559","","","","","","","","74","J","1","","","89","main_expt",""
"","bandit","169","318016","0.0-130.0-0.0","45240721","wem/bandit_either_3","A1M7LS52Q27AHU","either","7","118","","","","","","","0","0","1","","0.1241310956","0.6","0.2","0.8","0.4","0.8716727139","0.1241310956","0.9400480964","0.9014563988","","","","","","","","","","","","74","J","1","","","90","main_expt",""
"","bandit","170","319639","0.0-131.0-0.0","45240721","wem/bandit_either_3","A1M7LS52Q27AHU","either","7","119","","","","","","","0","0","1","","0.09664170694","0.6","0.2","0.8","0.4","0.8969144331","0.09664170694","0.8961855863","0.9162570652","","","","","","","","","","","","74","J","1","","","91","main_expt",""
"","bandit","171","321260","0.0-132.0-0.0","45240721","wem/bandit_either_3","A1M7LS52Q27AHU","either","7","118","","","","","","","0","0","1","","0.09586364307","0.6","0.2","0.8","0.4","0.9171199264","0.09586364307","0.9211437923","0.9171553871","","","","","","","","","","","","74","J","1","","","92","main_expt",""
"","bandit","172","322893","0.0-133.0-0.0","45240721","wem/bandit_either_3","A1M7LS52Q27AHU","either","7","128","","","","","","","0","1","0","","0.08304118766","0.6","0.2","0.8","0.4","0.9593171332","0.08304118766","0.8947860396","0.9463284029","","","","","","","","","","","","74","J","1","","","93","main_expt",""
"","bandit","173","324543","0.0-134.0-0.0","45240721","wem/bandit_either_3","A1M7LS52Q27AHU","either","7","146","","","","","","","0","0","1","0.1222865453","","0.6","0.2","0.8","0.4","","","","","0.959226596","0.1222865453","0.822540961","0.9477079066","","","","","","","","74","J","1","","","94","main_expt",""
"","bandit","174","326143","0.0-135.0-0.0","45240721","wem/bandit_either_3","A1M7LS52Q27AHU","either","7","95","","","","","","","0","0","1","","0.211460517","0.6","0.2","0.8","0.4","0.947105423","0.211460517","0.8288041746","0.9474919074","","","","","","","","","","","","74","J","1","","","95","main_expt",""
"","bandit","175","327766","0.0-136.0-0.0","45240721","wem/bandit_either_3","A1M7LS52Q27AHU","either","7","118","","","","","","","0","0","1","","0.2757920232","0.6","0.2","0.8","0.4","0.937205139","0.2757920232","0.8217366877","0.9722490369","","","","","","","","","","","","74","J","1","","","96","main_expt",""
"","bandit","176","329392","0.0-137.0-0.0","45240721","wem/bandit_either_3","A1M7LS52Q27AHU","either","7","122","","","","","","","0","0","1","","0.2646876298","0.6","0.2","0.8","0.4","0.9472767204","0.2646876298","0.725285089","0.980822097","","","","","","","","","","","","74","J","1","","","97","main_expt",""
"","bandit","177","331012","0.0-138.0-0.0","45240721","wem/bandit_either_3","A1M7LS52Q27AHU","either","7","117","","","","","","","0","0","1","0.3278454636","","0.6","0.2","0.8","0.4","","","","","0.962959595","0.3278454636","0.7958966199","0.9761591307","","","","","","","","74","J","1","","","98","main_expt",""
"","bandit","178","332636","0.0-139.0-0.0","45240721","wem/bandit_either_3","A1M7LS52Q27AHU","either","7","121","","","","","","","0","0","1","","0.4641870332","0.6","0.2","0.8","0.4","0.9720903607","0.4641870332","0.7741840332","0.9597391097","","","","","","","","","","","","74","J","1","","","99","main_expt",""
"","bandit","179","334260","0.0-140.0-0.0","45240721","wem/bandit_either_3","A1M7LS52Q27AHU","either","7","121","","","","","","","0","1","0","","0.3972344865","0.6","0.2","0.8","0.4","0.9737169538","0.3972344865","0.7934767162","0.9557148533","","","","","","","","","","","","74","J","1","","","100","main_expt",""
"","bandit","180","335891","0.0-141.0-0.0","45240721","wem/bandit_either_3","A1M7LS52Q27AHU","either","7","127","","","","","","","1","0","0","0.4395304924","","0.6","0.2","0.8","0.4","","","","","0.986468331","0.4395304924","0.8307638242","0.9687934467","","","","","","","","74","J","1","","","101","main_expt",""
"","bandit","181","337513","0.0-142.0-0.0","45240721","wem/bandit_either_3","A1M7LS52Q27AHU","either","7","118","","","","","","","0","1","0","","0.5248298482","0.6","0.2","0.8","0.4","0.9859557102","0.5248298482","0.7737236933","0.9713318577","","","","","","","","","","","","74","J","1","","","102","main_expt",""
"","bandit","182","339142","0.0-143.0-0.0","45240721","wem/bandit_either_3","A1M7LS52Q27AHU","either","7","125","","","","","","","0","1","0","","0.6218364577","0.6","0.2","0.8","0.4","0.9828698412","0.6218364577","0.8168427084","0.9768128314","","","","","","","","","","","","74","J","1","","","103","main_expt",""
"","bandit","183","340763","0.0-144.0-0.0","45240721","wem/bandit_either_3","A1M7LS52Q27AHU","either","7","116","","","","","","","0","0","1","","0.5528563194","0.6","0.2","0.8","0.4","0.9655029871","0.5528563194","0.7020104164","0.9566706727","","","","","","","","","","","","74","J","1","","","104","main_expt",""
"","bandit","184","342393","0.0-145.0-0.0","45240721","wem/bandit_either_3","A1M7LS52Q27AHU","either","7","126","","","","","","","0","0","1","","0.515821512","0.6","0.2","0.8","0.4","0.9587067199","0.515821512","0.6750414237","0.9352711559","","","","","","","","","","","","74","J","1","","","105","main_expt",""
"","bandit","185","344012","0.0-146.0-0.0","45240721","wem/bandit_either_3","A1M7LS52Q27AHU","either","7","115","","","","","","","0","0","1","","0.5380341879","0.6","0.2","0.8","0.4","0.9358961366","0.5380341879","0.5886413089","0.8980036198","","","","","","","","","","","","74","J","1","","","106","main_expt",""
"","bandit","186","345642","0.0-147.0-0.0","45240721","wem/bandit_either_3","A1M7LS52Q27AHU","either","7","127","","","","","","","0","1","0","","0.3291998873","0.6","0.2","0.8","0.4","0.8829949032","0.3291998873","0.5507707533","0.9175797088","","","","","","","","","","","","74","J","1","","","107","main_expt",""
"","bandit","187","347260","0.0-148.0-0.0","45240721","wem/bandit_either_3","A1M7LS52Q27AHU","either","7","113","","","","","","","0","0","1","","0.3608627265","0.6","0.2","0.8","0.4","0.7668100276","0.3608627265","0.4325904974","0.8966825343","","","","","","","","","","","","74","J","1","","","108","main_expt",""
"","bandit","188","348885","0.0-149.0-0.0","45240721","wem/bandit_either_3","A1M7LS52Q27AHU","either","7","121","","","","","","","0","0","1","","0.3837942066","0.6","0.2","0.8","0.4","0.7652463225","0.3837942066","0.3735159861","0.8883819791","","","","","","","","","","","","74","J","1","","","109","main_expt",""
"","bandit","189","350517","0.0-150.0-0.0","45240721","wem/bandit_either_3","A1M7LS52Q27AHU","either","7","127","","","","","","","0","0","1","","0.3019365294","0.6","0.2","0.8","0.4","0.7974745759","0.3019365294","0.3704440872","0.9087011364","","","","","","","","","","","","74","J","1","","","110","main_expt",""
"","bandit","190","352141","0.0-151.0-0.0","45240721","wem/bandit_either_3","A1M7LS52Q27AHU","either","7","119","","","","","","","0","0","1","","0.3483008865","0.6","0.2","0.8","0.4","0.812352323","0.3483008865","0.2749067499","0.9337026812","","","","","","","","","","","","74","J","1","","","111","main_expt",""
"","bandit","191","353761","0.0-152.0-0.0","45240721","wem/bandit_either_3","A1M7LS52Q27AHU","either","7","116","","","","","","","0","1","0","","0.4342302697","0.6","0.2","0.8","0.4","0.7428975936","0.4342302697","0.2734667401","0.9113388615","","","","","","","","","","","","74","J","1","","","112","main_expt",""
"","bandit","192","355391","0.0-153.0-0.0","45240721","wem/bandit_either_3","A1M7LS52Q27AHU","either","7","127","","","","","","","0","1","0","","0.5187246657","0.6","0.2","0.8","0.4","0.7139653514","0.5187246657","0.2291946885","0.8980528729","","","","","","","","","","","","74","J","1","","","113","main_expt",""
"","bandit","193","357012","0.0-154.0-0.0","45240721","wem/bandit_either_3","A1M7LS52Q27AHU","either","7","117","","","","","","","0","0","1","","0.5381742134","0.6","0.2","0.8","0.4","0.7945657698","0.5381742134","0.2413339081","0.8036326458","","","","","","","","","","","","74","J","1","","","114","main_expt",""
"","bandit","194","358639","0.0-155.0-0.0","45240721","wem/bandit_either_3","A1M7LS52Q27AHU","either","7","124","","","","","","","0","0","1","","0.4785029821","0.6","0.2","0.8","0.4","0.8405588069","0.4785029821","0.3092826039","0.8700945717","","","","","","","","","","","","74","J","1","","","115","main_expt",""
"","bandit","195","360269","0.0-156.0-0.0","45240721","wem/bandit_either_3","A1M7LS52Q27AHU","either","7","126","","","","","","","0","0","1","","0.4654757386","0.6","0.2","0.8","0.4","0.8641798474","0.4654757386","0.2361366225","0.8895114993","","","","","","","","","","","","74","J","1","","","116","main_expt",""
"","bandit","196","361895","0.0-157.0-0.0","45240721","wem/bandit_either_3","A1M7LS52Q27AHU","either","7","121","","","","","","","0","1","0","","0.4578633225","0.6","0.2","0.8","0.4","0.8756768431","0.4578633225","0.218402711","0.8936856952","","","","","","","","","","","","74","J","1","","","117","main_expt",""
"","bandit","197","363513","0.0-158.0-0.0","45240721","wem/bandit_either_3","A1M7LS52Q27AHU","either","7","113","","","","","","","0","0","1","","0.4773941538","0.6","0.2","0.8","0.4","0.9015269718","0.4773941538","0.2003641109","0.8077127093","","","","","","","","","","","","74","J","1","","","118","main_expt",""
"","bandit","198","365144","0.0-159.0-0.0","45240721","wem/bandit_either_3","A1M7LS52Q27AHU","either","7","126","","","","","","","0","1","0","","0.508374463","0.6","0.2","0.8","0.4","0.8709738884","0.508374463","0.1375137305","0.8901108642","","","","","","","","","","","","74","J","1","","","119","main_expt",""
"","bandit","199","366765","0.0-160.0-0.0","45240721","wem/bandit_either_3","A1M7LS52Q27AHU","either","7","115","","","","","","","0","0","1","","0.4294310012","0.6","0.2","0.8","0.4","0.8268338002","0.4294310012","0.08656631556","0.8731124259","","","","","","","","","","","","74","J","1","","","120","main_expt",""
"","bandit","200","368394","0.0-161.0-0.0","45240721","wem/bandit_either_3","A1M7LS52Q27AHU","either","7","125","","","","","","","0","0","1","","0.3933985885","0.6","0.2","0.8","0.4","0.8432616236","0.3933985885","0.07812634859","0.8509174952","","","","","","","","","","","","74","J","1","","","121","main_expt",""
"","bandit","201","370017","0.0-162.0-0.0","45240721","wem/bandit_either_3","A1M7LS52Q27AHU","either","7","118","","","","","","","0","0","1","","0.2641409089","0.6","0.2","0.8","0.4","0.8128728295","0.2641409089","0.09046411854","0.8707856005","","","","","","","","","","","","74","J","1","","","122","main_expt",""
"","bandit","202","371641","0.0-163.0-0.0","45240721","wem/bandit_either_3","A1M7LS52Q27AHU","either","7","117","","","","","","","0","0","1","0.2491349268","","0.6","0.2","0.8","0.4","","","","","0.752198112","0.2491349268","0.1132512529","0.7592524618","","","","","","","","74","J","1","","","123","main_expt",""
"","bandit","203","373267","0.0-164.0-0.0","45240721","wem/bandit_either_3","A1M7LS52Q27AHU","either","7","118","","","","","","","0","0","1","","0.2587226179","0.6","0.2","0.8","0.4","0.7117781612","0.2587226179","0.09419269712","0.7330206325","","","","","","","","","","","","74","J","1","","","124","main_expt",""
"","bandit","204","374893","0.0-165.0-0.0","45240721","wem/bandit_either_3","A1M7LS52Q27AHU","either","7","123","","","","","","","0","1","0","","0.2925679814","0.6","0.2","0.8","0.4","0.7177409252","0.2925679814","0.110513045","0.6903693331","","","","","","","","","","","","74","J","1","","","125","main_expt",""
"","bandit","205","376516","0.0-166.0-0.0","45240721","wem/bandit_either_3","A1M7LS52Q27AHU","either","7","118","","","","","","","0","0","1","0.3997536411","","0.6","0.2","0.8","0.4","","","","","0.7240917845","0.3997536411","0.07088043536","0.6370641568","","","","","","","","74","J","1","","","126","main_expt",""
"","bandit","206","378144","0.0-167.0-0.0","45240721","wem/bandit_either_3","A1M7LS52Q27AHU","either","7","124","","","","","","","0","0","1","0.4120812041","","0.6","0.2","0.8","0.4","","","","","0.6788578752","0.4120812041","0.1041728595","0.6192694325","","","","","","","","74","J","1","","","127","main_expt",""
"","bandit","207","379766","0.0-168.0-0.0","45240721","wem/bandit_either_3","A1M7LS52Q27AHU","either","7","118","","","","","","","0","0","1","","0.3731276689","0.6","0.2","0.8","0.4","0.6257789885","0.3731276689","0.1006708935","0.559348281","","","","","","","","","","","","74","J","1","","","128","main_expt",""
"","bandit","208","381393","0.0-169.0-0.0","45240721","wem/bandit_either_3","A1M7LS52Q27AHU","either","7","123","","","","","","","0","0","1","","0.3263017501","0.6","0.2","0.8","0.4","0.4761868647","0.3263017501","0.1336488566","0.610360397","","","","","","","","","","","","74","J","1","","","129","main_expt",""
"","bandit","209","383015","0.0-170.0-0.0","45240721","wem/bandit_either_3","A1M7LS52Q27AHU","either","7","116","","","","","","","1","0","0","0.3226142564","","0.6","0.2","0.8","0.4","","","","","0.4745188583","0.3226142564","0.1271550391","0.5737783772","","","","","","","","74","J","1","","","130","main_expt",""
"","bandit","210","384642","0.0-171.0-0.0","45240721","wem/bandit_either_3","A1M7LS52Q27AHU","either","7","124","","","","","","","0","0","1","","0.3907136596","0.6","0.2","0.8","0.4","0.4674409752","0.3907136596","0.1594360192","0.6252154127","","","","","","","","","","","","74","J","1","","","131","main_expt",""
"","bandit","211","386265","0.0-172.0-0.0","45240721","wem/bandit_either_3","A1M7LS52Q27AHU","either","7","119","","","","","","","0","0","1","","0.4983036492","0.6","0.2","0.8","0.4","0.368649462","0.4983036492","0.1027658661","0.6473056352","","","","","","","","","","","","74","J","1","","","132","main_expt",""
"","bandit","212","387893","0.0-173.0-0.0","45240721","wem/bandit_either_3","A1M7LS52Q27AHU","either","7","124","","","","","","","0","1","0","","0.6347393695","0.6","0.2","0.8","0.4","0.4313577514","0.6347393695","0.1223548883","0.4595123468","","","","","","","","","","","","74","J","1","","","133","main_expt",""
"","bandit","213","389512","0.0-174.0-0.0","45240721","wem/bandit_either_3","A1M7LS52Q27AHU","either","7","114","","","","","","","0","0","1","","0.6037412299","0.6","0.2","0.8","0.4","0.3692150919","0.6037412299","0.1063029331","0.3043385566","","","","","","","","","","","","74","J","1","","","134","main_expt",""
"","bandit","214","391143","0.0-175.0-0.0","45240721","wem/bandit_either_3","A1M7LS52Q27AHU","either","7","127","","","","","","","0","0","1","","0.5511090861","0.6","0.2","0.8","0.4","0.3077662431","0.5511090861","0.080644856","0.340857567","","","","","","","","","","","","74","J","1","","","135","main_expt",""
"","bandit","215","392762","0.0-176.0-0.0","45240721","wem/bandit_either_3","A1M7LS52Q27AHU","either","7","113","","","","","","","1","0","0","0.585911414","","0.6","0.2","0.8","0.4","","","","","0.314969588","0.585911414","0.1359867045","0.2655810755","","","","","","","","74","J","1","","","136","main_expt",""
"","bandit","216","394394","0.0-177.0-0.0","45240721","wem/bandit_either_3","A1M7LS52Q27AHU","either","7","127","","","","","","","0","1","0","","0.5805905743","0.6","0.2","0.8","0.4","0.3590847215","0.5805905743","0.168344283","0.3025530854","","","","","","","","","","","","74","J","1","","","137","main_expt",""
"","bandit","217","396010","0.0-178.0-0.0","45240721","wem/bandit_either_3","A1M7LS52Q27AHU","either","7","112","","","","","","","0","0","1","","0.6357737786","0.6","0.2","0.8","0.4","0.3588584756","0.6357737786","0.1867455324","0.2888348812","","","","","","","","","","","","74","J","1","","","138","main_expt",""
"","bandit","218","397641","0.0-179.0-0.0","45240721","wem/bandit_either_3","A1M7LS52Q27AHU","either","7","127","","","","","","","0","1","0","","0.66639317","0.6","0.2","0.8","0.4","0.4289761638","0.66639317","0.2277874407","0.2463208975","","","","","","","","","","","","74","J","1","","","139","main_expt",""
"","bandit","219","399264","0.0-180.0-0.0","45240721","wem/bandit_either_3","A1M7LS52Q27AHU","either","7","116","","","","","","","0","0","1","","0.6365789307","0.6","0.2","0.8","0.4","0.3801639999","0.6365789307","0.2577820179","0.273109751","","","","","","","","","","","","74","J","1","","","140","main_expt",""
"","bandit","220","400894","0.0-181.0-0.0","45240721","wem/bandit_either_3","A1M7LS52Q27AHU","either","7","124","","","","","","","1","0","0","0.6045632144","","0.6","0.2","0.8","0.4","","","","","0.2445936549","0.6045632144","0.3674069736","0.3355442787","","","","","","","","74","J","1","","","141","main_expt",""
"","bandit","221","402511","0.0-182.0-0.0","45240721","wem/bandit_either_3","A1M7LS52Q27AHU","either","7","111","","","","","","","0","1","0","","0.5148607161","0.6","0.2","0.8","0.4","0.3394066497","0.5148607161","0.4345417514","0.2781999234","","","","","","","","","","","","74","J","1","","","142","main_expt",""
"","bandit","222","404143","0.0-183.0-0.0","45240721","wem/bandit_either_3","A1M7LS52Q27AHU","either","7","129","","","","","","","0","0","1","0.4754154836","","0.6","0.2","0.8","0.4","","","","","0.2899754881","0.4754154836","0.3811672827","0.2599467226","","","","","","","","74","J","1","","","143","main_expt",""
"","bandit","223","405765","0.0-184.0-0.0","45240721","wem/bandit_either_3","A1M7LS52Q27AHU","either","7","116","","","","","","","0","0","1","","0.516029258","0.6","0.2","0.8","0.4","0.3701332444","0.516029258","0.2754059391","0.2353144144","","","","","","","","","","","","74","J","1","","","144","main_expt",""
"","bandit","224","407385","0.0-185.0-0.0","45240721","wem/bandit_either_3","A1M7LS52Q27AHU","either","7","116","","","","","","","0","1","0","","0.6646605279","0.6","0.2","0.8","0.4","0.3322753171","0.6646605279","0.2773400324","0.2120114759","","","","","","","","","","","","74","J","1","","","145","main_expt",""
"","bandit","225","409017","0.0-186.0-0.0","45240721","wem/bandit_either_3","A1M7LS52Q27AHU","either","7","127","","","","","","","0","1","0","","0.6331546467","0.6","0.2","0.8","0.4","0.3203507811","0.6331546467","0.2780426824","0.176067728","","","","","","","","","","","","74","J","1","","","146","main_expt",""
"","bandit","226","410644","0.0-187.0-0.0","45240721","wem/bandit_either_3","A1M7LS52Q27AHU","either","7","123","","","","","","","1","0","0","0.6356747602","","0.6","0.2","0.8","0.4","","","","","0.304761248","0.6356747602","0.3373608721","0.1329453439","","","","","","","","74","J","1","","","147","main_expt",""
"","bandit","227","412464","0.0-188.0-0.0","45240721","wem/bandit_either_3","A1M7LS52Q27AHU","either","7","117","","","","","","","0","0","1","","0.6301772709","0.6","0.2","0.8","0.4","0.3809280674","0.6301772709","0.3529594122","0.1465103875","","","","","","","","","","","","74","J","1","","","148","main_expt",""
"","bandit","228","413969","0.0-189.0-0.0","45240721","wem/bandit_either_3","A1M7LS52Q27AHU","either","7","1","","","","","","","0","1","0","","0.6640591829","0.6","0.2","0.8","0.4","0.3997986218","0.6640591829","0.3878328211","0.1190451538","","","","","","","","","","","","74","J","1","","","149","main_expt",""
"","bandit","229","415511","0.0-190.0-0.0","45240721","wem/bandit_either_3","A1M7LS52Q27AHU","either","7","37","","","","","","","0","0","1","0.6592717552","","0.6","0.2","0.8","0.4","","","","","0.3159341416","0.6592717552","0.42943501","0.1195570164","","","","","","","","74","J","1","","","150","main_expt",""
"","bandit","230","417140","0.0-191.0-0.0","45240721","wem/bandit_either_3","A1M7LS52Q27AHU","either","7","125","","","","","","","0","0","1","0.5928743102","","0.6","0.2","0.8","0.4","","","","","0.3052853957","0.5928743102","0.5142681232","0.100492686","","","","","","","","74","J","1","","","151","main_expt",""
"","bandit","231","418760","0.0-192.0-0.0","45240721","wem/bandit_either_3","A1M7LS52Q27AHU","either","7","116","","","","","","","0","0","1","","0.6822187145","0.6","0.2","0.8","0.4","0.1896018403","0.6822187145","0.6321073962","0.1030367897","","","","","","","","","","","","74","J","1","","","152","main_expt",""
"","bandit","232","420392","0.0-193.0-0.0","45240721","wem/bandit_either_3","A1M7LS52Q27AHU","either","7","129","","","","","","","0","1","0","","0.6832005509","0.6","0.2","0.8","0.4","0.2439656658","0.6832005509","0.6965670792","0.2059045691","","","","","","","","","","","","74","J","1","","","153","main_expt",""
"","bandit","233","422012","0.0-194.0-0.0","45240721","wem/bandit_either_3","A1M7LS52Q27AHU","either","7","116","","","","","","","0","1","0","","0.7109729062","0.6","0.2","0.8","0.4","0.3068434149","0.7109729062","0.6516005735","0.2921647579","","","","","","","","","","","","74","J","1","","","154","main_expt",""
"","bandit","234","423643","0.0-195.0-0.0","45240721","wem/bandit_either_3","A1M7LS52Q27AHU","either","7","126","","","","","","","1","0","0","0.6975465092","","0.6","0.2","0.8","0.4","","","","","0.2314644909","0.6975465092","0.7291318088","0.1789694193","","","","","","","","74","J","1","","","155","main_expt",""
"","bandit","235","425269","0.0-196.0-0.0","45240721","wem/bandit_either_3","A1M7LS52Q27AHU","either","7","121","","","","","","","0","0","1","","0.6580608271","0.6","0.2","0.8","0.4","0.2154001061","0.6580608271","0.6273572288","0.2187195075","","","","","","","","","","","","74","J","1","","","156","main_expt",""
"","bandit","236","426890","0.0-197.0-0.0","45240721","wem/bandit_either_3","A1M7LS52Q27AHU","either","7","118","","","","","","","0","0","1","0.5695802138","","0.6","0.2","0.8","0.4","","","","","0.1648135251","0.5695802138","0.566197257","0.2669834713","","","","","","","","74","J","1","","","157","main_expt",""
"","bandit","237","428514","0.0-198.0-0.0","45240721","wem/bandit_either_3","A1M7LS52Q27AHU","either","7","119","","","","","","","0","0","1","0.4733954301","","0.6","0.2","0.8","0.4","","","","","0.2215973425","0.4733954301","0.4523642269","0.4240307821","","","","","","","","74","J","1","","","158","main_expt",""
"","bandit","238","430145","0.0-199.0-0.0","45240721","wem/bandit_either_3","A1M7LS52Q27AHU","either","7","126","","","","","","","0","0","1","","0.5619817243","0.6","0.2","0.8","0.4","0.2243274726","0.5619817243","0.3991212054","0.3840951437","","","","","","","","","","","","74","J","1","","","159","main_expt",""
"","bandit","239","431763","0.0-200.0-0.0","45240721","wem/bandit_either_3","A1M7LS52Q27AHU","either","7","115","","","","","","","0","1","0","","0.4701658979","0.6","0.2","0.8","0.4","0.2061161075","0.4701658979","0.3566558104","0.4098147986","","","","","","","","","","","","74","J","1","","","160","main_expt",""
"","bandit","240","433393","0.0-201.0-0.0","45240721","wem/bandit_either_3","A1M7LS52Q27AHU","either","7","124","","","","","","","0","0","1","","0.5673671472","0.6","0.2","0.8","0.4","0.209200141","0.5673671472","0.4430908041","0.4027252302","","","","","","","","","","","","74","J","1","","","161","main_expt",""
"","bandit","241","435014","0.0-202.0-0.0","45240721","wem/bandit_either_3","A1M7LS52Q27AHU","either","7","116","","","","","","","1","0","0","0.4921809208","","0.6","0.2","0.8","0.4","","","","","0.1477343718","0.4921809208","0.3966098285","0.3824170733","","","","","","","","74","J","1","","","162","main_expt",""
"","bandit","242","436639","0.0-203.0-0.0","45240721","wem/bandit_either_3","A1M7LS52Q27AHU","either","7","120","","","","","","","0","1","0","","0.4204505308","0.6","0.2","0.8","0.4","0.1525050104","0.4204505308","0.3455868331","0.3352280924","","","","","","","","","","","","74","J","1","","","163","main_expt",""
"","bandit","243","438263","0.0-204.0-0.0","45240721","wem/bandit_either_3","A1M7LS52Q27AHU","either","7","120","","","","","","","0","1","0","","0.534748173","0.6","0.2","0.8","0.4","0.08831047354","0.534748173","0.3368969945","0.3379187571","","","","","","","","","","","","74","J","1","","","164","main_expt",""
"","bandit","244","439893","0.0-205.0-0.0","45240721","wem/bandit_either_3","A1M7LS52Q27AHU","either","7","126","","","","","","","0","0","1","","0.4724966102","0.6","0.2","0.8","0.4","0.1035482763","0.4724966102","0.3767562303","0.3160546663","","","","","","","","","","","","74","J","1","","","165","main_expt",""
"","bandit","245","441697","0.0-206.0-0.0","45240721","wem/bandit_either_3","A1M7LS52Q27AHU","either","7","116","","","","","","","0","1","0","","0.5280505203","0.6","0.2","0.8","0.4","0.06888190676","0.5280505203","0.4727650462","0.3058359067","","","","","","","","","","","","74","J","1","","","166","main_expt",""
"","bandit","246","443204","0.0-207.0-0.0","45240721","wem/bandit_either_3","A1M7LS52Q27AHU","either","7","2","","","","","","","0","0","1","","0.589670135","0.6","0.2","0.8","0.4","0.06051452263","0.589670135","0.6140635231","0.2561334246","","","","","","","","","","","","74","J","1","","","167","main_expt",""
"","bandit","247","444762","0.0-208.0-0.0","45240721","wem/bandit_either_3","A1M7LS52Q27AHU","either","7","55","","","","","","","0","1","0","","0.5058201204","0.6","0.2","0.8","0.4","0.07905307949","0.5058201204","0.5629225295","0.2459084815","","","","","","","","","","","","74","J","1","","","168","main_expt",""
"","bandit","248","446388","0.0-209.0-0.0","45240721","wem/bandit_either_3","A1M7LS52Q27AHU","either","7","121","","","","","","","1","0","0","0.4102709571","","0.6","0.2","0.8","0.4","","","","","0.07051596905","0.4102709571","0.6456076899","0.2138460752","","","","","","","","74","J","1","","","169","main_expt",""
"","bandit","249","448014","0.0-210.0-0.0","45240721","wem/bandit_either_3","A1M7LS52Q27AHU","either","7","120","","","","","","","0","0","1","","0.5061826445","0.6","0.2","0.8","0.4","0.1056762318","0.5061826445","0.719827795","0.1642406351","","","","","","","","","","","","74","J","1","","","170","main_expt",""
"","bandit","250","449639","0.0-211.0-0.0","45240721","wem/bandit_either_3","A1M7LS52Q27AHU","either","7","120","","","","","","","0","0","1","","0.6092158501","0.6","0.2","0.8","0.4","0.1513980822","0.6092158501","0.6716280274","0.2337150112","","","","","","","","","","","","74","J","1","","","171","main_expt",""
"","bandit","251","451262","0.0-212.0-0.0","45240721","wem/bandit_either_3","A1M7LS52Q27AHU","either","7","120","","","","","","","0","1","0","","0.691496366","0.6","0.2","0.8","0.4","0.1552293495","0.691496366","0.5683226388","0.3128682212","","","","","","","","","","","","74","J","1","","","172","main_expt",""
"","bandit","252","452886","0.0-213.0-0.0","45240721","wem/bandit_either_3","A1M7LS52Q27AHU","either","7","120","","","","","","","0","1","0","","0.7402253768","0.6","0.2","0.8","0.4","0.1325975083","0.7402253768","0.4581357746","0.2775517843","","","","","","","","","","","","74","J","1","","","173","main_expt",""
"","bandit","253","454519","0.0-214.0-0.0","45240721","wem/bandit_either_3","A1M7LS52Q27AHU","either","7","129","","","","","","","0","1","0","","0.6601004511","0.6","0.2","0.8","0.4","0.09024892351","0.6601004511","0.5903479164","0.4159305855","","","","","","","","","","","","74","J","1","","","174","main_expt",""
"","bandit","254","456142","0.0-215.0-0.0","45240721","wem/bandit_either_3","A1M7LS52Q27AHU","either","7","119","","","","","","","1","0","0","0.6781732273","","0.6","0.2","0.8","0.4","","","","","0.06963745108","0.6781732273","0.5658285383","0.4471770837","","","","","","","","74","J","1","","","175","main_expt",""
"","bandit","255","457760","0.0-216.0-0.0","45240721","wem/bandit_either_3","A1M7LS52Q27AHU","either","7","114","","","","","","","0","0","1","","0.6932650799","0.6","0.2","0.8","0.4","0.07897043431","0.6932650799","0.5313506173","0.5162211083","","","","","","","","","","","","74","J","1","","","176","main_expt",""
"","bandit","256","459390","0.0-217.0-0.0","45240721","wem/bandit_either_3","A1M7LS52Q27AHU","either","7","125","","","","","","","0","1","0","","0.6803850572","0.6","0.2","0.8","0.4","0.09469685393","0.6803850572","0.4231289234","0.6372676231","","","","","","","","","","","","74","J","1","","","177","main_expt",""
"","bandit","257","461013","0.0-218.0-0.0","45240721","wem/bandit_either_3","A1M7LS52Q27AHU","either","7","117","","","","","","","0","1","0","","0.5407017663","0.6","0.2","0.8","0.4","0.1486386852","0.5407017663","0.580807006","0.6295749113","","","","","","","","","","","","74","J","1","","","178","main_expt",""
"","bandit","258","462637","0.0-219.0-0.0","45240721","wem/bandit_either_3","A1M7LS52Q27AHU","either","7","118","","","","","","","1","0","0","0.5931576708","","0.6","0.2","0.8","0.4","","","","","0.1965095934","0.5931576708","0.5499948007","0.4126066341","","","","","","","","74","J","1","","","179","main_expt",""
"","bandit","259","464264","0.0-220.0-0.0","45240721","wem/bandit_either_3","A1M7LS52Q27AHU","either","7","121","","","","","","","0","1","0","","0.5390819372","0.6","0.2","0.8","0.4","0.1749048096","0.5390819372","0.4918200669","0.516991344","","","","","","","","","","","","74","J","1","","","180","main_expt",""
"","bandit","260","465894","0.0-221.0-0.0","45240721","wem/bandit_either_3","A1M7LS52Q27AHU","either","7","126","","","","","","","0","0","1","0.4929910299","","0.6","0.2","0.8","0.4","","","","","0.232896561","0.4929910299","0.5428702931","0.4239603033","","","","","","","","74","J","1","","","181","main_expt",""
"","bandit","261","467512","0.0-222.0-0.0","45240721","wem/bandit_either_3","A1M7LS52Q27AHU","either","7","114","","","","","","","0","0","1","","0.458433212","0.6","0.2","0.8","0.4","0.2561822725","0.458433212","0.5870547156","0.3961891141","","","","","","","","","","","","74","J","1","","","182","main_expt",""
"","bandit","262","469144","0.0-223.0-0.0","45240721","wem/bandit_either_3","A1M7LS52Q27AHU","either","7","127","","","","","","","0","0","1","","0.5725449786","0.6","0.2","0.8","0.4","0.2713883962","0.5725449786","0.5031908535","0.4364601233","","","","","","","","","","","","74","J","1","","","183","main_expt",""
"","bandit","263","470763","0.0-224.0-0.0","45240721","wem/bandit_either_3","A1M7LS52Q27AHU","either","7","114","","","","","","","0","0","1","","0.4878383732","0.6","0.2","0.8","0.4","0.3543557679","0.4878383732","0.4239978994","0.4826964198","","","","","","","","","","","","74","J","1","","","184","main_expt",""
"","bandit","264","472388","0.0-225.0-0.0","45240721","wem/bandit_either_3","A1M7LS52Q27AHU","either","7","119","","","","","","","0","0","1","","0.5189350158","0.6","0.2","0.8","0.4","0.2974533566","0.5189350158","0.3425545299","0.4448789548","","","","","","","","","","","","74","J","1","","","185","main_expt",""
"","bandit","265","474015","0.0-226.0-0.0","45240721","wem/bandit_either_3","A1M7LS52Q27AHU","either","7","121","","","","","","","0","1","0","","0.4310300585","0.6","0.2","0.8","0.4","0.3295130888","0.4310300585","0.2594221554","0.4585835861","","","","","","","","","","","","74","J","1","","","186","main_expt",""
"","bandit","266","475644","0.0-227.0-0.0","45240721","wem/bandit_either_3","A1M7LS52Q27AHU","either","7","124","","","","","","","0","0","1","","0.4005994516","0.6","0.2","0.8","0.4","0.3440574025","0.4005994516","0.350747246","0.5470412386","","","","","","","","","","","","74","J","1","","","187","main_expt",""
"","bandit","267","477263","0.0-228.0-0.0","45240721","wem/bandit_either_3","A1M7LS52Q27AHU","either","7","114","","","","","","","0","1","0","","0.5684333967","0.6","0.2","0.8","0.4","0.3176863717","0.5684333967","0.3667816541","0.5485419855","","","","","","","","","","","","74","J","1","","","188","main_expt",""
"","bandit","268","478894","0.0-229.0-0.0","45240721","wem/bandit_either_3","A1M7LS52Q27AHU","either","7","126","","","","","","","0","1","0","","0.5768443477","0.6","0.2","0.8","0.4","0.3194332301","0.5768443477","0.3129240978","0.6161015427","","","","","","","","","","","","74","J","1","","","189","main_expt",""
"","bandit","269","480514","0.0-230.0-0.0","45240721","wem/bandit_either_3","A1M7LS52Q27AHU","either","7","114","","","","","","","0","1","0","","0.6091254975","0.6","0.2","0.8","0.4","0.3585260795","0.6091254975","0.3681084497","0.5145576236","","","","","","","","","","","","74","J","1","","","190","main_expt",""
"","bandit","270","482142","0.0-231.0-0.0","45240721","wem/bandit_either_3","A1M7LS52Q27AHU","either","7","123","","","","","","","1","0","0","0.6355225437","","0.6","0.2","0.8","0.4","","","","","0.4438822556","0.6355225437","0.3284994938","0.4447609651","","","","","","","","74","J","1","","","191","main_expt",""
"","bandit","271","483764","0.0-232.0-0.0","45240721","wem/bandit_either_3","A1M7LS52Q27AHU","either","7","116","","","","","","","0","1","0","","0.7449996868","0.6","0.2","0.8","0.4","0.6336907385","0.7449996868","0.2913335268","0.4273979598","","","","","","","","","","","","74","J","1","","","192","main_expt",""
"","bandit","272","485390","0.0-233.0-0.0","45240721","wem/bandit_either_3","A1M7LS52Q27AHU","either","7","121","","","","","","","0","0","1","","0.7645281636","0.6","0.2","0.8","0.4","0.5871300795","0.7645281636","0.3614904019","0.4382354048","","","","","","","","","","","","74","J","1","","","193","main_expt",""
"","bandit","273","487012","0.0-234.0-0.0","45240721","wem/bandit_either_3","A1M7LS52Q27AHU","either","7","118","","","","","","","0","0","1","0.7417458559","","0.6","0.2","0.8","0.4","","","","","0.5919999684","0.7417458559","0.4180963095","0.4367950698","","","","","","","","74","J","1","","","194","main_expt",""
"","bandit","274","488642","0.0-235.0-0.0","45240721","wem/bandit_either_3","A1M7LS52Q27AHU","either","7","126","","","","","","","1","0","0","0.7102393491","","0.6","0.2","0.8","0.4","","","","","0.5599221581","0.7102393491","0.4129416526","0.4306922929","","","","","","","","74","J","1","","","195","main_expt",""
"","bandit","275","490263","0.0-236.0-0.0","45240721","wem/bandit_either_3","A1M7LS52Q27AHU","either","7","116","","","","","","","0","1","0","","0.6846894693","0.6","0.2","0.8","0.4","0.4552797342","0.6846894693","0.6027995291","0.4436260943","","","","","","","","","","","","74","J","1","","","196","main_expt",""
"","bandit","276","491889","0.0-237.0-0.0","45240721","wem/bandit_either_3","A1M7LS52Q27AHU","either","7","122","","","","","","","0","0","1","0.6573901597","","0.6","0.2","0.8","0.4","","","","","0.3045440077","0.6573901597","0.6174547511","0.4547077395","","","","","","","","74","J","1","","","197","main_expt",""
"","bandit","277","493515","0.0-238.0-0.0","45240721","wem/bandit_either_3","A1M7LS52Q27AHU","either","7","119","","","","","","","0","1","0","","0.7020762336","0.6","0.2","0.8","0.4","0.4061180554","0.7020762336","0.5727893511","0.545148617","","","","","","","","","","","","74","J","1","","","198","main_expt",""
"","bandit","278","495141","0.0-239.0-0.0","45240721","wem/bandit_either_3","A1M7LS52Q27AHU","either","7","121","","","","","","","1","0","0","0.7749867965","","0.6","0.2","0.8","0.4","","","","","0.3406873398","0.7749867965","0.5803616598","0.5838562778","","","","","","","","74","J","1","","","199","main_expt",""
"","bandit","279","496763","0.0-240.0-0.0","45240721","wem/bandit_either_3","A1M7LS52Q27AHU","either","7","118","","","","","","","0","1","0","","0.7971262248","0.6","0.2","0.8","0.4","0.2810551981","0.7971262248","0.5109940584","0.6569131065","","","","","","","","","","","","74","J","1","","","200","main_expt",""
"","bandit","280","498393","0.0-241.0-0.0","45240721","wem/bandit_either_3","A1M7LS52Q27AHU","either","7","125","","","","","","","0","0","1","","0.6431063495","0.6","0.2","0.8","0.4","0.2295892347","0.6431063495","0.444158281","0.6559739125","","","","","","","","","","","","74","J","1","","","201","main_expt",""
"","bandit","281","500015","0.0-242.0-0.0","45240721","wem/bandit_either_3","A1M7LS52Q27AHU","either","7","116","","","","","","","0","0","1","0.6153479028","","0.6","0.2","0.8","0.4","","","","","0.2134833186","0.6153479028","0.3774362348","0.5940698896","","","","","","","","74","J","1","","","202","main_expt",""
"","bandit","282","501636","0.0-243.0-0.0","45240721","wem/bandit_either_3","A1M7LS52Q27AHU","either","7","115","","","","","","","0","0","1","","0.6107921693","0.6","0.2","0.8","0.4","0.1538434825","0.6107921693","0.2852638898","0.6288005559","","","","","","","","","","","","74","J","1","","","203","main_expt",""
"","bandit","283","503264","0.0-244.0-0.0","45240721","wem/bandit_either_3","A1M7LS52Q27AHU","either","7","123","","","","","","","0","1","0","","0.6364312764","0.6","0.2","0.8","0.4","0.08629221539","0.6364312764","0.3900316507","0.7483345684","","","","","","","","","","","","74","J","1","","","204","main_expt",""
"","bandit","284","504894","0.0-245.0-0.0","45240721","wem/bandit_either_3","A1M7LS52Q27AHU","either","7","123","","","","","","","0","1","0","","0.7098325313","0.6","0.2","0.8","0.4","0.1303029892","0.7098325313","0.3334674042","0.7823609999","","","","","","","","","","","","74","J","1","","","205","main_expt",""
"","bandit","285","506516","0.0-246.0-0.0","45240721","wem/bandit_either_3","A1M7LS52Q27AHU","either","7","118","","","","","","","0","0","1","","0.6423198407","0.6","0.2","0.8","0.4","0.1290793888","0.6423198407","0.3997779834","0.7053347691","","","","","","","","","","","","74","J","1","","","206","main_expt",""
"","bandit","286","508135","0.0-247.0-0.0","45240721","wem/bandit_either_3","A1M7LS52Q27AHU","either","7","115","","","","","","","0","1","0","","0.7196337679","0.6","0.2","0.8","0.4","0.1471003053","0.7196337679","0.2791746034","0.692958529","","","","","","","","","","","","74","J","1","","","207","main_expt",""
"","bandit","287","509767","0.0-248.0-0.0","45240721","wem/bandit_either_3","A1M7LS52Q27AHU","either","7","128","","","","","","","0","1","0","","0.7273253538","0.6","0.2","0.8","0.4","0.1204476287","0.7273253538","0.3447420344","0.5726600787","","","","","","","","","","","","74","J","1","","","208","main_expt",""
"","bandit","288","511394","0.0-249.0-0.0","45240721","wem/bandit_either_3","A1M7LS52Q27AHU","either","7","121","","","","","","","0","1","0","","0.7701678217","0.6","0.2","0.8","0.4","0.1752658923","0.7701678217","0.2106944101","0.7193759884","","","","","","","","","","","","74","J","1","","","209","main_expt",""
"","bandit","289","513015","0.0-250.0-0.0","45240721","wem/bandit_either_3","A1M7LS52Q27AHU","either","7","115","","","","","","","0","1","0","","0.7673062315","0.6","0.2","0.8","0.4","0.2071456167","0.7673062315","0.2609791638","0.5469619257","","","","","","","","","","","","74","J","1","","","210","main_expt",""
"","bandit","290","514644","0.0-251.0-0.0","45240721","wem/bandit_either_3","A1M7LS52Q27AHU","either","7","123","","","","","","","0","1","0","","0.7733207599","0.6","0.2","0.8","0.4","0.1982577311","0.7733207599","0.3702243554","0.5432746348","","","","","","","","","","","","74","J","1","","","211","main_expt",""
"","bandit","291","516264","0.0-252.0-0.0","45240721","wem/bandit_either_3","A1M7LS52Q27AHU","either","7","116","","","","","","","0","1","0","","0.7176010575","0.6","0.2","0.8","0.4","0.2837026457","0.7176010575","0.4070014152","0.4857525371","","","","","","","","","","","","74","J","1","","","212","main_expt",""
"","bandit","292","517894","0.0-253.0-0.0","45240721","wem/bandit_either_3","A1M7LS52Q27AHU","either","7","124","","","","","","","0","1","0","","0.7241732444","0.6","0.2","0.8","0.4","0.2192955177","0.7241732444","0.5001351259","0.4416723402","","","","","","","","","","","","74","J","1","","","213","main_expt",""
"","bandit","293","519518","0.0-254.0-0.0","45240721","wem/bandit_either_3","A1M7LS52Q27AHU","either","7","120","","","","","","","0","1","0","","0.6696022014","0.6","0.2","0.8","0.4","0.2885853396","0.6696022014","0.5667049056","0.4231083207","","","","","","","","","","","","74","J","1","","","214","main_expt",""
"","bandit","294","521145","0.0-255.0-0.0","45240721","wem/bandit_either_3","A1M7LS52Q27AHU","either","7","120","","","","","","","0","1","0","","0.6255990046","0.6","0.2","0.8","0.4","0.2451296471","0.6255990046","0.5259574602","0.329019478","","","","","","","","","","","","74","J","1","","","215","main_expt",""
"","bandit","295","522761","0.0-256.0-0.0","45240721","wem/bandit_either_3","A1M7LS52Q27AHU","either","7","111","","","","","","","0","0","1","","0.6771362935","0.6","0.2","0.8","0.4","0.1946790852","0.6771362935","0.5468860011","0.3469743373","","","","","","","","","","","","74","J","1","","","216","main_expt",""
"","bandit","296","524393","0.0-257.0-0.0","45240721","wem/bandit_either_3","A1M7LS52Q27AHU","either","7","128","","","","","","","1","0","0","0.6918953154","","0.6","0.2","0.8","0.4","","","","","0.2497229096","0.6918953154","0.6182745027","0.3618740044","","","","","","","","74","J","1","","","217","main_expt",""
"","bandit","297","526020","0.0-258.0-0.0","45240721","wem/bandit_either_3","A1M7LS52Q27AHU","either","7","120","","","","","","","0","1","0","","0.5726390237","0.6","0.2","0.8","0.4","0.3076421025","0.5726390237","0.5979125128","0.3574217595","","","","","","","","","","","","74","J","1","","","218","main_expt",""
"","bandit","298","527642","0.0-259.0-0.0","45240721","wem/bandit_either_3","A1M7LS52Q27AHU","either","7","118","","","","","","","0","0","1","","0.5179196303","0.6","0.2","0.8","0.4","0.3488941347","0.5179196303","0.5321687475","0.3862686792","","","","","","","","","","","","74","J","1","","","219","main_expt",""
"","bandit","299","529261","0.0-260.0-0.0","45240721","wem/bandit_either_3","A1M7LS52Q27AHU","either","7","114","","","","","","","1","0","0","0.5578222379","","0.6","0.2","0.8","0.4","","","","","0.306784001","0.5578222379","0.6053830099","0.4432846828","","","","","","","","74","J","1","","","220","main_expt",""
"","bandit","300","530885","0.0-261.0-0.0","45240721","wem/bandit_either_3","A1M7LS52Q27AHU","either","7","118","","","","","","","0","1","0","","0.6640911266","0.6","0.2","0.8","0.4","0.3786925452","0.6640911266","0.69383498","0.432499938","","","","","","","","","","","","74","J","1","","","221","main_expt",""
"","bandit","301","532514","0.0-262.0-0.0","45240721","wem/bandit_either_3","A1M7LS52Q27AHU","either","7","122","","","","","","","0","0","1","","0.7340686256","0.6","0.2","0.8","0.4","0.5014801557","0.7340686256","0.783375317","0.4050903391","","","","","","","","","","","","74","J","1","","","222","main_expt",""
"","bandit","302","534142","0.0-263.0-0.0","45240721","wem/bandit_either_3","A1M7LS52Q27AHU","either","7","123","","","","","","","0","1","0","","0.852862777","0.6","0.2","0.8","0.4","0.4081704387","0.852862777","0.8374489269","0.3282593462","","","","","","","","","","","","74","J","1","","","223","main_expt",""
"","bandit","303","535759","0.0-264.0-0.0","45240721","wem/bandit_either_3","A1M7LS52Q27AHU","either","7","112","","","","","","","1","0","0","0.7830506485","","0.6","0.2","0.8","0.4","","","","","0.422296693","0.7830506485","0.7801262993","0.2465370002","","","","","","","","74","J","1","","","224","main_expt",""
"","bandit","304","537390","0.0-265.0-0.0","45240721","wem/bandit_either_3","A1M7LS52Q27AHU","either","7","126","","","","","","","0","1","0","","0.7447555501","0.6","0.2","0.8","0.4","0.3998144739","0.7447555501","0.7438235551","0.2260872052","","","","","","","","","","","","74","J","1","","","225","main_expt",""
"","bandit","305","539014","0.0-266.0-0.0","45240721","wem/bandit_either_3","A1M7LS52Q27AHU","either","7","118","","","","","","","0","1","0","","0.7331719472","0.6","0.2","0.8","0.4","0.2692780115","0.7331719472","0.7561714458","0.2573895518","","","","","","","","","","","","74","J","1","","","226","main_expt",""
"","bandit","306","540643","0.0-267.0-0.0","45240721","wem/bandit_either_3","A1M7LS52Q27AHU","either","7","123","","","","","","","1","0","0","0.6417259928","","0.6","0.2","0.8","0.4","","","","","0.268728261","0.6417259928","0.7527106072","0.2134597582","","","","","","","","74","J","1","","","227","main_expt",""
"","bandit","307","542259","0.0-268.0-0.0","45240721","wem/bandit_either_3","A1M7LS52Q27AHU","either","7","112","","","","","","","0","0","1","","0.6050549784","0.6","0.2","0.8","0.4","0.2211951924","0.6050549784","0.6315627418","0.348479141","","","","","","","","","","","","74","J","1","","","228","main_expt",""
"","bandit","308","543892","0.0-269.0-0.0","45240721","wem/bandit_either_3","A1M7LS52Q27AHU","either","7","127","","","","","","","0","0","1","","0.5962230341","0.6","0.2","0.8","0.4","0.219241791","0.5962230341","0.5564086662","0.3250735223","","","","","","","","","","","","74","J","1","","","229","main_expt",""
"","bandit","309","545513","0.0-270.0-0.0","45240721","wem/bandit_either_3","A1M7LS52Q27AHU","either","7","117","","","","","","","0","1","0","","0.5594933722","0.6","0.2","0.8","0.4","0.291585141","0.5594933722","0.5895813861","0.3395219718","","","","","","","","","","","","74","J","1","","","230","main_expt",""
"","bandit","310","547143","0.0-271.0-0.0","45240721","wem/bandit_either_3","A1M7LS52Q27AHU","either","7","123","","","","","","","0","1","0","","0.6411036761","0.6","0.2","0.8","0.4","0.2754541949","0.6411036761","0.6148213975","0.3315483329","","","","","","","","","","","","74","J","1","","","231","main_expt",""
"","bandit","311","548760","0.0-272.0-0.0","45240721","wem/bandit_either_3","A1M7LS52Q27AHU","either","7","112","","","","","","","0","1","0","","0.6653930637","0.6","0.2","0.8","0.4","0.3055336503","0.6653930637","0.5176988489","0.3876030756","","","","","","","","","","","","74","J","1","","","232","main_expt",""
"","bandit","312","550393","0.0-273.0-0.0","45240721","wem/bandit_either_3","A1M7LS52Q27AHU","either","7","127","","","","","","","0","1","0","","0.5426719569","0.6","0.2","0.8","0.4","0.3390100853","0.5426719569","0.4505666118","0.3696248546","","","","","","","","","","","","74","J","1","","","233","main_expt",""
"","bandit","313","552011","0.0-274.0-0.0","45240721","wem/bandit_either_3","A1M7LS52Q27AHU","either","7","113","","","","","","","0","1","0","","0.5581360181","0.6","0.2","0.8","0.4","0.3165323161","0.5581360181","0.4393496879","0.3927474605","","","","","","","","","","","","74","J","1","","","234","main_expt",""
"","bandit","314","553642","0.0-275.0-0.0","45240721","wem/bandit_either_3","A1M7LS52Q27AHU","either","7","126","","","","","","","0","0","1","","0.5299247183","0.6","0.2","0.8","0.4","0.2944333127","0.5299247183","0.3542725407","0.4734072524","","","","","","","","","","","","74","J","1","","","235","main_expt",""
"","bandit","315","555266","0.0-276.0-0.0","45240721","wem/bandit_either_3","A1M7LS52Q27AHU","either","7","119","","","","","","","1","0","0","0.4709954077","","0.6","0.2","0.8","0.4","","","","","0.4127469632","0.4709954077","0.452511288","0.5857320117","","","","","","","","74","J","1","","","236","main_expt",""
"","bandit","316","556891","0.0-277.0-0.0","45240721","wem/bandit_either_3","A1M7LS52Q27AHU","either","7","118","","","","","","","0","1","0","","0.4171051322","0.6","0.2","0.8","0.4","0.4353664578","0.4171051322","0.4743784035","0.5208556897","","","","","","","","","","","","74","J","1","","","237","main_expt",""
"","bandit","317","558513","0.0-278.0-0.0","45240721","wem/bandit_either_3","A1M7LS52Q27AHU","either","7","116","","","","","","","0","0","1","","0.40722148","0.6","0.2","0.8","0.4","0.3871798792","0.40722148","0.4666998134","0.4551370454","","","","","","","","","","","","74","J","1","","","238","main_expt",""
"","bandit","318","560510","0.0-279.0-0.0","45240721","wem/bandit_either_3","A1M7LS52Q27AHU","either","7","119","","","","","","","0","0","1","","0.3113271407","0.6","0.2","0.8","0.4","0.3244704863","0.3113271407","0.4916456171","0.2979137516","","","","","","","","","","","","74","J","1","","","239","main_expt",""
"","bandit","319","562174","0.0-280.0-0.0","45240721","wem/bandit_either_3","A1M7LS52Q27AHU","either","7","157","","","","","","","0","0","1","","0.2505753432","0.6","0.2","0.8","0.4","0.3606581002","0.2505753432","0.7128417261","0.2453134511","","","","","","","","","","","","74","J","1","","","240","main_expt",""
"","bandit","320","563792","0.0-281.0-0.0","45240721","wem/bandit_either_3","A1M7LS52Q27AHU","either","7","113","","","","","","","0","0","1","","0.2015136922","0.6","0.2","0.8","0.4","0.3524522155","0.2015136922","0.7711562233","0.1984184333","","","","","","","","","","","","74","J","1","","","241","main_expt",""
"","bandit","321","565423","0.0-282.0-0.0","45240721","wem/bandit_either_3","A1M7LS52Q27AHU","either","7","124","","","","","","","0","0","1","0.2405045743","","0.6","0.2","0.8","0.4","","","","","0.3677191248","0.2405045743","0.7503869254","0.35553679","","","","","","","","74","J","1","","","242","main_expt",""
"","bandit","322","567040","0.0-283.0-0.0","45240721","wem/bandit_either_3","A1M7LS52Q27AHU","either","7","112","","","","","","","0","1","0","","0.2458255622","0.6","0.2","0.8","0.4","0.2524844898","0.2458255622","0.6345316327","0.3153476176","","","","","","","","","","","","74","J","1","","","243","main_expt",""
"","bandit","323","568673","0.0-284.0-0.0","45240721","wem/bandit_either_3","A1M7LS52Q27AHU","either","7","126","","","","","","","0","0","1","0.3958019263","","0.6","0.2","0.8","0.4","","","","","0.2870953983","0.3958019263","0.6330191047","0.2733658223","","","","","","","","74","J","1","","","244","main_expt",""
"","bandit","324","570293","0.0-285.0-0.0","45240721","wem/bandit_either_3","A1M7LS52Q27AHU","either","7","114","","","","","","","0","0","1","","0.3463698993","0.6","0.2","0.8","0.4","0.3392553197","0.3463698993","0.6219736313","0.3496419154","","","","","","","","","","","","74","J","1","","","245","main_expt",""
"","bandit","325","571917","0.0-286.0-0.0","45240721","wem/bandit_either_3","A1M7LS52Q27AHU","either","7","120","","","","","","","0","0","1","","0.2897199721","0.6","0.2","0.8","0.4","0.3836850971","0.2897199721","0.633799682","0.4179672116","","","","","","","","","","","","74","J","1","","","246","main_expt",""
"","bandit","326","573768","0.0-287.0-0.0","45240721","wem/bandit_either_3","A1M7LS52Q27AHU","either","7","118","","","","","","","0","0","1","","0.30250488","0.6","0.2","0.8","0.4","0.356061442","0.30250488","0.6297768441","0.4571732286","","","","","","","","","","","","74","J","1","","","247","main_expt",""
"","bandit","327","575275","0.0-288.0-0.0","45240721","wem/bandit_either_3","A1M7LS52Q27AHU","either","7","1","","","","","","","0","0","1","0.5379817368","","0.6","0.2","0.8","0.4","","","","","0.3643509216","0.2620648495","0.5379817368","0.4981095473","","","","","","","","75","K","2","","","248","main_expt",""
"","bandit","328","576793","0.0-289.0-0.0","45240721","wem/bandit_either_3","A1M7LS52Q27AHU","either","7","12","","","","","","","0","0","1","","0.2306577203","0.6","0.2","0.8","0.4","0.3485819937","0.2306577203","0.5809888595","0.4041623538","","","","","","","","","","","","74","J","1","","","249","main_expt",""
