"consent","trial_type","trial_index","time_elapsed","internal_node_id","subjID","study","MID","cond","drift","rt","responses","key_press","expt_phase","like","value","connected","gems","bombs","no_reward","GemPrChosen","BombPrChosen","GainOverPainPr_0","GainOverPainPr_1","GainOverPainPr_2","GainOverPainPr_3","LosePr_0","LosePr_1","LosePr_2","LosePr_3","WinPr_0","WinPr_1","WinPr_2","WinPr_3","Q0","Q1","Q2","gender","age","ethnicity","target","respCharCode","respKey","respChoiceNum","respChoice","practice","trial_counter","trial_label","button_pressed"
"INL_behavioral_consent_30min_online.html","consent","0","11208","0.0-0.0","45342121","wem/bandit_either_3","A14ADQ7RUN6TDY","either","2","","","","","","","","","","","","","","","","","","","","","","","","","","","","","","","","","","","","","","",""
"","survey-text","1","20274","0.0-1.0","45342121","wem/bandit_either_3","A14ADQ7RUN6TDY","either","2","8057","{""Q0"":""A14ADQ7RUN6TDY""}","","","","","","","","","","","","","","","","","","","","","","","","","","","","","","","","","","","","",""
"","text","2","38275","0.0-2.0","45342121","wem/bandit_either_3","A14ADQ7RUN6TDY","either","2","16998","","32","","","","","","","","","","","","","","","","","","","","","","","","","","","","","","","","","","","",""
"","text","3","44504","0.0-3.0","45342121","wem/bandit_either_3","A14ADQ7RUN6TDY","either","2","6228","","32","","","","","","","","","","","","","","","","","","","","","","","","","","","","","","","","","","","",""
"","text","4","74009","0.0-4.0","45342121","wem/bandit_either_3","A14ADQ7RUN6TDY","either","2","29503","","32","","","","","","","","","","","","","","","","","","","","","","","","","","","","","","","","","","","",""
"","text","5","97592","0.0-5.0","45342121","wem/bandit_either_3","A14ADQ7RUN6TDY","either","2","23582","","32","","","","","","","","","","","","","","","","","","","","","","","","","","","","","","","","","","","",""
"","text","6","115872","0.0-6.0","45342121","wem/bandit_either_3","A14ADQ7RUN6TDY","either","2","18278","","32","","","","","","","","","","","","","","","","","","","","","","","","","","","","","","","","","","","",""
"","text","7","135448","0.0-7.0","45342121","wem/bandit_either_3","A14ADQ7RUN6TDY","either","2","19575","","32","","","","","","","","","","","","","","","","","","","","","","","","","","","","","","","","","","","",""
"","text","8","141159","0.0-8.0","45342121","wem/bandit_either_3","A14ADQ7RUN6TDY","either","2","5709","","32","","","","","","","","","","","","","","","","","","","","","","","","","","","","","","","","","","","",""
"","identification","9","174106","0.0-9.0-0.0","45342121","wem/bandit_either_3","A14ADQ7RUN6TDY","either","2","32928","","","","1","2","0","","","","","","","","","","","","","","","","","","","","","","","","the village of Zur","","","","","","","",""
"","identification","10","180471","0.0-9.0-1.0","45342121","wem/bandit_either_3","A14ADQ7RUN6TDY","either","2","5355","","","","3","3","3","","","","","","","","","","","","","","","","","","","","","","","","the village of Nyx","","","","","","","",""
"","text","11","187664","0.0-10.0","45342121","wem/bandit_either_3","A14ADQ7RUN6TDY","either","2","6190","","32","","","","","","","","","","","","","","","","","","","","","","","","","","","","","","","","","","","",""
"","text","12","190103","0.0-11.0","45342121","wem/bandit_either_3","A14ADQ7RUN6TDY","either","2","2438","","32","","","","","","","","","","","","","","","","","","","","","","","","","","","","","","","","","","","",""
"","text","13","193110","0.0-12.0","45342121","wem/bandit_either_3","A14ADQ7RUN6TDY","either","2","3006","","32","","","","","","","","","","","","","","","","","","","","","","","","","","","","","","","","","","","",""
"","text","14","199679","0.0-13.0","45342121","wem/bandit_either_3","A14ADQ7RUN6TDY","either","2","6567","","32","","","","","","","","","","","","","","","","","","","","","","","","","","","","","","","","","","","",""
"","bandit","15","206094","0.0-14.0-0.0","45342121","wem/bandit_either_3","A14ADQ7RUN6TDY","either","2","4906","","","","","","","0","0","1","0","0","","","","","0","","","","0","","","","","","","","","","","74","J","0","img/none_selected_demo.jpg","true","0","",""
"","bandit","16","209477","0.0-15.0-0.0","45342121","wem/bandit_either_3","A14ADQ7RUN6TDY","either","2","1877","","","","","","","0","0","1","0","0","","","","","0","","","","0","","","","","","","","","","","75","K","0","img/none_selected_demo.jpg","true","0","",""
"","text","17","222591","0.0-16.0","45342121","wem/bandit_either_3","A14ADQ7RUN6TDY","either","2","13112","","32","","","","","","","","","","","","","","","","","","","","","","","","","","","","","","","","","","","",""
"","text","18","234023","0.0-17.0","45342121","wem/bandit_either_3","A14ADQ7RUN6TDY","either","2","11430","","32","","","","","","","","","","","","","","","","","","","","","","","","","","","","","","","","","","","",""
"","text","19","241101","0.0-18.0","45342121","wem/bandit_either_3","A14ADQ7RUN6TDY","either","2","7077","","32","","","","","","","","","","","","","","","","","","","","","","","","","","","","","","","","","","","",""
"","text","20","247471","0.0-19.0","45342121","wem/bandit_either_3","A14ADQ7RUN6TDY","either","2","6369","","32","","","","","","","","","","","","","","","","","","","","","","","","","","","","","","","","","","","",""
"","bandit","21","250357","0.0-20.0-0.0","45342121","wem/bandit_either_3","A14ADQ7RUN6TDY","either","2","1379","","","","","","","0","1","0","","0.8","0.5","0.5","","","0.8","0.2","","","","","","","","","","","","","","74","J","0","img/none_selected_demo.jpg","true","0","80_20_practice",""
"","bandit","22","253940","0.0-20.0-1.0","45342121","wem/bandit_either_3","A14ADQ7RUN6TDY","either","2","2077","","","","","","","0","1","0","","0.8","0.5","0.5","","","0.8","0.2","","","","","","","","","","","","","","74","J","0","img/none_selected_demo.jpg","true","0","80_20_practice",""
"","bandit","23","256381","0.0-20.0-2.0","45342121","wem/bandit_either_3","A14ADQ7RUN6TDY","either","2","935","","","","","","","0","0","1","","0.2","0.5","0.5","","","0.8","0.2","","","","","","","","","","","","","","75","K","1","","true","0","80_20_practice",""
"","bandit","24","258476","0.0-20.0-3.0","45342121","wem/bandit_either_3","A14ADQ7RUN6TDY","either","2","589","","","","","","","0","0","1","0.2","","0.5","0.5","","","","","","","0.8","0.2","","","","","","","","","","75","K","1","","true","0","80_20_practice",""
"","bandit","25","260445","0.0-20.0-4.0","45342121","wem/bandit_either_3","A14ADQ7RUN6TDY","either","2","463","","","","","","","0","1","0","","0.8","0.5","0.5","","","0.8","0.2","","","","","","","","","","","","","","74","J","0","img/none_selected_demo.jpg","true","0","80_20_practice",""
"","bandit","26","262515","0.0-20.0-5.0","45342121","wem/bandit_either_3","A14ADQ7RUN6TDY","either","2","564","","","","","","","0","1","0","","0.8","0.5","0.5","","","0.8","0.2","","","","","","","","","","","","","","74","J","0","img/none_selected_demo.jpg","true","0","80_20_practice",""
"","bandit","27","264771","0.0-20.0-6.0","45342121","wem/bandit_either_3","A14ADQ7RUN6TDY","either","2","751","","","","","","","1","0","0","0.8","","0.5","0.5","","","","","","","0.8","0.2","","","","","","","","","","74","J","0","img/none_selected_demo.jpg","true","0","80_20_practice",""
"","bandit","28","266813","0.0-20.0-7.0","45342121","wem/bandit_either_3","A14ADQ7RUN6TDY","either","2","535","","","","","","","0","0","1","","0.8","0.5","0.5","","","0.8","0.2","","","","","","","","","","","","","","74","J","0","img/none_selected_demo.jpg","true","0","80_20_practice",""
"","bandit","29","268340","0.0-20.0-8.0","45342121","wem/bandit_either_3","A14ADQ7RUN6TDY","either","2","20","","","","","","","0","1","0","","0.8","0.5","0.5","","","0.8","0.2","","","","","","","","","","","","","","74","J","0","img/none_selected_demo.jpg","true","0","80_20_practice",""
"","bandit","30","270469","0.0-20.0-9.0","45342121","wem/bandit_either_3","A14ADQ7RUN6TDY","either","2","623","","","","","","","1","0","0","0.8","","0.5","0.5","","","","","","","0.8","0.2","","","","","","","","","","74","J","0","img/none_selected_demo.jpg","true","0","80_20_practice",""
"","bandit","31","272381","0.0-20.0-10.0","45342121","wem/bandit_either_3","A14ADQ7RUN6TDY","either","2","405","","","","","","","1","0","0","0.8","","0.5","0.5","","","","","","","0.8","0.2","","","","","","","","","","74","J","0","img/none_selected_demo.jpg","true","0","80_20_practice",""
"","bandit","32","274291","0.0-20.0-11.0","45342121","wem/bandit_either_3","A14ADQ7RUN6TDY","either","2","405","","","","","","","0","1","0","","0.8","0.5","0.5","","","0.8","0.2","","","","","","","","","","","","","","74","J","0","img/none_selected_demo.jpg","true","0","80_20_practice",""
"","bandit","33","276147","0.0-20.0-12.0","45342121","wem/bandit_either_3","A14ADQ7RUN6TDY","either","2","350","","","","","","","1","0","0","0.8","","0.5","0.5","","","","","","","0.8","0.2","","","","","","","","","","74","J","0","img/none_selected_demo.jpg","true","0","80_20_practice",""
"","bandit","34","278069","0.0-20.0-13.0","45342121","wem/bandit_either_3","A14ADQ7RUN6TDY","either","2","415","","","","","","","0","0","1","0.2","","0.5","0.5","","","","","","","0.8","0.2","","","","","","","","","","75","K","1","","true","0","80_20_practice",""
"","bandit","35","279964","0.0-20.0-14.0","45342121","wem/bandit_either_3","A14ADQ7RUN6TDY","either","2","388","","","","","","","0","0","1","0.2","","0.5","0.5","","","","","","","0.8","0.2","","","","","","","","","","75","K","1","","true","0","80_20_practice",""
"","bandit","36","281853","0.0-20.0-15.0","45342121","wem/bandit_either_3","A14ADQ7RUN6TDY","either","2","382","","","","","","","1","0","0","0.2","","0.5","0.5","","","","","","","0.8","0.2","","","","","","","","","","75","K","1","","true","0","80_20_practice",""
"","bandit","37","283796","0.0-20.0-16.0","45342121","wem/bandit_either_3","A14ADQ7RUN6TDY","either","2","436","","","","","","","0","0","1","","0.2","0.5","0.5","","","0.8","0.2","","","","","","","","","","","","","","75","K","1","","true","0","80_20_practice",""
"","bandit","38","285661","0.0-20.0-17.0","45342121","wem/bandit_either_3","A14ADQ7RUN6TDY","either","2","359","","","","","","","0","1","0","","0.8","0.5","0.5","","","0.8","0.2","","","","","","","","","","","","","","74","J","0","img/none_selected_demo.jpg","true","0","80_20_practice",""
"","bandit","39","287988","0.0-20.0-18.0","45342121","wem/bandit_either_3","A14ADQ7RUN6TDY","either","2","820","","","","","","","0","0","1","0.8","","0.5","0.5","","","","","","","0.8","0.2","","","","","","","","","","74","J","0","img/none_selected_demo.jpg","true","0","80_20_practice",""
"","bandit","40","289627","0.0-20.0-19.0","45342121","wem/bandit_either_3","A14ADQ7RUN6TDY","either","2","133","","","","","","","0","1","0","","0.8","0.5","0.5","","","0.8","0.2","","","","","","","","","","","","","","74","J","0","img/none_selected_demo.jpg","true","0","80_20_practice",""
"","text","41","294806","0.0-21.0","45342121","wem/bandit_either_3","A14ADQ7RUN6TDY","either","2","5175","","32","","","","","","","","","","","","","","","","","","","","","","","","","","","","","","","","","","","",""
"","bandit","42","298052","0.0-22.0-0.0","45342121","wem/bandit_either_3","A14ADQ7RUN6TDY","either","2","1739","","","","","","","1","0","0","1","0","","","","","0","1","","","1","0","","","","","","","","","","74","J","0","img/none_selected_demo.jpg","true","0","",""
"","text","43","305078","0.0-23.0","45342121","wem/bandit_either_3","A14ADQ7RUN6TDY","either","2","7023","","32","","","","","","","","","","","","","","","","","","","","","","","","","","","","","","","","","","","",""
"","text","44","313461","0.0-24.0","45342121","wem/bandit_either_3","A14ADQ7RUN6TDY","either","2","8381","","32","","","","","","","","","","","","","","","","","","","","","","","","","","","","","","","","","","","",""
"","text","45","316870","0.0-25.0","45342121","wem/bandit_either_3","A14ADQ7RUN6TDY","either","2","3407","","32","","","","","","","","","","","","","","","","","","","","","","","","","","","","","","","","","","","",""
"","text","46","327198","0.0-26.0","45342121","wem/bandit_either_3","A14ADQ7RUN6TDY","either","2","10326","","32","","","","","","","","","","","","","","","","","","","","","","","","","","","","","","","","","","","",""
"","text","47","332548","0.0-27.0","45342121","wem/bandit_either_3","A14ADQ7RUN6TDY","either","2","5349","","32","","","","","","","","","","","","","","","","","","","","","","","","","","","","","","","","","","","",""
"","text","48","336187","0.0-28.0","45342121","wem/bandit_either_3","A14ADQ7RUN6TDY","either","2","3637","","32","","","","","","","","","","","","","","","","","","","","","","","","","","","","","","","","","","","",""
"","text","49","338653","0.0-29.0","45342121","wem/bandit_either_3","A14ADQ7RUN6TDY","either","2","2465","","32","","","","","","","","","","","","","","","","","","","","","","","","","","","","","","","","","","","",""
"","text","50","342317","0.0-30.0","45342121","wem/bandit_either_3","A14ADQ7RUN6TDY","either","2","3661","","32","","","","","","","","","","","","","","","","","","","","","","","","","","","","","","","","","","","",""
"","text","51","346060","0.0-31.0","45342121","wem/bandit_either_3","A14ADQ7RUN6TDY","either","2","3741","","32","","","","","","","","","","","","","","","","","","","","","","","","","","","","","","","","","","","",""
"","text","52","348043","0.0-32.0","45342121","wem/bandit_either_3","A14ADQ7RUN6TDY","either","2","1982","","32","","","","","","","","","","","","","","","","","","","","","","","","","","","","","","","","","","","",""
"","text","53","351381","0.0-33.0","45342121","wem/bandit_either_3","A14ADQ7RUN6TDY","either","2","3337","","32","","","","","","","","","","","","","","","","","","","","","","","","","","","","","","","","","","","",""
"","bandit","54","353980","0.0-34.0-0.0","45342121","wem/bandit_either_3","A14ADQ7RUN6TDY","either","2","1090","","","","","","","0","0","1","","0.8","0.5","0.5","0.5","0.5","0.8","0.2","0.6","0.2","","","","","","","","","","","","72","H","0","img/none_selected.jpg","true","0","full_practice",""
"","bandit","55","356179","0.0-34.0-1.0","45342121","wem/bandit_either_3","A14ADQ7RUN6TDY","either","2","691","","","","","","","0","1","0","","0.2","0.5","0.5","0.5","0.5","0.8","0.2","0.6","0.2","","","","","","","","","","","","74","J","1","","true","0","full_practice",""
"","bandit","56","358091","0.0-34.0-2.0","45342121","wem/bandit_either_3","A14ADQ7RUN6TDY","either","2","407","","","","","","","0","0","1","","0.2","0.5","0.5","0.5","0.5","0.8","0.2","0.6","0.2","","","","","","","","","","","","74","J","1","","true","0","full_practice",""
"","bandit","57","360251","0.0-34.0-3.0","45342121","wem/bandit_either_3","A14ADQ7RUN6TDY","either","2","653","","","","","","","0","0","1","0.6","","0.5","0.5","0.5","0.5","","","","","0.8","0.2","0.6","0.2","","","","","","","","75","K","2","","true","0","full_practice",""
"","bandit","58","362122","0.0-34.0-4.0","45342121","wem/bandit_either_3","A14ADQ7RUN6TDY","either","2","365","","","","","","","1","0","0","0.6","","0.5","0.5","0.5","0.5","","","","","0.8","0.2","0.6","0.2","","","","","","","","75","K","2","","true","0","full_practice",""
"","bandit","59","363995","0.0-34.0-5.0","45342121","wem/bandit_either_3","A14ADQ7RUN6TDY","either","2","366","","","","","","","0","0","1","","0.6","0.5","0.5","0.5","0.5","0.8","0.2","0.6","0.2","","","","","","","","","","","","75","K","2","","true","0","full_practice",""
"","bandit","60","367219","0.0-34.0-6.0","45342121","wem/bandit_either_3","A14ADQ7RUN6TDY","either","2","1717","","","","","","","0","0","1","0.6","","0.5","0.5","0.5","0.5","","","","","0.8","0.2","0.6","0.2","","","","","","","","75","K","2","","true","0","full_practice",""
"","bandit","61","369580","0.0-34.0-7.0","45342121","wem/bandit_either_3","A14ADQ7RUN6TDY","either","2","853","","","","","","","0","0","1","0.2","","0.5","0.5","0.5","0.5","","","","","0.8","0.2","0.6","0.2","","","","","","","","76","L","3","","true","0","full_practice",""
"","bandit","62","371435","0.0-34.0-8.0","45342121","wem/bandit_either_3","A14ADQ7RUN6TDY","either","2","348","","","","","","","1","0","0","0.2","","0.5","0.5","0.5","0.5","","","","","0.8","0.2","0.6","0.2","","","","","","","","76","L","3","","true","0","full_practice",""
"","bandit","63","373291","0.0-34.0-9.0","45342121","wem/bandit_either_3","A14ADQ7RUN6TDY","either","2","348","","","","","","","0","1","0","","0.2","0.5","0.5","0.5","0.5","0.8","0.2","0.6","0.2","","","","","","","","","","","","76","L","3","","true","0","full_practice",""
"","bandit","64","375156","0.0-34.0-10.0","45342121","wem/bandit_either_3","A14ADQ7RUN6TDY","either","2","359","","","","","","","1","0","0","0.2","","0.5","0.5","0.5","0.5","","","","","0.8","0.2","0.6","0.2","","","","","","","","76","L","3","","true","0","full_practice",""
"","bandit","65","376995","0.0-34.0-11.0","45342121","wem/bandit_either_3","A14ADQ7RUN6TDY","either","2","333","","","","","","","0","0","1","0.2","","0.5","0.5","0.5","0.5","","","","","0.8","0.2","0.6","0.2","","","","","","","","76","L","3","","true","0","full_practice",""
"","bandit","66","378803","0.0-34.0-12.0","45342121","wem/bandit_either_3","A14ADQ7RUN6TDY","either","2","301","","","","","","","0","0","1","0.2","","0.5","0.5","0.5","0.5","","","","","0.8","0.2","0.6","0.2","","","","","","","","76","L","3","","true","0","full_practice",""
"","bandit","67","381100","0.0-34.0-13.0","45342121","wem/bandit_either_3","A14ADQ7RUN6TDY","either","2","788","","","","","","","1","0","0","0.2","","0.5","0.5","0.5","0.5","","","","","0.8","0.2","0.6","0.2","","","","","","","","76","L","3","","true","0","full_practice",""
"","bandit","68","382939","0.0-34.0-14.0","45342121","wem/bandit_either_3","A14ADQ7RUN6TDY","either","2","333","","","","","","","0","0","1","0.2","","0.5","0.5","0.5","0.5","","","","","0.8","0.2","0.6","0.2","","","","","","","","76","L","3","","true","0","full_practice",""
"","bandit","69","385340","0.0-34.0-15.0","45342121","wem/bandit_either_3","A14ADQ7RUN6TDY","either","2","895","","","","","","","1","0","0","0.2","","0.5","0.5","0.5","0.5","","","","","0.8","0.2","0.6","0.2","","","","","","","","76","L","3","","true","0","full_practice",""
"","bandit","70","387525","0.0-34.0-16.0","45342121","wem/bandit_either_3","A14ADQ7RUN6TDY","either","2","675","","","","","","","0","0","1","0.2","","0.5","0.5","0.5","0.5","","","","","0.8","0.2","0.6","0.2","","","","","","","","76","L","3","","true","0","full_practice",""
"","bandit","71","389850","0.0-34.0-17.0","45342121","wem/bandit_either_3","A14ADQ7RUN6TDY","either","2","818","","","","","","","0","0","1","0.2","","0.5","0.5","0.5","0.5","","","","","0.8","0.2","0.6","0.2","","","","","","","","76","L","3","","true","0","full_practice",""
"","bandit","72","391610","0.0-34.0-18.0","45342121","wem/bandit_either_3","A14ADQ7RUN6TDY","either","2","253","","","","","","","0","0","1","0.6","","0.5","0.5","0.5","0.5","","","","","0.8","0.2","0.6","0.2","","","","","","","","75","K","2","","true","0","full_practice",""
"","bandit","73","393594","0.0-34.0-19.0","45342121","wem/bandit_either_3","A14ADQ7RUN6TDY","either","2","478","","","","","","","0","0","1","","0.2","0.5","0.5","0.5","0.5","0.8","0.2","0.6","0.2","","","","","","","","","","","","74","J","1","","true","0","full_practice",""
"","text","74","397165","0.0-35.0","45342121","wem/bandit_either_3","A14ADQ7RUN6TDY","either","2","3564","","32","","","","","","","","","","","","","","","","","","","","","","","","","","","","","","","","","","","",""
"","text","75","434052","0.0-36.0","45342121","wem/bandit_either_3","A14ADQ7RUN6TDY","either","2","35883","","32","","","","","","","","","","","","","","","","","","","","","","","","","","","","","","","","","","","",""
"","text","76","441723","0.0-37.0","45342121","wem/bandit_either_3","A14ADQ7RUN6TDY","either","2","7668","","32","","","","","","","","","","","","","","","","","","","","","","","","","","","","","","","","","","","",""
"","text","77","448028","0.0-38.0","45342121","wem/bandit_either_3","A14ADQ7RUN6TDY","either","2","6302","","32","","","","","","","","","","","","","","","","","","","","","","","","","","","","","","","","","","","",""
"","text","78","451499","0.0-39.0","45342121","wem/bandit_either_3","A14ADQ7RUN6TDY","either","2","3468","","32","","","","","","","","","","","","","","","","","","","","","","","","","","","","","","","","","","","",""
"","text","79","456675","0.0-40.0","45342121","wem/bandit_either_3","A14ADQ7RUN6TDY","either","2","5173","","32","","","","","","","","","","","","","","","","","","","","","","","","","","","","","","","","","","","",""
"","bandit","80","459186","0.0-41.0-0.0","45342121","wem/bandit_either_3","A14ADQ7RUN6TDY","either","2","1003","","","","","","","1","0","0","0.9925337928","","0.8","0.2","0.4","0.6","","","","","0.9925337928","0.7092854079","0.7961415707","0.4841938304","","","","","","","","72","H","0","img/none_selected.jpg","","1","main_expt",""
"","bandit","81","461195","0.0-42.0-0.0","45342121","wem/bandit_either_3","A14ADQ7RUN6TDY","either","2","501","","","","","","","1","0","0","0.9909612399","","0.8","0.2","0.4","0.6","","","","","0.9909612399","0.7343230146","0.7739630809","0.5300888233","","","","","","","","72","H","0","img/none_selected.jpg","","2","main_expt",""
"","bandit","82","463377","0.0-43.0-0.0","45342121","wem/bandit_either_3","A14ADQ7RUN6TDY","either","2","675","","","","","","","1","0","0","0.9875934203","","0.8","0.2","0.4","0.6","","","","","0.9875934203","0.7616266478","0.807852523","0.4747636274","","","","","","","","72","H","0","img/none_selected.jpg","","3","main_expt",""
"","bandit","83","465346","0.0-44.0-0.0","45342121","wem/bandit_either_3","A14ADQ7RUN6TDY","either","2","461","","","","","","","1","0","0","0.9782241123","","0.8","0.2","0.4","0.6","","","","","0.9782241123","0.7555889459","0.7922386472","0.4841015375","","","","","","","","72","H","0","img/none_selected.jpg","","4","main_expt",""
"","bandit","84","467994","0.0-45.0-0.0","45342121","wem/bandit_either_3","A14ADQ7RUN6TDY","either","2","1141","","","","","","","1","0","0","0.9756627961","","0.8","0.2","0.4","0.6","","","","","0.9756627961","0.733520678","0.865094385","0.5545204825","","","","","","","","72","H","0","img/none_selected.jpg","","5","main_expt",""
"","bandit","85","470243","0.0-46.0-0.0","45342121","wem/bandit_either_3","A14ADQ7RUN6TDY","either","2","741","","","","","","","1","0","0","0.967089612","","0.8","0.2","0.4","0.6","","","","","0.967089612","0.6705264102","0.800956518","0.6032406034","","","","","","","","72","H","0","img/none_selected.jpg","","6","main_expt",""
"","bandit","86","472475","0.0-47.0-0.0","45342121","wem/bandit_either_3","A14ADQ7RUN6TDY","either","2","723","","","","","","","1","0","0","0.9581374084","","0.8","0.2","0.4","0.6","","","","","0.9581374084","0.6395389268","0.826484282","0.6629125932","","","","","","","","72","H","0","img/none_selected.jpg","","7","main_expt",""
"","bandit","87","474666","0.0-48.0-0.0","45342121","wem/bandit_either_3","A14ADQ7RUN6TDY","either","2","683","","","","","","","1","0","0","0.9470057872","","0.8","0.2","0.4","0.6","","","","","0.9470057872","0.6463283336","0.8721258401","0.6179372523","","","","","","","","72","H","0","img/none_selected.jpg","","8","main_expt",""
"","bandit","88","477113","0.0-49.0-0.0","45342121","wem/bandit_either_3","A14ADQ7RUN6TDY","either","2","940","","","","","","","1","0","0","0.9776699295","","0.8","0.2","0.4","0.6","","","","","0.9776699295","0.5257156782","0.9123847657","0.7126464358","","","","","","","","72","H","0","img/none_selected.jpg","","9","main_expt",""
"","bandit","89","479737","0.0-50.0-0.0","45342121","wem/bandit_either_3","A14ADQ7RUN6TDY","either","2","1116","","","","","","","1","0","0","0.9728878591","","0.8","0.2","0.4","0.6","","","","","0.9728878591","0.4763364632","0.8996742502","0.7356985298","","","","","","","","72","H","0","img/none_selected.jpg","","10","main_expt",""
"","bandit","90","482058","0.0-51.0-0.0","45342121","wem/bandit_either_3","A14ADQ7RUN6TDY","either","2","813","","","","","","","1","0","0","0.9593139104","","0.8","0.2","0.4","0.6","","","","","0.9593139104","0.4284616273","0.9131723876","0.768711937","","","","","","","","72","H","0","img/none_selected.jpg","","11","main_expt",""
"","bandit","91","484234","0.0-52.0-0.0","45342121","wem/bandit_either_3","A14ADQ7RUN6TDY","either","2","669","","","","","","","1","0","0","0.9498917819","","0.8","0.2","0.4","0.6","","","","","0.9498917819","0.3846657661","0.8766857583","0.775032537","","","","","","","","72","H","0","img/none_selected.jpg","","12","main_expt",""
"","bandit","92","486273","0.0-53.0-0.0","45342121","wem/bandit_either_3","A14ADQ7RUN6TDY","either","2","532","","","","","","","1","0","0","0.9541602679","","0.8","0.2","0.4","0.6","","","","","0.9541602679","0.4534267517","0.8395211377","0.8005481332","","","","","","","","72","H","0","img/none_selected.jpg","","13","main_expt",""
"","bandit","93","488377","0.0-54.0-0.0","45342121","wem/bandit_either_3","A14ADQ7RUN6TDY","either","2","597","","","","","","","1","0","0","0.9457654821","","0.8","0.2","0.4","0.6","","","","","0.9457654821","0.5781166702","0.8716273459","0.8437703121","","","","","","","","72","H","0","img/none_selected.jpg","","14","main_expt",""
"","bandit","94","490498","0.0-55.0-0.0","45342121","wem/bandit_either_3","A14ADQ7RUN6TDY","either","2","614","","","","","","","1","0","0","0.961431504","","0.8","0.2","0.4","0.6","","","","","0.961431504","0.6683268695","0.8884181174","0.7878475566","","","","","","","","72","H","0","img/none_selected.jpg","","15","main_expt",""
"","bandit","95","492609","0.0-56.0-0.0","45342121","wem/bandit_either_3","A14ADQ7RUN6TDY","either","2","604","","","","","","","1","0","0","0.9614480804","","0.8","0.2","0.4","0.6","","","","","0.9614480804","0.6948649322","0.9144873871","0.7873795395","","","","","","","","72","H","0","img/none_selected.jpg","","16","main_expt",""
"","bandit","96","494683","0.0-57.0-0.0","45342121","wem/bandit_either_3","A14ADQ7RUN6TDY","either","2","566","","","","","","","0","1","0","","0.981184269","0.8","0.2","0.4","0.6","0.981184269","0.7674725463","0.915766025","0.8084550093","","","","","","","","","","","","72","H","0","img/none_selected.jpg","","17","main_expt",""
"","bandit","97","496683","0.0-58.0-0.0","45342121","wem/bandit_either_3","A14ADQ7RUN6TDY","either","2","491","","","","","","","0","1","0","","0.9861919244","0.8","0.2","0.4","0.6","0.9861919244","0.7706733977","0.9357816117","0.8436933745","","","","","","","","","","","","72","H","0","img/none_selected.jpg","","18","main_expt",""
"","bandit","98","498706","0.0-59.0-0.0","45342121","wem/bandit_either_3","A14ADQ7RUN6TDY","either","2","512","","","","","","","1","0","0","0.986789567","","0.8","0.2","0.4","0.6","","","","","0.986789567","0.7396491891","0.9482019282","0.8059530903","","","","","","","","72","H","0","img/none_selected.jpg","","19","main_expt",""
"","bandit","99","500716","0.0-60.0-0.0","45342121","wem/bandit_either_3","A14ADQ7RUN6TDY","either","2","496","","","","","","","0","1","0","","0.986183881","0.8","0.2","0.4","0.6","0.986183881","0.6712916173","0.9433726768","0.7839513496","","","","","","","","","","","","72","H","0","img/none_selected.jpg","","20","main_expt",""
"","bandit","100","502667","0.0-61.0-0.0","45342121","wem/bandit_either_3","A14ADQ7RUN6TDY","either","2","438","","","","","","","1","0","0","0.9887099493","","0.8","0.2","0.4","0.6","","","","","0.9887099493","0.6728887443","0.9488284628","0.7841815244","","","","","","","","72","H","0","img/none_selected.jpg","","21","main_expt",""
"","bandit","101","504883","0.0-62.0-0.0","45342121","wem/bandit_either_3","A14ADQ7RUN6TDY","either","2","708","","","","","","","1","0","0","0.992558567","","0.8","0.2","0.4","0.6","","","","","0.992558567","0.7838502077","0.9500515088","0.8256278583","","","","","","","","72","H","0","img/none_selected.jpg","","22","main_expt",""
"","bandit","102","507089","0.0-63.0-0.0","45342121","wem/bandit_either_3","A14ADQ7RUN6TDY","either","2","699","","","","","","","1","0","0","0.9906074595","","0.8","0.2","0.4","0.6","","","","","0.9906074595","0.8711917965","0.9645760881","0.7043778873","","","","","","","","72","H","0","img/none_selected.jpg","","23","main_expt",""
"","bandit","103","509065","0.0-64.0-0.0","45342121","wem/bandit_either_3","A14ADQ7RUN6TDY","either","2","468","","","","","","","1","0","0","0.9828703082","","0.8","0.2","0.4","0.6","","","","","0.9828703082","0.861124964","0.946785539","0.7662705475","","","","","","","","72","H","0","img/none_selected.jpg","","24","main_expt",""
"","bandit","104","511329","0.0-65.0-0.0","45342121","wem/bandit_either_3","A14ADQ7RUN6TDY","either","2","759","","","","","","","1","0","0","0.984618899","","0.8","0.2","0.4","0.6","","","","","0.984618899","0.8551403996","0.9229473608","0.6915147264","","","","","","","","72","H","0","img/none_selected.jpg","","25","main_expt",""
"","bandit","105","513273","0.0-66.0-0.0","45342121","wem/bandit_either_3","A14ADQ7RUN6TDY","either","2","437","","","","","","","1","0","0","0.9780938917","","0.8","0.2","0.4","0.6","","","","","0.9780938917","0.8959771014","0.8729820127","0.6844606422","","","","","","","","72","H","0","img/none_selected.jpg","","26","main_expt",""
"","bandit","106","515202","0.0-67.0-0.0","45342121","wem/bandit_either_3","A14ADQ7RUN6TDY","either","2","422","","","","","","","1","0","0","0.9634866904","","0.8","0.2","0.4","0.6","","","","","0.9634866904","0.8786292531","0.859067388","0.7953701942","","","","","","","","72","H","0","img/none_selected.jpg","","27","main_expt",""
"","bandit","107","517281","0.0-68.0-0.0","45342121","wem/bandit_either_3","A14ADQ7RUN6TDY","either","2","571","","","","","","","1","0","0","0.946494378","","0.8","0.2","0.4","0.6","","","","","0.946494378","0.8920593834","0.836267867","0.622657036","","","","","","","","72","H","0","img/none_selected.jpg","","28","main_expt",""
"","bandit","108","519281","0.0-69.0-0.0","45342121","wem/bandit_either_3","A14ADQ7RUN6TDY","either","2","491","","","","","","","1","0","0","0.9338647731","","0.8","0.2","0.4","0.6","","","","","0.9338647731","0.8234517222","0.7158546556","0.5757463716","","","","","","","","72","H","0","img/none_selected.jpg","","29","main_expt",""
"","bandit","109","521290","0.0-70.0-0.0","45342121","wem/bandit_either_3","A14ADQ7RUN6TDY","either","2","500","","","","","","","1","0","0","0.9354801528","","0.8","0.2","0.4","0.6","","","","","0.9354801528","0.7963444676","0.7262950886","0.6048158844","","","","","","","","72","H","0","img/none_selected.jpg","","30","main_expt",""
"","bandit","110","523312","0.0-71.0-0.0","45342121","wem/bandit_either_3","A14ADQ7RUN6TDY","either","2","515","","","","","","","1","0","0","0.9323861487","","0.8","0.2","0.4","0.6","","","","","0.9323861487","0.6847131082","0.7049485024","0.4831208743","","","","","","","","72","H","0","img/none_selected.jpg","","31","main_expt",""
"","bandit","111","525314","0.0-72.0-0.0","45342121","wem/bandit_either_3","A14ADQ7RUN6TDY","either","2","494","","","","","","","1","0","0","0.9159531952","","0.8","0.2","0.4","0.6","","","","","0.9159531952","0.7745616343","0.6294605358","0.4413454117","","","","","","","","72","H","0","img/none_selected.jpg","","32","main_expt",""
"","bandit","112","527617","0.0-73.0-0.0","45342121","wem/bandit_either_3","A14ADQ7RUN6TDY","either","2","794","","","","","","","1","0","0","0.9501333659","","0.8","0.2","0.4","0.6","","","","","0.9501333659","0.8111568365","0.7097184707","0.589686364","","","","","","","","72","H","0","img/none_selected.jpg","","33","main_expt",""
"","bandit","113","529985","0.0-74.0-0.0","45342121","wem/bandit_either_3","A14ADQ7RUN6TDY","either","2","859","","","","","","","0","0","1","0.9485118263","","0.8","0.2","0.4","0.6","","","","","0.9485118263","0.7291364049","0.6324728327","0.5789977489","","","","","","","","72","H","0","img/none_selected.jpg","","34","main_expt",""
"","bandit","114","532032","0.0-75.0-0.0","45342121","wem/bandit_either_3","A14ADQ7RUN6TDY","either","2","540","","","","","","","1","0","0","0.959491173","","0.8","0.2","0.4","0.6","","","","","0.959491173","0.7920219322","0.6809104991","0.5605822786","","","","","","","","72","H","0","img/none_selected.jpg","","35","main_expt",""
"","bandit","115","534016","0.0-76.0-0.0","45342121","wem/bandit_either_3","A14ADQ7RUN6TDY","either","2","478","","","","","","","1","0","0","0.9523687656","","0.8","0.2","0.4","0.6","","","","","0.9523687656","0.7889809596","0.5745256001","0.3330948712","","","","","","","","72","H","0","img/none_selected.jpg","","36","main_expt",""
"","bandit","116","535994","0.0-77.0-0.0","45342121","wem/bandit_either_3","A14ADQ7RUN6TDY","either","2","472","","","","","","","0","1","0","","0.9504344127","0.8","0.2","0.4","0.6","0.9504344127","0.8060385269","0.6249275122","0.2430176499","","","","","","","","","","","","72","H","0","img/none_selected.jpg","","37","main_expt",""
"","bandit","117","538353","0.0-78.0-0.0","45342121","wem/bandit_either_3","A14ADQ7RUN6TDY","either","2","850","","","","","","","1","0","0","0.9321408283","","0.8","0.2","0.4","0.6","","","","","0.9321408283","0.7188782676","0.5582777804","0.3106083343","","","","","","","","72","H","0","img/none_selected.jpg","","38","main_expt",""
"","bandit","118","540330","0.0-79.0-0.0","45342121","wem/bandit_either_3","A14ADQ7RUN6TDY","either","2","467","","","","","","","0","0","1","0.9135525369","","0.8","0.2","0.4","0.6","","","","","0.9135525369","0.7387945131","0.6619895395","0.3239447463","","","","","","","","72","H","0","img/none_selected.jpg","","39","main_expt",""
"","bandit","119","542296","0.0-80.0-0.0","45342121","wem/bandit_either_3","A14ADQ7RUN6TDY","either","2","458","","","","","","","1","0","0","0.8840916364","","0.8","0.2","0.4","0.6","","","","","0.8840916364","0.7478035428","0.6522152691","0.2946631509","","","","","","","","72","H","0","img/none_selected.jpg","","40","main_expt",""
"","bandit","120","544209","0.0-81.0-0.0","45342121","wem/bandit_either_3","A14ADQ7RUN6TDY","either","2","405","","","","","","","1","0","0","0.8747037504","","0.8","0.2","0.4","0.6","","","","","0.8747037504","0.7802386085","0.6714070371","0.193597671","","","","","","","","72","H","0","img/none_selected.jpg","","41","main_expt",""
"","bandit","121","546313","0.0-82.0-0.0","45342121","wem/bandit_either_3","A14ADQ7RUN6TDY","either","2","596","","","","","","","1","0","0","0.826315498","","0.8","0.2","0.4","0.6","","","","","0.826315498","0.7994277013","0.6390104416","0.1834529884","","","","","","","","72","H","0","img/none_selected.jpg","","42","main_expt",""
"","bandit","122","548200","0.0-83.0-0.0","45342121","wem/bandit_either_3","A14ADQ7RUN6TDY","either","2","381","","","","","","","0","0","1","","0.7681371561","0.8","0.2","0.4","0.6","0.7681371561","0.8718069658","0.6318841448","0.1558663495","","","","","","","","","","","","72","H","0","img/none_selected.jpg","","43","main_expt",""
"","bandit","123","550103","0.0-84.0-0.0","45342121","wem/bandit_either_3","A14ADQ7RUN6TDY","either","2","397","","","","","","","0","0","1","0.7584360225","","0.8","0.2","0.4","0.6","","","","","0.7584360225","0.7725207311","0.5708139437","0.1573065196","","","","","","","","72","H","0","img/none_selected.jpg","","44","main_expt",""
"","bandit","124","552017","0.0-85.0-0.0","45342121","wem/bandit_either_3","A14ADQ7RUN6TDY","either","2","405","","","","","","","1","0","0","0.816959585","","0.8","0.2","0.4","0.6","","","","","0.816959585","0.8399140445","0.5703812278","0.1743203636","","","","","","","","72","H","0","img/none_selected.jpg","","45","main_expt",""
"","bandit","125","554024","0.0-86.0-0.0","45342121","wem/bandit_either_3","A14ADQ7RUN6TDY","either","2","498","","","","","","","1","0","0","0.7571269921","","0.8","0.2","0.4","0.6","","","","","0.7571269921","0.7830678696","0.4520700595","0.1234040722","","","","","","","","72","H","0","img/none_selected.jpg","","46","main_expt",""
"","bandit","126","556001","0.0-87.0-0.0","45342121","wem/bandit_either_3","A14ADQ7RUN6TDY","either","2","470","","","","","","","0","0","1","0.7086567283","","0.8","0.2","0.4","0.6","","","","","0.7086567283","0.8255209912","0.4953600952","0.1592846429","","","","","","","","72","H","0","img/none_selected.jpg","","47","main_expt",""
"","bandit","127","557866","0.0-88.0-0.0","45342121","wem/bandit_either_3","A14ADQ7RUN6TDY","either","2","355","","","","","","","0","0","1","","0.6428227569","0.8","0.2","0.4","0.6","0.6428227569","0.7728754614","0.4912921637","0.1880090658","","","","","","","","","","","","72","H","0","img/none_selected.jpg","","48","main_expt",""
"","bandit","128","559743","0.0-89.0-0.0","45342121","wem/bandit_either_3","A14ADQ7RUN6TDY","either","2","370","","","","","","","1","0","0","0.7004196772","","0.8","0.2","0.4","0.6","","","","","0.7004196772","0.8607162984","0.4694413912","0.3190576765","","","","","","","","72","H","0","img/none_selected.jpg","","49","main_expt",""
"","bandit","129","561815","0.0-90.0-0.0","45342121","wem/bandit_either_3","A14ADQ7RUN6TDY","either","2","563","","","","","","","1","0","0","0.6418514465","","0.8","0.2","0.4","0.6","","","","","0.6418514465","0.8526113732","0.5835687148","0.277770718","","","","","","","","72","H","0","img/none_selected.jpg","","50","main_expt",""
"","bandit","130","563752","0.0-91.0-0.0","45342121","wem/bandit_either_3","A14ADQ7RUN6TDY","either","2","429","","","","","","","0","0","1","0.6322169777","","0.8","0.2","0.4","0.6","","","","","0.6322169777","0.8630835666","0.581499138","0.3304163056","","","","","","","","72","H","0","img/none_selected.jpg","","51","main_expt",""
"","bandit","131","565623","0.0-92.0-0.0","45342121","wem/bandit_either_3","A14ADQ7RUN6TDY","either","2","362","","","","","","","1","0","0","0.6160259873","","0.8","0.2","0.4","0.6","","","","","0.6160259873","0.8689990829","0.6521379128","0.3074301744","","","","","","","","72","H","0","img/none_selected.jpg","","52","main_expt",""
"","bandit","132","567614","0.0-93.0-0.0","45342121","wem/bandit_either_3","A14ADQ7RUN6TDY","either","2","484","","","","","","","1","0","0","0.6635838846","","0.8","0.2","0.4","0.6","","","","","0.6635838846","0.8829627288","0.5743957808","0.3292402402","","","","","","","","72","H","0","img/none_selected.jpg","","53","main_expt",""
"","bandit","133","569655","0.0-94.0-0.0","45342121","wem/bandit_either_3","A14ADQ7RUN6TDY","either","2","532","","","","","","","1","0","0","0.7334380463","","0.8","0.2","0.4","0.6","","","","","0.7334380463","0.8577096669","0.4765250731","0.3701383524","","","","","","","","72","H","0","img/none_selected.jpg","","54","main_expt",""
"","bandit","134","571655","0.0-95.0-0.0","45342121","wem/bandit_either_3","A14ADQ7RUN6TDY","either","2","492","","","","","","","1","0","0","0.6625049704","","0.8","0.2","0.4","0.6","","","","","0.6625049704","0.7951355038","0.472038817","0.4023440482","","","","","","","","72","H","0","img/none_selected.jpg","","55","main_expt",""
"","bandit","135","573943","0.0-96.0-0.0","45342121","wem/bandit_either_3","A14ADQ7RUN6TDY","either","2","779","","","","","","","1","0","0","0.6244126183","","0.8","0.2","0.4","0.6","","","","","0.6244126183","0.7832403428","0.6060805283","0.3320470731","","","","","","","","72","H","0","img/none_selected.jpg","","56","main_expt",""
"","bandit","136","575920","0.0-97.0-0.0","45342121","wem/bandit_either_3","A14ADQ7RUN6TDY","either","2","468","","","","","","","1","0","0","0.693445159","","0.8","0.2","0.4","0.6","","","","","0.693445159","0.7165346004","0.5733746242","0.3398704556","","","","","","","","72","H","0","img/none_selected.jpg","","57","main_expt",""
"","bandit","137","577966","0.0-98.0-0.0","45342121","wem/bandit_either_3","A14ADQ7RUN6TDY","either","2","538","","","","","","","1","0","0","0.6603141298","","0.8","0.2","0.4","0.6","","","","","0.6603141298","0.7840704931","0.5268086549","0.3171476707","","","","","","","","72","H","0","img/none_selected.jpg","","58","main_expt",""
"","bandit","138","579849","0.0-99.0-0.0","45342121","wem/bandit_either_3","A14ADQ7RUN6TDY","either","2","376","","","","","","","0","0","1","0.6435133917","","0.8","0.2","0.4","0.6","","","","","0.6435133917","0.7166558068","0.5298916697","0.1868584885","","","","","","","","72","H","0","img/none_selected.jpg","","59","main_expt",""
"","bandit","139","581591","0.0-100.0-0.0","45342121","wem/bandit_either_3","A14ADQ7RUN6TDY","either","2","234","","","","","","","1","0","0","0.6720075741","","0.8","0.2","0.4","0.6","","","","","0.6720075741","0.6505055492","0.5547432704","0.2163153633","","","","","","","","72","H","0","img/none_selected.jpg","","60","main_expt",""
"","bandit","140","583583","0.0-101.0-0.0","45342121","wem/bandit_either_3","A14ADQ7RUN6TDY","either","2","482","","","","","","","1","0","0","0.6703611074","","0.8","0.2","0.4","0.6","","","","","0.6703611074","0.6465946667","0.5407031957","0.2086512551","","","","","","","","72","H","0","img/none_selected.jpg","","61","main_expt",""
"","bandit","141","585559","0.0-102.0-0.0","45342121","wem/bandit_either_3","A14ADQ7RUN6TDY","either","2","467","","","","","","","1","0","0","0.64477312","","0.8","0.2","0.4","0.6","","","","","0.64477312","0.709990362","0.6993449034","0.2250062338","","","","","","","","72","H","0","img/none_selected.jpg","","62","main_expt",""
"","bandit","142","587583","0.0-103.0-0.0","45342121","wem/bandit_either_3","A14ADQ7RUN6TDY","either","2","515","","","","","","","0","0","1","0.509049177","","0.8","0.2","0.4","0.6","","","","","0.509049177","0.7542168012","0.6342967703","0.2739380208","","","","","","","","72","H","0","img/none_selected.jpg","","63","main_expt",""
"","bandit","143","589431","0.0-104.0-0.0","45342121","wem/bandit_either_3","A14ADQ7RUN6TDY","either","2","340","","","","","","","0","0","1","","0.5535424332","0.8","0.2","0.4","0.6","0.5535424332","0.7660604158","0.5961490325","0.3449536465","","","","","","","","","","","","72","H","0","img/none_selected.jpg","","64","main_expt",""
"","bandit","144","591312","0.0-105.0-0.0","45342121","wem/bandit_either_3","A14ADQ7RUN6TDY","either","2","373","","","","","","","1","0","0","0.6608621899","","0.8","0.2","0.4","0.6","","","","","0.6608621899","0.7572602099","0.5771190674","0.34640195","","","","","","","","72","H","0","img/none_selected.jpg","","65","main_expt",""
"","bandit","145","593303","0.0-106.0-0.0","45342121","wem/bandit_either_3","A14ADQ7RUN6TDY","either","2","482","","","","","","","0","0","1","0.6535341977","","0.8","0.2","0.4","0.6","","","","","0.6535341977","0.686926195","0.4765921407","0.5266288285","","","","","","","","72","H","0","img/none_selected.jpg","","66","main_expt",""
"","bandit","146","595246","0.0-107.0-0.0","45342121","wem/bandit_either_3","A14ADQ7RUN6TDY","either","2","435","","","","","","","0","1","0","","0.7334195653","0.8","0.2","0.4","0.6","0.6592628399","0.7334195653","0.5714361875","0.5588671697","","","","","","","","","","","","74","J","1","","","67","main_expt",""
"","bandit","147","597191","0.0-108.0-0.0","45342121","wem/bandit_either_3","A14ADQ7RUN6TDY","either","2","437","","","","","","","0","1","0","","0.6114245881","0.8","0.2","0.4","0.6","0.6735013879","0.6114245881","0.6231829193","0.6097536784","","","","","","","","","","","","74","J","1","","","68","main_expt",""
"","bandit","148","599175","0.0-109.0-0.0","45342121","wem/bandit_either_3","A14ADQ7RUN6TDY","either","2","476","","","","","","","0","1","0","","0.6460921668","0.8","0.2","0.4","0.6","0.7209687993","0.6460921668","0.5130256365","0.533457584","","","","","","","","","","","","74","J","1","","","69","main_expt",""
"","bandit","149","601095","0.0-110.0-0.0","45342121","wem/bandit_either_3","A14ADQ7RUN6TDY","either","2","410","","","","","","","1","0","0","0.6700702736","","0.8","0.2","0.4","0.6","","","","","0.690528825","0.6700702736","0.5167166","0.4124750721","","","","","","","","74","J","1","","","70","main_expt",""
"","bandit","150","603040","0.0-111.0-0.0","45342121","wem/bandit_either_3","A14ADQ7RUN6TDY","either","2","435","","","","","","","0","1","0","","0.6388012411","0.8","0.2","0.4","0.6","0.6453310316","0.6388012411","0.6448170737","0.4486526525","","","","","","","","","","","","74","J","1","","","71","main_expt",""
"","bandit","151","604903","0.0-112.0-0.0","45342121","wem/bandit_either_3","A14ADQ7RUN6TDY","either","2","356","","","","","","","0","1","0","","0.6046900378","0.8","0.2","0.4","0.6","0.8140348339","0.6046900378","0.5640434706","0.4313602212","","","","","","","","","","","","74","J","1","","","72","main_expt",""
"","bandit","152","606935","0.0-113.0-0.0","45342121","wem/bandit_either_3","A14ADQ7RUN6TDY","either","2","522","","","","","","","0","1","0","","0.6062428704","0.8","0.2","0.4","0.6","0.820931829","0.6062428704","0.6296110197","0.3639072561","","","","","","","","","","","","74","J","1","","","73","main_expt",""
"","bandit","153","608822","0.0-114.0-0.0","45342121","wem/bandit_either_3","A14ADQ7RUN6TDY","either","2","377","","","","","","","0","0","1","","0.6237194739","0.8","0.2","0.4","0.6","0.8096233945","0.6237194739","0.6730210969","0.2882181569","","","","","","","","","","","","74","J","1","","","74","main_expt",""
"","bandit","154","610815","0.0-115.0-0.0","45342121","wem/bandit_either_3","A14ADQ7RUN6TDY","either","2","484","","","","","","","0","0","1","","0.5971007372","0.8","0.2","0.4","0.6","0.7615001707","0.5971007372","0.5720403827","0.3561187133","","","","","","","","","","","","74","J","1","","","75","main_expt",""
"","bandit","155","614088","0.0-116.0-0.0","45342121","wem/bandit_either_3","A14ADQ7RUN6TDY","either","2","1763","","","","","","","1","0","0","0.6303512149","","0.8","0.2","0.4","0.6","","","","","0.8147365981","0.5810032438","0.6303512149","0.4480894403","","","","","","","","75","K","2","","","76","main_expt",""
"","bandit","156","616039","0.0-117.0-0.0","45342121","wem/bandit_either_3","A14ADQ7RUN6TDY","either","2","441","","","","","","","0","0","1","0.5531797874","","0.8","0.2","0.4","0.6","","","","","0.8926338818","0.5792233978","0.5531797874","0.3220850356","","","","","","","","75","K","2","","","77","main_expt",""
"","bandit","157","618098","0.0-118.0-0.0","45342121","wem/bandit_either_3","A14ADQ7RUN6TDY","either","2","548","","","","","","","1","0","0","0.5449672882","","0.8","0.2","0.4","0.6","","","","","0.8669072201","0.692511921","0.5449672882","0.3281133775","","","","","","","","75","K","2","","","78","main_expt",""
"","bandit","158","620287","0.0-119.0-0.0","45342121","wem/bandit_either_3","A14ADQ7RUN6TDY","either","2","680","","","","","","","0","1","0","","0.4484013318","0.8","0.2","0.4","0.6","0.9114006046","0.7019625083","0.4484013318","0.3814329202","","","","","","","","","","","","75","K","2","","","79","main_expt",""
"","bandit","159","622264","0.0-120.0-0.0","45342121","wem/bandit_either_3","A14ADQ7RUN6TDY","either","2","468","","","","","","","1","0","0","0.5041425745","","0.8","0.2","0.4","0.6","","","","","0.9268398106","0.6785675641","0.5041425745","0.3512572076","","","","","","","","75","K","2","","","80","main_expt",""
"","bandit","160","624289","0.0-121.0-0.0","45342121","wem/bandit_either_3","A14ADQ7RUN6TDY","either","2","515","","","","","","","0","0","1","0.3462078978","","0.8","0.2","0.4","0.6","","","","","0.9582858862","0.7101061672","0.3462078978","0.3624285329","","","","","","","","75","K","2","","","81","main_expt",""
"","bandit","161","626200","0.0-122.0-0.0","45342121","wem/bandit_either_3","A14ADQ7RUN6TDY","either","2","402","","","","","","","0","0","1","0.3226795418","","0.8","0.2","0.4","0.6","","","","","0.9590071975","0.7217376576","0.3226795418","0.3111883408","","","","","","","","75","K","2","","","82","main_expt",""
"","bandit","162","627944","0.0-123.0-0.0","45342121","wem/bandit_either_3","A14ADQ7RUN6TDY","either","2","237","","","","","","","0","0","1","0.243162563","","0.8","0.2","0.4","0.6","","","","","0.9379973093","0.6437777395","0.3023868023","0.243162563","","","","","","","","76","L","3","","","83","main_expt",""
"","bandit","163","629799","0.0-124.0-0.0","45342121","wem/bandit_either_3","A14ADQ7RUN6TDY","either","2","346","","","","","","","0","1","0","","0.347146949","0.8","0.2","0.4","0.6","0.9411979228","0.6533183273","0.4040419094","0.347146949","","","","","","","","","","","","76","L","3","","","84","main_expt",""
"","bandit","164","631671","0.0-125.0-0.0","45342121","wem/bandit_either_3","A14ADQ7RUN6TDY","either","2","364","","","","","","","0","1","0","","0.4416309426","0.8","0.2","0.4","0.6","0.9441700551","0.7469548387","0.4716136817","0.4416309426","","","","","","","","","","","","76","L","3","","","85","main_expt",""
"","bandit","165","633663","0.0-126.0-0.0","45342121","wem/bandit_either_3","A14ADQ7RUN6TDY","either","2","482","","","","","","","0","0","1","","0.4523797492","0.8","0.2","0.4","0.6","0.9323605113","0.7366570046","0.4455883603","0.4523797492","","","","","","","","","","","","76","L","3","","","86","main_expt",""
"","bandit","166","635216","0.0-127.0-0.0","45342121","wem/bandit_either_3","A14ADQ7RUN6TDY","either","2","44","","","","","","","1","0","0","0.8871332711","","0.8","0.2","0.4","0.6","","","","","0.8871332711","0.7142428019","0.5952575165","0.4621103264","","","","","","","","72","H","0","img/none_selected.jpg","","87","main_expt",""
"","bandit","167","637184","0.0-128.0-0.0","45342121","wem/bandit_either_3","A14ADQ7RUN6TDY","either","2","459","","","","","","","1","0","0","0.8520973281","","0.8","0.2","0.4","0.6","","","","","0.8520973281","0.7057172343","0.5333825583","0.3800084876","","","","","","","","72","H","0","img/none_selected.jpg","","88","main_expt",""
"","bandit","168","639400","0.0-129.0-0.0","45342121","wem/bandit_either_3","A14ADQ7RUN6TDY","either","2","705","","","","","","","0","1","0","","0.7882210871","0.8","0.2","0.4","0.6","0.7882210871","0.7289934888","0.4583166828","0.2354372355","","","","","","","","","","","","72","H","0","img/none_selected.jpg","","89","main_expt",""
"","bandit","169","641408","0.0-130.0-0.0","45342121","wem/bandit_either_3","A14ADQ7RUN6TDY","either","2","499","","","","","","","1","0","0","0.720110267","","0.8","0.2","0.4","0.6","","","","","0.720110267","0.7475354559","0.4782349553","0.2978482647","","","","","","","","72","H","0","img/none_selected.jpg","","90","main_expt",""
"","bandit","170","643328","0.0-131.0-0.0","45342121","wem/bandit_either_3","A14ADQ7RUN6TDY","either","2","410","","","","","","","0","0","1","0.7390342074","","0.8","0.2","0.4","0.6","","","","","0.7390342074","0.6316706059","0.464138054","0.3723871884","","","","","","","","72","H","0","img/none_selected.jpg","","91","main_expt",""
"","bandit","171","645664","0.0-132.0-0.0","45342121","wem/bandit_either_3","A14ADQ7RUN6TDY","either","2","827","","","","","","","1","0","0","0.8135224625","","0.8","0.2","0.4","0.6","","","","","0.8135224625","0.6957908828","0.5084128334","0.5400298203","","","","","","","","72","H","0","img/none_selected.jpg","","92","main_expt",""
"","bandit","172","647568","0.0-133.0-0.0","45342121","wem/bandit_either_3","A14ADQ7RUN6TDY","either","2","394","","","","","","","0","0","1","0.7814404678","","0.8","0.2","0.4","0.6","","","","","0.7814404678","0.6812665662","0.5211356389","0.5134744583","","","","","","","","72","H","0","img/none_selected.jpg","","93","main_expt",""
"","bandit","173","649399","0.0-134.0-0.0","45342121","wem/bandit_either_3","A14ADQ7RUN6TDY","either","2","323","","","","","","","1","0","0","0.7672416568","","0.8","0.2","0.4","0.6","","","","","0.7672416568","0.6412933588","0.4554037602","0.4101580275","","","","","","","","72","H","0","img/none_selected.jpg","","94","main_expt",""
"","bandit","174","651431","0.0-135.0-0.0","45342121","wem/bandit_either_3","A14ADQ7RUN6TDY","either","2","522","","","","","","","0","0","1","0.7573973965","","0.8","0.2","0.4","0.6","","","","","0.7573973965","0.5696630174","0.4195046205","0.2995167601","","","","","","","","72","H","0","img/none_selected.jpg","","95","main_expt",""
"","bandit","175","653328","0.0-136.0-0.0","45342121","wem/bandit_either_3","A14ADQ7RUN6TDY","either","2","385","","","","","","","1","0","0","0.8177369732","","0.8","0.2","0.4","0.6","","","","","0.8177369732","0.6076398096","0.3638478563","0.2934894425","","","","","","","","72","H","0","img/none_selected.jpg","","96","main_expt",""
"","bandit","176","655191","0.0-137.0-0.0","45342121","wem/bandit_either_3","A14ADQ7RUN6TDY","either","2","354","","","","","","","0","0","1","","0.8124666872","0.8","0.2","0.4","0.6","0.8124666872","0.5551612935","0.2839735208","0.2802715202","","","","","","","","","","","","72","H","0","img/none_selected.jpg","","97","main_expt",""
"","bandit","177","657559","0.0-138.0-0.0","45342121","wem/bandit_either_3","A14ADQ7RUN6TDY","either","2","859","","","","","","","1","0","0","0.881496875","","0.8","0.2","0.4","0.6","","","","","0.881496875","0.6354974245","0.2109275999","0.2703087955","","","","","","","","72","H","0","img/none_selected.jpg","","98","main_expt",""
"","bandit","178","659456","0.0-139.0-0.0","45342121","wem/bandit_either_3","A14ADQ7RUN6TDY","either","2","386","","","","","","","0","0","1","","0.8785981907","0.8","0.2","0.4","0.6","0.8785981907","0.5945745664","0.1531506719","0.3027543159","","","","","","","","","","","","72","H","0","img/none_selected.jpg","","99","main_expt",""
"","bandit","179","661303","0.0-140.0-0.0","45342121","wem/bandit_either_3","A14ADQ7RUN6TDY","either","2","338","","","","","","","1","0","0","0.8494581726","","0.8","0.2","0.4","0.6","","","","","0.8494581726","0.5679097985","0.1262108991","0.3645318829","","","","","","","","72","H","0","img/none_selected.jpg","","100","main_expt",""
"","bandit","180","663302","0.0-141.0-0.0","45342121","wem/bandit_either_3","A14ADQ7RUN6TDY","either","2","491","","","","","","","1","0","0","0.7754784616","","0.8","0.2","0.4","0.6","","","","","0.7754784616","0.6430580454","0.1340220502","0.4315832637","","","","","","","","72","H","0","img/none_selected.jpg","","101","main_expt",""
"","bandit","181","665232","0.0-142.0-0.0","45342121","wem/bandit_either_3","A14ADQ7RUN6TDY","either","2","419","","","","","","","0","1","0","","0.7626736499","0.8","0.2","0.4","0.6","0.7626736499","0.6340200926","0.2167126086","0.3608531129","","","","","","","","","","","","72","H","0","img/none_selected.jpg","","102","main_expt",""
"","bandit","182","667111","0.0-143.0-0.0","45342121","wem/bandit_either_3","A14ADQ7RUN6TDY","either","2","370","","","","","","","1","0","0","0.7329996306","","0.8","0.2","0.4","0.6","","","","","0.7329996306","0.6377668076","0.2796352144","0.3688981903","","","","","","","","72","H","0","img/none_selected.jpg","","103","main_expt",""
"","bandit","183","669025","0.0-144.0-0.0","45342121","wem/bandit_either_3","A14ADQ7RUN6TDY","either","2","404","","","","","","","1","0","0","0.7467689404","","0.8","0.2","0.4","0.6","","","","","0.7467689404","0.6578341575","0.3556406549","0.3758155051","","","","","","","","72","H","0","img/none_selected.jpg","","104","main_expt",""
"","bandit","184","670894","0.0-145.0-0.0","45342121","wem/bandit_either_3","A14ADQ7RUN6TDY","either","2","359","","","","","","","1","0","0","0.737018723","","0.8","0.2","0.4","0.6","","","","","0.737018723","0.6727034752","0.3233911601","0.4508947075","","","","","","","","72","H","0","img/none_selected.jpg","","105","main_expt",""
"","bandit","185","672856","0.0-146.0-0.0","45342121","wem/bandit_either_3","A14ADQ7RUN6TDY","either","2","452","","","","","","","0","0","1","0.655194185","","0.8","0.2","0.4","0.6","","","","","0.655194185","0.6386482702","0.2024631506","0.4132181144","","","","","","","","72","H","0","img/none_selected.jpg","","106","main_expt",""
"","bandit","186","674841","0.0-147.0-0.0","45342121","wem/bandit_either_3","A14ADQ7RUN6TDY","either","2","472","","","","","","","0","0","1","0.7122819559","","0.8","0.2","0.4","0.6","","","","","0.7122819559","0.6788938686","0.2290393164","0.4393512677","","","","","","","","72","H","0","img/none_selected.jpg","","107","main_expt",""
"","bandit","187","676719","0.0-148.0-0.0","45342121","wem/bandit_either_3","A14ADQ7RUN6TDY","either","2","368","","","","","","","0","0","1","0.7326995505","","0.8","0.2","0.4","0.6","","","","","0.7326995505","0.7076498576","0.2217712157","0.4964319729","","","","","","","","72","H","0","img/none_selected.jpg","","108","main_expt",""
"","bandit","188","678879","0.0-149.0-0.0","45342121","wem/bandit_either_3","A14ADQ7RUN6TDY","either","2","649","","","","","","","1","0","0","0.7165499475","","0.8","0.2","0.4","0.6","","","","","0.7165499475","0.6932550908","0.1566860935","0.4790921069","","","","","","","","72","H","0","img/none_selected.jpg","","109","main_expt",""
"","bandit","189","680737","0.0-150.0-0.0","45342121","wem/bandit_either_3","A14ADQ7RUN6TDY","either","2","349","","","","","","","1","0","0","0.6058017554","","0.8","0.2","0.4","0.6","","","","","0.6058017554","0.7436061547","0.1083987113","0.5856434505","","","","","","","","72","H","0","img/none_selected.jpg","","110","main_expt",""
"","bandit","190","682680","0.0-151.0-0.0","45342121","wem/bandit_either_3","A14ADQ7RUN6TDY","either","2","432","","","","","","","0","1","0","","0.5476823758","0.8","0.2","0.4","0.6","0.5476823758","0.657194241","0.217828795","0.6444230696","","","","","","","","","","","","72","H","0","img/none_selected.jpg","","111","main_expt",""
"","bandit","191","684591","0.0-152.0-0.0","45342121","wem/bandit_either_3","A14ADQ7RUN6TDY","either","2","400","","","","","","","1","0","0","0.5688313193","","0.8","0.2","0.4","0.6","","","","","0.5688313193","0.6317228327","0.2212119155","0.603417252","","","","","","","","72","H","0","img/none_selected.jpg","","112","main_expt",""
"","bandit","192","686480","0.0-153.0-0.0","45342121","wem/bandit_either_3","A14ADQ7RUN6TDY","either","2","379","","","","","","","0","0","1","0.50852785","","0.8","0.2","0.4","0.6","","","","","0.50852785","0.4985892417","0.2374112476","0.420613871","","","","","","","","72","H","0","img/none_selected.jpg","","113","main_expt",""
"","bandit","193","688822","0.0-154.0-0.0","45342121","wem/bandit_either_3","A14ADQ7RUN6TDY","either","2","834","","","","","","","0","0","1","","0.579071345","0.8","0.2","0.4","0.6","0.5711084253","0.579071345","0.2703699348","0.2851569533","","","","","","","","","","","","74","J","1","","","114","main_expt",""
"","bandit","194","690735","0.0-155.0-0.0","45342121","wem/bandit_either_3","A14ADQ7RUN6TDY","either","2","403","","","","","","","0","1","0","","0.4595939904","0.8","0.2","0.4","0.6","0.4177754351","0.4595939904","0.1928485376","0.3166589884","","","","","","","","","","","","74","J","1","","","115","main_expt",""
"","bandit","195","692616","0.0-156.0-0.0","45342121","wem/bandit_either_3","A14ADQ7RUN6TDY","either","2","370","","","","","","","0","0","1","0.3744567546","","0.8","0.2","0.4","0.6","","","","","0.387840809","0.3744567546","0.136356343","0.3928451607","","","","","","","","74","J","1","","","116","main_expt",""
"","bandit","196","694470","0.0-157.0-0.0","45342121","wem/bandit_either_3","A14ADQ7RUN6TDY","either","2","345","","","","","","","0","0","1","0.2193113504","","0.8","0.2","0.4","0.6","","","","","0.4456731606","0.302145019","0.2193113504","0.560845346","","","","","","","","75","K","2","","","117","main_expt",""
"","bandit","197","696327","0.0-158.0-0.0","45342121","wem/bandit_either_3","A14ADQ7RUN6TDY","either","2","346","","","","","","","0","0","1","","0.2686792008","0.8","0.2","0.4","0.6","0.3045880574","0.3522466686","0.2686792008","0.5536818424","","","","","","","","","","","","75","K","2","","","118","main_expt",""
"","bandit","198","698582","0.0-159.0-0.0","45342121","wem/bandit_either_3","A14ADQ7RUN6TDY","either","2","746","","","","","","","0","0","1","","0.3617659687","0.8","0.2","0.4","0.6","0.3994134075","0.4425542362","0.2668270476","0.3617659687","","","","","","","","","","","","76","L","3","","","119","main_expt",""
"","bandit","199","700494","0.0-160.0-0.0","45342121","wem/bandit_either_3","A14ADQ7RUN6TDY","either","2","402","","","","","","","0","0","1","","0.3454740543","0.8","0.2","0.4","0.6","0.351449483","0.3377532805","0.3723992114","0.3454740543","","","","","","","","","","","","76","L","3","","","120","main_expt",""
"","bandit","200","702720","0.0-161.0-0.0","45342121","wem/bandit_either_3","A14ADQ7RUN6TDY","either","2","716","","","","","","","0","0","1","0.3641911367","","0.8","0.2","0.4","0.6","","","","","0.3641911367","0.2929504356","0.4001238515","0.2798257893","","","","","","","","72","H","0","img/none_selected.jpg","","121","main_expt",""
"","bandit","201","704686","0.0-162.0-0.0","45342121","wem/bandit_either_3","A14ADQ7RUN6TDY","either","2","456","","","","","","","0","0","1","0.2673706252","","0.8","0.2","0.4","0.6","","","","","0.2673706252","0.2504028886","0.4090120715","0.2261540995","","","","","","","","72","H","0","img/none_selected.jpg","","122","main_expt",""
"","bandit","202","706718","0.0-163.0-0.0","45342121","wem/bandit_either_3","A14ADQ7RUN6TDY","either","2","522","","","","","","","0","0","1","0.3455372181","","0.8","0.2","0.4","0.6","","","","","0.3455372181","0.2414849785","0.4746108064","0.2766663047","","","","","","","","72","H","0","img/none_selected.jpg","","123","main_expt",""
"","bandit","203","709142","0.0-164.0-0.0","45342121","wem/bandit_either_3","A14ADQ7RUN6TDY","either","2","914","","","","","","","0","1","0","","0.1791255979","0.8","0.2","0.4","0.6","0.3524137631","0.1791255979","0.453231646","0.3126864395","","","","","","","","","","","","74","J","1","","","124","main_expt",""
"","bandit","204","711047","0.0-165.0-0.0","45342121","wem/bandit_either_3","A14ADQ7RUN6TDY","either","2","395","","","","","","","1","0","0","0.1952456852","","0.8","0.2","0.4","0.6","","","","","0.3680881866","0.1952456852","0.4888945922","0.2772507379","","","","","","","","74","J","1","","","125","main_expt",""
"","bandit","205","713001","0.0-166.0-0.0","45342121","wem/bandit_either_3","A14ADQ7RUN6TDY","either","2","444","","","","","","","0","0","1","","0.2614303707","0.8","0.2","0.4","0.6","0.2884444508","0.2614303707","0.396932523","0.2441417391","","","","","","","","","","","","74","J","1","","","126","main_expt",""
"","bandit","206","715159","0.0-167.0-0.0","45342121","wem/bandit_either_3","A14ADQ7RUN6TDY","either","2","648","","","","","","","0","0","1","","0.267511235","0.8","0.2","0.4","0.6","0.2931854252","0.267511235","0.4026562496","0.2304038214","","","","","","","","","","","","74","J","1","","","127","main_expt",""
"","bandit","207","717192","0.0-168.0-0.0","45342121","wem/bandit_either_3","A14ADQ7RUN6TDY","either","2","521","","","","","","","0","0","1","","0.2582460394","0.8","0.2","0.4","0.6","0.3115494401","0.2582460394","0.3072143153","0.2463692943","","","","","","","","","","","","74","J","1","","","128","main_expt",""
"","bandit","208","719070","0.0-169.0-0.0","45342121","wem/bandit_either_3","A14ADQ7RUN6TDY","either","2","371","","","","","","","0","0","1","","0.3024431642","0.8","0.2","0.4","0.6","0.287093163","0.249100023","0.3024431642","0.262841392","","","","","","","","","","","","75","K","2","","","129","main_expt",""
"","bandit","209","720942","0.0-170.0-0.0","45342121","wem/bandit_either_3","A14ADQ7RUN6TDY","either","2","366","","","","","","","0","0","1","","0.383823705","0.8","0.2","0.4","0.6","0.242368994","0.2014680341","0.383823705","0.3044503748","","","","","","","","","","","","75","K","2","","","130","main_expt",""
"","bandit","210","722855","0.0-171.0-0.0","45342121","wem/bandit_either_3","A14ADQ7RUN6TDY","either","2","402","","","","","","","0","0","1","0.3141093292","","0.8","0.2","0.4","0.6","","","","","0.3141093292","0.2514612397","0.5448185218","0.2231782293","","","","","","","","72","H","0","img/none_selected.jpg","","131","main_expt",""
"","bandit","211","724943","0.0-172.0-0.0","45342121","wem/bandit_either_3","A14ADQ7RUN6TDY","either","2","578","","","","","","","0","0","1","0.265126842","","0.8","0.2","0.4","0.6","","","","","0.3186943837","0.1719215191","0.5741986762","0.265126842","","","","","","","","76","L","3","","","132","main_expt",""
"","bandit","212","726950","0.0-173.0-0.0","45342121","wem/bandit_either_3","A14ADQ7RUN6TDY","either","2","497","","","","","","","0","0","1","","0.54298015","0.8","0.2","0.4","0.6","0.3218599317","0.151851594","0.54298015","0.1996467811","","","","","","","","","","","","75","K","2","","","133","main_expt",""
"","bandit","213","728974","0.0-174.0-0.0","45342121","wem/bandit_either_3","A14ADQ7RUN6TDY","either","2","514","","","","","","","0","0","1","","0.5504084981","0.8","0.2","0.4","0.6","0.3372263261","0.1693242304","0.5504084981","0.1900899503","","","","","","","","","","","","75","K","2","","","134","main_expt",""
"","bandit","214","731037","0.0-175.0-0.0","45342121","wem/bandit_either_3","A14ADQ7RUN6TDY","either","2","554","","","","","","","0","0","1","","0.1541174352","0.8","0.2","0.4","0.6","0.3515125386","0.1541174352","0.4874659601","0.172295534","","","","","","","","","","","","74","J","1","","","135","main_expt",""
"","bandit","215","733158","0.0-176.0-0.0","45342121","wem/bandit_either_3","A14ADQ7RUN6TDY","either","2","614","","","","","","","0","0","1","","0.1374012581","0.8","0.2","0.4","0.6","0.2312583875","0.1374012581","0.3677382912","0.1171098277","","","","","","","","","","","","74","J","1","","","136","main_expt",""
"","bandit","216","736184","0.0-177.0-0.0","45342121","wem/bandit_either_3","A14ADQ7RUN6TDY","either","2","1516","","","","","","","0","0","1","0.1390909791","","0.8","0.2","0.4","0.6","","","","","0.3496768842","0.2889288236","0.2944012193","0.1390909791","","","","","","","","76","L","3","","","137","main_expt",""
"","bandit","217","738190","0.0-178.0-0.0","45342121","wem/bandit_either_3","A14ADQ7RUN6TDY","either","2","496","","","","","","","1","0","0","0.4217982028","","0.8","0.2","0.4","0.6","","","","","0.4217982028","0.2177367931","0.3020033879","0.1209370274","","","","","","","","72","H","0","img/none_selected.jpg","","138","main_expt",""
"","bandit","218","740190","0.0-179.0-0.0","45342121","wem/bandit_either_3","A14ADQ7RUN6TDY","either","2","490","","","","","","","1","0","0","0.5123523738","","0.8","0.2","0.4","0.6","","","","","0.5123523738","0.1704259453","0.2908104057","0.1441291996","","","","","","","","72","H","0","img/none_selected.jpg","","139","main_expt",""
"","bandit","219","742822","0.0-180.0-0.0","45342121","wem/bandit_either_3","A14ADQ7RUN6TDY","either","2","1122","","","","","","","1","0","0","0.3892042576","","0.8","0.2","0.4","0.6","","","","","0.3892042576","0.1827322183","0.2738290205","0.1380406349","","","","","","","","72","H","0","img/none_selected.jpg","","140","main_expt",""
"","bandit","220","744854","0.0-181.0-0.0","45342121","wem/bandit_either_3","A14ADQ7RUN6TDY","either","2","522","","","","","","","1","0","0","0.4680147771","","0.8","0.2","0.4","0.6","","","","","0.4680147771","0.2030288612","0.3865798498","0.1312769784","","","","","","","","72","H","0","img/none_selected.jpg","","141","main_expt",""
"","bandit","221","747335","0.0-182.0-0.0","45342121","wem/bandit_either_3","A14ADQ7RUN6TDY","either","2","971","","","","","","","0","0","1","0.3970866904","","0.8","0.2","0.4","0.6","","","","","0.3970866904","0.1760536641","0.3507917403","0.1880730553","","","","","","","","72","H","0","img/none_selected.jpg","","142","main_expt",""
"","bandit","222","749215","0.0-183.0-0.0","45342121","wem/bandit_either_3","A14ADQ7RUN6TDY","either","2","370","","","","","","","1","0","0","0.3609481858","","0.8","0.2","0.4","0.6","","","","","0.3609481858","0.1428921374","0.2787839286","0.1798266991","","","","","","","","72","H","0","img/none_selected.jpg","","143","main_expt",""
"","bandit","223","751214","0.0-184.0-0.0","45342121","wem/bandit_either_3","A14ADQ7RUN6TDY","either","2","489","","","","","","","0","1","0","","0.3701270871","0.8","0.2","0.4","0.6","0.3701270871","0.1260474704","0.2106619402","0.1881666754","","","","","","","","","","","","72","H","0","img/none_selected.jpg","","144","main_expt",""
"","bandit","224","753247","0.0-185.0-0.0","45342121","wem/bandit_either_3","A14ADQ7RUN6TDY","either","2","521","","","","","","","1","0","0","0.3110645609","","0.8","0.2","0.4","0.6","","","","","0.3110645609","0.151337539","0.3211677341","0.1683386122","","","","","","","","72","H","0","img/none_selected.jpg","","145","main_expt",""
"","bandit","225","755262","0.0-186.0-0.0","45342121","wem/bandit_either_3","A14ADQ7RUN6TDY","either","2","505","","","","","","","0","0","1","0.356964637","","0.8","0.2","0.4","0.6","","","","","0.356964637","0.1600114734","0.4417580917","0.2609121533","","","","","","","","72","H","0","img/none_selected.jpg","","146","main_expt",""
"","bandit","226","757198","0.0-187.0-0.0","45342121","wem/bandit_either_3","A14ADQ7RUN6TDY","either","2","426","","","","","","","0","0","1","0.5143633813","","0.8","0.2","0.4","0.6","","","","","0.5143633813","0.1262446547","0.278611551","0.280259565","","","","","","","","72","H","0","img/none_selected.jpg","","147","main_expt",""
"","bandit","227","759247","0.0-188.0-0.0","45342121","wem/bandit_either_3","A14ADQ7RUN6TDY","either","2","539","","","","","","","1","0","0","0.5086187798","","0.8","0.2","0.4","0.6","","","","","0.5086187798","0.1030311585","0.2811332351","0.2972918914","","","","","","","","72","H","0","img/none_selected.jpg","","148","main_expt",""
"","bandit","228","761277","0.0-189.0-0.0","45342121","wem/bandit_either_3","A14ADQ7RUN6TDY","either","2","520","","","","","","","1","0","0","0.4676315778","","0.8","0.2","0.4","0.6","","","","","0.4676315778","0.123834606","0.2606345315","0.3284309668","","","","","","","","72","H","0","img/none_selected.jpg","","149","main_expt",""
"","bandit","229","763254","0.0-190.0-0.0","45342121","wem/bandit_either_3","A14ADQ7RUN6TDY","either","2","465","","","","","","","1","0","0","0.4737351686","","0.8","0.2","0.4","0.6","","","","","0.4737351686","0.06566206942","0.260677327","0.3186890608","","","","","","","","72","H","0","img/none_selected.jpg","","150","main_expt",""
"","bandit","230","765134","0.0-191.0-0.0","45342121","wem/bandit_either_3","A14ADQ7RUN6TDY","either","2","370","","","","","","","1","0","0","0.5387476985","","0.8","0.2","0.4","0.6","","","","","0.5387476985","0.06342121736","0.2579624968","0.3331747037","","","","","","","","72","H","0","img/none_selected.jpg","","151","main_expt",""
"","bandit","231","767055","0.0-192.0-0.0","45342121","wem/bandit_either_3","A14ADQ7RUN6TDY","either","2","412","","","","","","","1","0","0","0.5065138565","","0.8","0.2","0.4","0.6","","","","","0.5065138565","0.1162046696","0.2536911072","0.364096089","","","","","","","","72","H","0","img/none_selected.jpg","","152","main_expt",""
"","bandit","232","768942","0.0-193.0-0.0","45342121","wem/bandit_either_3","A14ADQ7RUN6TDY","either","2","379","","","","","","","0","0","1","0.5190676077","","0.8","0.2","0.4","0.6","","","","","0.5190676077","0.1388943584","0.1427943183","0.3189440566","","","","","","","","72","H","0","img/none_selected.jpg","","153","main_expt",""
"","bandit","233","770878","0.0-194.0-0.0","45342121","wem/bandit_either_3","A14ADQ7RUN6TDY","either","2","427","","","","","","","1","0","0","0.4944482457","","0.8","0.2","0.4","0.6","","","","","0.4944482457","0.1188489222","0.08934943386","0.486858514","","","","","","","","72","H","0","img/none_selected.jpg","","154","main_expt",""
"","bandit","234","772925","0.0-195.0-0.0","45342121","wem/bandit_either_3","A14ADQ7RUN6TDY","either","2","537","","","","","","","0","0","1","0.4987902374","","0.8","0.2","0.4","0.6","","","","","0.4987902374","0.1255079792","0.1048919666","0.398958755","","","","","","","","72","H","0","img/none_selected.jpg","","155","main_expt",""
"","bandit","235","774822","0.0-196.0-0.0","45342121","wem/bandit_either_3","A14ADQ7RUN6TDY","either","2","385","","","","","","","0","0","1","0.4151199053","","0.8","0.2","0.4","0.6","","","","","0.4151199053","0.1705129017","0.1348874752","0.3508932217","","","","","","","","72","H","0","img/none_selected.jpg","","156","main_expt",""
"","bandit","236","776798","0.0-197.0-0.0","45342121","wem/bandit_either_3","A14ADQ7RUN6TDY","either","2","465","","","","","","","0","0","1","0.4215128153","","0.8","0.2","0.4","0.6","","","","","0.4215128153","0.1892203872","0.1197456909","0.3736640956","","","","","","","","72","H","0","img/none_selected.jpg","","157","main_expt",""
"","bandit","237","778781","0.0-198.0-0.0","45342121","wem/bandit_either_3","A14ADQ7RUN6TDY","either","2","473","","","","","","","0","0","1","0.3666899102","","0.8","0.2","0.4","0.6","","","","","0.3666899102","0.1589595026","0.1343935597","0.3215678611","","","","","","","","72","H","0","img/none_selected.jpg","","158","main_expt",""
"","bandit","238","780749","0.0-199.0-0.0","45342121","wem/bandit_either_3","A14ADQ7RUN6TDY","either","2","458","","","","","","","0","0","1","0.3906786657","","0.8","0.2","0.4","0.6","","","","","0.3906786657","0.1426383857","0.04604274909","0.2732838962","","","","","","","","72","H","0","img/none_selected.jpg","","159","main_expt",""
"","bandit","239","782742","0.0-200.0-0.0","45342121","wem/bandit_either_3","A14ADQ7RUN6TDY","either","2","482","","","","","","","0","0","1","","0.4769972016","0.8","0.2","0.4","0.6","0.4769972016","0.2747613825","0.08927965808","0.2323229575","","","","","","","","","","","","72","H","0","img/none_selected.jpg","","160","main_expt",""
"","bandit","240","784733","0.0-201.0-0.0","45342121","wem/bandit_either_3","A14ADQ7RUN6TDY","either","2","481","","","","","","","0","0","1","","0.2046882866","0.8","0.2","0.4","0.6","0.4405879513","0.2046882866","0.1038156196","0.399022808","","","","","","","","","","","","74","J","1","","","161","main_expt",""
"","bandit","241","786790","0.0-202.0-0.0","45342121","wem/bandit_either_3","A14ADQ7RUN6TDY","either","2","545","","","","","","","0","0","1","0.1715152701","","0.8","0.2","0.4","0.6","","","","","0.44055992","0.1715152701","0.1470739062","0.4967313539","","","","","","","","74","J","1","","","162","main_expt",""
"","bandit","242","788686","0.0-203.0-0.0","45342121","wem/bandit_either_3","A14ADQ7RUN6TDY","either","2","385","","","","","","","0","0","1","","0.1214264794","0.8","0.2","0.4","0.6","0.3434222481","0.2396687428","0.1214264794","0.5245029489","","","","","","","","","","","","75","K","2","","","163","main_expt",""
"","bandit","243","790517","0.0-204.0-0.0","45342121","wem/bandit_either_3","A14ADQ7RUN6TDY","either","2","320","","","","","","","1","0","0","0.1563758897","","0.8","0.2","0.4","0.6","","","","","0.3862652833","0.3359744524","0.1563758897","0.5808119749","","","","","","","","75","K","2","","","164","main_expt",""
"","bandit","244","792461","0.0-205.0-0.0","45342121","wem/bandit_either_3","A14ADQ7RUN6TDY","either","2","433","","","","","","","0","0","1","0.1311500467","","0.8","0.2","0.4","0.6","","","","","0.4270444342","0.4940159592","0.1311500467","0.6473032069","","","","","","","","75","K","2","","","165","main_expt",""
"","bandit","245","794533","0.0-206.0-0.0","45342121","wem/bandit_either_3","A14ADQ7RUN6TDY","either","2","565","","","","","","","0","0","1","","0.1419689761","0.8","0.2","0.4","0.6","0.5073102058","0.5922229292","0.1419689761","0.6790689848","","","","","","","","","","","","75","K","2","","","166","main_expt",""
"","bandit","246","796502","0.0-207.0-0.0","45342121","wem/bandit_either_3","A14ADQ7RUN6TDY","either","2","458","","","","","","","0","0","1","0.150246256","","0.8","0.2","0.4","0.6","","","","","0.5417092253","0.5562626425","0.150246256","0.5959653185","","","","","","","","75","K","2","","","167","main_expt",""
"","bandit","247","798748","0.0-208.0-0.0","45342121","wem/bandit_either_3","A14ADQ7RUN6TDY","either","2","740","","","","","","","0","0","1","0.361841396","","0.8","0.2","0.4","0.6","","","","","0.6505471885","0.6489587791","0.2070971521","0.361841396","","","","","","","","76","L","3","","","168","main_expt",""
"","bandit","248","800725","0.0-209.0-0.0","45342121","wem/bandit_either_3","A14ADQ7RUN6TDY","either","2","465","","","","","","","0","0","1","0.2594844845","","0.8","0.2","0.4","0.6","","","","","0.6226729341","0.5652428614","0.2564452127","0.2594844845","","","","","","","","76","L","3","","","169","main_expt",""
"","bandit","249","802686","0.0-210.0-0.0","45342121","wem/bandit_either_3","A14ADQ7RUN6TDY","either","2","448","","","","","","","1","0","0","0.7574543886","","0.8","0.2","0.4","0.6","","","","","0.7574543886","0.5344749526","0.2845729388","0.1987556041","","","","","","","","72","H","0","img/none_selected.jpg","","170","main_expt",""
"","bandit","250","804588","0.0-211.0-0.0","45342121","wem/bandit_either_3","A14ADQ7RUN6TDY","either","2","392","","","","","","","0","0","1","","0.774201251","0.8","0.2","0.4","0.6","0.774201251","0.6364900983","0.2360657399","0.1583585206","","","","","","","","","","","","72","H","0","img/none_selected.jpg","","171","main_expt",""
"","bandit","251","806605","0.0-212.0-0.0","45342121","wem/bandit_either_3","A14ADQ7RUN6TDY","either","2","505","","","","","","","0","0","1","","0.7739789177","0.8","0.2","0.4","0.6","0.7739789177","0.5516193693","0.3453554921","0.1494938987","","","","","","","","","","","","72","H","0","img/none_selected.jpg","","172","main_expt",""
"","bandit","252","808620","0.0-213.0-0.0","45342121","wem/bandit_either_3","A14ADQ7RUN6TDY","either","2","504","","","","","","","1","0","0","0.7146420849","","0.8","0.2","0.4","0.6","","","","","0.7146420849","0.5081608063","0.2909261263","0.1996494969","","","","","","","","72","H","0","img/none_selected.jpg","","173","main_expt",""
"","bandit","253","810468","0.0-214.0-0.0","45342121","wem/bandit_either_3","A14ADQ7RUN6TDY","either","2","336","","","","","","","0","1","0","","0.683245412","0.8","0.2","0.4","0.6","0.683245412","0.5247340446","0.3807546558","0.2200767262","","","","","","","","","","","","72","H","0","img/none_selected.jpg","","174","main_expt",""
"","bandit","254","812325","0.0-215.0-0.0","45342121","wem/bandit_either_3","A14ADQ7RUN6TDY","either","2","344","","","","","","","0","0","1","","0.7163731774","0.8","0.2","0.4","0.6","0.7163731774","0.5823110366","0.3889518003","0.1929710708","","","","","","","","","","","","72","H","0","img/none_selected.jpg","","175","main_expt",""
"","bandit","255","814300","0.0-216.0-0.0","45342121","wem/bandit_either_3","A14ADQ7RUN6TDY","either","2","463","","","","","","","1","0","0","0.6676116703","","0.8","0.2","0.4","0.6","","","","","0.6676116703","0.7693722391","0.3662842853","0.1756556012","","","","","","","","72","H","0","img/none_selected.jpg","","176","main_expt",""
"","bandit","256","816214","0.0-217.0-0.0","45342121","wem/bandit_either_3","A14ADQ7RUN6TDY","either","2","402","","","","","","","1","0","0","0.711116056","","0.8","0.2","0.4","0.6","","","","","0.711116056","0.8048595062","0.3102656016","0.2404611203","","","","","","","","72","H","0","img/none_selected.jpg","","177","main_expt",""
"","bandit","257","818108","0.0-218.0-0.0","45342121","wem/bandit_either_3","A14ADQ7RUN6TDY","either","2","383","","","","","","","1","0","0","0.6541247318","","0.8","0.2","0.4","0.6","","","","","0.6541247318","0.8147320782","0.3272385177","0.1651874793","","","","","","","","72","H","0","img/none_selected.jpg","","178","main_expt",""
"","bandit","258","820021","0.0-219.0-0.0","45342121","wem/bandit_either_3","A14ADQ7RUN6TDY","either","2","403","","","","","","","1","0","0","0.600925469","","0.8","0.2","0.4","0.6","","","","","0.600925469","0.7755432213","0.3185807274","0.1297692321","","","","","","","","72","H","0","img/none_selected.jpg","","179","main_expt",""
"","bandit","259","821964","0.0-220.0-0.0","45342121","wem/bandit_either_3","A14ADQ7RUN6TDY","either","2","435","","","","","","","1","0","0","0.6321701674","","0.8","0.2","0.4","0.6","","","","","0.6321701674","0.7309951384","0.3896265469","0.1311169289","","","","","","","","72","H","0","img/none_selected.jpg","","180","main_expt",""
"","bandit","260","823868","0.0-221.0-0.0","45342121","wem/bandit_either_3","A14ADQ7RUN6TDY","either","2","392","","","","","","","0","0","1","0.7040606398","","0.8","0.2","0.4","0.6","","","","","0.7040606398","0.8068071681","0.4381139349","0.2184653543","","","","","","","","72","H","0","img/none_selected.jpg","","181","main_expt",""
"","bandit","261","825516","0.0-222.0-0.0","45342121","wem/bandit_either_3","A14ADQ7RUN6TDY","either","2","136","","","","","","","1","0","0","0.6551517927","","0.8","0.2","0.4","0.6","","","","","0.6551517927","0.8096694819","0.4339703771","0.156745214","","","","","","","","72","H","0","img/none_selected.jpg","","182","main_expt",""
"","bandit","262","827333","0.0-223.0-0.0","45342121","wem/bandit_either_3","A14ADQ7RUN6TDY","either","2","305","","","","","","","1","0","0","0.7709035389","","0.8","0.2","0.4","0.6","","","","","0.7709035389","0.8522040983","0.5270594011","0.07710569088","","","","","","","","72","H","0","img/none_selected.jpg","","183","main_expt",""
"","bandit","263","829397","0.0-224.0-0.0","45342121","wem/bandit_either_3","A14ADQ7RUN6TDY","either","2","552","","","","","","","1","0","0","0.7869666122","","0.8","0.2","0.4","0.6","","","","","0.7869666122","0.8636776132","0.4791569234","0.07901501252","","","","","","","","72","H","0","img/none_selected.jpg","","184","main_expt",""
"","bandit","264","831429","0.0-225.0-0.0","45342121","wem/bandit_either_3","A14ADQ7RUN6TDY","either","2","519","","","","","","","1","0","0","0.804571828","","0.8","0.2","0.4","0.6","","","","","0.804571828","0.8605951951","0.464074867","0.05695362571","","","","","","","","72","H","0","img/none_selected.jpg","","185","main_expt",""
"","bandit","265","833356","0.0-226.0-0.0","45342121","wem/bandit_either_3","A14ADQ7RUN6TDY","either","2","416","","","","","","","0","1","0","","0.7866627628","0.8","0.2","0.4","0.6","0.7866627628","0.8578427848","0.4654947356","0.03796608352","","","","","","","","","","","","72","H","0","img/none_selected.jpg","","186","main_expt",""
"","bandit","266","835172","0.0-227.0-0.0","45342121","wem/bandit_either_3","A14ADQ7RUN6TDY","either","2","304","","","","","","","0","0","1","0.8006736442","","0.8","0.2","0.4","0.6","","","","","0.8006736442","0.8253306036","0.4338668179","0.05986429342","","","","","","","","72","H","0","img/none_selected.jpg","","187","main_expt",""
"","bandit","267","837027","0.0-228.0-0.0","45342121","wem/bandit_either_3","A14ADQ7RUN6TDY","either","2","344","","","","","","","0","0","1","0.7687627789","","0.8","0.2","0.4","0.6","","","","","0.7687627789","0.8118593573","0.4679469354","0.05827831728","","","","","","","","72","H","0","img/none_selected.jpg","","188","main_expt",""
"","bandit","268","838909","0.0-229.0-0.0","45342121","wem/bandit_either_3","A14ADQ7RUN6TDY","either","2","369","","","","","","","1","0","0","0.7009429779","","0.8","0.2","0.4","0.6","","","","","0.7009429779","0.8319104568","0.4645116859","0.06499387038","","","","","","","","72","H","0","img/none_selected.jpg","","189","main_expt",""
"","bandit","269","840804","0.0-230.0-0.0","45342121","wem/bandit_either_3","A14ADQ7RUN6TDY","either","2","383","","","","","","","0","0","1","0.7531121838","","0.8","0.2","0.4","0.6","","","","","0.7531121838","0.8949986836","0.4260553166","0.0878029059","","","","","","","","72","H","0","img/none_selected.jpg","","190","main_expt",""
"","bandit","270","842661","0.0-231.0-0.0","45342121","wem/bandit_either_3","A14ADQ7RUN6TDY","either","2","344","","","","","","","0","0","1","0.6174616994","","0.8","0.2","0.4","0.6","","","","","0.6174616994","0.9258368343","0.5323747461","0.1101088583","","","","","","","","72","H","0","img/none_selected.jpg","","191","main_expt",""
"","bandit","271","844579","0.0-232.0-0.0","45342121","wem/bandit_either_3","A14ADQ7RUN6TDY","either","2","406","","","","","","","0","1","0","","0.6331996982","0.8","0.2","0.4","0.6","0.6331996982","0.9221438833","0.6013900654","0.1559643099","","","","","","","","","","","","72","H","0","img/none_selected.jpg","","192","main_expt",""
"","bandit","272","846516","0.0-233.0-0.0","45342121","wem/bandit_either_3","A14ADQ7RUN6TDY","either","2","424","","","","","","","0","1","0","","0.5596167322","0.8","0.2","0.4","0.6","0.5596167322","0.878376231","0.5332063066","0.1348882638","","","","","","","","","","","","72","H","0","img/none_selected.jpg","","193","main_expt",""
"","bandit","273","848390","0.0-234.0-0.0","45342121","wem/bandit_either_3","A14ADQ7RUN6TDY","either","2","359","","","","","","","0","0","1","","0.5887018809","0.8","0.2","0.4","0.6","0.5887018809","0.7914694382","0.5499496643","0.243093686","","","","","","","","","","","","72","H","0","img/none_selected.jpg","","194","main_expt",""
"","bandit","274","850245","0.0-235.0-0.0","45342121","wem/bandit_either_3","A14ADQ7RUN6TDY","either","2","341","","","","","","","0","0","1","0.561552955","","0.8","0.2","0.4","0.6","","","","","0.561552955","0.7843027812","0.4170732774","0.2792315856","","","","","","","","72","H","0","img/none_selected.jpg","","195","main_expt",""
"","bandit","275","852324","0.0-236.0-0.0","45342121","wem/bandit_either_3","A14ADQ7RUN6TDY","either","2","566","","","","","","","1","0","0","0.6199522587","","0.8","0.2","0.4","0.6","","","","","0.6199522587","0.7888241066","0.4050854298","0.2075419965","","","","","","","","72","H","0","img/none_selected.jpg","","196","main_expt",""
"","bandit","276","854284","0.0-237.0-0.0","45342121","wem/bandit_either_3","A14ADQ7RUN6TDY","either","2","447","","","","","","","1","0","0","0.6886125155","","0.8","0.2","0.4","0.6","","","","","0.6886125155","0.8145025162","0.4522405917","0.1899284635","","","","","","","","72","H","0","img/none_selected.jpg","","197","main_expt",""
"","bandit","277","856332","0.0-238.0-0.0","45342121","wem/bandit_either_3","A14ADQ7RUN6TDY","either","2","535","","","","","","","1","0","0","0.6468609917","","0.8","0.2","0.4","0.6","","","","","0.6468609917","0.8795467387","0.4547961131","0.1632143895","","","","","","","","72","H","0","img/none_selected.jpg","","198","main_expt",""
"","bandit","278","858267","0.0-239.0-0.0","45342121","wem/bandit_either_3","A14ADQ7RUN6TDY","either","2","423","","","","","","","0","1","0","","0.7134983028","0.8","0.2","0.4","0.6","0.7134983028","0.8716255916","0.456709553","0.1580048483","","","","","","","","","","","","72","H","0","img/none_selected.jpg","","199","main_expt",""
"","bandit","279","860140","0.0-240.0-0.0","45342121","wem/bandit_either_3","A14ADQ7RUN6TDY","either","2","364","","","","","","","0","1","0","","0.6545285445","0.8","0.2","0.4","0.6","0.6545285445","0.8596876402","0.4197111003","0.1815025648","","","","","","","","","","","","72","H","0","img/none_selected.jpg","","200","main_expt",""
"","bandit","280","862543","0.0-241.0-0.0","45342121","wem/bandit_either_3","A14ADQ7RUN6TDY","either","2","888","","","","","","","1","0","0","0.6827561938","","0.8","0.2","0.4","0.6","","","","","0.6827561938","0.8714244785","0.4468864226","0.1453003075","","","","","","","","72","H","0","img/none_selected.jpg","","201","main_expt",""
"","bandit","281","864461","0.0-242.0-0.0","45342121","wem/bandit_either_3","A14ADQ7RUN6TDY","either","2","406","","","","","","","1","0","0","0.6590680519","","0.8","0.2","0.4","0.6","","","","","0.6590680519","0.8679491409","0.3852152277","0.1061510446","","","","","","","","72","H","0","img/none_selected.jpg","","202","main_expt",""
"","bandit","282","866341","0.0-243.0-0.0","45342121","wem/bandit_either_3","A14ADQ7RUN6TDY","either","2","367","","","","","","","0","0","1","0.67998256","","0.8","0.2","0.4","0.6","","","","","0.67998256","0.8421855008","0.3481501846","0.09667757311","","","","","","","","72","H","0","img/none_selected.jpg","","203","main_expt",""
"","bandit","283","868219","0.0-244.0-0.0","45342121","wem/bandit_either_3","A14ADQ7RUN6TDY","either","2","367","","","","","","","1","0","0","0.7157802034","","0.8","0.2","0.4","0.6","","","","","0.7157802034","0.8741547355","0.3688904748","0.109576977","","","","","","","","72","H","0","img/none_selected.jpg","","204","main_expt",""
"","bandit","284","870086","0.0-245.0-0.0","45342121","wem/bandit_either_3","A14ADQ7RUN6TDY","either","2","353","","","","","","","1","0","0","0.6750594522","","0.8","0.2","0.4","0.6","","","","","0.6750594522","0.8589537271","0.4196025605","0.1370524017","","","","","","","","72","H","0","img/none_selected.jpg","","205","main_expt",""
"","bandit","285","872085","0.0-246.0-0.0","45342121","wem/bandit_either_3","A14ADQ7RUN6TDY","either","2","485","","","","","","","1","0","0","0.7170784861","","0.8","0.2","0.4","0.6","","","","","0.7170784861","0.8009191088","0.3558717694","0.1005848846","","","","","","","","72","H","0","img/none_selected.jpg","","206","main_expt",""
"","bandit","286","874070","0.0-247.0-0.0","45342121","wem/bandit_either_3","A14ADQ7RUN6TDY","either","2","476","","","","","","","1","0","0","0.6886550294","","0.8","0.2","0.4","0.6","","","","","0.6886550294","0.8146279372","0.3978287694","0.1100528349","","","","","","","","72","H","0","img/none_selected.jpg","","207","main_expt",""
"","bandit","287","876140","0.0-248.0-0.0","45342121","wem/bandit_either_3","A14ADQ7RUN6TDY","either","2","561","","","","","","","1","0","0","0.7340041914","","0.8","0.2","0.4","0.6","","","","","0.7340041914","0.7498886323","0.3647175361","0.1165568201","","","","","","","","72","H","0","img/none_selected.jpg","","208","main_expt",""
"","bandit","288","878053","0.0-249.0-0.0","45342121","wem/bandit_either_3","A14ADQ7RUN6TDY","either","2","404","","","","","","","1","0","0","0.7108339061","","0.8","0.2","0.4","0.6","","","","","0.7108339061","0.781298432","0.2942091963","0.1607141963","","","","","","","","72","H","0","img/none_selected.jpg","","209","main_expt",""
"","bandit","289","880037","0.0-250.0-0.0","45342121","wem/bandit_either_3","A14ADQ7RUN6TDY","either","2","474","","","","","","","1","0","0","0.7322658343","","0.8","0.2","0.4","0.6","","","","","0.7322658343","0.8374694261","0.3228874634","0.2005879304","","","","","","","","72","H","0","img/none_selected.jpg","","210","main_expt",""
"","bandit","290","882150","0.0-251.0-0.0","45342121","wem/bandit_either_3","A14ADQ7RUN6TDY","either","2","603","","","","","","","1","0","0","0.6220956771","","0.8","0.2","0.4","0.6","","","","","0.6220956771","0.7461264045","0.3300931135","0.1999716741","","","","","","","","72","H","0","img/none_selected.jpg","","211","main_expt",""
"","bandit","291","884165","0.0-252.0-0.0","45342121","wem/bandit_either_3","A14ADQ7RUN6TDY","either","2","502","","","","","","","1","0","0","0.5400145011","","0.8","0.2","0.4","0.6","","","","","0.5400145011","0.7267359419","0.4044608811","0.2135957141","","","","","","","","72","H","0","img/none_selected.jpg","","212","main_expt",""
"","bandit","292","886229","0.0-253.0-0.0","45342121","wem/bandit_either_3","A14ADQ7RUN6TDY","either","2","551","","","","","","","0","1","0","","0.5419994818","0.8","0.2","0.4","0.6","0.5419994818","0.6529835343","0.4916994921","0.2041793084","","","","","","","","","","","","72","H","0","img/none_selected.jpg","","213","main_expt",""
"","bandit","293","888547","0.0-254.0-0.0","45342121","wem/bandit_either_3","A14ADQ7RUN6TDY","either","2","805","","","","","","","0","0","1","0.6195319152","","0.8","0.2","0.4","0.6","","","","","0.6195319152","0.5734554779","0.5387088508","0.2563089198","","","","","","","","72","H","0","img/none_selected.jpg","","214","main_expt",""
"","bandit","294","890635","0.0-255.0-0.0","45342121","wem/bandit_either_3","A14ADQ7RUN6TDY","either","2","576","","","","","","","0","0","1","0.7405966814","","0.8","0.2","0.4","0.6","","","","","0.7405966814","0.7056003711","0.567041903","0.2870699064","","","","","","","","72","H","0","img/none_selected.jpg","","215","main_expt",""
"","bandit","295","892676","0.0-256.0-0.0","45342121","wem/bandit_either_3","A14ADQ7RUN6TDY","either","2","527","","","","","","","1","0","0","0.8005734678","","0.8","0.2","0.4","0.6","","","","","0.8005734678","0.7717913507","0.539749723","0.2715554895","","","","","","","","72","H","0","img/none_selected.jpg","","216","main_expt",""
"","bandit","296","894733","0.0-257.0-0.0","45342121","wem/bandit_either_3","A14ADQ7RUN6TDY","either","2","544","","","","","","","1","0","0","0.8392159132","","0.8","0.2","0.4","0.6","","","","","0.8392159132","0.834894728","0.3803352486","0.2027777883","","","","","","","","72","H","0","img/none_selected.jpg","","217","main_expt",""
"","bandit","297","896916","0.0-258.0-0.0","45342121","wem/bandit_either_3","A14ADQ7RUN6TDY","either","2","670","","","","","","","1","0","0","0.7445585264","","0.8","0.2","0.4","0.6","","","","","0.7445585264","0.868580258","0.3236333655","0.2169787163","","","","","","","","72","H","0","img/none_selected.jpg","","218","main_expt",""
"","bandit","298","898764","0.0-259.0-0.0","45342121","wem/bandit_either_3","A14ADQ7RUN6TDY","either","2","336","","","","","","","0","0","1","0.7174829008","","0.8","0.2","0.4","0.6","","","","","0.7174829008","0.8236231074","0.2612589469","0.2292932202","","","","","","","","72","H","0","img/none_selected.jpg","","219","main_expt",""
"","bandit","299","900685","0.0-260.0-0.0","45342121","wem/bandit_either_3","A14ADQ7RUN6TDY","either","2","408","","","","","","","0","0","1","","0.6601767392","0.8","0.2","0.4","0.6","0.6601767392","0.7719294443","0.2228319794","0.2829053382","","","","","","","","","","","","72","H","0","img/none_selected.jpg","","220","main_expt",""
"","bandit","300","902805","0.0-261.0-0.0","45342121","wem/bandit_either_3","A14ADQ7RUN6TDY","either","2","606","","","","","","","0","1","0","","0.703996204","0.8","0.2","0.4","0.6","0.703996204","0.7609360252","0.2204856404","0.2691731019","","","","","","","","","","","","72","H","0","img/none_selected.jpg","","221","main_expt",""
"","bandit","301","904830","0.0-262.0-0.0","45342121","wem/bandit_either_3","A14ADQ7RUN6TDY","either","2","512","","","","","","","1","0","0","0.6188024556","","0.8","0.2","0.4","0.6","","","","","0.6188024556","0.7319851961","0.2269951902","0.1974112065","","","","","","","","72","H","0","img/none_selected.jpg","","222","main_expt",""
"","bandit","302","907021","0.0-263.0-0.0","45342121","wem/bandit_either_3","A14ADQ7RUN6TDY","either","2","677","","","","","","","1","0","0","0.5695888615","","0.8","0.2","0.4","0.6","","","","","0.5695888615","0.6994646324","0.3417830843","0.08486155027","","","","","","","","72","H","0","img/none_selected.jpg","","223","main_expt",""
"","bandit","303","909076","0.0-264.0-0.0","45342121","wem/bandit_either_3","A14ADQ7RUN6TDY","either","2","541","","","","","","","0","0","1","0.6590173842","","0.8","0.2","0.4","0.6","","","","","0.6590173842","0.6817307813","0.4057490183","0.1930609847","","","","","","","","72","H","0","img/none_selected.jpg","","224","main_expt",""
"","bandit","304","911092","0.0-265.0-0.0","45342121","wem/bandit_either_3","A14ADQ7RUN6TDY","either","2","508","","","","","","","0","0","1","0.6779124893","","0.8","0.2","0.4","0.6","","","","","0.6779124893","0.67394888","0.4266979185","0.2026087193","","","","","","","","72","H","0","img/none_selected.jpg","","225","main_expt",""
"","bandit","305","913037","0.0-266.0-0.0","45342121","wem/bandit_either_3","A14ADQ7RUN6TDY","either","2","436","","","","","","","1","0","0","0.6433757785","","0.8","0.2","0.4","0.6","","","","","0.6433757785","0.6520670614","0.4723095555","0.1295559036","","","","","","","","72","H","0","img/none_selected.jpg","","226","main_expt",""
"","bandit","306","915021","0.0-267.0-0.0","45342121","wem/bandit_either_3","A14ADQ7RUN6TDY","either","2","473","","","","","","","0","0","1","0.6050090536","","0.8","0.2","0.4","0.6","","","","","0.6050090536","0.6598054912","0.4396274322","0.1014701128","","","","","","","","72","H","0","img/none_selected.jpg","","227","main_expt",""
"","bandit","307","916963","0.0-268.0-0.0","45342121","wem/bandit_either_3","A14ADQ7RUN6TDY","either","2","429","","","","","","","0","0","1","0.5614220587","","0.8","0.2","0.4","0.6","","","","","0.5614220587","0.7313296172","0.4581465293","0.1374428951","","","","","","","","72","H","0","img/none_selected.jpg","","228","main_expt",""
"","bandit","308","919260","0.0-269.0-0.0","45342121","wem/bandit_either_3","A14ADQ7RUN6TDY","either","2","784","","","","","","","0","0","1","","0.536938762","0.8","0.2","0.4","0.6","0.536938762","0.5771612872","0.3635076811","0.2147377822","","","","","","","","","","","","72","H","0","img/none_selected.jpg","","229","main_expt",""
"","bandit","309","921260","0.0-270.0-0.0","45342121","wem/bandit_either_3","A14ADQ7RUN6TDY","either","2","486","","","","","","","0","1","0","","0.4691369301","0.8","0.2","0.4","0.6","0.4691369301","0.6474737632","0.4109812081","0.2128984172","","","","","","","","","","","","72","H","0","img/none_selected.jpg","","230","main_expt",""
"","bandit","310","923364","0.0-271.0-0.0","45342121","wem/bandit_either_3","A14ADQ7RUN6TDY","either","2","595","","","","","","","0","0","1","0.3801843724","","0.8","0.2","0.4","0.6","","","","","0.3801843724","0.77083729","0.3769467169","0.2566260117","","","","","","","","72","H","0","img/none_selected.jpg","","231","main_expt",""
"","bandit","311","925356","0.0-272.0-0.0","45342121","wem/bandit_either_3","A14ADQ7RUN6TDY","either","2","479","","","","","","","1","0","0","0.4401380948","","0.8","0.2","0.4","0.6","","","","","0.4401380948","0.7372448464","0.4489681289","0.307190163","","","","","","","","72","H","0","img/none_selected.jpg","","232","main_expt",""
"","bandit","312","927571","0.0-273.0-0.0","45342121","wem/bandit_either_3","A14ADQ7RUN6TDY","either","2","702","","","","","","","0","0","1","0.4589823784","","0.8","0.2","0.4","0.6","","","","","0.4589823784","0.8061851957","0.5191563331","0.3235632008","","","","","","","","72","H","0","img/none_selected.jpg","","233","main_expt",""
"","bandit","313","929492","0.0-274.0-0.0","45342121","wem/bandit_either_3","A14ADQ7RUN6TDY","either","2","407","","","","","","","1","0","0","0.412850409","","0.8","0.2","0.4","0.6","","","","","0.412850409","0.7628128465","0.5635532962","0.2229472669","","","","","","","","72","H","0","img/none_selected.jpg","","234","main_expt",""
"","bandit","314","931435","0.0-275.0-0.0","45342121","wem/bandit_either_3","A14ADQ7RUN6TDY","either","2","430","","","","","","","1","0","0","0.3071086281","","0.8","0.2","0.4","0.6","","","","","0.3071086281","0.7139354314","0.6059211115","0.3245092944","","","","","","","","72","H","0","img/none_selected.jpg","","235","main_expt",""
"","bandit","315","933563","0.0-276.0-0.0","45342121","wem/bandit_either_3","A14ADQ7RUN6TDY","either","2","615","","","","","","","0","0","1","0.3088172556","","0.8","0.2","0.4","0.6","","","","","0.3088172556","0.8459685894","0.5767319418","0.3817813951","","","","","","","","72","H","0","img/none_selected.jpg","","236","main_expt",""
"","bandit","316","935477","0.0-277.0-0.0","45342121","wem/bandit_either_3","A14ADQ7RUN6TDY","either","2","400","","","","","","","0","0","1","0.2725525041","","0.8","0.2","0.4","0.6","","","","","0.2725525041","0.8258062243","0.6195352853","0.5108794425","","","","","","","","72","H","0","img/none_selected.jpg","","237","main_expt",""
