"consent","trial_type","trial_index","time_elapsed","internal_node_id","subjID","study","MID","cond","drift","rt","responses","key_press","expt_phase","like","value","connected","gems","bombs","no_reward","GemPrChosen","BombPrChosen","GainOverPainPr_0","GainOverPainPr_1","GainOverPainPr_2","GainOverPainPr_3","LosePr_0","LosePr_1","LosePr_2","LosePr_3","WinPr_0","WinPr_1","WinPr_2","WinPr_3","Q0","Q1","Q2","gender","age","ethnicity","target","respCharCode","respKey","respChoiceNum","respChoice","practice","trial_counter","trial_label","button_pressed"
"INL_behavioral_consent_30min_online.html","consent","0","10478","0.0-0.0","46207419","wem/bandit_either_3","A3MCQHA2V0G46V","either","8","","","","","","","","","","","","","","","","","","","","","","","","","","","","","","","","","","","","","","",""
"","survey-text","1","13263","0.0-1.0","46207419","wem/bandit_either_3","A3MCQHA2V0G46V","either","8","1774","{""Q0"":""A3MCQHA2V0G46V""}","","","","","","","","","","","","","","","","","","","","","","","","","","","","","","","","","","","","",""
"","text","2","31317","0.0-2.0","46207419","wem/bandit_either_3","A3MCQHA2V0G46V","either","8","17046","","32","","","","","","","","","","","","","","","","","","","","","","","","","","","","","","","","","","","",""
"","text","3","43274","0.0-3.0","46207419","wem/bandit_either_3","A3MCQHA2V0G46V","either","8","11953","","32","","","","","","","","","","","","","","","","","","","","","","","","","","","","","","","","","","","",""
"","text","4","85358","0.0-4.0","46207419","wem/bandit_either_3","A3MCQHA2V0G46V","either","8","42081","","32","","","","","","","","","","","","","","","","","","","","","","","","","","","","","","","","","","","",""
"","text","5","122215","0.0-5.0","46207419","wem/bandit_either_3","A3MCQHA2V0G46V","either","8","36855","","32","","","","","","","","","","","","","","","","","","","","","","","","","","","","","","","","","","","",""
"","text","6","151881","0.0-6.0","46207419","wem/bandit_either_3","A3MCQHA2V0G46V","either","8","29663","","32","","","","","","","","","","","","","","","","","","","","","","","","","","","","","","","","","","","",""
"","text","7","167294","0.0-7.0","46207419","wem/bandit_either_3","A3MCQHA2V0G46V","either","8","15411","","32","","","","","","","","","","","","","","","","","","","","","","","","","","","","","","","","","","","",""
"","text","8","173967","0.0-8.0","46207419","wem/bandit_either_3","A3MCQHA2V0G46V","either","8","6671","","32","","","","","","","","","","","","","","","","","","","","","","","","","","","","","","","","","","","",""
"","identification","9","208444","0.0-9.0-0.0","46207419","wem/bandit_either_3","A3MCQHA2V0G46V","either","8","34450","","","","2","6","4","","","","","","","","","","","","","","","","","","","","","","","","the village of Zur","","","","","","","",""
"","identification","10","239258","0.0-9.0-1.0","46207419","wem/bandit_either_3","A3MCQHA2V0G46V","either","8","29788","","","","2","5","4","","","","","","","","","","","","","","","","","","","","","","","","the village of Nyx","","","","","","","",""
"","text","11","250336","0.0-10.0","46207419","wem/bandit_either_3","A3MCQHA2V0G46V","either","8","10072","","32","","","","","","","","","","","","","","","","","","","","","","","","","","","","","","","","","","","",""
"","text","12","256133","0.0-11.0","46207419","wem/bandit_either_3","A3MCQHA2V0G46V","either","8","5794","","32","","","","","","","","","","","","","","","","","","","","","","","","","","","","","","","","","","","",""
"","text","13","260091","0.0-12.0","46207419","wem/bandit_either_3","A3MCQHA2V0G46V","either","8","3956","","32","","","","","","","","","","","","","","","","","","","","","","","","","","","","","","","","","","","",""
"","text","14","267161","0.0-13.0","46207419","wem/bandit_either_3","A3MCQHA2V0G46V","either","8","7068","","32","","","","","","","","","","","","","","","","","","","","","","","","","","","","","","","","","","","",""
"","bandit","15","271313","0.0-14.0-0.0","46207419","wem/bandit_either_3","A3MCQHA2V0G46V","either","8","2634","","","","","","","0","0","1","0","0","","","","","0","","","","0","","","","","","","","","","","74","J","0","img/none_selected_demo.jpg","true","0","",""
"","bandit","16","275412","0.0-15.0-0.0","46207419","wem/bandit_either_3","A3MCQHA2V0G46V","either","8","2586","","","","","","","0","0","1","0","0","","","","","0","","","","0","","","","","","","","","","","75","K","0","img/none_selected_demo.jpg","true","0","",""
"","text","17","287447","0.0-16.0","46207419","wem/bandit_either_3","A3MCQHA2V0G46V","either","8","12032","","32","","","","","","","","","","","","","","","","","","","","","","","","","","","","","","","","","","","",""
"","text","18","306719","0.0-17.0","46207419","wem/bandit_either_3","A3MCQHA2V0G46V","either","8","19270","","32","","","","","","","","","","","","","","","","","","","","","","","","","","","","","","","","","","","",""
"","text","19","320236","0.0-18.0","46207419","wem/bandit_either_3","A3MCQHA2V0G46V","either","8","13515","","32","","","","","","","","","","","","","","","","","","","","","","","","","","","","","","","","","","","",""
"","text","20","329667","0.0-19.0","46207419","wem/bandit_either_3","A3MCQHA2V0G46V","either","8","9428","","32","","","","","","","","","","","","","","","","","","","","","","","","","","","","","","","","","","","",""
"","bandit","21","333147","0.0-20.0-0.0","46207419","wem/bandit_either_3","A3MCQHA2V0G46V","either","8","1969","","","","","","","1","0","0","0.8","","0.5","0.5","","","","","","","0.8","0.2","","","","","","","","","","74","J","0","img/none_selected_demo.jpg","true","0","80_20_practice",""
"","bandit","22","336743","0.0-20.0-1.0","46207419","wem/bandit_either_3","A3MCQHA2V0G46V","either","8","2087","","","","","","","1","0","0","0.8","","0.5","0.5","","","","","","","0.8","0.2","","","","","","","","","","74","J","0","img/none_selected_demo.jpg","true","0","80_20_practice",""
"","bandit","23","339621","0.0-20.0-2.0","46207419","wem/bandit_either_3","A3MCQHA2V0G46V","either","8","1365","","","","","","","1","0","0","0.8","","0.5","0.5","","","","","","","0.8","0.2","","","","","","","","","","74","J","0","img/none_selected_demo.jpg","true","0","80_20_practice",""
"","bandit","24","342191","0.0-20.0-3.0","46207419","wem/bandit_either_3","A3MCQHA2V0G46V","either","8","1056","","","","","","","0","0","1","","0.8","0.5","0.5","","","0.8","0.2","","","","","","","","","","","","","","74","J","0","img/none_selected_demo.jpg","true","0","80_20_practice",""
"","bandit","25","344891","0.0-20.0-4.0","46207419","wem/bandit_either_3","A3MCQHA2V0G46V","either","8","1189","","","","","","","1","0","0","0.8","","0.5","0.5","","","","","","","0.8","0.2","","","","","","","","","","74","J","0","img/none_selected_demo.jpg","true","0","80_20_practice",""
"","bandit","26","347475","0.0-20.0-5.0","46207419","wem/bandit_either_3","A3MCQHA2V0G46V","either","8","1072","","","","","","","0","1","0","","0.8","0.5","0.5","","","0.8","0.2","","","","","","","","","","","","","","74","J","0","img/none_selected_demo.jpg","true","0","80_20_practice",""
"","bandit","27","349983","0.0-20.0-6.0","46207419","wem/bandit_either_3","A3MCQHA2V0G46V","either","8","997","","","","","","","0","1","0","","0.8","0.5","0.5","","","0.8","0.2","","","","","","","","","","","","","","74","J","0","img/none_selected_demo.jpg","true","0","80_20_practice",""
"","bandit","28","352763","0.0-20.0-7.0","46207419","wem/bandit_either_3","A3MCQHA2V0G46V","either","8","1267","","","","","","","0","0","1","0.8","","0.5","0.5","","","","","","","0.8","0.2","","","","","","","","","","74","J","0","img/none_selected_demo.jpg","true","0","80_20_practice",""
"","bandit","29","355542","0.0-20.0-8.0","46207419","wem/bandit_either_3","A3MCQHA2V0G46V","either","8","1266","","","","","","","0","1","0","","0.8","0.5","0.5","","","0.8","0.2","","","","","","","","","","","","","","74","J","0","img/none_selected_demo.jpg","true","0","80_20_practice",""
"","bandit","30","357505","0.0-20.0-9.0","46207419","wem/bandit_either_3","A3MCQHA2V0G46V","either","8","453","","","","","","","1","0","0","0.8","","0.5","0.5","","","","","","","0.8","0.2","","","","","","","","","","74","J","0","img/none_selected_demo.jpg","true","0","80_20_practice",""
"","bandit","31","359329","0.0-20.0-10.0","46207419","wem/bandit_either_3","A3MCQHA2V0G46V","either","8","312","","","","","","","0","1","0","","0.8","0.5","0.5","","","0.8","0.2","","","","","","","","","","","","","","74","J","0","img/none_selected_demo.jpg","true","0","80_20_practice",""
"","bandit","32","361183","0.0-20.0-11.0","46207419","wem/bandit_either_3","A3MCQHA2V0G46V","either","8","342","","","","","","","0","0","1","","0.2","0.5","0.5","","","0.8","0.2","","","","","","","","","","","","","","75","K","1","","true","0","80_20_practice",""
"","bandit","33","363046","0.0-20.0-12.0","46207419","wem/bandit_either_3","A3MCQHA2V0G46V","either","8","351","","","","","","","0","0","1","0.2","","0.5","0.5","","","","","","","0.8","0.2","","","","","","","","","","75","K","1","","true","0","80_20_practice",""
"","bandit","34","365052","0.0-20.0-13.0","46207419","wem/bandit_either_3","A3MCQHA2V0G46V","either","8","495","","","","","","","0","0","1","","0.2","0.5","0.5","","","0.8","0.2","","","","","","","","","","","","","","75","K","1","","true","0","80_20_practice",""
"","bandit","35","366990","0.0-20.0-14.0","46207419","wem/bandit_either_3","A3MCQHA2V0G46V","either","8","427","","","","","","","0","1","0","","0.8","0.5","0.5","","","0.8","0.2","","","","","","","","","","","","","","74","J","0","img/none_selected_demo.jpg","true","0","80_20_practice",""
"","bandit","36","368743","0.0-20.0-15.0","46207419","wem/bandit_either_3","A3MCQHA2V0G46V","either","8","241","","","","","","","1","0","0","0.8","","0.5","0.5","","","","","","","0.8","0.2","","","","","","","","","","74","J","0","img/none_selected_demo.jpg","true","0","80_20_practice",""
"","bandit","37","370500","0.0-20.0-16.0","46207419","wem/bandit_either_3","A3MCQHA2V0G46V","either","8","247","","","","","","","1","0","0","0.8","","0.5","0.5","","","","","","","0.8","0.2","","","","","","","","","","74","J","0","img/none_selected_demo.jpg","true","0","80_20_practice",""
"","bandit","38","372223","0.0-20.0-17.0","46207419","wem/bandit_either_3","A3MCQHA2V0G46V","either","8","210","","","","","","","0","1","0","","0.8","0.5","0.5","","","0.8","0.2","","","","","","","","","","","","","","74","J","0","img/none_selected_demo.jpg","true","0","80_20_practice",""
"","bandit","39","373844","0.0-20.0-18.0","46207419","wem/bandit_either_3","A3MCQHA2V0G46V","either","8","111","","","","","","","0","0","1","0.8","","0.5","0.5","","","","","","","0.8","0.2","","","","","","","","","","74","J","0","img/none_selected_demo.jpg","true","0","80_20_practice",""
"","bandit","40","375992","0.0-20.0-19.0","46207419","wem/bandit_either_3","A3MCQHA2V0G46V","either","8","638","","","","","","","0","1","0","","0.8","0.5","0.5","","","0.8","0.2","","","","","","","","","","","","","","74","J","0","img/none_selected_demo.jpg","true","0","80_20_practice",""
"","text","41","382236","0.0-21.0","46207419","wem/bandit_either_3","A3MCQHA2V0G46V","either","8","6240","","32","","","","","","","","","","","","","","","","","","","","","","","","","","","","","","","","","","","",""
"","bandit","42","385473","0.0-22.0-0.0","46207419","wem/bandit_either_3","A3MCQHA2V0G46V","either","8","1728","","","","","","","1","0","0","1","0","","","","","0","1","","","1","0","","","","","","","","","","74","J","0","img/none_selected_demo.jpg","true","0","",""
"","text","43","393714","0.0-23.0","46207419","wem/bandit_either_3","A3MCQHA2V0G46V","either","8","8238","","32","","","","","","","","","","","","","","","","","","","","","","","","","","","","","","","","","","","",""
"","text","44","397399","0.0-24.0","46207419","wem/bandit_either_3","A3MCQHA2V0G46V","either","8","3682","","32","","","","","","","","","","","","","","","","","","","","","","","","","","","","","","","","","","","",""
"","text","45","406002","0.0-25.0","46207419","wem/bandit_either_3","A3MCQHA2V0G46V","either","8","8601","","32","","","","","","","","","","","","","","","","","","","","","","","","","","","","","","","","","","","",""
"","text","46","410866","0.0-26.0","46207419","wem/bandit_either_3","A3MCQHA2V0G46V","either","8","4861","","32","","","","","","","","","","","","","","","","","","","","","","","","","","","","","","","","","","","",""
"","text","47","429076","0.0-27.0","46207419","wem/bandit_either_3","A3MCQHA2V0G46V","either","8","18208","","32","","","","","","","","","","","","","","","","","","","","","","","","","","","","","","","","","","","",""
"","text","48","434148","0.0-28.0","46207419","wem/bandit_either_3","A3MCQHA2V0G46V","either","8","5069","","32","","","","","","","","","","","","","","","","","","","","","","","","","","","","","","","","","","","",""
"","text","49","438482","0.0-29.0","46207419","wem/bandit_either_3","A3MCQHA2V0G46V","either","8","4331","","32","","","","","","","","","","","","","","","","","","","","","","","","","","","","","","","","","","","",""
"","text","50","442800","0.0-30.0","46207419","wem/bandit_either_3","A3MCQHA2V0G46V","either","8","4315","","32","","","","","","","","","","","","","","","","","","","","","","","","","","","","","","","","","","","",""
"","text","51","447721","0.0-31.0","46207419","wem/bandit_either_3","A3MCQHA2V0G46V","either","8","4918","","32","","","","","","","","","","","","","","","","","","","","","","","","","","","","","","","","","","","",""
"","text","52","451027","0.0-32.0","46207419","wem/bandit_either_3","A3MCQHA2V0G46V","either","8","3302","","32","","","","","","","","","","","","","","","","","","","","","","","","","","","","","","","","","","","",""
"","text","53","455072","0.0-33.0","46207419","wem/bandit_either_3","A3MCQHA2V0G46V","either","8","4042","","32","","","","","","","","","","","","","","","","","","","","","","","","","","","","","","","","","","","",""
"","bandit","54","457556","0.0-34.0-0.0","46207419","wem/bandit_either_3","A3MCQHA2V0G46V","either","8","969","","","","","","","1","0","0","0.8","","0.5","0.5","0.5","0.5","","","","","0.8","0.2","0.6","0.2","","","","","","","","72","H","0","img/none_selected.jpg","true","0","full_practice",""
"","bandit","55","459488","0.0-34.0-1.0","46207419","wem/bandit_either_3","A3MCQHA2V0G46V","either","8","412","","","","","","","1","0","0","0.8","","0.5","0.5","0.5","0.5","","","","","0.8","0.2","0.6","0.2","","","","","","","","72","H","0","img/none_selected.jpg","true","0","full_practice",""
"","bandit","56","461527","0.0-34.0-2.0","46207419","wem/bandit_either_3","A3MCQHA2V0G46V","either","8","517","","","","","","","1","0","0","0.8","","0.5","0.5","0.5","0.5","","","","","0.8","0.2","0.6","0.2","","","","","","","","72","H","0","img/none_selected.jpg","true","0","full_practice",""
"","bandit","57","463386","0.0-34.0-3.0","46207419","wem/bandit_either_3","A3MCQHA2V0G46V","either","8","340","","","","","","","0","0","1","","0.8","0.5","0.5","0.5","0.5","0.8","0.2","0.6","0.2","","","","","","","","","","","","72","H","0","img/none_selected.jpg","true","0","full_practice",""
"","bandit","58","465164","0.0-34.0-4.0","46207419","wem/bandit_either_3","A3MCQHA2V0G46V","either","8","262","","","","","","","0","0","1","","0.8","0.5","0.5","0.5","0.5","0.8","0.2","0.6","0.2","","","","","","","","","","","","72","H","0","img/none_selected.jpg","true","0","full_practice",""
"","bandit","59","466914","0.0-34.0-5.0","46207419","wem/bandit_either_3","A3MCQHA2V0G46V","either","8","238","","","","","","","0","0","1","0.2","","0.5","0.5","0.5","0.5","","","","","0.8","0.2","0.6","0.2","","","","","","","","74","J","1","","true","0","full_practice",""
"","bandit","60","468673","0.0-34.0-6.0","46207419","wem/bandit_either_3","A3MCQHA2V0G46V","either","8","229","","","","","","","0","1","0","","0.2","0.5","0.5","0.5","0.5","0.8","0.2","0.6","0.2","","","","","","","","","","","","74","J","1","","true","0","full_practice",""
"","bandit","61","470418","0.0-34.0-7.0","46207419","wem/bandit_either_3","A3MCQHA2V0G46V","either","8","228","","","","","","","0","1","0","","0.2","0.5","0.5","0.5","0.5","0.8","0.2","0.6","0.2","","","","","","","","","","","","74","J","1","","true","0","full_practice",""
"","bandit","62","473085","0.0-34.0-8.0","46207419","wem/bandit_either_3","A3MCQHA2V0G46V","either","8","1138","","","","","","","0","0","1","","0.2","0.5","0.5","0.5","0.5","0.8","0.2","0.6","0.2","","","","","","","","","","","","74","J","1","","true","0","full_practice",""
"","bandit","63","474952","0.0-34.0-9.0","46207419","wem/bandit_either_3","A3MCQHA2V0G46V","either","8","343","","","","","","","0","1","0","","0.6","0.5","0.5","0.5","0.5","0.8","0.2","0.6","0.2","","","","","","","","","","","","75","K","2","","true","0","full_practice",""
"","bandit","64","476832","0.0-34.0-10.0","46207419","wem/bandit_either_3","A3MCQHA2V0G46V","either","8","353","","","","","","","1","0","0","0.6","","0.5","0.5","0.5","0.5","","","","","0.8","0.2","0.6","0.2","","","","","","","","75","K","2","","true","0","full_practice",""
"","bandit","65","478661","0.0-34.0-11.0","46207419","wem/bandit_either_3","A3MCQHA2V0G46V","either","8","298","","","","","","","0","0","1","0.6","","0.5","0.5","0.5","0.5","","","","","0.8","0.2","0.6","0.2","","","","","","","","75","K","2","","true","0","full_practice",""
"","bandit","66","480494","0.0-34.0-12.0","46207419","wem/bandit_either_3","A3MCQHA2V0G46V","either","8","306","","","","","","","1","0","0","0.2","","0.5","0.5","0.5","0.5","","","","","0.8","0.2","0.6","0.2","","","","","","","","76","L","3","","true","0","full_practice",""
"","bandit","67","482243","0.0-34.0-13.0","46207419","wem/bandit_either_3","A3MCQHA2V0G46V","either","8","216","","","","","","","0","0","1","","0.2","0.5","0.5","0.5","0.5","0.8","0.2","0.6","0.2","","","","","","","","","","","","76","L","3","","true","0","full_practice",""
"","bandit","68","484056","0.0-34.0-14.0","46207419","wem/bandit_either_3","A3MCQHA2V0G46V","either","8","283","","","","","","","0","0","1","0.2","","0.5","0.5","0.5","0.5","","","","","0.8","0.2","0.6","0.2","","","","","","","","76","L","3","","true","0","full_practice",""
"","bandit","69","486180","0.0-34.0-15.0","46207419","wem/bandit_either_3","A3MCQHA2V0G46V","either","8","594","","","","","","","1","0","0","0.6","","0.5","0.5","0.5","0.5","","","","","0.8","0.2","0.6","0.2","","","","","","","","75","K","2","","true","0","full_practice",""
"","bandit","70","487943","0.0-34.0-16.0","46207419","wem/bandit_either_3","A3MCQHA2V0G46V","either","8","241","","","","","","","1","0","0","0.6","","0.5","0.5","0.5","0.5","","","","","0.8","0.2","0.6","0.2","","","","","","","","75","K","2","","true","0","full_practice",""
"","bandit","71","489644","0.0-34.0-17.0","46207419","wem/bandit_either_3","A3MCQHA2V0G46V","either","8","172","","","","","","","1","0","0","0.6","","0.5","0.5","0.5","0.5","","","","","0.8","0.2","0.6","0.2","","","","","","","","75","K","2","","true","0","full_practice",""
"","bandit","72","491309","0.0-34.0-18.0","46207419","wem/bandit_either_3","A3MCQHA2V0G46V","either","8","132","","","","","","","1","0","0","0.6","","0.5","0.5","0.5","0.5","","","","","0.8","0.2","0.6","0.2","","","","","","","","75","K","2","","true","0","full_practice",""
"","bandit","73","492962","0.0-34.0-19.0","46207419","wem/bandit_either_3","A3MCQHA2V0G46V","either","8","129","","","","","","","1","0","0","0.6","","0.5","0.5","0.5","0.5","","","","","0.8","0.2","0.6","0.2","","","","","","","","75","K","2","","true","0","full_practice",""
"","text","74","503516","0.0-35.0","46207419","wem/bandit_either_3","A3MCQHA2V0G46V","either","8","10545","","32","","","","","","","","","","","","","","","","","","","","","","","","","","","","","","","","","","","",""
"","text","75","528489","0.0-36.0","46207419","wem/bandit_either_3","A3MCQHA2V0G46V","either","8","23956","","32","","","","","","","","","","","","","","","","","","","","","","","","","","","","","","","","","","","",""
"","text","76","553658","0.0-37.0","46207419","wem/bandit_either_3","A3MCQHA2V0G46V","either","8","25165","","32","","","","","","","","","","","","","","","","","","","","","","","","","","","","","","","","","","","",""
"","text","77","567329","0.0-38.0","46207419","wem/bandit_either_3","A3MCQHA2V0G46V","either","8","13667","","32","","","","","","","","","","","","","","","","","","","","","","","","","","","","","","","","","","","",""
"","text","78","579374","0.0-39.0","46207419","wem/bandit_either_3","A3MCQHA2V0G46V","either","8","12042","","32","","","","","","","","","","","","","","","","","","","","","","","","","","","","","","","","","","","",""
"","text","79","587998","0.0-40.0","46207419","wem/bandit_either_3","A3MCQHA2V0G46V","either","8","8620","","32","","","","","","","","","","","","","","","","","","","","","","","","","","","","","","","","","","","",""
"","bandit","80","592645","0.0-41.0-0.0","46207419","wem/bandit_either_3","A3MCQHA2V0G46V","either","8","3123","","","","","","","0","0","1","","0.2428949588","0.8","0.4","0.6","0.2","0.4468950172","0.2428949588","0.3040937467","0.6337563202","","","","","","","","","","","","74","J","1","","","1","main_expt",""
"","bandit","81","594323","0.0-42.0-0.0","46207419","wem/bandit_either_3","A3MCQHA2V0G46V","either","8","161","","","","","","","0","0","1","0.3846124694","","0.8","0.4","0.6","0.2","","","","","0.3846124694","0.248961424","0.2687625136","0.7380673114","","","","","","","","72","H","0","img/none_selected.jpg","","2","main_expt",""
"","bandit","82","596638","0.0-43.0-0.0","46207419","wem/bandit_either_3","A3MCQHA2V0G46V","either","8","790","","","","","","","0","0","1","0.3017919557","","0.8","0.4","0.6","0.2","","","","","0.3885967974","0.1878604038","0.3017919557","0.7715549737","","","","","","","","75","K","2","","","3","main_expt",""
"","bandit","83","598414","0.0-44.0-0.0","46207419","wem/bandit_either_3","A3MCQHA2V0G46V","either","8","258","","","","","","","0","1","0","","0.8257013646","0.8","0.4","0.6","0.2","0.2891644394","0.1194049449","0.3388517529","0.8257013646","","","","","","","","","","","","76","L","3","","","4","main_expt",""
"","bandit","84","600026","0.0-45.0-0.0","46207419","wem/bandit_either_3","A3MCQHA2V0G46V","either","8","89","","","","","","","0","1","0","","0.8617886559","0.8","0.4","0.6","0.2","0.2654579937","0.197046458","0.389096829","0.8617886559","","","","","","","","","","","","76","L","3","","","5","main_expt",""
"","bandit","85","601702","0.0-46.0-0.0","46207419","wem/bandit_either_3","A3MCQHA2V0G46V","either","8","147","","","","","","","1","0","0","0.8452125903","","0.8","0.4","0.6","0.2","","","","","0.355160999","0.2312720201","0.4799636182","0.8452125903","","","","","","","","76","L","3","","","6","main_expt",""
"","bandit","86","603503","0.0-47.0-0.0","46207419","wem/bandit_either_3","A3MCQHA2V0G46V","either","8","272","","","","","","","0","1","0","","0.8765288384","0.8","0.4","0.6","0.2","0.4733904832","0.3255591742","0.5316557606","0.8765288384","","","","","","","","","","","","76","L","3","","","7","main_expt",""
"","bandit","87","605243","0.0-48.0-0.0","46207419","wem/bandit_either_3","A3MCQHA2V0G46V","either","8","226","","","","","","","1","0","0","0.8625068071","","0.8","0.4","0.6","0.2","","","","","0.4900136729","0.163151729","0.4935712437","0.8625068071","","","","","","","","76","L","3","","","8","main_expt",""
"","bandit","88","607005","0.0-49.0-0.0","46207419","wem/bandit_either_3","A3MCQHA2V0G46V","either","8","236","","","","","","","0","0","1","","0.8385781597","0.8","0.4","0.6","0.2","0.4543552171","0.1671639775","0.5400450001","0.8385781597","","","","","","","","","","","","76","L","3","","","9","main_expt",""
"","bandit","89","608806","0.0-50.0-0.0","46207419","wem/bandit_either_3","A3MCQHA2V0G46V","either","8","281","","","","","","","0","1","0","","0.833356221","0.8","0.4","0.6","0.2","0.4523920981","0.1315225434","0.6510952772","0.833356221","","","","","","","","","","","","76","L","3","","","10","main_expt",""
"","bandit","90","610555","0.0-51.0-0.0","46207419","wem/bandit_either_3","A3MCQHA2V0G46V","either","8","231","","","","","","","0","1","0","","0.9030756702","0.8","0.4","0.6","0.2","0.4053083118","0.1287002637","0.6117649901","0.9030756702","","","","","","","","","","","","76","L","3","","","11","main_expt",""
"","bandit","91","612326","0.0-52.0-0.0","46207419","wem/bandit_either_3","A3MCQHA2V0G46V","either","8","246","","","","","","","0","0","1","","0.9129290363","0.8","0.4","0.6","0.2","0.4059907931","0.1026596936","0.6360746298","0.9129290363","","","","","","","","","","","","76","L","3","","","12","main_expt",""
"","bandit","92","614021","0.0-53.0-0.0","46207419","wem/bandit_either_3","A3MCQHA2V0G46V","either","8","164","","","","","","","0","0","1","","0.8638417716","0.8","0.4","0.6","0.2","0.2934167972","0.1287514256","0.5673960652","0.8638417716","","","","","","","","","","","","76","L","3","","","13","main_expt",""
"","bandit","93","615844","0.0-54.0-0.0","46207419","wem/bandit_either_3","A3MCQHA2V0G46V","either","8","291","","","","","","","1","0","0","0.787806988","","0.8","0.4","0.6","0.2","","","","","0.3260927596","0.1786171179","0.6747725803","0.787806988","","","","","","","","76","L","3","","","14","main_expt",""
"","bandit","94","617633","0.0-55.0-0.0","46207419","wem/bandit_either_3","A3MCQHA2V0G46V","either","8","265","","","","","","","0","1","0","","0.7254212376","0.8","0.4","0.6","0.2","0.3355382734","0.1459410532","0.6277188345","0.7254212376","","","","","","","","","","","","76","L","3","","","15","main_expt",""
"","bandit","95","619370","0.0-56.0-0.0","46207419","wem/bandit_either_3","A3MCQHA2V0G46V","either","8","203","","","","","","","0","0","1","","0.7238415528","0.8","0.4","0.6","0.2","0.3040928121","0.2255600906","0.5435568235","0.7238415528","","","","","","","","","","","","76","L","3","","","16","main_expt",""
"","bandit","96","621033","0.0-57.0-0.0","46207419","wem/bandit_either_3","A3MCQHA2V0G46V","either","8","128","","","","","","","0","1","0","","0.7796243455","0.8","0.4","0.6","0.2","0.2730366263","0.2052013943","0.4180161478","0.7796243455","","","","","","","","","","","","76","L","3","","","17","main_expt",""
"","bandit","97","622750","0.0-58.0-0.0","46207419","wem/bandit_either_3","A3MCQHA2V0G46V","either","8","191","","","","","","","0","1","0","","0.6928902724","0.8","0.4","0.6","0.2","0.4105298721","0.1780354615","0.4961111773","0.6928902724","","","","","","","","","","","","76","L","3","","","18","main_expt",""
"","bandit","98","625441","0.0-59.0-0.0","46207419","wem/bandit_either_3","A3MCQHA2V0G46V","either","8","1170","","","","","","","0","1","0","","0.7658630901","0.8","0.4","0.6","0.2","0.3586923344","0.1576496117","0.445530788","0.7658630901","","","","","","","","","","","","76","L","3","","","19","main_expt",""
"","bandit","99","628313","0.0-60.0-0.0","46207419","wem/bandit_either_3","A3MCQHA2V0G46V","either","8","1345","","","","","","","0","1","0","","0.7584200513","0.8","0.4","0.6","0.2","0.3220075653","0.1618752313","0.3443163705","0.7584200513","","","","","","","","","","","","76","L","3","","","20","main_expt",""
"","bandit","100","630162","0.0-61.0-0.0","46207419","wem/bandit_either_3","A3MCQHA2V0G46V","either","8","324","","","","","","","0","1","0","","0.7727038765","0.8","0.4","0.6","0.2","0.2729660799","0.2152187387","0.3012808647","0.7727038765","","","","","","","","","","","","76","L","3","","","21","main_expt",""
"","bandit","101","631895","0.0-62.0-0.0","46207419","wem/bandit_either_3","A3MCQHA2V0G46V","either","8","211","","","","","","","1","0","0","0.8152565923","","0.8","0.4","0.6","0.2","","","","","0.2712352107","0.3547982299","0.2882062485","0.8152565923","","","","","","","","76","L","3","","","22","main_expt",""
"","bandit","102","634186","0.0-63.0-0.0","46207419","wem/bandit_either_3","A3MCQHA2V0G46V","either","8","767","","","","","","","0","1","0","","0.7537075358","0.8","0.4","0.6","0.2","0.3390855774","0.323805638","0.2113421372","0.7537075358","","","","","","","","","","","","76","L","3","","","23","main_expt",""
"","bandit","103","635972","0.0-64.0-0.0","46207419","wem/bandit_either_3","A3MCQHA2V0G46V","either","8","261","","","","","","","0","0","1","","0.7108822858","0.8","0.4","0.6","0.2","0.3483259141","0.3588909826","0.2201805416","0.7108822858","","","","","","","","","","","","76","L","3","","","24","main_expt",""
"","bandit","104","637744","0.0-65.0-0.0","46207419","wem/bandit_either_3","A3MCQHA2V0G46V","either","8","248","","","","","","","0","0","1","","0.6930515954","0.8","0.4","0.6","0.2","0.3416976173","0.3885553436","0.2580956466","0.6930515954","","","","","","","","","","","","76","L","3","","","25","main_expt",""
"","bandit","105","639556","0.0-66.0-0.0","46207419","wem/bandit_either_3","A3MCQHA2V0G46V","either","8","273","","","","","","","0","1","0","","0.6905393417","0.8","0.4","0.6","0.2","0.4243476322","0.4871556374","0.2153432854","0.6905393417","","","","","","","","","","","","76","L","3","","","26","main_expt",""
"","bandit","106","641271","0.0-67.0-0.0","46207419","wem/bandit_either_3","A3MCQHA2V0G46V","either","8","181","","","","","","","0","0","1","0.7531652131","","0.8","0.4","0.6","0.2","","","","","0.5257754898","0.4934119911","0.1727955236","0.7531652131","","","","","","","","76","L","3","","","27","main_expt",""
"","bandit","107","643123","0.0-68.0-0.0","46207419","wem/bandit_either_3","A3MCQHA2V0G46V","either","8","318","","","","","","","0","0","1","","0.1894296703","0.8","0.4","0.6","0.2","0.5246232361","0.4322092846","0.1894296703","0.8001777041","","","","","","","","","","","","75","K","2","","","28","main_expt",""
"","bandit","108","644866","0.0-69.0-0.0","46207419","wem/bandit_either_3","A3MCQHA2V0G46V","either","8","210","","","","","","","0","0","1","","0.3459113699","0.8","0.4","0.6","0.2","0.375994784","0.3459113699","0.2128919211","0.8118404327","","","","","","","","","","","","74","J","1","","","29","main_expt",""
"","bandit","109","646466","0.0-70.0-0.0","46207419","wem/bandit_either_3","A3MCQHA2V0G46V","either","8","68","","","","","","","1","0","0","0.2936890161","","0.8","0.4","0.6","0.2","","","","","0.2936890161","0.280789843","0.206056468","0.7839534503","","","","","","","","72","H","0","img/none_selected.jpg","","30","main_expt",""
"","bandit","110","648246","0.0-71.0-0.0","46207419","wem/bandit_either_3","A3MCQHA2V0G46V","either","8","257","","","","","","","0","0","1","0.2878812258","","0.8","0.4","0.6","0.2","","","","","0.2878812258","0.2613810438","0.1725623241","0.8066372971","","","","","","","","72","H","0","img/none_selected.jpg","","31","main_expt",""
"","bandit","111","650128","0.0-72.0-0.0","46207419","wem/bandit_either_3","A3MCQHA2V0G46V","either","8","355","","","","","","","0","0","1","","0.2451492808","0.8","0.4","0.6","0.2","0.2451492808","0.3821585683","0.1629883914","0.8049259064","","","","","","","","","","","","72","H","0","img/none_selected.jpg","","32","main_expt",""
"","bandit","112","652005","0.0-73.0-0.0","46207419","wem/bandit_either_3","A3MCQHA2V0G46V","either","8","342","","","","","","","0","0","1","0.2802113289","","0.8","0.4","0.6","0.2","","","","","0.2802113289","0.2714925976","0.2107911223","0.7891664673","","","","","","","","72","H","0","img/none_selected.jpg","","33","main_expt",""
"","bandit","113","653753","0.0-74.0-0.0","46207419","wem/bandit_either_3","A3MCQHA2V0G46V","either","8","216","","","","","","","1","0","0","0.2755575364","","0.8","0.4","0.6","0.2","","","","","0.2892342718","0.2755575364","0.1025901997","0.7854278051","","","","","","","","74","J","1","","","34","main_expt",""
"","bandit","114","655433","0.0-75.0-0.0","46207419","wem/bandit_either_3","A3MCQHA2V0G46V","either","8","154","","","","","","","0","0","1","","0.2697856654","0.8","0.4","0.6","0.2","0.2486893666","0.2697856654","0.1289879153","0.7260182018","","","","","","","","","","","","74","J","1","","","35","main_expt",""
"","bandit","115","657114","0.0-76.0-0.0","46207419","wem/bandit_either_3","A3MCQHA2V0G46V","either","8","156","","","","","","","0","0","1","","0.2483646443","0.8","0.4","0.6","0.2","0.3536408983","0.2483646443","0.1645491317","0.7910957192","","","","","","","","","","","","74","J","1","","","36","main_expt",""
"","bandit","116","658923","0.0-77.0-0.0","46207419","wem/bandit_either_3","A3MCQHA2V0G46V","either","8","294","","","","","","","0","0","1","0.2103950957","","0.8","0.4","0.6","0.2","","","","","0.2493566902","0.2103950957","0.1698046746","0.7996551039","","","","","","","","74","J","1","","","37","main_expt",""
"","bandit","117","660495","0.0-78.0-0.0","46207419","wem/bandit_either_3","A3MCQHA2V0G46V","either","8","55","","","","","","","0","0","1","0.2281502886","","0.8","0.4","0.6","0.2","","","","","0.2948354516","0.2128944509","0.2281502886","0.6717479894","","","","","","","","75","K","2","","","38","main_expt",""
"","bandit","118","662221","0.0-79.0-0.0","46207419","wem/bandit_either_3","A3MCQHA2V0G46V","either","8","190","","","","","","","0","0","1","","0.1561271762","0.8","0.4","0.6","0.2","0.3373274679","0.2965153327","0.1561271762","0.7121128808","","","","","","","","","","","","75","K","2","","","39","main_expt",""
"","bandit","119","663981","0.0-80.0-0.0","46207419","wem/bandit_either_3","A3MCQHA2V0G46V","either","8","227","","","","","","","0","1","0","","0.7157410044","0.8","0.4","0.6","0.2","0.4138768052","0.4447532253","0.1543620621","0.7157410044","","","","","","","","","","","","76","L","3","","","40","main_expt",""
"","bandit","120","665672","0.0-81.0-0.0","46207419","wem/bandit_either_3","A3MCQHA2V0G46V","either","8","161","","","","","","","1","0","0","0.681196038","","0.8","0.4","0.6","0.2","","","","","0.438096834","0.5330008696","0.2271499981","0.681196038","","","","","","","","76","L","3","","","41","main_expt",""
"","bandit","121","667423","0.0-82.0-0.0","46207419","wem/bandit_either_3","A3MCQHA2V0G46V","either","8","239","","","","","","","0","0","1","","0.6504320647","0.8","0.4","0.6","0.2","0.4185173612","0.573861049","0.2882452936","0.6504320647","","","","","","","","","","","","76","L","3","","","42","main_expt",""
"","bandit","122","669196","0.0-83.0-0.0","46207419","wem/bandit_either_3","A3MCQHA2V0G46V","either","8","251","","","","","","","0","1","0","","0.7369830744","0.8","0.4","0.6","0.2","0.3796335567","0.6654349765","0.298522686","0.7369830744","","","","","","","","","","","","76","L","3","","","43","main_expt",""
"","bandit","123","670807","0.0-84.0-0.0","46207419","wem/bandit_either_3","A3MCQHA2V0G46V","either","8","95","","","","","","","0","0","1","","0.6797935378","0.8","0.4","0.6","0.2","0.31766129","0.691198465","0.3188886026","0.6797935378","","","","","","","","","","","","76","L","3","","","44","main_expt",""
"","bandit","124","672485","0.0-85.0-0.0","46207419","wem/bandit_either_3","A3MCQHA2V0G46V","either","8","154","","","","","","","1","0","0","0.6507473666","","0.8","0.4","0.6","0.2","","","","","0.4047397141","0.7652674903","0.2705760174","0.6507473666","","","","","","","","76","L","3","","","45","main_expt",""
"","bandit","125","674155","0.0-86.0-0.0","46207419","wem/bandit_either_3","A3MCQHA2V0G46V","either","8","148","","","","","","","0","1","0","","0.6334510787","0.8","0.4","0.6","0.2","0.4961613307","0.8065230058","0.2506880939","0.6334510787","","","","","","","","","","","","76","L","3","","","46","main_expt",""
"","bandit","126","675784","0.0-87.0-0.0","46207419","wem/bandit_either_3","A3MCQHA2V0G46V","either","8","107","","","","","","","0","1","0","","0.6143175143","0.8","0.4","0.6","0.2","0.4624468315","0.7774474893","0.2491585872","0.6143175143","","","","","","","","","","","","76","L","3","","","47","main_expt",""
"","bandit","127","677578","0.0-88.0-0.0","46207419","wem/bandit_either_3","A3MCQHA2V0G46V","either","8","255","","","","","","","0","1","0","","0.6404512611","0.8","0.4","0.6","0.2","0.4886537242","0.7693176975","0.1997021219","0.6404512611","","","","","","","","","","","","76","L","3","","","48","main_expt",""
"","bandit","128","679151","0.0-89.0-0.0","46207419","wem/bandit_either_3","A3MCQHA2V0G46V","either","8","58","","","","","","","1","0","0","0.6758621215","","0.8","0.4","0.6","0.2","","","","","0.4270302022","0.807419373","0.2119577724","0.6758621215","","","","","","","","76","L","3","","","49","main_expt",""
"","bandit","129","680841","0.0-90.0-0.0","46207419","wem/bandit_either_3","A3MCQHA2V0G46V","either","8","165","","","","","","","0","0","1","0.6873234502","","0.8","0.4","0.6","0.2","","","","","0.5151345658","0.8562769227","0.2615271711","0.6873234502","","","","","","","","76","L","3","","","50","main_expt",""
"","bandit","130","682460","0.0-91.0-0.0","46207419","wem/bandit_either_3","A3MCQHA2V0G46V","either","8","88","","","","","","","1","0","0","0.7776044395","","0.8","0.4","0.6","0.2","","","","","0.5134524181","0.8705114925","0.2764427577","0.7776044395","","","","","","","","76","L","3","","","51","main_expt",""
"","bandit","131","684100","0.0-92.0-0.0","46207419","wem/bandit_either_3","A3MCQHA2V0G46V","either","8","117","","","","","","","1","0","0","0.8403410939","","0.8","0.4","0.6","0.2","","","","","0.4842684999","0.9310361031","0.3833776697","0.8403410939","","","","","","","","76","L","3","","","52","main_expt",""
"","bandit","132","685825","0.0-93.0-0.0","46207419","wem/bandit_either_3","A3MCQHA2V0G46V","either","8","203","","","","","","","0","1","0","","0.8151983534","0.8","0.4","0.6","0.2","0.4412850773","0.905794742","0.4356502318","0.8151983534","","","","","","","","","","","","76","L","3","","","53","main_expt",""
"","bandit","133","687406","0.0-94.0-0.0","46207419","wem/bandit_either_3","A3MCQHA2V0G46V","either","8","46","","","","","","","0","1","0","","0.8081222638","0.8","0.4","0.6","0.2","0.4397693946","0.9391541593","0.4120588364","0.8081222638","","","","","","","","","","","","76","L","3","","","54","main_expt",""
"","bandit","134","689025","0.0-95.0-0.0","46207419","wem/bandit_either_3","A3MCQHA2V0G46V","either","8","97","","","","","","","1","0","0","0.742009976","","0.8","0.4","0.6","0.2","","","","","0.3928202278","0.9596285882","0.2714296105","0.742009976","","","","","","","","76","L","3","","","55","main_expt",""
"","bandit","135","690614","0.0-96.0-0.0","46207419","wem/bandit_either_3","A3MCQHA2V0G46V","either","8","67","","","","","","","0","1","0","","0.7065076074","0.8","0.4","0.6","0.2","0.4593665993","0.9565658233","0.2122311877","0.7065076074","","","","","","","","","","","","76","L","3","","","56","main_expt",""
"","bandit","136","692429","0.0-97.0-0.0","46207419","wem/bandit_either_3","A3MCQHA2V0G46V","either","8","284","","","","","","","0","1","0","","0.6860695476","0.8","0.4","0.6","0.2","0.4006145211","0.9681540372","0.2282278588","0.6860695476","","","","","","","","","","","","76","L","3","","","57","main_expt",""
"","bandit","137","694298","0.0-98.0-0.0","46207419","wem/bandit_either_3","A3MCQHA2V0G46V","either","8","340","","","","","","","0","1","0","","0.742301155","0.8","0.4","0.6","0.2","0.4597890412","0.9207083952","0.1392076118","0.742301155","","","","","","","","","","","","76","L","3","","","58","main_expt",""
"","bandit","138","696165","0.0-99.0-0.0","46207419","wem/bandit_either_3","A3MCQHA2V0G46V","either","8","334","","","","","","","0","0","1","","0.5291004622","0.8","0.4","0.6","0.2","0.4232266093","0.9178227258","0.1706239206","0.5291004622","","","","","","","","","","","","76","L","3","","","59","main_expt",""
"","bandit","139","698020","0.0-100.0-0.0","46207419","wem/bandit_either_3","A3MCQHA2V0G46V","either","8","337","","","","","","","0","1","0","","0.6348838793","0.8","0.4","0.6","0.2","0.3565880291","0.8951285427","0.1674269281","0.6348838793","","","","","","","","","","","","76","L","3","","","60","main_expt",""
"","bandit","140","699554","0.0-101.0-0.0","46207419","wem/bandit_either_3","A3MCQHA2V0G46V","either","8","5","","","","","","","1","0","0","0.6796423313","","0.8","0.4","0.6","0.2","","","","","0.3663276413","0.8506814954","0.2182313474","0.6796423313","","","","","","","","76","L","3","","","61","main_expt",""
"","bandit","141","701400","0.0-102.0-0.0","46207419","wem/bandit_either_3","A3MCQHA2V0G46V","either","8","313","","","","","","","0","1","0","","0.6928172916","0.8","0.4","0.6","0.2","0.3193005293","0.8513854559","0.2949218256","0.6928172916","","","","","","","","","","","","76","L","3","","","62","main_expt",""
"","bandit","142","704194","0.0-103.0-0.0","46207419","wem/bandit_either_3","A3MCQHA2V0G46V","either","8","1268","","","","","","","0","1","0","","0.6996506825","0.8","0.4","0.6","0.2","0.1562068481","0.8927579502","0.3170222383","0.6996506825","","","","","","","","","","","","76","L","3","","","63","main_expt",""
"","bandit","143","706038","0.0-104.0-0.0","46207419","wem/bandit_either_3","A3MCQHA2V0G46V","either","8","313","","","","","","","1","0","0","0.7294442249","","0.8","0.4","0.6","0.2","","","","","0.2300477965","0.9217936765","0.3033511374","0.7294442249","","","","","","","","76","L","3","","","64","main_expt",""
"","bandit","144","707819","0.0-105.0-0.0","46207419","wem/bandit_either_3","A3MCQHA2V0G46V","either","8","251","","","","","","","0","1","0","","0.6605354899","0.8","0.4","0.6","0.2","0.2869838185","0.9357047413","0.3973690147","0.6605354899","","","","","","","","","","","","76","L","3","","","65","main_expt",""
"","bandit","145","709621","0.0-106.0-0.0","46207419","wem/bandit_either_3","A3MCQHA2V0G46V","either","8","283","","","","","","","1","0","0","0.6959621059","","0.8","0.4","0.6","0.2","","","","","0.3287476356","0.910343843","0.4320294497","0.6959621059","","","","","","","","76","L","3","","","66","main_expt",""
"","bandit","146","711392","0.0-107.0-0.0","46207419","wem/bandit_either_3","A3MCQHA2V0G46V","either","8","238","","","","","","","0","0","1","","0.653899752","0.8","0.4","0.6","0.2","0.3018365728","0.9022080512","0.3208465419","0.653899752","","","","","","","","","","","","76","L","3","","","67","main_expt",""
"","bandit","147","713214","0.0-108.0-0.0","46207419","wem/bandit_either_3","A3MCQHA2V0G46V","either","8","288","","","","","","","0","1","0","","0.6517851336","0.8","0.4","0.6","0.2","0.3208616414","0.8492414063","0.3570730799","0.6517851336","","","","","","","","","","","","76","L","3","","","68","main_expt",""
"","bandit","148","714969","0.0-109.0-0.0","46207419","wem/bandit_either_3","A3MCQHA2V0G46V","either","8","234","","","","","","","0","0","1","","0.7011615004","0.8","0.4","0.6","0.2","0.386863802","0.768219052","0.3451514791","0.7011615004","","","","","","","","","","","","76","L","3","","","69","main_expt",""
"","bandit","149","716739","0.0-110.0-0.0","46207419","wem/bandit_either_3","A3MCQHA2V0G46V","either","8","236","","","","","","","0","0","1","","0.6278947594","0.8","0.4","0.6","0.2","0.3628244161","0.7996218848","0.3127714871","0.6278947594","","","","","","","","","","","","76","L","3","","","70","main_expt",""
"","bandit","150","718515","0.0-111.0-0.0","46207419","wem/bandit_either_3","A3MCQHA2V0G46V","either","8","257","","","","","","","0","1","0","","0.688517509","0.8","0.4","0.6","0.2","0.2969295023","0.9130189757","0.3855297895","0.688517509","","","","","","","","","","","","76","L","3","","","71","main_expt",""
"","bandit","151","720326","0.0-112.0-0.0","46207419","wem/bandit_either_3","A3MCQHA2V0G46V","either","8","297","","","","","","","1","0","0","0.6125440106","","0.8","0.4","0.6","0.2","","","","","0.3512325323","0.9016843832","0.3555010044","0.6125440106","","","","","","","","76","L","3","","","72","main_expt",""
"","bandit","152","722088","0.0-113.0-0.0","46207419","wem/bandit_either_3","A3MCQHA2V0G46V","either","8","242","","","","","","","1","0","0","0.4884410468","","0.8","0.4","0.6","0.2","","","","","0.3845321254","0.9166584401","0.3278360739","0.4884410468","","","","","","","","76","L","3","","","73","main_expt",""
"","bandit","153","723844","0.0-114.0-0.0","46207419","wem/bandit_either_3","A3MCQHA2V0G46V","either","8","225","","","","","","","0","0","1","","0.5800760741","0.8","0.4","0.6","0.2","0.3760614253","0.8699410266","0.3275161349","0.5800760741","","","","","","","","","","","","76","L","3","","","74","main_expt",""
"","bandit","154","725701","0.0-115.0-0.0","46207419","wem/bandit_either_3","A3MCQHA2V0G46V","either","8","330","","","","","","","0","1","0","","0.6614390465","0.8","0.4","0.6","0.2","0.370831352","0.8192171788","0.3454333807","0.6614390465","","","","","","","","","","","","76","L","3","","","75","main_expt",""
"","bandit","155","727463","0.0-116.0-0.0","46207419","wem/bandit_either_3","A3MCQHA2V0G46V","either","8","224","","","","","","","0","0","1","","0.6861570843","0.8","0.4","0.6","0.2","0.4008199491","0.8990587115","0.4213924804","0.6861570843","","","","","","","","","","","","76","L","3","","","76","main_expt",""
"","bandit","156","729215","0.0-117.0-0.0","46207419","wem/bandit_either_3","A3MCQHA2V0G46V","either","8","229","","","","","","","0","0","1","","0.5980737028","0.8","0.4","0.6","0.2","0.3928984844","0.9062137116","0.439510692","0.5980737028","","","","","","","","","","","","76","L","3","","","77","main_expt",""
"","bandit","157","731034","0.0-118.0-0.0","46207419","wem/bandit_either_3","A3MCQHA2V0G46V","either","8","306","","","","","","","1","0","0","0.4709058574","","0.8","0.4","0.6","0.2","","","","","0.4709058574","0.9215914722","0.4419424199","0.6754083514","","","","","","","","72","H","0","img/none_selected.jpg","","78","main_expt",""
"","bandit","158","732862","0.0-119.0-0.0","46207419","wem/bandit_either_3","A3MCQHA2V0G46V","either","8","293","","","","","","","0","0","1","0.4971614577","","0.8","0.4","0.6","0.2","","","","","0.4971614577","0.895443078","0.5056762283","0.7012934339","","","","","","","","72","H","0","img/none_selected.jpg","","79","main_expt",""
"","bandit","159","734709","0.0-120.0-0.0","46207419","wem/bandit_either_3","A3MCQHA2V0G46V","either","8","329","","","","","","","1","0","0","0.4828267768","","0.8","0.4","0.6","0.2","","","","","0.4828267768","0.7789772955","0.4558190996","0.7067798052","","","","","","","","72","H","0","img/none_selected.jpg","","80","main_expt",""
"","bandit","160","736528","0.0-121.0-0.0","46207419","wem/bandit_either_3","A3MCQHA2V0G46V","either","8","295","","","","","","","1","0","0","0.4280570329","","0.8","0.4","0.6","0.2","","","","","0.4280570329","0.755426824","0.4774921548","0.7259433061","","","","","","","","72","H","0","img/none_selected.jpg","","81","main_expt",""
"","bandit","161","738289","0.0-122.0-0.0","46207419","wem/bandit_either_3","A3MCQHA2V0G46V","either","8","236","","","","","","","1","0","0","0.486136241","","0.8","0.4","0.6","0.2","","","","","0.486136241","0.8356426425","0.3611036613","0.7022130872","","","","","","","","72","H","0","img/none_selected.jpg","","82","main_expt",""
"","bandit","162","740098","0.0-123.0-0.0","46207419","wem/bandit_either_3","A3MCQHA2V0G46V","either","8","289","","","","","","","0","0","1","0.3539143083","","0.8","0.4","0.6","0.2","","","","","0.3539143083","0.8783145762","0.3341354767","0.75927227","","","","","","","","72","H","0","img/none_selected.jpg","","83","main_expt",""
"","bandit","163","741816","0.0-124.0-0.0","46207419","wem/bandit_either_3","A3MCQHA2V0G46V","either","8","192","","","","","","","0","0","1","0.374811954","","0.8","0.4","0.6","0.2","","","","","0.374811954","0.9087743635","0.288479151","0.8556046088","","","","","","","","72","H","0","img/none_selected.jpg","","84","main_expt",""
"","bandit","164","743700","0.0-125.0-0.0","46207419","wem/bandit_either_3","A3MCQHA2V0G46V","either","8","359","","","","","","","0","0","1","0.4518264681","","0.8","0.4","0.6","0.2","","","","","0.4518264681","0.8632011641","0.3061923995","0.7835234447","","","","","","","","72","H","0","img/none_selected.jpg","","85","main_expt",""
"","bandit","165","745546","0.0-126.0-0.0","46207419","wem/bandit_either_3","A3MCQHA2V0G46V","either","8","315","","","","","","","0","0","1","0.461936863","","0.8","0.4","0.6","0.2","","","","","0.461936863","0.8341253046","0.3370204437","0.7037548709","","","","","","","","72","H","0","img/none_selected.jpg","","86","main_expt",""
"","bandit","166","747669","0.0-127.0-0.0","46207419","wem/bandit_either_3","A3MCQHA2V0G46V","either","8","593","","","","","","","1","0","0","0.8728746981","","0.8","0.4","0.6","0.2","","","","","0.3681660755","0.8728746981","0.3900809043","0.6903674631","","","","","","","","74","J","1","","","87","main_expt",""
"","bandit","167","749533","0.0-128.0-0.0","46207419","wem/bandit_either_3","A3MCQHA2V0G46V","either","8","340","","","","","","","1","0","0","0.8408980459","","0.8","0.4","0.6","0.2","","","","","0.3788462328","0.8408980459","0.4296615172","0.5883284312","","","","","","","","74","J","1","","","88","main_expt",""
"","bandit","168","751310","0.0-129.0-0.0","46207419","wem/bandit_either_3","A3MCQHA2V0G46V","either","8","252","","","","","","","0","1","0","","0.8585781628","0.8","0.4","0.6","0.2","0.3316952272","0.8585781628","0.4636560077","0.5258490985","","","","","","","","","","","","74","J","1","","","89","main_expt",""
"","bandit","169","753076","0.0-130.0-0.0","46207419","wem/bandit_either_3","A3MCQHA2V0G46V","either","8","244","","","","","","","1","0","0","0.925840658","","0.8","0.4","0.6","0.2","","","","","0.438068917","0.925840658","0.4463585346","0.6395041767","","","","","","","","74","J","1","","","90","main_expt",""
"","bandit","170","754803","0.0-131.0-0.0","46207419","wem/bandit_either_3","A3MCQHA2V0G46V","either","8","196","","","","","","","0","1","0","","0.9201841885","0.8","0.4","0.6","0.2","0.5158843935","0.9201841885","0.4734463503","0.6931091445","","","","","","","","","","","","74","J","1","","","91","main_expt",""
"","bandit","171","756481","0.0-132.0-0.0","46207419","wem/bandit_either_3","A3MCQHA2V0G46V","either","8","148","","","","","","","1","0","0","0.8508076908","","0.8","0.4","0.6","0.2","","","","","0.5182757575","0.8508076908","0.5248255385","0.6725373887","","","","","","","","74","J","1","","","92","main_expt",""
"","bandit","172","758120","0.0-133.0-0.0","46207419","wem/bandit_either_3","A3MCQHA2V0G46V","either","8","109","","","","","","","0","1","0","","0.8106711147","0.8","0.4","0.6","0.2","0.5498130742","0.8106711147","0.3386726181","0.7388835399","","","","","","","","","","","","74","J","1","","","93","main_expt",""
"","bandit","173","759725","0.0-134.0-0.0","46207419","wem/bandit_either_3","A3MCQHA2V0G46V","either","8","70","","","","","","","1","0","0","0.8543263914","","0.8","0.4","0.6","0.2","","","","","0.6049407638","0.8543263914","0.3718894848","0.697373586","","","","","","","","74","J","1","","","94","main_expt",""
"","bandit","174","761454","0.0-135.0-0.0","46207419","wem/bandit_either_3","A3MCQHA2V0G46V","either","8","200","","","","","","","1","0","0","0.8387782901","","0.8","0.4","0.6","0.2","","","","","0.6604115927","0.8387782901","0.4005278521","0.7550322224","","","","","","","","74","J","1","","","95","main_expt",""
"","bandit","175","763054","0.0-136.0-0.0","46207419","wem/bandit_either_3","A3MCQHA2V0G46V","either","8","68","","","","","","","0","1","0","","0.8208071174","0.8","0.4","0.6","0.2","0.7003847986","0.8208071174","0.3694595514","0.6576962358","","","","","","","","","","","","74","J","1","","","96","main_expt",""
"","bandit","176","764585","0.0-137.0-0.0","46207419","wem/bandit_either_3","A3MCQHA2V0G46V","either","8","0","","","","","","","1","0","0","0.765358829","","0.8","0.4","0.6","0.2","","","","","0.6793148949","0.765358829","0.3186037095","0.6802484638","","","","","","","","74","J","1","","","97","main_expt",""
"","bandit","177","766210","0.0-138.0-0.0","46207419","wem/bandit_either_3","A3MCQHA2V0G46V","either","8","97","","","","","","","1","0","0","0.7823463211","","0.8","0.4","0.6","0.2","","","","","0.6204607354","0.7823463211","0.2786717818","0.7042077447","","","","","","","","74","J","1","","","98","main_expt",""
"","bandit","178","767886","0.0-139.0-0.0","46207419","wem/bandit_either_3","A3MCQHA2V0G46V","either","8","144","","","","","","","0","1","0","","0.7523003034","0.8","0.4","0.6","0.2","0.6166262367","0.7523003034","0.32929866","0.7355617892","","","","","","","","","","","","74","J","1","","","99","main_expt",""
"","bandit","179","769511","0.0-140.0-0.0","46207419","wem/bandit_either_3","A3MCQHA2V0G46V","either","8","99","","","","","","","1","0","0","0.7174790615","","0.8","0.4","0.6","0.2","","","","","0.5347115766","0.7174790615","0.3115323478","0.7117411671","","","","","","","","74","J","1","","","100","main_expt",""
"","bandit","180","771161","0.0-141.0-0.0","46207419","wem/bandit_either_3","A3MCQHA2V0G46V","either","8","120","","","","","","","0","0","1","","0.7660578318","0.8","0.4","0.6","0.2","0.3418016043","0.7660578318","0.4221749579","0.7263903312","","","","","","","","","","","","74","J","1","","","101","main_expt",""
"","bandit","181","772909","0.0-142.0-0.0","46207419","wem/bandit_either_3","A3MCQHA2V0G46V","either","8","221","","","","","","","1","0","0","0.7201180075","","0.8","0.4","0.6","0.2","","","","","0.2550922237","0.7201180075","0.2718078598","0.7357346189","","","","","","","","74","J","1","","","102","main_expt",""
"","bandit","182","774574","0.0-143.0-0.0","46207419","wem/bandit_either_3","A3MCQHA2V0G46V","either","8","136","","","","","","","0","1","0","","0.8452780714","0.8","0.4","0.6","0.2","0.3181696353","0.8452780714","0.3011307106","0.7026134783","","","","","","","","","","","","74","J","1","","","103","main_expt",""
"","bandit","183","776227","0.0-144.0-0.0","46207419","wem/bandit_either_3","A3MCQHA2V0G46V","either","8","128","","","","","","","1","0","0","0.7236924273","","0.8","0.4","0.6","0.2","","","","","0.3383579412","0.7236924273","0.3659291838","0.8073666152","","","","","","","","74","J","1","","","104","main_expt",""
"","bandit","184","777848","0.0-145.0-0.0","46207419","wem/bandit_either_3","A3MCQHA2V0G46V","either","8","105","","","","","","","0","0","1","","0.743719778","0.8","0.4","0.6","0.2","0.2354673658","0.743719778","0.3499435223","0.824483439","","","","","","","","","","","","74","J","1","","","105","main_expt",""
"","bandit","185","779752","0.0-146.0-0.0","46207419","wem/bandit_either_3","A3MCQHA2V0G46V","either","8","380","","","","","","","1","0","0","0.7985687284","","0.8","0.4","0.6","0.2","","","","","0.159398249","0.7985687284","0.3602262465","0.9208810438","","","","","","","","74","J","1","","","106","main_expt",""
"","bandit","186","781434","0.0-147.0-0.0","46207419","wem/bandit_either_3","A3MCQHA2V0G46V","either","8","158","","","","","","","0","1","0","","0.799345197","0.8","0.4","0.6","0.2","0.1295169146","0.799345197","0.3252215163","0.8911910097","","","","","","","","","","","","74","J","1","","","107","main_expt",""
"","bandit","187","783163","0.0-148.0-0.0","46207419","wem/bandit_either_3","A3MCQHA2V0G46V","either","8","208","","","","","","","1","0","0","0.8681690713","","0.8","0.4","0.6","0.2","","","","","0.07754053308","0.8681690713","0.2812406992","0.8450149587","","","","","","","","74","J","1","","","108","main_expt",""
"","bandit","188","784770","0.0-149.0-0.0","46207419","wem/bandit_either_3","A3MCQHA2V0G46V","either","8","78","","","","","","","0","0","1","0.8556732204","","0.8","0.4","0.6","0.2","","","","","0.06591215473","0.8556732204","0.2559497519","0.868327257","","","","","","","","74","J","1","","","109","main_expt",""
"","bandit","189","786403","0.0-150.0-0.0","46207419","wem/bandit_either_3","A3MCQHA2V0G46V","either","8","118","","","","","","","0","0","1","0.8669893864","","0.8","0.4","0.6","0.2","","","","","0.1189546392","0.8669893864","0.2817400418","0.8868335222","","","","","","","","74","J","1","","","110","main_expt",""
"","bandit","190","788265","0.0-151.0-0.0","46207419","wem/bandit_either_3","A3MCQHA2V0G46V","either","8","341","","","","","","","1","0","0","0.799383849","","0.8","0.4","0.6","0.2","","","","","0.09523351692","0.799383849","0.2773620367","0.8770728171","","","","","","","","74","J","1","","","111","main_expt",""
"","bandit","191","789970","0.0-152.0-0.0","46207419","wem/bandit_either_3","A3MCQHA2V0G46V","either","8","181","","","","","","","0","1","0","","0.859799476","0.8","0.4","0.6","0.2","0.107489667","0.859799476","0.2833316415","0.8481710002","","","","","","","","","","","","74","J","1","","","112","main_expt",""
"","bandit","192","791717","0.0-153.0-0.0","46207419","wem/bandit_either_3","A3MCQHA2V0G46V","either","8","210","","","","","","","0","1","0","","0.7932436089","0.8","0.4","0.6","0.2","0.1026187258","0.7932436089","0.3433702059","0.8573528835","","","","","","","","","","","","74","J","1","","","113","main_expt",""
"","bandit","193","793253","0.0-154.0-0.0","46207419","wem/bandit_either_3","A3MCQHA2V0G46V","either","8","15","","","","","","","1","0","0","0.849407262","","0.8","0.4","0.6","0.2","","","","","0.1044839951","0.849407262","0.4828882278","0.8291807482","","","","","","","","74","J","1","","","114","main_expt",""
"","bandit","194","794886","0.0-155.0-0.0","46207419","wem/bandit_either_3","A3MCQHA2V0G46V","either","8","110","","","","","","","1","0","0","0.8882716547","","0.8","0.4","0.6","0.2","","","","","0.1213931844","0.8882716547","0.54932579","0.761972944","","","","","","","","74","J","1","","","115","main_expt",""
"","bandit","195","796542","0.0-156.0-0.0","46207419","wem/bandit_either_3","A3MCQHA2V0G46V","either","8","133","","","","","","","1","0","0","0.8741354715","","0.8","0.4","0.6","0.2","","","","","0.1184144227","0.8741354715","0.6971345968","0.786197192","","","","","","","","74","J","1","","","116","main_expt",""
"","bandit","196","798199","0.0-157.0-0.0","46207419","wem/bandit_either_3","A3MCQHA2V0G46V","either","8","116","","","","","","","0","1","0","","0.8083823922","0.8","0.4","0.6","0.2","0.1983931569","0.8083823922","0.5396272374","0.7834453561","","","","","","","","","","","","74","J","1","","","117","main_expt",""
"","bandit","197","799870","0.0-158.0-0.0","46207419","wem/bandit_either_3","A3MCQHA2V0G46V","either","8","144","","","","","","","0","0","1","","0.868525306","0.8","0.4","0.6","0.2","0.2840039584","0.868525306","0.5544567993","0.6742380839","","","","","","","","","","","","74","J","1","","","118","main_expt",""
"","bandit","198","801487","0.0-159.0-0.0","46207419","wem/bandit_either_3","A3MCQHA2V0G46V","either","8","98","","","","","","","0","1","0","","0.8386471998","0.8","0.4","0.6","0.2","0.3563325119","0.8386471998","0.5504896642","0.7350700153","","","","","","","","","","","","74","J","1","","","119","main_expt",""
"","bandit","199","803205","0.0-160.0-0.0","46207419","wem/bandit_either_3","A3MCQHA2V0G46V","either","8","192","","","","","","","0","1","0","","0.8103559508","0.8","0.4","0.6","0.2","0.5682387565","0.8103559508","0.5812137135","0.70601835","","","","","","","","","","","","74","J","1","","","120","main_expt",""
"","bandit","200","804899","0.0-161.0-0.0","46207419","wem/bandit_either_3","A3MCQHA2V0G46V","either","8","153","","","","","","","1","0","0","0.8193015173","","0.8","0.4","0.6","0.2","","","","","0.5189107771","0.8193015173","0.6033058466","0.7347719752","","","","","","","","74","J","1","","","121","main_expt",""
"","bandit","201","806709","0.0-162.0-0.0","46207419","wem/bandit_either_3","A3MCQHA2V0G46V","either","8","266","","","","","","","0","1","0","","0.8025146027","0.8","0.4","0.6","0.2","0.4428493372","0.8025146027","0.6102220397","0.8270923978","","","","","","","","","","","","74","J","1","","","122","main_expt",""
"","bandit","202","808447","0.0-163.0-0.0","46207419","wem/bandit_either_3","A3MCQHA2V0G46V","either","8","196","","","","","","","1","0","0","0.8121847492","","0.8","0.4","0.6","0.2","","","","","0.472724465","0.8121847492","0.6108151959","0.7980631313","","","","","","","","74","J","1","","","123","main_expt",""
"","bandit","203","810039","0.0-164.0-0.0","46207419","wem/bandit_either_3","A3MCQHA2V0G46V","either","8","76","","","","","","","0","0","1","","0.8299418439","0.8","0.4","0.6","0.2","0.4799585558","0.8299418439","0.7117385939","0.7369852887","","","","","","","","","","","","74","J","1","","","124","main_expt",""
"","bandit","204","811700","0.0-165.0-0.0","46207419","wem/bandit_either_3","A3MCQHA2V0G46V","either","8","131","","","","","","","0","1","0","","0.825688343","0.8","0.4","0.6","0.2","0.5080184993","0.825688343","0.7554186078","0.7465944313","","","","","","","","","","","","74","J","1","","","125","main_expt",""
"","bandit","205","813355","0.0-166.0-0.0","46207419","wem/bandit_either_3","A3MCQHA2V0G46V","either","8","133","","","","","","","0","0","1","","0.8372054396","0.8","0.4","0.6","0.2","0.4555098289","0.8372054396","0.8855751833","0.7596834852","","","","","","","","","","","","74","J","1","","","126","main_expt",""
"","bandit","206","815158","0.0-167.0-0.0","46207419","wem/bandit_either_3","A3MCQHA2V0G46V","either","8","269","","","","","","","0","1","0","","0.7906689898","0.8","0.4","0.6","0.2","0.5475411796","0.7906689898","0.8003015049","0.7398299979","","","","","","","","","","","","74","J","1","","","127","main_expt",""
"","bandit","207","816744","0.0-168.0-0.0","46207419","wem/bandit_either_3","A3MCQHA2V0G46V","either","8","65","","","","","","","0","1","0","","0.8008571507","0.8","0.4","0.6","0.2","0.612647382","0.8008571507","0.8403113951","0.7764866849","","","","","","","","","","","","74","J","1","","","128","main_expt",""
"","bandit","208","818471","0.0-169.0-0.0","46207419","wem/bandit_either_3","A3MCQHA2V0G46V","either","8","204","","","","","","","0","1","0","","0.7829297973","0.8","0.4","0.6","0.2","0.7128970287","0.7829297973","0.8826872071","0.6435675963","","","","","","","","","","","","74","J","1","","","129","main_expt",""
"","bandit","209","820113","0.0-170.0-0.0","46207419","wem/bandit_either_3","A3MCQHA2V0G46V","either","8","108","","","","","","","0","0","1","0.6898445721","","0.8","0.4","0.6","0.2","","","","","0.7309911721","0.6898445721","0.8641000085","0.7030252038","","","","","","","","74","J","1","","","130","main_expt",""
"","bandit","210","821796","0.0-171.0-0.0","46207419","wem/bandit_either_3","A3MCQHA2V0G46V","either","8","154","","","","","","","0","1","0","","0.5864867529","0.8","0.4","0.6","0.2","0.73180147","0.5864867529","0.8752037592","0.6829232191","","","","","","","","","","","","74","J","1","","","131","main_expt",""
"","bandit","211","823571","0.0-172.0-0.0","46207419","wem/bandit_either_3","A3MCQHA2V0G46V","either","8","245","","","","","","","0","1","0","","0.560122833","0.8","0.4","0.6","0.2","0.8467134838","0.560122833","0.8279556795","0.7406452387","","","","","","","","","","","","74","J","1","","","132","main_expt",""
"","bandit","212","825199","0.0-173.0-0.0","46207419","wem/bandit_either_3","A3MCQHA2V0G46V","either","8","88","","","","","","","0","0","1","0.48439517","","0.8","0.4","0.6","0.2","","","","","0.8481264083","0.48439517","0.8194722428","0.6666234363","","","","","","","","74","J","1","","","133","main_expt",""
"","bandit","213","827039","0.0-174.0-0.0","46207419","wem/bandit_either_3","A3MCQHA2V0G46V","either","8","298","","","","","","","0","0","1","","0.3919863126","0.8","0.4","0.6","0.2","0.8771050955","0.3919863126","0.8037084922","0.680542061","","","","","","","","","","","","74","J","1","","","134","main_expt",""
"","bandit","214","828810","0.0-175.0-0.0","46207419","wem/bandit_either_3","A3MCQHA2V0G46V","either","8","241","","","","","","","0","1","0","","0.8155916457","0.8","0.4","0.6","0.2","0.9103241533","0.5174750093","0.8155916457","0.7006187635","","","","","","","","","","","","75","K","2","","","135","main_expt",""
"","bandit","215","830524","0.0-176.0-0.0","46207419","wem/bandit_either_3","A3MCQHA2V0G46V","either","8","187","","","","","","","1","0","0","0.8281957705","","0.8","0.4","0.6","0.2","","","","","0.9126032517","0.4264762493","0.8281957705","0.6936815578","","","","","","","","75","K","2","","","136","main_expt",""
"","bandit","216","832285","0.0-177.0-0.0","46207419","wem/bandit_either_3","A3MCQHA2V0G46V","either","8","224","","","","","","","0","0","1","0.7055403129","","0.8","0.4","0.6","0.2","","","","","0.8983360858","0.5351999402","0.7055403129","0.6531428085","","","","","","","","75","K","2","","","137","main_expt",""
"","bandit","217","834174","0.0-178.0-0.0","46207419","wem/bandit_either_3","A3MCQHA2V0G46V","either","8","364","","","","","","","0","0","1","","0.6884351598","0.8","0.4","0.6","0.2","0.8851370462","0.4758748922","0.6884351598","0.6769758131","","","","","","","","","","","","75","K","2","","","138","main_expt",""
"","bandit","218","836147","0.0-179.0-0.0","46207419","wem/bandit_either_3","A3MCQHA2V0G46V","either","8","450","","","","","","","0","1","0","","0.6090423031","0.8","0.4","0.6","0.2","0.8662270416","0.4039793023","0.6090423031","0.7649589049","","","","","","","","","","","","75","K","2","","","139","main_expt",""
"","bandit","219","837885","0.0-180.0-0.0","46207419","wem/bandit_either_3","A3MCQHA2V0G46V","either","8","196","","","","","","","0","1","0","","0.7000077187","0.8","0.4","0.6","0.2","0.8345767194","0.384774136","0.7000077187","0.7674202191","","","","","","","","","","","","75","K","2","","","140","main_expt",""
"","bandit","220","839715","0.0-181.0-0.0","46207419","wem/bandit_either_3","A3MCQHA2V0G46V","either","8","295","","","","","","","0","1","0","","0.6643185619","0.8","0.4","0.6","0.2","0.8783670964","0.327254859","0.6643185619","0.8575114448","","","","","","","","","","","","75","K","2","","","141","main_expt",""
"","bandit","221","841422","0.0-182.0-0.0","46207419","wem/bandit_either_3","A3MCQHA2V0G46V","either","8","176","","","","","","","0","1","0","","0.7079845674","0.8","0.4","0.6","0.2","0.8895828315","0.4536641492","0.7079845674","0.8134430427","","","","","","","","","","","","75","K","2","","","142","main_expt",""
"","bandit","222","843159","0.0-183.0-0.0","46207419","wem/bandit_either_3","A3MCQHA2V0G46V","either","8","206","","","","","","","0","1","0","","0.6624187643","0.8","0.4","0.6","0.2","0.9053928798","0.4348486293","0.6624187643","0.8345505038","","","","","","","","","","","","75","K","2","","","143","main_expt",""
"","bandit","223","844920","0.0-184.0-0.0","46207419","wem/bandit_either_3","A3MCQHA2V0G46V","either","8","243","","","","","","","0","0","1","0.6779247185","","0.8","0.4","0.6","0.2","","","","","0.9033088386","0.4086594597","0.6779247185","0.7482817554","","","","","","","","75","K","2","","","144","main_expt",""
"","bandit","224","846643","0.0-185.0-0.0","46207419","wem/bandit_either_3","A3MCQHA2V0G46V","either","8","195","","","","","","","1","0","0","0.7216102374","","0.8","0.4","0.6","0.2","","","","","0.8572864227","0.4420772456","0.7216102374","0.7400387939","","","","","","","","75","K","2","","","145","main_expt",""
"","bandit","225","849513","0.0-186.0-0.0","46207419","wem/bandit_either_3","A3MCQHA2V0G46V","either","8","1336","","","","","","","1","0","0","0.7837267619","","0.8","0.4","0.6","0.2","","","","","0.8687508917","0.508741462","0.7837267619","0.795971973","","","","","","","","75","K","2","","","146","main_expt",""
"","bandit","226","851319","0.0-187.0-0.0","46207419","wem/bandit_either_3","A3MCQHA2V0G46V","either","8","283","","","","","","","0","0","1","0.7652264833","","0.8","0.4","0.6","0.2","","","","","0.8657621525","0.4624398998","0.7652264833","0.7503502301","","","","","","","","75","K","2","","","147","main_expt",""
"","bandit","227","853203","0.0-188.0-0.0","46207419","wem/bandit_either_3","A3MCQHA2V0G46V","either","8","355","","","","","","","0","0","1","0.7358716413","","0.8","0.4","0.6","0.2","","","","","0.8362891365","0.4062589849","0.7358716413","0.8200474043","","","","","","","","75","K","2","","","148","main_expt",""
"","bandit","228","855015","0.0-189.0-0.0","46207419","wem/bandit_either_3","A3MCQHA2V0G46V","either","8","287","","","","","","","0","1","0","","0.7129200786","0.8","0.4","0.6","0.2","0.8144386017","0.4895331913","0.7129200786","0.8509010271","","","","","","","","","","","","75","K","2","","","149","main_expt",""
"","bandit","229","856818","0.0-190.0-0.0","46207419","wem/bandit_either_3","A3MCQHA2V0G46V","either","8","280","","","","","","","0","0","1","0.705531668","","0.8","0.4","0.6","0.2","","","","","0.6948055455","0.4704746919","0.705531668","0.8298908313","","","","","","","","75","K","2","","","150","main_expt",""
"","bandit","230","858747","0.0-191.0-0.0","46207419","wem/bandit_either_3","A3MCQHA2V0G46V","either","8","398","","","","","","","0","0","1","","0.5744604188","0.8","0.4","0.6","0.2","0.6231991314","0.4725745774","0.5744604188","0.7362749002","","","","","","","","","","","","75","K","2","","","151","main_expt",""
"","bandit","231","860578","0.0-192.0-0.0","46207419","wem/bandit_either_3","A3MCQHA2V0G46V","either","8","289","","","","","","","0","0","1","","0.5372669321","0.8","0.4","0.6","0.2","0.7045057733","0.4943906398","0.5372669321","0.7601791643","","","","","","","","","","","","75","K","2","","","152","main_expt",""
"","bandit","232","862348","0.0-193.0-0.0","46207419","wem/bandit_either_3","A3MCQHA2V0G46V","either","8","234","","","","","","","0","0","1","0.4639524782","","0.8","0.4","0.6","0.2","","","","","0.5331338622","0.4639524782","0.5447545218","0.7590648118","","","","","","","","74","J","1","","","153","main_expt",""
"","bandit","233","864299","0.0-194.0-0.0","46207419","wem/bandit_either_3","A3MCQHA2V0G46V","either","8","421","","","","","","","0","0","1","0.5096720896","","0.8","0.4","0.6","0.2","","","","","0.5096720896","0.3935792086","0.4191749193","0.7805387907","","","","","","","","72","H","0","img/none_selected.jpg","","154","main_expt",""
"","bandit","234","866124","0.0-195.0-0.0","46207419","wem/bandit_either_3","A3MCQHA2V0G46V","either","8","295","","","","","","","0","0","1","0.4719011365","","0.8","0.4","0.6","0.2","","","","","0.4719011365","0.4127348605","0.4269770229","0.8450805748","","","","","","","","72","H","0","img/none_selected.jpg","","155","main_expt",""
"","bandit","235","868060","0.0-196.0-0.0","46207419","wem/bandit_either_3","A3MCQHA2V0G46V","either","8","410","","","","","","","0","0","1","","0.5818713095","0.8","0.4","0.6","0.2","0.5818713095","0.3697675558","0.4589862704","0.8513110265","","","","","","","","","","","","72","H","0","img/none_selected.jpg","","156","main_expt",""
"","bandit","236","870264","0.0-197.0-0.0","46207419","wem/bandit_either_3","A3MCQHA2V0G46V","either","8","664","","","","","","","0","1","0","","0.8226236001","0.8","0.4","0.6","0.2","0.5804022203","0.3604398023","0.5370818316","0.8226236001","","","","","","","","","","","","76","L","3","","","157","main_expt",""
"","bandit","237","872080","0.0-198.0-0.0","46207419","wem/bandit_either_3","A3MCQHA2V0G46V","either","8","274","","","","","","","0","1","0","","0.8843141367","0.8","0.4","0.6","0.2","0.4773166223","0.4061750625","0.4757376888","0.8843141367","","","","","","","","","","","","76","L","3","","","158","main_expt",""
"","bandit","238","873918","0.0-199.0-0.0","46207419","wem/bandit_either_3","A3MCQHA2V0G46V","either","8","321","","","","","","","0","1","0","","0.8078798749","0.8","0.4","0.6","0.2","0.419048585","0.4696417586","0.4887287223","0.8078798749","","","","","","","","","","","","76","L","3","","","159","main_expt",""
"","bandit","239","875796","0.0-200.0-0.0","46207419","wem/bandit_either_3","A3MCQHA2V0G46V","either","8","344","","","","","","","0","1","0","","0.7689164465","0.8","0.4","0.6","0.2","0.4672574386","0.4659569923","0.4588489809","0.7689164465","","","","","","","","","","","","76","L","3","","","160","main_expt",""
"","bandit","240","877576","0.0-201.0-0.0","46207419","wem/bandit_either_3","A3MCQHA2V0G46V","either","8","258","","","","","","","0","0","1","","0.7863156869","0.8","0.4","0.6","0.2","0.5612985374","0.3947207546","0.4920004413","0.7863156869","","","","","","","","","","","","76","L","3","","","161","main_expt",""
"","bandit","241","879425","0.0-202.0-0.0","46207419","wem/bandit_either_3","A3MCQHA2V0G46V","either","8","317","","","","","","","0","1","0","","0.8098475403","0.8","0.4","0.6","0.2","0.5288680036","0.2460097942","0.5389881207","0.8098475403","","","","","","","","","","","","76","L","3","","","162","main_expt",""
"","bandit","242","881279","0.0-203.0-0.0","46207419","wem/bandit_either_3","A3MCQHA2V0G46V","either","8","338","","","","","","","0","1","0","","0.8222712862","0.8","0.4","0.6","0.2","0.6096883849","0.3603606056","0.6040136001","0.8222712862","","","","","","","","","","","","76","L","3","","","163","main_expt",""
"","bandit","243","883081","0.0-204.0-0.0","46207419","wem/bandit_either_3","A3MCQHA2V0G46V","either","8","266","","","","","","","0","1","0","","0.7876031225","0.8","0.4","0.6","0.2","0.4868922288","0.2507209727","0.623756827","0.7876031225","","","","","","","","","","","","76","L","3","","","164","main_expt",""
"","bandit","244","884822","0.0-205.0-0.0","46207419","wem/bandit_either_3","A3MCQHA2V0G46V","either","8","207","","","","","","","0","1","0","","0.7435052823","0.8","0.4","0.6","0.2","0.4055552053","0.2162043423","0.6164515281","0.7435052823","","","","","","","","","","","","76","L","3","","","165","main_expt",""
"","bandit","245","886513","0.0-206.0-0.0","46207419","wem/bandit_either_3","A3MCQHA2V0G46V","either","8","169","","","","","","","1","0","0","0.6545739251","","0.8","0.4","0.6","0.2","","","","","0.4748236382","0.2573409732","0.4660222187","0.6545739251","","","","","","","","76","L","3","","","166","main_expt",""
"","bandit","246","888307","0.0-207.0-0.0","46207419","wem/bandit_either_3","A3MCQHA2V0G46V","either","8","275","","","","","","","1","0","0","0.6645907447","","0.8","0.4","0.6","0.2","","","","","0.4725242185","0.4016088623","0.3336058786","0.6645907447","","","","","","","","76","L","3","","","167","main_expt",""
"","bandit","247","890070","0.0-208.0-0.0","46207419","wem/bandit_either_3","A3MCQHA2V0G46V","either","8","242","","","","","","","0","1","0","","0.7243751722","0.8","0.4","0.6","0.2","0.4775208721","0.5522858252","0.2887723434","0.7243751722","","","","","","","","","","","","76","L","3","","","168","main_expt",""
"","bandit","248","891680","0.0-209.0-0.0","46207419","wem/bandit_either_3","A3MCQHA2V0G46V","either","8","85","","","","","","","0","0","1","","0.6453105543","0.8","0.4","0.6","0.2","0.4682732781","0.5461138513","0.3357056981","0.6453105543","","","","","","","","","","","","76","L","3","","","169","main_expt",""
"","bandit","249","893474","0.0-210.0-0.0","46207419","wem/bandit_either_3","A3MCQHA2V0G46V","either","8","264","","","","","","","0","0","1","","0.5334010147","0.8","0.4","0.6","0.2","0.4246621539","0.4402798015","0.4179693295","0.5334010147","","","","","","","","","","","","76","L","3","","","170","main_expt",""
"","bandit","250","895348","0.0-211.0-0.0","46207419","wem/bandit_either_3","A3MCQHA2V0G46V","either","8","357","","","","","","","0","0","1","","0.498122785","0.8","0.4","0.6","0.2","0.2843380906","0.450294849","0.3050406521","0.498122785","","","","","","","","","","","","76","L","3","","","171","main_expt",""
"","bandit","251","897124","0.0-212.0-0.0","46207419","wem/bandit_either_3","A3MCQHA2V0G46V","either","8","241","","","","","","","0","1","0","","0.3364500029","0.8","0.4","0.6","0.2","0.2668952485","0.6475755847","0.3364500029","0.4356988635","","","","","","","","","","","","75","K","2","","","172","main_expt",""
"","bandit","252","898868","0.0-213.0-0.0","46207419","wem/bandit_either_3","A3MCQHA2V0G46V","either","8","216","","","","","","","0","0","1","0.421339117","","0.8","0.4","0.6","0.2","","","","","0.3802819164","0.6095255177","0.421339117","0.3964199688","","","","","","","","75","K","2","","","173","main_expt",""
"","bandit","253","900722","0.0-214.0-0.0","46207419","wem/bandit_either_3","A3MCQHA2V0G46V","either","8","325","","","","","","","0","0","1","","0.5003628493","0.8","0.4","0.6","0.2","0.4042455133","0.5003628493","0.4913704717","0.3194345802","","","","","","","","","","","","74","J","1","","","174","main_expt",""
"","bandit","254","902368","0.0-215.0-0.0","46207419","wem/bandit_either_3","A3MCQHA2V0G46V","either","8","116","","","","","","","0","1","0","","0.5576212716","0.8","0.4","0.6","0.2","0.4393989914","0.5576212716","0.5882611891","0.2865230234","","","","","","","","","","","","74","J","1","","","175","main_expt",""
"","bandit","255","904233","0.0-216.0-0.0","46207419","wem/bandit_either_3","A3MCQHA2V0G46V","either","8","340","","","","","","","0","1","0","","0.6230679906","0.8","0.4","0.6","0.2","0.4705173801","0.6230679906","0.6313830356","0.3352692614","","","","","","","","","","","","74","J","1","","","176","main_expt",""
"","bandit","256","906052","0.0-217.0-0.0","46207419","wem/bandit_either_3","A3MCQHA2V0G46V","either","8","286","","","","","","","0","0","1","0.6501784685","","0.8","0.4","0.6","0.2","","","","","0.4698597734","0.6501784685","0.5531265137","0.3389264817","","","","","","","","74","J","1","","","177","main_expt",""
"","bandit","257","907874","0.0-218.0-0.0","46207419","wem/bandit_either_3","A3MCQHA2V0G46V","either","8","292","","","","","","","0","1","0","","0.6334155083","0.8","0.4","0.6","0.2","0.3570804947","0.6334155083","0.4621004187","0.3709673039","","","","","","","","","","","","74","J","1","","","178","main_expt",""
"","bandit","258","909777","0.0-219.0-0.0","46207419","wem/bandit_either_3","A3MCQHA2V0G46V","either","8","372","","","","","","","0","0","1","","0.7548338289","0.8","0.4","0.6","0.2","0.3441184995","0.7548338289","0.512884041","0.2940579202","","","","","","","","","","","","74","J","1","","","179","main_expt",""
"","bandit","259","912183","0.0-220.0-0.0","46207419","wem/bandit_either_3","A3MCQHA2V0G46V","either","8","876","","","","","","","0","0","1","","0.3218724025","0.8","0.4","0.6","0.2","0.3646136501","0.8074073351","0.506744284","0.3218724025","","","","","","","","","","","","76","L","3","","","180","main_expt",""
"","bandit","260","914039","0.0-221.0-0.0","46207419","wem/bandit_either_3","A3MCQHA2V0G46V","either","8","314","","","","","","","0","0","1","","0.3633286182","0.8","0.4","0.6","0.2","0.3777688814","0.780721516","0.4556494723","0.3633286182","","","","","","","","","","","","76","L","3","","","181","main_expt",""
"","bandit","261","915859","0.0-222.0-0.0","46207419","wem/bandit_either_3","A3MCQHA2V0G46V","either","8","302","","","","","","","1","0","0","0.7647415088","","0.8","0.4","0.6","0.2","","","","","0.4578236703","0.7647415088","0.4494525508","0.3324048704","","","","","","","","74","J","1","","","182","main_expt",""
"","bandit","262","917670","0.0-223.0-0.0","46207419","wem/bandit_either_3","A3MCQHA2V0G46V","either","8","289","","","","","","","0","1","0","","0.7349307529","0.8","0.4","0.6","0.2","0.4244895098","0.7349307529","0.5189143621","0.3092830871","","","","","","","","","","","","74","J","1","","","183","main_expt",""
"","bandit","263","919487","0.0-224.0-0.0","46207419","wem/bandit_either_3","A3MCQHA2V0G46V","either","8","293","","","","","","","0","1","0","","0.8298088288","0.8","0.4","0.6","0.2","0.3566779322","0.8298088288","0.5167606333","0.3905692936","","","","","","","","","","","","74","J","1","","","184","main_expt",""
"","bandit","264","921346","0.0-225.0-0.0","46207419","wem/bandit_either_3","A3MCQHA2V0G46V","either","8","330","","","","","","","0","1","0","","0.7894193193","0.8","0.4","0.6","0.2","0.3737416658","0.7894193193","0.5270237034","0.4626192444","","","","","","","","","","","","74","J","1","","","185","main_expt",""
"","bandit","265","923159","0.0-226.0-0.0","46207419","wem/bandit_either_3","A3MCQHA2V0G46V","either","8","271","","","","","","","0","1","0","","0.7665022487","0.8","0.4","0.6","0.2","0.3120176694","0.7665022487","0.5556036571","0.6061762586","","","","","","","","","","","","74","J","1","","","186","main_expt",""
"","bandit","266","924990","0.0-227.0-0.0","46207419","wem/bandit_either_3","A3MCQHA2V0G46V","either","8","288","","","","","","","1","0","0","0.7394266891","","0.8","0.4","0.6","0.2","","","","","0.4134691065","0.7394266891","0.5865134094","0.530958695","","","","","","","","74","J","1","","","187","main_expt",""
"","bandit","267","926803","0.0-228.0-0.0","46207419","wem/bandit_either_3","A3MCQHA2V0G46V","either","8","287","","","","","","","0","1","0","","0.6567361442","0.8","0.4","0.6","0.2","0.4637770407","0.6567361442","0.5034866795","0.380024655","","","","","","","","","","","","74","J","1","","","188","main_expt",""
"","bandit","268","928649","0.0-229.0-0.0","46207419","wem/bandit_either_3","A3MCQHA2V0G46V","either","8","310","","","","","","","0","0","1","0.6572443956","","0.8","0.4","0.6","0.2","","","","","0.5739034088","0.6572443956","0.5761715841","0.4563575644","","","","","","","","74","J","1","","","189","main_expt",""
"","bandit","269","930364","0.0-230.0-0.0","46207419","wem/bandit_either_3","A3MCQHA2V0G46V","either","8","185","","","","","","","0","1","0","","0.6735764162","0.8","0.4","0.6","0.2","0.5859504021","0.6735764162","0.5325489933","0.4540853102","","","","","","","","","","","","74","J","1","","","190","main_expt",""
"","bandit","270","932178","0.0-231.0-0.0","46207419","wem/bandit_either_3","A3MCQHA2V0G46V","either","8","284","","","","","","","0","1","0","","0.5997518312","0.8","0.4","0.6","0.2","0.5325822721","0.5997518312","0.5614919892","0.4328006462","","","","","","","","","","","","74","J","1","","","191","main_expt",""
"","bandit","271","933957","0.0-232.0-0.0","46207419","wem/bandit_either_3","A3MCQHA2V0G46V","either","8","255","","","","","","","0","0","1","","0.6582178794","0.8","0.4","0.6","0.2","0.4622441745","0.6582178794","0.5972832049","0.4979354652","","","","","","","","","","","","74","J","1","","","192","main_expt",""
"","bandit","272","935608","0.0-233.0-0.0","46207419","wem/bandit_either_3","A3MCQHA2V0G46V","either","8","121","","","","","","","0","1","0","","0.7246172867","0.8","0.4","0.6","0.2","0.4765036663","0.7246172867","0.6997951875","0.4887187701","","","","","","","","","","","","74","J","1","","","193","main_expt",""
"","bandit","273","937402","0.0-234.0-0.0","46207419","wem/bandit_either_3","A3MCQHA2V0G46V","either","8","253","","","","","","","0","0","1","0.7721250451","","0.8","0.4","0.6","0.2","","","","","0.4504155567","0.7721250451","0.7511051992","0.4993882896","","","","","","","","74","J","1","","","194","main_expt",""
"","bandit","274","939240","0.0-235.0-0.0","46207419","wem/bandit_either_3","A3MCQHA2V0G46V","either","8","305","","","","","","","0","1","0","","0.8366496483","0.8","0.4","0.6","0.2","0.4354252764","0.8366496483","0.8281457055","0.5011331455","","","","","","","","","","","","74","J","1","","","195","main_expt",""
"","bandit","275","941475","0.0-236.0-0.0","46207419","wem/bandit_either_3","A3MCQHA2V0G46V","either","8","706","","","","","","","1","0","0","0.8248544968","","0.8","0.4","0.6","0.2","","","","","0.4170899215","0.8484646997","0.8248544968","0.4487960683","","","","","","","","75","K","2","","","196","main_expt",""
"","bandit","276","943212","0.0-237.0-0.0","46207419","wem/bandit_either_3","A3MCQHA2V0G46V","either","8","206","","","","","","","1","0","0","0.8532714289","","0.8","0.4","0.6","0.2","","","","","0.4149059055","0.8734060335","0.8532714289","0.3975590019","","","","","","","","75","K","2","","","197","main_expt",""
"","bandit","277","945018","0.0-238.0-0.0","46207419","wem/bandit_either_3","A3MCQHA2V0G46V","either","8","277","","","","","","","1","0","0","0.7587337752","","0.8","0.4","0.6","0.2","","","","","0.4737306044","0.8515360685","0.7587337752","0.4161601929","","","","","","","","75","K","2","","","198","main_expt",""
"","bandit","278","946717","0.0-239.0-0.0","46207419","wem/bandit_either_3","A3MCQHA2V0G46V","either","8","180","","","","","","","0","0","1","0.8124408481","","0.8","0.4","0.6","0.2","","","","","0.4541760911","0.8805923715","0.8124408481","0.4483979408","","","","","","","","75","K","2","","","199","main_expt",""
"","bandit","279","948592","0.0-240.0-0.0","46207419","wem/bandit_either_3","A3MCQHA2V0G46V","either","8","335","","","","","","","0","1","0","","0.7935778268","0.8","0.4","0.6","0.2","0.3964714959","0.9645818821","0.7935778268","0.5303380975","","","","","","","","","","","","75","K","2","","","200","main_expt",""
"","bandit","280","950342","0.0-241.0-0.0","46207419","wem/bandit_either_3","A3MCQHA2V0G46V","either","8","218","","","","","","","0","1","0","","0.736942723","0.8","0.4","0.6","0.2","0.3815447649","0.9689478708","0.736942723","0.4014045657","","","","","","","","","","","","75","K","2","","","201","main_expt",""
"","bandit","281","952043","0.0-242.0-0.0","46207419","wem/bandit_either_3","A3MCQHA2V0G46V","either","8","180","","","","","","","0","1","0","","0.7001951276","0.8","0.4","0.6","0.2","0.3726367513","0.9678291885","0.7001951276","0.5115169607","","","","","","","","","","","","75","K","2","","","202","main_expt",""
"","bandit","282","953832","0.0-243.0-0.0","46207419","wem/bandit_either_3","A3MCQHA2V0G46V","either","8","261","","","","","","","1","0","0","0.7209300446","","0.8","0.4","0.6","0.2","","","","","0.3062653216","0.9633244117","0.7209300446","0.5026191452","","","","","","","","75","K","2","","","203","main_expt",""
"","bandit","283","955669","0.0-244.0-0.0","46207419","wem/bandit_either_3","A3MCQHA2V0G46V","either","8","305","","","","","","","1","0","0","0.8574132932","","0.8","0.4","0.6","0.2","","","","","0.2848501254","0.9730812582","0.8574132932","0.4736298566","","","","","","","","75","K","2","","","204","main_expt",""
"","bandit","284","957464","0.0-245.0-0.0","46207419","wem/bandit_either_3","A3MCQHA2V0G46V","either","8","257","","","","","","","1","0","0","0.9038760074","","0.8","0.4","0.6","0.2","","","","","0.3457586416","0.9521206422","0.9038760074","0.6121858428","","","","","","","","75","K","2","","","205","main_expt",""
"","bandit","285","959182","0.0-246.0-0.0","46207419","wem/bandit_either_3","A3MCQHA2V0G46V","either","8","195","","","","","","","1","0","0","0.9273356803","","0.8","0.4","0.6","0.2","","","","","0.4609097875","0.9614764056","0.9273356803","0.6377028942","","","","","","","","75","K","2","","","206","main_expt",""
"","bandit","286","960977","0.0-247.0-0.0","46207419","wem/bandit_either_3","A3MCQHA2V0G46V","either","8","269","","","","","","","1","0","0","0.9502037039","","0.8","0.4","0.6","0.2","","","","","0.4980316736","0.9625830716","0.9502037039","0.5700483165","","","","","","","","75","K","2","","","207","main_expt",""
"","bandit","287","962686","0.0-248.0-0.0","46207419","wem/bandit_either_3","A3MCQHA2V0G46V","either","8","173","","","","","","","1","0","0","0.944094639","","0.8","0.4","0.6","0.2","","","","","0.4537691537","0.9359306517","0.944094639","0.624428721","","","","","","","","75","K","2","","","208","main_expt",""
"","bandit","288","964394","0.0-249.0-0.0","46207419","wem/bandit_either_3","A3MCQHA2V0G46V","either","8","172","","","","","","","0","1","0","","0.9070839441","0.8","0.4","0.6","0.2","0.4475842875","0.9632917203","0.9070839441","0.4861871301","","","","","","","","","","","","75","K","2","","","209","main_expt",""
"","bandit","289","966051","0.0-250.0-0.0","46207419","wem/bandit_either_3","A3MCQHA2V0G46V","either","8","136","","","","","","","0","0","1","0.8960653589","","0.8","0.4","0.6","0.2","","","","","0.4803454055","0.9633226214","0.8960653589","0.3956361612","","","","","","","","75","K","2","","","210","main_expt",""
"","bandit","290","968506","0.0-251.0-0.0","46207419","wem/bandit_either_3","A3MCQHA2V0G46V","either","8","921","","","","","","","0","0","1","0.4126443349","","0.8","0.4","0.6","0.2","","","","","0.4126443349","0.9719781217","0.9155455821","0.3599204452","","","","","","","","72","H","0","img/none_selected.jpg","","211","main_expt",""
"","bandit","291","970442","0.0-252.0-0.0","46207419","wem/bandit_either_3","A3MCQHA2V0G46V","either","8","417","","","","","","","0","0","1","0.9087954588","","0.8","0.4","0.6","0.2","","","","","0.3384802849","0.9700781686","0.9087954588","0.3349000901","","","","","","","","75","K","2","","","212","main_expt",""
"","bandit","292","972127","0.0-253.0-0.0","46207419","wem/bandit_either_3","A3MCQHA2V0G46V","either","8","160","","","","","","","0","1","0","","0.8528540962","0.8","0.4","0.6","0.2","0.3039242722","0.971165811","0.8528540962","0.3183344176","","","","","","","","","","","","75","K","2","","","213","main_expt",""
"","bandit","293","973887","0.0-254.0-0.0","46207419","wem/bandit_either_3","A3MCQHA2V0G46V","either","8","226","","","","","","","0","0","1","0.8506041988","","0.8","0.4","0.6","0.2","","","","","0.4541530846","0.9627117","0.8506041988","0.2390758011","","","","","","","","75","K","2","","","214","main_expt",""
"","bandit","294","975747","0.0-255.0-0.0","46207419","wem/bandit_either_3","A3MCQHA2V0G46V","either","8","320","","","","","","","0","0","1","","0.8001829978","0.8","0.4","0.6","0.2","0.5101749692","0.9552130497","0.8001829978","0.1997060473","","","","","","","","","","","","75","K","2","","","215","main_expt",""
"","bandit","295","977344","0.0-256.0-0.0","46207419","wem/bandit_either_3","A3MCQHA2V0G46V","either","8","69","","","","","","","0","1","0","","0.9220350188","0.8","0.4","0.6","0.2","0.5580520347","0.9220350188","0.733614842","0.2326539104","","","","","","","","","","","","74","J","1","","","216","main_expt",""
"","bandit","296","979047","0.0-257.0-0.0","46207419","wem/bandit_either_3","A3MCQHA2V0G46V","either","8","166","","","","","","","0","1","0","","0.8736667029","0.8","0.4","0.6","0.2","0.4368451062","0.8736667029","0.7479737912","0.2319826337","","","","","","","","","","","","74","J","1","","","217","main_expt",""
"","bandit","297","980711","0.0-258.0-0.0","46207419","wem/bandit_either_3","A3MCQHA2V0G46V","either","8","141","","","","","","","0","0","1","","0.7602784417","0.8","0.4","0.6","0.2","0.3963441813","0.7602784417","0.7713398237","0.3143382807","","","","","","","","","","","","74","J","1","","","218","main_expt",""
"","bandit","298","982591","0.0-259.0-0.0","46207419","wem/bandit_either_3","A3MCQHA2V0G46V","either","8","355","","","","","","","0","1","0","","0.7643050859","0.8","0.4","0.6","0.2","0.4809426617","0.7643050859","0.8077055691","0.3304972923","","","","","","","","","","","","74","J","1","","","219","main_expt",""
"","bandit","299","984248","0.0-260.0-0.0","46207419","wem/bandit_either_3","A3MCQHA2V0G46V","either","8","138","","","","","","","0","1","0","","0.7793587236","0.8","0.4","0.6","0.2","0.397759556","0.7793587236","0.7778114837","0.2866104843","","","","","","","","","","","","74","J","1","","","220","main_expt",""
"","bandit","300","985898","0.0-261.0-0.0","46207419","wem/bandit_either_3","A3MCQHA2V0G46V","either","8","121","","","","","","","1","0","0","0.82086311","","0.8","0.4","0.6","0.2","","","","","0.4087677593","0.82086311","0.7214198583","0.3602561646","","","","","","","","74","J","1","","","221","main_expt",""
"","bandit","301","987652","0.0-262.0-0.0","46207419","wem/bandit_either_3","A3MCQHA2V0G46V","either","8","214","","","","","","","1","0","0","0.8543662658","","0.8","0.4","0.6","0.2","","","","","0.4561280915","0.8543662658","0.8091526303","0.3228749062","","","","","","","","74","J","1","","","222","main_expt",""
"","bandit","302","989442","0.0-263.0-0.0","46207419","wem/bandit_either_3","A3MCQHA2V0G46V","either","8","256","","","","","","","0","1","0","","0.8599459829","0.8","0.4","0.6","0.2","0.4419858618","0.8599459829","0.8240838469","0.2549485676","","","","","","","","","","","","74","J","1","","","223","main_expt",""
"","bandit","303","991027","0.0-264.0-0.0","46207419","wem/bandit_either_3","A3MCQHA2V0G46V","either","8","58","","","","","","","1","0","0","0.8747991669","","0.8","0.4","0.6","0.2","","","","","0.494409337","0.8747991669","0.7670685714","0.2389333491","","","","","","","","74","J","1","","","224","main_expt",""
"","bandit","304","992809","0.0-265.0-0.0","46207419","wem/bandit_either_3","A3MCQHA2V0G46V","either","8","240","","","","","","","0","1","0","","0.7910409491","0.8","0.4","0.6","0.2","0.3713348049","0.7910409491","0.8775689376","0.1517307125","","","","","","","","","","","","74","J","1","","","225","main_expt",""
"","bandit","305","994362","0.0-266.0-0.0","46207419","wem/bandit_either_3","A3MCQHA2V0G46V","either","8","33","","","","","","","0","1","0","","0.7212928749","0.8","0.4","0.6","0.2","0.4013452417","0.7212928749","0.8846504348","0.1002450003","","","","","","","","","","","","74","J","1","","","226","main_expt",""
"","bandit","306","996136","0.0-267.0-0.0","46207419","wem/bandit_either_3","A3MCQHA2V0G46V","either","8","239","","","","","","","0","1","0","","0.7090989562","0.8","0.4","0.6","0.2","0.393451628","0.7090989562","0.851087938","0.1049945928","","","","","","","","","","","","74","J","1","","","227","main_expt",""
"","bandit","307","997928","0.0-268.0-0.0","46207419","wem/bandit_either_3","A3MCQHA2V0G46V","either","8","273","","","","","","","0","0","1","","0.6606736223","0.8","0.4","0.6","0.2","0.4175844788","0.6606736223","0.9074720337","0.03915988122","","","","","","","","","","","","74","J","1","","","228","main_expt",""
"","bandit","308","999662","0.0-269.0-0.0","46207419","wem/bandit_either_3","A3MCQHA2V0G46V","either","8","206","","","","","","","1","0","0","0.6893924153","","0.8","0.4","0.6","0.2","","","","","0.408368909","0.6893924153","0.872332114","0.03767516843","","","","","","","","74","J","1","","","229","main_expt",""
"","bandit","309","1001336","0.0-270.0-0.0","46207419","wem/bandit_either_3","A3MCQHA2V0G46V","either","8","144","","","","","","","0","1","0","","0.6067604319","0.8","0.4","0.6","0.2","0.4777699032","0.6067604319","0.7967167456","0.05804790214","","","","","","","","","","","","74","J","1","","","230","main_expt",""
"","bandit","310","1002903","0.0-271.0-0.0","46207419","wem/bandit_either_3","A3MCQHA2V0G46V","either","8","37","","","","","","","0","0","1","0.5037419277","","0.8","0.4","0.6","0.2","","","","","0.4935442242","0.5037419277","0.7760618079","0.04963095007","","","","","","","","74","J","1","","","231","main_expt",""
"","bandit","311","1004778","0.0-272.0-0.0","46207419","wem/bandit_either_3","A3MCQHA2V0G46V","either","8","338","","","","","","","0","0","1","","0.4339479185","0.8","0.4","0.6","0.2","0.4889590317","0.4339479185","0.7765467853","0.03759782928","","","","","","","","","","","","74","J","1","","","232","main_expt",""
"","bandit","312","1006541","0.0-273.0-0.0","46207419","wem/bandit_either_3","A3MCQHA2V0G46V","either","8","231","","","","","","","0","1","0","","0.4525546635","0.8","0.4","0.6","0.2","0.5212294662","0.4525546635","0.7895219362","0.03147013274","","","","","","","","","","","","74","J","1","","","233","main_expt",""
"","bandit","313","1008341","0.0-274.0-0.0","46207419","wem/bandit_either_3","A3MCQHA2V0G46V","either","8","268","","","","","","","0","1","0","","0.3680080929","0.8","0.4","0.6","0.2","0.4420617392","0.3680080929","0.7491899586","0.03547440544","","","","","","","","","","","","74","J","1","","","234","main_expt",""
"","bandit","314","1010054","0.0-275.0-0.0","46207419","wem/bandit_either_3","A3MCQHA2V0G46V","either","8","194","","","","","","","0","0","1","","0.3416373547","0.8","0.4","0.6","0.2","0.4816955248","0.3416373547","0.7397351474","0.04486782706","","","","","","","","","","","","74","J","1","","","235","main_expt",""
"","bandit","315","1011987","0.0-276.0-0.0","46207419","wem/bandit_either_3","A3MCQHA2V0G46V","either","8","400","","","","","","","0","0","1","","0.3722877153","0.8","0.4","0.6","0.2","0.3028121716","0.3722877153","0.6587673302","0.03122339122","","","","","","","","","","","","74","J","1","","","236","main_expt",""
"","bandit","316","1013713","0.0-277.0-0.0","46207419","wem/bandit_either_3","A3MCQHA2V0G46V","either","8","194","","","","","","","0","0","1","","0.04191117605","0.8","0.4","0.6","0.2","0.3802502189","0.3081002542","0.7534934878","0.04191117605","","","","","","","","","","","","76","L","3","","","237","main_expt",""
"","bandit","317","1015971","0.0-278.0-0.0","46207419","wem/bandit_either_3","A3MCQHA2V0G46V","either","8","718","","","","","","","0","0","1","","0.06367740527","0.8","0.4","0.6","0.2","0.4160754302","0.2546656634","0.8023031038","0.06367740527","","","","","","","","","","","","76","L","3","","","238","main_expt",""
"","bandit","318","1017767","0.0-279.0-0.0","46207419","wem/bandit_either_3","A3MCQHA2V0G46V","either","8","267","","","","","","","0","0","1","0.06315957527","","0.8","0.4","0.6","0.2","","","","","0.3510440385","0.3038323055","0.8333986962","0.06315957527","","","","","","","","76","L","3","","","239","main_expt",""
"","bandit","319","1019553","0.0-280.0-0.0","46207419","wem/bandit_either_3","A3MCQHA2V0G46V","either","8","249","","","","","","","0","0","1","","0.4182550587","0.8","0.4","0.6","0.2","0.4182550587","0.291884511","0.840768508","0.05324295338","","","","","","","","","","","","72","H","0","img/none_selected.jpg","","240","main_expt",""
"","bandit","320","1021397","0.0-281.0-0.0","46207419","wem/bandit_either_3","A3MCQHA2V0G46V","either","8","312","","","","","","","0","0","1","0.5037088371","","0.8","0.4","0.6","0.2","","","","","0.5037088371","0.3124975621","0.823006268","0.04641095239","","","","","","","","72","H","0","img/none_selected.jpg","","241","main_expt",""
"","bandit","321","1023416","0.0-282.0-0.0","46207419","wem/bandit_either_3","A3MCQHA2V0G46V","either","8","482","","","","","","","1","0","0","0.8152254121","","0.8","0.4","0.6","0.2","","","","","0.4877747003","0.3637146884","0.8152254121","0.04954190216","","","","","","","","75","K","2","","","242","main_expt",""
"","bandit","322","1025256","0.0-283.0-0.0","46207419","wem/bandit_either_3","A3MCQHA2V0G46V","either","8","309","","","","","","","1","0","0","0.8377493118","","0.8","0.4","0.6","0.2","","","","","0.5007011316","0.3304840913","0.8377493118","0.05592390002","","","","","","","","75","K","2","","","243","main_expt",""
"","bandit","323","1027118","0.0-284.0-0.0","46207419","wem/bandit_either_3","A3MCQHA2V0G46V","either","8","315","","","","","","","0","0","1","","0.8258586067","0.8","0.4","0.6","0.2","0.5730304632","0.4067767971","0.8258586067","0.03808637997","","","","","","","","","","","","75","K","2","","","244","main_expt",""
"","bandit","324","1028916","0.0-285.0-0.0","46207419","wem/bandit_either_3","A3MCQHA2V0G46V","either","8","277","","","","","","","1","0","0","0.7889424323","","0.8","0.4","0.6","0.2","","","","","0.6096531262","0.4091901929","0.7889424323","0.02077199453","","","","","","","","75","K","2","","","245","main_expt",""
"","bandit","325","1030808","0.0-286.0-0.0","46207419","wem/bandit_either_3","A3MCQHA2V0G46V","either","8","355","","","","","","","1","0","0","0.7288058668","","0.8","0.4","0.6","0.2","","","","","0.6433625309","0.3814802778","0.7288058668","0.01756278659","","","","","","","","75","K","2","","","246","main_expt",""
"","bandit","326","1032651","0.0-287.0-0.0","46207419","wem/bandit_either_3","A3MCQHA2V0G46V","either","8","318","","","","","","","1","0","0","0.6944890646","","0.8","0.4","0.6","0.2","","","","","0.5912901759","0.4081758168","0.6944890646","0.02612390617","","","","","","","","75","K","2","","","247","main_expt",""
