"consent","trial_type","trial_index","time_elapsed","internal_node_id","subjID","study","MID","cond","drift","rt","responses","key_press","expt_phase","like","value","connected","gems","bombs","no_reward","GemPrChosen","BombPrChosen","GainOverPainPr_0","GainOverPainPr_1","GainOverPainPr_2","GainOverPainPr_3","LosePr_0","LosePr_1","LosePr_2","LosePr_3","WinPr_0","WinPr_1","WinPr_2","WinPr_3","Q0","Q1","Q2","gender","age","ethnicity","target","respCharCode","respKey","respChoiceNum","respChoice","practice","trial_counter","trial_label","button_pressed"
"INL_behavioral_consent_30min_online.html","consent","0","21020","0.0-0.0","46816213","wem/bandit_either_3","A1TP0SGMUSJ34B","either","4","","","","","","","","","","","","","","","","","","","","","","","","","","","","","","","","","","","","","","",""
"","survey-text","1","30254","0.0-1.0","46816213","wem/bandit_either_3","A1TP0SGMUSJ34B","either","4","8216","{""Q0"":""A1TP0SGMUSJ34B""}","","","","","","","","","","","","","","","","","","","","","","","","","","","","","","","","","","","","",""
"","text","2","42692","0.0-2.0","46816213","wem/bandit_either_3","A1TP0SGMUSJ34B","either","4","11430","","32","","","","","","","","","","","","","","","","","","","","","","","","","","","","","","","","","","","",""
"","text","3","52324","0.0-3.0","46816213","wem/bandit_either_3","A1TP0SGMUSJ34B","either","4","9630","","32","","","","","","","","","","","","","","","","","","","","","","","","","","","","","","","","","","","",""
"","text","4","78165","0.0-4.0","46816213","wem/bandit_either_3","A1TP0SGMUSJ34B","either","4","25839","","32","","","","","","","","","","","","","","","","","","","","","","","","","","","","","","","","","","","",""
"","text","5","97723","0.0-5.0","46816213","wem/bandit_either_3","A1TP0SGMUSJ34B","either","4","19556","","32","","","","","","","","","","","","","","","","","","","","","","","","","","","","","","","","","","","",""
"","text","6","142631","0.0-6.0","46816213","wem/bandit_either_3","A1TP0SGMUSJ34B","either","4","44906","","32","","","","","","","","","","","","","","","","","","","","","","","","","","","","","","","","","","","",""
"","text","7","151325","0.0-7.0","46816213","wem/bandit_either_3","A1TP0SGMUSJ34B","either","4","8692","","32","","","","","","","","","","","","","","","","","","","","","","","","","","","","","","","","","","","",""
"","text","8","157447","0.0-8.0","46816213","wem/bandit_either_3","A1TP0SGMUSJ34B","either","4","6120","","32","","","","","","","","","","","","","","","","","","","","","","","","","","","","","","","","","","","",""
"","identification","9","173616","0.0-9.0-0.0","46816213","wem/bandit_either_3","A1TP0SGMUSJ34B","either","4","16138","","","","6","6","6","","","","","","","","","","","","","","","","","","","","","","","","the village of Zur","","","","","","","",""
"","identification","10","187103","0.0-9.0-1.0","46816213","wem/bandit_either_3","A1TP0SGMUSJ34B","either","4","12458","","","","0","0","0","","","","","","","","","","","","","","","","","","","","","","","","the village of Nyx","","","","","","","",""
"","text","11","193738","0.0-10.0","46816213","wem/bandit_either_3","A1TP0SGMUSJ34B","either","4","5632","","32","","","","","","","","","","","","","","","","","","","","","","","","","","","","","","","","","","","",""
"","text","12","198167","0.0-11.0","46816213","wem/bandit_either_3","A1TP0SGMUSJ34B","either","4","4427","","32","","","","","","","","","","","","","","","","","","","","","","","","","","","","","","","","","","","",""
"","text","13","201104","0.0-12.0","46816213","wem/bandit_either_3","A1TP0SGMUSJ34B","either","4","2935","","32","","","","","","","","","","","","","","","","","","","","","","","","","","","","","","","","","","","",""
"","text","14","208098","0.0-13.0","46816213","wem/bandit_either_3","A1TP0SGMUSJ34B","either","4","6993","","32","","","","","","","","","","","","","","","","","","","","","","","","","","","","","","","","","","","",""
"","bandit","15","211307","0.0-14.0-0.0","46816213","wem/bandit_either_3","A1TP0SGMUSJ34B","either","4","1695","","","","","","","0","0","1","0","0","","","","","0","","","","0","","","","","","","","","","","74","J","0","img/none_selected_demo.jpg","true","0","",""
"","bandit","16","214944","0.0-15.0-0.0","46816213","wem/bandit_either_3","A1TP0SGMUSJ34B","either","4","2123","","","","","","","0","0","1","0","0","","","","","0","","","","0","","","","","","","","","","","75","K","0","img/none_selected_demo.jpg","true","0","",""
"","text","17","225666","0.0-16.0","46816213","wem/bandit_either_3","A1TP0SGMUSJ34B","either","4","10720","","32","","","","","","","","","","","","","","","","","","","","","","","","","","","","","","","","","","","",""
"","text","18","242163","0.0-17.0","46816213","wem/bandit_either_3","A1TP0SGMUSJ34B","either","4","16495","","32","","","","","","","","","","","","","","","","","","","","","","","","","","","","","","","","","","","",""
"","text","19","253969","0.0-18.0","46816213","wem/bandit_either_3","A1TP0SGMUSJ34B","either","4","11802","","32","","","","","","","","","","","","","","","","","","","","","","","","","","","","","","","","","","","",""
"","text","20","258784","0.0-19.0","46816213","wem/bandit_either_3","A1TP0SGMUSJ34B","either","4","4813","","32","","","","","","","","","","","","","","","","","","","","","","","","","","","","","","","","","","","",""
"","bandit","21","261734","0.0-20.0-0.0","46816213","wem/bandit_either_3","A1TP0SGMUSJ34B","either","4","1430","","","","","","","0","1","0","","0.8","0.5","0.5","","","0.8","0.2","","","","","","","","","","","","","","74","J","0","img/none_selected_demo.jpg","true","0","80_20_practice",""
"","bandit","22","265078","0.0-20.0-1.0","46816213","wem/bandit_either_3","A1TP0SGMUSJ34B","either","4","1833","","","","","","","0","0","1","","0.2","0.5","0.5","","","0.8","0.2","","","","","","","","","","","","","","75","K","1","","true","0","80_20_practice",""
"","bandit","23","267266","0.0-20.0-2.0","46816213","wem/bandit_either_3","A1TP0SGMUSJ34B","either","4","678","","","","","","","0","1","0","","0.8","0.5","0.5","","","0.8","0.2","","","","","","","","","","","","","","74","J","0","img/none_selected_demo.jpg","true","0","80_20_practice",""
"","bandit","24","269201","0.0-20.0-3.0","46816213","wem/bandit_either_3","A1TP0SGMUSJ34B","either","4","426","","","","","","","1","0","0","0.8","","0.5","0.5","","","","","","","0.8","0.2","","","","","","","","","","74","J","0","img/none_selected_demo.jpg","true","0","80_20_practice",""
"","bandit","25","271010","0.0-20.0-4.0","46816213","wem/bandit_either_3","A1TP0SGMUSJ34B","either","4","296","","","","","","","0","1","0","","0.8","0.5","0.5","","","0.8","0.2","","","","","","","","","","","","","","74","J","0","img/none_selected_demo.jpg","true","0","80_20_practice",""
"","bandit","26","273027","0.0-20.0-5.0","46816213","wem/bandit_either_3","A1TP0SGMUSJ34B","either","4","507","","","","","","","1","0","0","0.8","","0.5","0.5","","","","","","","0.8","0.2","","","","","","","","","","74","J","0","img/none_selected_demo.jpg","true","0","80_20_practice",""
"","bandit","27","274899","0.0-20.0-6.0","46816213","wem/bandit_either_3","A1TP0SGMUSJ34B","either","4","363","","","","","","","0","1","0","","0.8","0.5","0.5","","","0.8","0.2","","","","","","","","","","","","","","74","J","0","img/none_selected_demo.jpg","true","0","80_20_practice",""
"","bandit","28","276769","0.0-20.0-7.0","46816213","wem/bandit_either_3","A1TP0SGMUSJ34B","either","4","362","","","","","","","0","0","1","0.2","","0.5","0.5","","","","","","","0.8","0.2","","","","","","","","","","75","K","1","","true","0","80_20_practice",""
"","bandit","29","278538","0.0-20.0-8.0","46816213","wem/bandit_either_3","A1TP0SGMUSJ34B","either","4","258","","","","","","","1","0","0","0.8","","0.5","0.5","","","","","","","0.8","0.2","","","","","","","","","","74","J","0","img/none_selected_demo.jpg","true","0","80_20_practice",""
"","bandit","30","280202","0.0-20.0-9.0","46816213","wem/bandit_either_3","A1TP0SGMUSJ34B","either","4","153","","","","","","","0","1","0","","0.8","0.5","0.5","","","0.8","0.2","","","","","","","","","","","","","","74","J","0","img/none_selected_demo.jpg","true","0","80_20_practice",""
"","bandit","31","281893","0.0-20.0-10.0","46816213","wem/bandit_either_3","A1TP0SGMUSJ34B","either","4","179","","","","","","","1","0","0","0.8","","0.5","0.5","","","","","","","0.8","0.2","","","","","","","","","","74","J","0","img/none_selected_demo.jpg","true","0","80_20_practice",""
"","bandit","32","283580","0.0-20.0-11.0","46816213","wem/bandit_either_3","A1TP0SGMUSJ34B","either","4","177","","","","","","","0","1","0","","0.8","0.5","0.5","","","0.8","0.2","","","","","","","","","","","","","","74","J","0","img/none_selected_demo.jpg","true","0","80_20_practice",""
"","bandit","33","285225","0.0-20.0-12.0","46816213","wem/bandit_either_3","A1TP0SGMUSJ34B","either","4","133","","","","","","","0","0","1","","0.8","0.5","0.5","","","0.8","0.2","","","","","","","","","","","","","","74","J","0","img/none_selected_demo.jpg","true","0","80_20_practice",""
"","bandit","34","286877","0.0-20.0-13.0","46816213","wem/bandit_either_3","A1TP0SGMUSJ34B","either","4","140","","","","","","","1","0","0","0.8","","0.5","0.5","","","","","","","0.8","0.2","","","","","","","","","","74","J","0","img/none_selected_demo.jpg","true","0","80_20_practice",""
"","bandit","35","288561","0.0-20.0-14.0","46816213","wem/bandit_either_3","A1TP0SGMUSJ34B","either","4","172","","","","","","","0","1","0","","0.8","0.5","0.5","","","0.8","0.2","","","","","","","","","","","","","","74","J","0","img/none_selected_demo.jpg","true","0","80_20_practice",""
"","bandit","36","290287","0.0-20.0-15.0","46816213","wem/bandit_either_3","A1TP0SGMUSJ34B","either","4","216","","","","","","","0","0","1","0.8","","0.5","0.5","","","","","","","0.8","0.2","","","","","","","","","","74","J","0","img/none_selected_demo.jpg","true","0","80_20_practice",""
"","bandit","37","292398","0.0-20.0-16.0","46816213","wem/bandit_either_3","A1TP0SGMUSJ34B","either","4","602","","","","","","","0","1","0","","0.8","0.5","0.5","","","0.8","0.2","","","","","","","","","","","","","","74","J","0","img/none_selected_demo.jpg","true","0","80_20_practice",""
"","bandit","38","295249","0.0-20.0-17.0","46816213","wem/bandit_either_3","A1TP0SGMUSJ34B","either","4","1341","","","","","","","0","1","0","","0.8","0.5","0.5","","","0.8","0.2","","","","","","","","","","","","","","74","J","0","img/none_selected_demo.jpg","true","0","80_20_practice",""
"","bandit","39","296828","0.0-20.0-18.0","46816213","wem/bandit_either_3","A1TP0SGMUSJ34B","either","4","67","","","","","","","0","0","1","0.8","","0.5","0.5","","","","","","","0.8","0.2","","","","","","","","","","74","J","0","img/none_selected_demo.jpg","true","0","80_20_practice",""
"","bandit","40","298342","0.0-20.0-19.0","46816213","wem/bandit_either_3","A1TP0SGMUSJ34B","either","4","2","","","","","","","0","0","1","0.8","","0.5","0.5","","","","","","","0.8","0.2","","","","","","","","","","74","J","0","img/none_selected_demo.jpg","true","0","80_20_practice",""
"","text","41","306607","0.0-21.0","46816213","wem/bandit_either_3","A1TP0SGMUSJ34B","either","4","8260","","32","","","","","","","","","","","","","","","","","","","","","","","","","","","","","","","","","","","",""
"","bandit","42","310437","0.0-22.0-0.0","46816213","wem/bandit_either_3","A1TP0SGMUSJ34B","either","4","2322","","","","","","","1","0","0","1","0","","","","","0","1","","","1","0","","","","","","","","","","74","J","0","img/none_selected_demo.jpg","true","0","",""
"","text","43","320682","0.0-23.0","46816213","wem/bandit_either_3","A1TP0SGMUSJ34B","either","4","10240","","32","","","","","","","","","","","","","","","","","","","","","","","","","","","","","","","","","","","",""
"","text","44","327087","0.0-24.0","46816213","wem/bandit_either_3","A1TP0SGMUSJ34B","either","4","6401","","32","","","","","","","","","","","","","","","","","","","","","","","","","","","","","","","","","","","",""
"","text","45","331734","0.0-25.0","46816213","wem/bandit_either_3","A1TP0SGMUSJ34B","either","4","4644","","32","","","","","","","","","","","","","","","","","","","","","","","","","","","","","","","","","","","",""
"","text","46","337729","0.0-26.0","46816213","wem/bandit_either_3","A1TP0SGMUSJ34B","either","4","5992","","32","","","","","","","","","","","","","","","","","","","","","","","","","","","","","","","","","","","",""
"","text","47","349934","0.0-27.0","46816213","wem/bandit_either_3","A1TP0SGMUSJ34B","either","4","12203","","32","","","","","","","","","","","","","","","","","","","","","","","","","","","","","","","","","","","",""
"","text","48","357805","0.0-28.0","46816213","wem/bandit_either_3","A1TP0SGMUSJ34B","either","4","7868","","32","","","","","","","","","","","","","","","","","","","","","","","","","","","","","","","","","","","",""
"","text","49","363785","0.0-29.0","46816213","wem/bandit_either_3","A1TP0SGMUSJ34B","either","4","5977","","32","","","","","","","","","","","","","","","","","","","","","","","","","","","","","","","","","","","",""
"","text","50","368524","0.0-30.0","46816213","wem/bandit_either_3","A1TP0SGMUSJ34B","either","4","4736","","32","","","","","","","","","","","","","","","","","","","","","","","","","","","","","","","","","","","",""
"","text","51","374794","0.0-31.0","46816213","wem/bandit_either_3","A1TP0SGMUSJ34B","either","4","6267","","32","","","","","","","","","","","","","","","","","","","","","","","","","","","","","","","","","","","",""
"","text","52","376717","0.0-32.0","46816213","wem/bandit_either_3","A1TP0SGMUSJ34B","either","4","1918","","32","","","","","","","","","","","","","","","","","","","","","","","","","","","","","","","","","","","",""
"","text","53","379411","0.0-33.0","46816213","wem/bandit_either_3","A1TP0SGMUSJ34B","either","4","2690","","32","","","","","","","","","","","","","","","","","","","","","","","","","","","","","","","","","","","",""
"","bandit","54","382394","0.0-34.0-0.0","46816213","wem/bandit_either_3","A1TP0SGMUSJ34B","either","4","1471","","","","","","","0","1","0","","0.8","0.5","0.5","0.5","0.5","0.8","0.2","0.6","0.2","","","","","","","","","","","","72","H","0","img/none_selected.jpg","true","0","full_practice",""
"","bandit","55","384357","0.0-34.0-1.0","46816213","wem/bandit_either_3","A1TP0SGMUSJ34B","either","4","447","","","","","","","0","1","0","","0.8","0.5","0.5","0.5","0.5","0.8","0.2","0.6","0.2","","","","","","","","","","","","72","H","0","img/none_selected.jpg","true","0","full_practice",""
"","bandit","56","387261","0.0-34.0-2.0","46816213","wem/bandit_either_3","A1TP0SGMUSJ34B","either","4","1393","","","","","","","0","1","0","","0.8","0.5","0.5","0.5","0.5","0.8","0.2","0.6","0.2","","","","","","","","","","","","72","H","0","img/none_selected.jpg","true","0","full_practice",""
"","bandit","57","388856","0.0-34.0-3.0","46816213","wem/bandit_either_3","A1TP0SGMUSJ34B","either","4","83","","","","","","","0","1","0","","0.8","0.5","0.5","0.5","0.5","0.8","0.2","0.6","0.2","","","","","","","","","","","","72","H","0","img/none_selected.jpg","true","0","full_practice",""
"","bandit","58","390874","0.0-34.0-4.0","46816213","wem/bandit_either_3","A1TP0SGMUSJ34B","either","4","509","","","","","","","0","0","1","0.2","","0.5","0.5","0.5","0.5","","","","","0.8","0.2","0.6","0.2","","","","","","","","74","J","1","","true","0","full_practice",""
"","bandit","59","393729","0.0-34.0-5.0","46816213","wem/bandit_either_3","A1TP0SGMUSJ34B","either","4","1346","","","","","","","1","0","0","0.2","","0.5","0.5","0.5","0.5","","","","","0.8","0.2","0.6","0.2","","","","","","","","74","J","1","","true","0","full_practice",""
"","bandit","60","395537","0.0-34.0-6.0","46816213","wem/bandit_either_3","A1TP0SGMUSJ34B","either","4","301","","","","","","","0","0","1","0.2","","0.5","0.5","0.5","0.5","","","","","0.8","0.2","0.6","0.2","","","","","","","","74","J","1","","true","0","full_practice",""
"","bandit","61","397301","0.0-34.0-7.0","46816213","wem/bandit_either_3","A1TP0SGMUSJ34B","either","4","252","","","","","","","0","0","1","0.2","","0.5","0.5","0.5","0.5","","","","","0.8","0.2","0.6","0.2","","","","","","","","74","J","1","","true","0","full_practice",""
"","bandit","62","399271","0.0-34.0-8.0","46816213","wem/bandit_either_3","A1TP0SGMUSJ34B","either","4","459","","","","","","","1","0","0","0.6","","0.5","0.5","0.5","0.5","","","","","0.8","0.2","0.6","0.2","","","","","","","","75","K","2","","true","0","full_practice",""
"","bandit","63","401007","0.0-34.0-9.0","46816213","wem/bandit_either_3","A1TP0SGMUSJ34B","either","4","228","","","","","","","0","0","1","0.6","","0.5","0.5","0.5","0.5","","","","","0.8","0.2","0.6","0.2","","","","","","","","75","K","2","","true","0","full_practice",""
"","bandit","64","402807","0.0-34.0-10.0","46816213","wem/bandit_either_3","A1TP0SGMUSJ34B","either","4","290","","","","","","","0","0","1","","0.6","0.5","0.5","0.5","0.5","0.8","0.2","0.6","0.2","","","","","","","","","","","","75","K","2","","true","0","full_practice",""
"","bandit","65","404559","0.0-34.0-11.0","46816213","wem/bandit_either_3","A1TP0SGMUSJ34B","either","4","240","","","","","","","0","1","0","","0.2","0.5","0.5","0.5","0.5","0.8","0.2","0.6","0.2","","","","","","","","","","","","76","L","3","","true","0","full_practice",""
"","bandit","66","406346","0.0-34.0-12.0","46816213","wem/bandit_either_3","A1TP0SGMUSJ34B","either","4","276","","","","","","","0","1","0","","0.2","0.5","0.5","0.5","0.5","0.8","0.2","0.6","0.2","","","","","","","","","","","","76","L","3","","true","0","full_practice",""
"","bandit","67","408174","0.0-34.0-13.0","46816213","wem/bandit_either_3","A1TP0SGMUSJ34B","either","4","315","","","","","","","1","0","0","0.2","","0.5","0.5","0.5","0.5","","","","","0.8","0.2","0.6","0.2","","","","","","","","76","L","3","","true","0","full_practice",""
"","bandit","68","409976","0.0-34.0-14.0","46816213","wem/bandit_either_3","A1TP0SGMUSJ34B","either","4","290","","","","","","","0","0","1","","0.2","0.5","0.5","0.5","0.5","0.8","0.2","0.6","0.2","","","","","","","","","","","","76","L","3","","true","0","full_practice",""
"","bandit","69","411725","0.0-34.0-15.0","46816213","wem/bandit_either_3","A1TP0SGMUSJ34B","either","4","233","","","","","","","0","0","1","0.2","","0.5","0.5","0.5","0.5","","","","","0.8","0.2","0.6","0.2","","","","","","","","76","L","3","","true","0","full_practice",""
"","bandit","70","413740","0.0-34.0-16.0","46816213","wem/bandit_either_3","A1TP0SGMUSJ34B","either","4","492","","","","","","","0","0","1","0.2","","0.5","0.5","0.5","0.5","","","","","0.8","0.2","0.6","0.2","","","","","","","","76","L","3","","true","0","full_practice",""
"","bandit","71","415489","0.0-34.0-17.0","46816213","wem/bandit_either_3","A1TP0SGMUSJ34B","either","4","235","","","","","","","0","1","0","","0.8","0.5","0.5","0.5","0.5","0.8","0.2","0.6","0.2","","","","","","","","","","","","72","H","0","img/none_selected.jpg","true","0","full_practice",""
"","bandit","72","417360","0.0-34.0-18.0","46816213","wem/bandit_either_3","A1TP0SGMUSJ34B","either","4","357","","","","","","","1","0","0","0.8","","0.5","0.5","0.5","0.5","","","","","0.8","0.2","0.6","0.2","","","","","","","","72","H","0","img/none_selected.jpg","true","0","full_practice",""
"","bandit","73","419005","0.0-34.0-19.0","46816213","wem/bandit_either_3","A1TP0SGMUSJ34B","either","4","132","","","","","","","0","0","1","0.8","","0.5","0.5","0.5","0.5","","","","","0.8","0.2","0.6","0.2","","","","","","","","72","H","0","img/none_selected.jpg","true","0","full_practice",""
"","text","74","423973","0.0-35.0","46816213","wem/bandit_either_3","A1TP0SGMUSJ34B","either","4","4954","","32","","","","","","","","","","","","","","","","","","","","","","","","","","","","","","","","","","","",""
"","text","75","441626","0.0-36.0","46816213","wem/bandit_either_3","A1TP0SGMUSJ34B","either","4","16648","","32","","","","","","","","","","","","","","","","","","","","","","","","","","","","","","","","","","","",""
"","text","76","453056","0.0-37.0","46816213","wem/bandit_either_3","A1TP0SGMUSJ34B","either","4","11425","","32","","","","","","","","","","","","","","","","","","","","","","","","","","","","","","","","","","","",""
"","text","77","463034","0.0-38.0","46816213","wem/bandit_either_3","A1TP0SGMUSJ34B","either","4","9975","","32","","","","","","","","","","","","","","","","","","","","","","","","","","","","","","","","","","","",""
"","text","78","467112","0.0-39.0","46816213","wem/bandit_either_3","A1TP0SGMUSJ34B","either","4","4073","","32","","","","","","","","","","","","","","","","","","","","","","","","","","","","","","","","","","","",""
"","text","79","471201","0.0-40.0","46816213","wem/bandit_either_3","A1TP0SGMUSJ34B","either","4","4084","","32","","","","","","","","","","","","","","","","","","","","","","","","","","","","","","","","","","","",""
"","bandit","80","473354","0.0-41.0-0.0","46816213","wem/bandit_either_3","A1TP0SGMUSJ34B","either","4","641","","","","","","","0","0","1","0.2887693562","","0.8","0.2","0.6","0.4","","","","","0.2887693562","0.8209843215","0.9858900825","0.7267404998","","","","","","","","72","H","0","img/none_selected.jpg","","1","main_expt",""
"","bandit","81","475100","0.0-42.0-0.0","46816213","wem/bandit_either_3","A1TP0SGMUSJ34B","either","4","235","","","","","","","0","1","0","","0.8179122382","0.8","0.2","0.6","0.4","0.2986217167","0.8179122382","0.9854924354","0.7034907646","","","","","","","","","","","","74","J","1","","","2","main_expt",""
"","bandit","82","476741","0.0-43.0-0.0","46816213","wem/bandit_either_3","A1TP0SGMUSJ34B","either","4","115","","","","","","","0","1","0","","0.8301291561","0.8","0.2","0.6","0.4","0.261346942","0.8301291561","0.9789624529","0.6574847675","","","","","","","","","","","","74","J","1","","","3","main_expt",""
"","bandit","83","478518","0.0-44.0-0.0","46816213","wem/bandit_either_3","A1TP0SGMUSJ34B","either","4","264","","","","","","","0","0","1","","0.8219157537","0.8","0.2","0.6","0.4","0.2757740293","0.8219157537","0.9565345184","0.5092805277","","","","","","","","","","","","74","J","1","","","4","main_expt",""
"","bandit","84","480389","0.0-45.0-0.0","46816213","wem/bandit_either_3","A1TP0SGMUSJ34B","either","4","357","","","","","","","1","0","0","0.7759220463","","0.8","0.2","0.6","0.4","","","","","0.3329857669","0.7759220463","0.941194936","0.5952926025","","","","","","","","74","J","1","","","5","main_expt",""
"","bandit","85","482159","0.0-46.0-0.0","46816213","wem/bandit_either_3","A1TP0SGMUSJ34B","either","4","251","","","","","","","0","1","0","","0.7495930044","0.8","0.2","0.6","0.4","0.331878758","0.7495930044","0.9305219143","0.6160758637","","","","","","","","","","","","74","J","1","","","6","main_expt",""
"","bandit","86","483971","0.0-47.0-0.0","46816213","wem/bandit_either_3","A1TP0SGMUSJ34B","either","4","303","","","","","","","0","1","0","","0.7078030286","0.8","0.2","0.6","0.4","0.3863389794","0.7078030286","0.937738562","0.6381806331","","","","","","","","","","","","74","J","1","","","7","main_expt",""
"","bandit","87","485884","0.0-48.0-0.0","46816213","wem/bandit_either_3","A1TP0SGMUSJ34B","either","4","400","","","","","","","0","1","0","","0.689407674","0.8","0.2","0.6","0.4","0.4242016385","0.689407674","0.8269671957","0.7047831713","","","","","","","","","","","","74","J","1","","","8","main_expt",""
"","bandit","88","487554","0.0-49.0-0.0","46816213","wem/bandit_either_3","A1TP0SGMUSJ34B","either","4","155","","","","","","","0","0","1","","0.7848236408","0.8","0.2","0.6","0.4","0.379169242","0.7848236408","0.7696709776","0.6222923336","","","","","","","","","","","","74","J","1","","","9","main_expt",""
"","bandit","89","489229","0.0-50.0-0.0","46816213","wem/bandit_either_3","A1TP0SGMUSJ34B","either","4","162","","","","","","","1","0","0","0.791363481","","0.8","0.2","0.6","0.4","","","","","0.40569916","0.791363481","0.7313552403","0.5629201009","","","","","","","","74","J","1","","","10","main_expt",""
"","bandit","90","490839","0.0-51.0-0.0","46816213","wem/bandit_either_3","A1TP0SGMUSJ34B","either","4","98","","","","","","","0","1","0","","0.7800632456","0.8","0.2","0.6","0.4","0.4188021694","0.7800632456","0.8129169819","0.644159789","","","","","","","","","","","","74","J","1","","","11","main_expt",""
"","bandit","91","492515","0.0-52.0-0.0","46816213","wem/bandit_either_3","A1TP0SGMUSJ34B","either","4","164","","","","","","","0","0","1","","0.7559884596","0.8","0.2","0.6","0.4","0.3689559917","0.7559884596","0.7611571711","0.6840372722","","","","","","","","","","","","74","J","1","","","12","main_expt",""
"","bandit","92","494086","0.0-53.0-0.0","46816213","wem/bandit_either_3","A1TP0SGMUSJ34B","either","4","58","","","","","","","0","1","0","","0.7695577991","0.8","0.2","0.6","0.4","0.4584943612","0.7695577991","0.7628417147","0.6236151953","","","","","","","","","","","","74","J","1","","","13","main_expt",""
"","bandit","93","495614","0.0-54.0-0.0","46816213","wem/bandit_either_3","A1TP0SGMUSJ34B","either","4","3","","","","","","","0","1","0","","0.8509931145","0.8","0.2","0.6","0.4","0.455083938","0.8509931145","0.7436451733","0.5388331182","","","","","","","","","","","","74","J","1","","","14","main_expt",""
"","bandit","94","498281","0.0-55.0-0.0","46816213","wem/bandit_either_3","A1TP0SGMUSJ34B","either","4","1152","","","","","","","0","1","0","","0.7745856811","0.8","0.2","0.6","0.4","0.5360112786","0.7745856811","0.8256008488","0.4802769188","","","","","","","","","","","","74","J","1","","","15","main_expt",""
"","bandit","95","499930","0.0-56.0-0.0","46816213","wem/bandit_either_3","A1TP0SGMUSJ34B","either","4","137","","","","","","","0","1","0","","0.7576521113","0.8","0.2","0.6","0.4","0.4791571541","0.7576521113","0.7683027423","0.4688000192","","","","","","","","","","","","74","J","1","","","16","main_expt",""
"","bandit","96","501797","0.0-57.0-0.0","46816213","wem/bandit_either_3","A1TP0SGMUSJ34B","either","4","355","","","","","","","0","1","0","","0.8099558365","0.8","0.2","0.6","0.4","0.5263630166","0.8099558365","0.7857675768","0.6000602573","","","","","","","","","","","","74","J","1","","","17","main_expt",""
"","bandit","97","503470","0.0-58.0-0.0","46816213","wem/bandit_either_3","A1TP0SGMUSJ34B","either","4","156","","","","","","","0","1","0","","0.7535280451","0.8","0.2","0.6","0.4","0.543945959","0.7535280451","0.7303419725","0.6046592687","","","","","","","","","","","","74","J","1","","","18","main_expt",""
"","bandit","98","505092","0.0-59.0-0.0","46816213","wem/bandit_either_3","A1TP0SGMUSJ34B","either","4","109","","","","","","","0","1","0","","0.7206444799","0.8","0.2","0.6","0.4","0.4579801682","0.7206444799","0.7243255268","0.6177236116","","","","","","","","","","","","74","J","1","","","19","main_expt",""
"","bandit","99","506825","0.0-60.0-0.0","46816213","wem/bandit_either_3","A1TP0SGMUSJ34B","either","4","216","","","","","","","0","1","0","","0.6388551968","0.8","0.2","0.6","0.4","0.5439896582","0.6388551968","0.7691283854","0.5484637992","","","","","","","","","","","","74","J","1","","","20","main_expt",""
"","bandit","100","508346","0.0-61.0-0.0","46816213","wem/bandit_either_3","A1TP0SGMUSJ34B","either","4","4","","","","","","","0","1","0","","0.4956822649","0.8","0.2","0.6","0.4","0.5796019833","0.4956822649","0.7068464658","0.6646151354","","","","","","","","","","","","74","J","1","","","21","main_expt",""
"","bandit","101","510221","0.0-62.0-0.0","46816213","wem/bandit_either_3","A1TP0SGMUSJ34B","either","4","364","","","","","","","0","1","0","","0.4316307404","0.8","0.2","0.6","0.4","0.5885929095","0.4316307404","0.7407239748","0.7223938077","","","","","","","","","","","","74","J","1","","","22","main_expt",""
"","bandit","102","512154","0.0-63.0-0.0","46816213","wem/bandit_either_3","A1TP0SGMUSJ34B","either","4","421","","","","","","","1","0","0","0.4158022912","","0.8","0.2","0.6","0.4","","","","","0.4899642796","0.4158022912","0.7300920021","0.7548690184","","","","","","","","74","J","1","","","23","main_expt",""
"","bandit","103","513823","0.0-64.0-0.0","46816213","wem/bandit_either_3","A1TP0SGMUSJ34B","either","4","159","","","","","","","0","1","0","","0.4099928258","0.8","0.2","0.6","0.4","0.4984159311","0.4099928258","0.7074307303","0.7794954679","","","","","","","","","","","","74","J","1","","","24","main_expt",""
"","bandit","104","515632","0.0-65.0-0.0","46816213","wem/bandit_either_3","A1TP0SGMUSJ34B","either","4","298","","","","","","","0","0","1","","0.4303724308","0.8","0.2","0.6","0.4","0.5885503773","0.4303724308","0.6228099684","0.8029664172","","","","","","","","","","","","74","J","1","","","25","main_expt",""
"","bandit","105","517963","0.0-66.0-0.0","46816213","wem/bandit_either_3","A1TP0SGMUSJ34B","either","4","820","","","","","","","0","0","1","","0.3291624114","0.8","0.2","0.6","0.4","0.6978100054","0.3291624114","0.5588879168","0.6980766755","","","","","","","","","","","","74","J","1","","","26","main_expt",""
"","bandit","106","519734","0.0-67.0-0.0","46816213","wem/bandit_either_3","A1TP0SGMUSJ34B","either","4","256","","","","","","","0","0","1","","0.5033257713","0.8","0.2","0.6","0.4","0.6442468271","0.3795789415","0.5033257713","0.7021498626","","","","","","","","","","","","75","K","2","","","27","main_expt",""
"","bandit","107","521629","0.0-68.0-0.0","46816213","wem/bandit_either_3","A1TP0SGMUSJ34B","either","4","383","","","","","","","0","0","1","0.4915102133","","0.8","0.2","0.6","0.4","","","","","0.7399213538","0.3208573938","0.4915102133","0.7802436781","","","","","","","","75","K","2","","","28","main_expt",""
"","bandit","108","524715","0.0-69.0-0.0","46816213","wem/bandit_either_3","A1TP0SGMUSJ34B","either","4","1576","","","","","","","0","1","0","","0.6907923131","0.8","0.2","0.6","0.4","0.7520253205","0.3352919619","0.4291187576","0.6907923131","","","","","","","","","","","","76","L","3","","","29","main_expt",""
"","bandit","109","526565","0.0-70.0-0.0","46816213","wem/bandit_either_3","A1TP0SGMUSJ34B","either","4","335","","","","","","","0","1","0","","0.6771306444","0.8","0.2","0.6","0.4","0.7528469829","0.3452717309","0.5379907803","0.6771306444","","","","","","","","","","","","76","L","3","","","30","main_expt",""
"","bandit","110","528407","0.0-71.0-0.0","46816213","wem/bandit_either_3","A1TP0SGMUSJ34B","either","4","326","","","","","","","0","1","0","","0.7130915948","0.8","0.2","0.6","0.4","0.7571908429","0.2967094522","0.646046857","0.7130915948","","","","","","","","","","","","76","L","3","","","31","main_expt",""
"","bandit","111","530826","0.0-72.0-0.0","46816213","wem/bandit_either_3","A1TP0SGMUSJ34B","either","4","902","","","","","","","0","1","0","","0.6849190202","0.8","0.2","0.6","0.4","0.7530934884","0.255781972","0.5608885347","0.6849190202","","","","","","","","","","","","76","L","3","","","32","main_expt",""
"","bandit","112","532415","0.0-73.0-0.0","46816213","wem/bandit_either_3","A1TP0SGMUSJ34B","either","4","75","","","","","","","0","1","0","","0.7392612035","0.8","0.2","0.6","0.4","0.7163673585","0.2703771925","0.5952322697","0.7392612035","","","","","","","","","","","","76","L","3","","","33","main_expt",""
"","bandit","113","534233","0.0-74.0-0.0","46816213","wem/bandit_either_3","A1TP0SGMUSJ34B","either","4","298","","","","","","","0","1","0","","0.7026009082","0.8","0.2","0.6","0.4","0.6817248107","0.3572673824","0.6206609301","0.7026009082","","","","","","","","","","","","76","L","3","","","34","main_expt",""
"","bandit","114","536008","0.0-75.0-0.0","46816213","wem/bandit_either_3","A1TP0SGMUSJ34B","either","4","263","","","","","","","1","0","0","0.632003728","","0.8","0.2","0.6","0.4","","","","","0.6903641832","0.3237575066","0.6223058769","0.632003728","","","","","","","","76","L","3","","","35","main_expt",""
"","bandit","115","537779","0.0-76.0-0.0","46816213","wem/bandit_either_3","A1TP0SGMUSJ34B","either","4","256","","","","","","","1","0","0","0.7266912659","","0.8","0.2","0.6","0.4","","","","","0.6953747248","0.3724209237","0.7304722347","0.7266912659","","","","","","","","76","L","3","","","36","main_expt",""
"","bandit","116","539514","0.0-77.0-0.0","46816213","wem/bandit_either_3","A1TP0SGMUSJ34B","either","4","221","","","","","","","0","0","1","","0.5512211225","0.8","0.2","0.6","0.4","0.7552078918","0.3848591071","0.6789706255","0.5512211225","","","","","","","","","","","","76","L","3","","","37","main_expt",""
"","bandit","117","541307","0.0-78.0-0.0","46816213","wem/bandit_either_3","A1TP0SGMUSJ34B","either","4","277","","","","","","","0","0","1","0.5888446875","","0.8","0.2","0.6","0.4","","","","","0.7095976639","0.4026628424","0.6758320082","0.5888446875","","","","","","","","76","L","3","","","38","main_expt",""
"","bandit","118","543641","0.0-79.0-0.0","46816213","wem/bandit_either_3","A1TP0SGMUSJ34B","either","4","810","","","","","","","0","0","1","0.7813817897","","0.8","0.2","0.6","0.4","","","","","0.7813817897","0.460229008","0.753286291","0.7349010221","","","","","","","","72","H","0","img/none_selected.jpg","","39","main_expt",""
"","bandit","119","545401","0.0-80.0-0.0","46816213","wem/bandit_either_3","A1TP0SGMUSJ34B","either","4","244","","","","","","","0","0","1","0.7604460558","","0.8","0.2","0.6","0.4","","","","","0.7604460558","0.3392787789","0.7527041006","0.6715391024","","","","","","","","72","H","0","img/none_selected.jpg","","40","main_expt",""
"","bandit","120","547264","0.0-81.0-0.0","46816213","wem/bandit_either_3","A1TP0SGMUSJ34B","either","4","349","","","","","","","1","0","0","0.2983701942","","0.8","0.2","0.6","0.4","","","","","0.7588214983","0.2983701942","0.7900808451","0.688235262","","","","","","","","74","J","1","","","41","main_expt",""
"","bandit","121","548981","0.0-82.0-0.0","46816213","wem/bandit_either_3","A1TP0SGMUSJ34B","either","4","203","","","","","","","0","0","1","0.2390858253","","0.8","0.2","0.6","0.4","","","","","0.8204813903","0.2390858253","0.7261157662","0.750516412","","","","","","","","74","J","1","","","42","main_expt",""
"","bandit","122","550804","0.0-83.0-0.0","46816213","wem/bandit_either_3","A1TP0SGMUSJ34B","either","4","306","","","","","","","0","0","1","","0.1877526289","0.8","0.2","0.6","0.4","0.8310219988","0.1877526289","0.772887471","0.775378891","","","","","","","","","","","","74","J","1","","","43","main_expt",""
"","bandit","123","552348","0.0-84.0-0.0","46816213","wem/bandit_either_3","A1TP0SGMUSJ34B","either","4","30","","","","","","","0","0","1","0.7359848823","","0.8","0.2","0.6","0.4","","","","","0.8165903167","0.2713877418","0.7359848823","0.5983035632","","","","","","","","75","K","2","","","44","main_expt",""
"","bandit","124","554127","0.0-85.0-0.0","46816213","wem/bandit_either_3","A1TP0SGMUSJ34B","either","4","264","","","","","","","1","0","0","0.6223954065","","0.8","0.2","0.6","0.4","","","","","0.6765015189","0.2600408605","0.6223954065","0.6453890447","","","","","","","","75","K","2","","","45","main_expt",""
"","bandit","125","555937","0.0-86.0-0.0","46816213","wem/bandit_either_3","A1TP0SGMUSJ34B","either","4","298","","","","","","","0","0","1","0.5963379238","","0.8","0.2","0.6","0.4","","","","","0.6613510417","0.2435580982","0.5963379238","0.4979639723","","","","","","","","75","K","2","","","46","main_expt",""
"","bandit","126","557615","0.0-87.0-0.0","46816213","wem/bandit_either_3","A1TP0SGMUSJ34B","either","4","157","","","","","","","0","0","1","","0.6161308884","0.8","0.2","0.6","0.4","0.7373034573","0.3258971046","0.6161308884","0.4475739324","","","","","","","","","","","","75","K","2","","","47","main_expt",""
"","bandit","127","559779","0.0-88.0-0.0","46816213","wem/bandit_either_3","A1TP0SGMUSJ34B","either","4","652","","","","","","","1","0","0","0.570942939","","0.8","0.2","0.6","0.4","","","","","0.6580913366","0.2934977076","0.6354722558","0.570942939","","","","","","","","76","L","3","","","48","main_expt",""
"","bandit","128","561607","0.0-89.0-0.0","46816213","wem/bandit_either_3","A1TP0SGMUSJ34B","either","4","313","","","","","","","0","0","1","0.5943858444","","0.8","0.2","0.6","0.4","","","","","0.6518545324","0.3381222087","0.5941747261","0.5943858444","","","","","","","","76","L","3","","","49","main_expt",""
"","bandit","129","563444","0.0-90.0-0.0","46816213","wem/bandit_either_3","A1TP0SGMUSJ34B","either","4","322","","","","","","","0","1","0","","0.72156704","0.8","0.2","0.6","0.4","0.6362385309","0.4149653651","0.5510631732","0.72156704","","","","","","","","","","","","76","L","3","","","50","main_expt",""
"","bandit","130","565169","0.0-91.0-0.0","46816213","wem/bandit_either_3","A1TP0SGMUSJ34B","either","4","214","","","","","","","1","0","0","0.6453884322","","0.8","0.2","0.6","0.4","","","","","0.6673370403","0.315936401","0.5580995271","0.6453884322","","","","","","","","76","L","3","","","51","main_expt",""
"","bandit","131","566795","0.0-92.0-0.0","46816213","wem/bandit_either_3","A1TP0SGMUSJ34B","either","4","116","","","","","","","0","0","1","0.635653338","","0.8","0.2","0.6","0.4","","","","","0.6614759556","0.34776451","0.4492126091","0.635653338","","","","","","","","76","L","3","","","52","main_expt",""
"","bandit","132","568608","0.0-93.0-0.0","46816213","wem/bandit_either_3","A1TP0SGMUSJ34B","either","4","302","","","","","","","0","0","1","","0.5700640027","0.8","0.2","0.6","0.4","0.5099009019","0.2946288454","0.4600129001","0.5700640027","","","","","","","","","","","","76","L","3","","","53","main_expt",""
"","bandit","133","570306","0.0-94.0-0.0","46816213","wem/bandit_either_3","A1TP0SGMUSJ34B","either","4","189","","","","","","","0","1","0","","0.4535518587","0.8","0.2","0.6","0.4","0.5323874036","0.3757560715","0.4005354829","0.4535518587","","","","","","","","","","","","76","L","3","","","54","main_expt",""
"","bandit","134","572198","0.0-95.0-0.0","46816213","wem/bandit_either_3","A1TP0SGMUSJ34B","either","4","378","","","","","","","0","0","1","0.4271895083","","0.8","0.2","0.6","0.4","","","","","0.5410243768","0.3258455482","0.3305694417","0.4271895083","","","","","","","","76","L","3","","","55","main_expt",""
"","bandit","135","573982","0.0-96.0-0.0","46816213","wem/bandit_either_3","A1TP0SGMUSJ34B","either","4","269","","","","","","","0","0","1","","0.3506641683","0.8","0.2","0.6","0.4","0.5594159285","0.4350401219","0.3443449075","0.3506641683","","","","","","","","","","","","76","L","3","","","56","main_expt",""
"","bandit","136","575821","0.0-97.0-0.0","46816213","wem/bandit_either_3","A1TP0SGMUSJ34B","either","4","325","","","","","","","0","0","1","","0.3266461122","0.8","0.2","0.6","0.4","0.5057935102","0.3707313189","0.3719720486","0.3266461122","","","","","","","","","","","","76","L","3","","","57","main_expt",""
"","bandit","137","577991","0.0-98.0-0.0","46816213","wem/bandit_either_3","A1TP0SGMUSJ34B","either","4","658","","","","","","","0","0","1","0.4921421838","","0.8","0.2","0.6","0.4","","","","","0.4921421838","0.5588799977","0.2230753252","0.3024401834","","","","","","","","72","H","0","img/none_selected.jpg","","58","main_expt",""
"","bandit","138","579781","0.0-99.0-0.0","46816213","wem/bandit_either_3","A1TP0SGMUSJ34B","either","4","275","","","","","","","1","0","0","0.4740341295","","0.8","0.2","0.6","0.4","","","","","0.4740341295","0.6863198467","0.2255195526","0.4306619987","","","","","","","","72","H","0","img/none_selected.jpg","","59","main_expt",""
"","bandit","139","581654","0.0-100.0-0.0","46816213","wem/bandit_either_3","A1TP0SGMUSJ34B","either","4","359","","","","","","","0","0","1","","0.4853159436","0.8","0.2","0.6","0.4","0.4853159436","0.6998437478","0.2150487889","0.4710521126","","","","","","","","","","","","72","H","0","img/none_selected.jpg","","60","main_expt",""
"","bandit","140","583351","0.0-101.0-0.0","46816213","wem/bandit_either_3","A1TP0SGMUSJ34B","either","4","186","","","","","","","0","0","1","0.4843563089","","0.8","0.2","0.6","0.4","","","","","0.4843563089","0.7027468204","0.2670703017","0.4797168847","","","","","","","","72","H","0","img/none_selected.jpg","","61","main_expt",""
"","bandit","141","585068","0.0-102.0-0.0","46816213","wem/bandit_either_3","A1TP0SGMUSJ34B","either","4","205","","","","","","","0","1","0","","0.7461433662","0.8","0.2","0.6","0.4","0.4970562682","0.7461433662","0.1622034337","0.441351191","","","","","","","","","","","","74","J","1","","","62","main_expt",""
"","bandit","142","586829","0.0-103.0-0.0","46816213","wem/bandit_either_3","A1TP0SGMUSJ34B","either","4","243","","","","","","","0","1","0","","0.7956877632","0.8","0.2","0.6","0.4","0.4870743105","0.7956877632","0.1872430185","0.6405696824","","","","","","","","","","","","74","J","1","","","63","main_expt",""
"","bandit","143","588459","0.0-104.0-0.0","46816213","wem/bandit_either_3","A1TP0SGMUSJ34B","either","4","65","","","","","","","0","1","0","","0.7533911137","0.8","0.2","0.6","0.4","0.5297884171","0.7533911137","0.1921602407","0.5093225209","","","","","","","","","","","","74","J","1","","","64","main_expt",""
"","bandit","144","590250","0.0-105.0-0.0","46816213","wem/bandit_either_3","A1TP0SGMUSJ34B","either","4","272","","","","","","","0","1","0","","0.8407665504","0.8","0.2","0.6","0.4","0.5510281753","0.8407665504","0.1747679693","0.5190422554","","","","","","","","","","","","74","J","1","","","65","main_expt",""
"","bandit","145","592106","0.0-106.0-0.0","46816213","wem/bandit_either_3","A1TP0SGMUSJ34B","either","4","335","","","","","","","0","1","0","","0.8392190168","0.8","0.2","0.6","0.4","0.6548378986","0.8392190168","0.149475979","0.4367989657","","","","","","","","","","","","74","J","1","","","66","main_expt",""
"","bandit","146","593626","0.0-107.0-0.0","46816213","wem/bandit_either_3","A1TP0SGMUSJ34B","either","4","5","","","","","","","0","0","1","","0.7998105719","0.8","0.2","0.6","0.4","0.7873643744","0.7998105719","0.1340316754","0.4515976155","","","","","","","","","","","","74","J","1","","","67","main_expt",""
"","bandit","147","595402","0.0-108.0-0.0","46816213","wem/bandit_either_3","A1TP0SGMUSJ34B","either","4","259","","","","","","","0","0","1","","0.8055175736","0.8","0.2","0.6","0.4","0.8374830125","0.8055175736","0.1635100664","0.4605235732","","","","","","","","","","","","74","J","1","","","68","main_expt",""
"","bandit","148","597074","0.0-109.0-0.0","46816213","wem/bandit_either_3","A1TP0SGMUSJ34B","either","4","156","","","","","","","0","0","1","","0.9157616325","0.8","0.2","0.6","0.4","0.7948054761","0.9157616325","0.1227365859","0.3799115548","","","","","","","","","","","","74","J","1","","","69","main_expt",""
"","bandit","149","599209","0.0-110.0-0.0","46816213","wem/bandit_either_3","A1TP0SGMUSJ34B","either","4","620","","","","","","","0","0","1","0.1248437045","","0.8","0.2","0.6","0.4","","","","","0.8257183208","0.9575411193","0.1248437045","0.4215965018","","","","","","","","75","K","2","","","70","main_expt",""
"","bandit","150","600840","0.0-111.0-0.0","46816213","wem/bandit_either_3","A1TP0SGMUSJ34B","either","4","107","","","","","","","0","0","1","0.1153860856","","0.8","0.2","0.6","0.4","","","","","0.7378076352","0.9604429572","0.1153860856","0.4069040491","","","","","","","","75","K","2","","","71","main_expt",""
"","bandit","151","602578","0.0-112.0-0.0","46816213","wem/bandit_either_3","A1TP0SGMUSJ34B","either","4","221","","","","","","","0","0","1","0.1355011504","","0.8","0.2","0.6","0.4","","","","","0.7402058239","0.9598545795","0.1355011504","0.4396577013","","","","","","","","75","K","2","","","72","main_expt",""
"","bandit","152","604335","0.0-113.0-0.0","46816213","wem/bandit_either_3","A1TP0SGMUSJ34B","either","4","241","","","","","","","0","1","0","","0.6562772762","0.8","0.2","0.6","0.4","0.6976791507","0.944667289","0.05996807606","0.6562772762","","","","","","","","","","","","76","L","3","","","73","main_expt",""
"","bandit","153","606033","0.0-114.0-0.0","46816213","wem/bandit_either_3","A1TP0SGMUSJ34B","either","4","178","","","","","","","0","1","0","","0.6973429816","0.8","0.2","0.6","0.4","0.7918365236","0.9226304804","0.05405538329","0.6973429816","","","","","","","","","","","","76","L","3","","","74","main_expt",""
"","bandit","154","607759","0.0-115.0-0.0","46816213","wem/bandit_either_3","A1TP0SGMUSJ34B","either","4","209","","","","","","","0","1","0","","0.7736122178","0.8","0.2","0.6","0.4","0.7822783488","0.9398646798","0.02989929625","0.7736122178","","","","","","","","","","","","76","L","3","","","75","main_expt",""
"","bandit","155","609611","0.0-116.0-0.0","46816213","wem/bandit_either_3","A1TP0SGMUSJ34B","either","4","333","","","","","","","1","0","0","0.8130420724","","0.8","0.2","0.6","0.4","","","","","0.7290889389","0.9344412274","0.0563551135","0.8130420724","","","","","","","","76","L","3","","","76","main_expt",""
"","bandit","156","611423","0.0-117.0-0.0","46816213","wem/bandit_either_3","A1TP0SGMUSJ34B","either","4","291","","","","","","","0","1","0","","0.8182773084","0.8","0.2","0.6","0.4","0.7903383215","0.9512527415","0.0510075381","0.8182773084","","","","","","","","","","","","76","L","3","","","77","main_expt",""
"","bandit","157","613207","0.0-118.0-0.0","46816213","wem/bandit_either_3","A1TP0SGMUSJ34B","either","4","265","","","","","","","0","1","0","","0.910984946","0.8","0.2","0.6","0.4","0.8093770606","0.945324638","0.07280641377","0.910984946","","","","","","","","","","","","76","L","3","","","78","main_expt",""
"","bandit","158","614933","0.0-119.0-0.0","46816213","wem/bandit_either_3","A1TP0SGMUSJ34B","either","4","214","","","","","","","0","1","0","","0.9303795674","0.8","0.2","0.6","0.4","0.7310189459","0.9313693401","0.06591604593","0.9303795674","","","","","","","","","","","","76","L","3","","","79","main_expt",""
"","bandit","159","616664","0.0-120.0-0.0","46816213","wem/bandit_either_3","A1TP0SGMUSJ34B","either","4","214","","","","","","","1","0","0","0.9581515868","","0.8","0.2","0.6","0.4","","","","","0.7915113188","0.9272018461","0.02790121052","0.9581515868","","","","","","","","76","L","3","","","80","main_expt",""
"","bandit","160","618415","0.0-121.0-0.0","46816213","wem/bandit_either_3","A1TP0SGMUSJ34B","either","4","234","","","","","","","0","1","0","","0.9107397581","0.8","0.2","0.6","0.4","0.8463201033","0.9340165544","0.03997429631","0.9107397581","","","","","","","","","","","","76","L","3","","","81","main_expt",""
"","bandit","161","620037","0.0-122.0-0.0","46816213","wem/bandit_either_3","A1TP0SGMUSJ34B","either","4","106","","","","","","","0","1","0","","0.9531247327","0.8","0.2","0.6","0.4","0.9043915002","0.9778602254","0.03692483048","0.9531247327","","","","","","","","","","","","76","L","3","","","82","main_expt",""
"","bandit","162","621883","0.0-123.0-0.0","46816213","wem/bandit_either_3","A1TP0SGMUSJ34B","either","4","329","","","","","","","0","1","0","","0.91574064","0.8","0.2","0.6","0.4","0.922294541","0.9593015187","0.04167024954","0.91574064","","","","","","","","","","","","76","L","3","","","83","main_expt",""
"","bandit","163","623469","0.0-124.0-0.0","46816213","wem/bandit_either_3","A1TP0SGMUSJ34B","either","4","73","","","","","","","0","1","0","","0.9287460716","0.8","0.2","0.6","0.4","0.9079954767","0.9398758864","0.03449326924","0.9287460716","","","","","","","","","","","","76","L","3","","","84","main_expt",""
"","bandit","164","625229","0.0-125.0-0.0","46816213","wem/bandit_either_3","A1TP0SGMUSJ34B","either","4","249","","","","","","","1","0","0","0.9817994773","","0.8","0.2","0.6","0.4","","","","","0.92293493","0.9256746213","0.07382848834","0.9817994773","","","","","","","","76","L","3","","","85","main_expt",""
"","bandit","165","626922","0.0-126.0-0.0","46816213","wem/bandit_either_3","A1TP0SGMUSJ34B","either","4","180","","","","","","","0","0","1","","0.9651028603","0.8","0.2","0.6","0.4","0.8831043051","0.8910640916","0.08839198485","0.9651028603","","","","","","","","","","","","76","L","3","","","86","main_expt",""
"","bandit","166","629466","0.0-127.0-0.0","46816213","wem/bandit_either_3","A1TP0SGMUSJ34B","either","4","1032","","","","","","","0","1","0","","0.9364705545","0.8","0.2","0.6","0.4","0.876749115","0.8729480744","0.08767612821","0.9364705545","","","","","","","","","","","","76","L","3","","","87","main_expt",""
"","bandit","167","631209","0.0-128.0-0.0","46816213","wem/bandit_either_3","A1TP0SGMUSJ34B","either","4","232","","","","","","","1","0","0","0.9235767634","","0.8","0.2","0.6","0.4","","","","","0.9189432589","0.8780151739","0.1606359608","0.9235767634","","","","","","","","76","L","3","","","88","main_expt",""
"","bandit","168","633053","0.0-129.0-0.0","46816213","wem/bandit_either_3","A1TP0SGMUSJ34B","either","4","330","","","","","","","0","1","0","","0.9375107972","0.8","0.2","0.6","0.4","0.8770582065","0.8856980863","0.2051996915","0.9375107972","","","","","","","","","","","","76","L","3","","","89","main_expt",""
"","bandit","169","634788","0.0-130.0-0.0","46816213","wem/bandit_either_3","A1TP0SGMUSJ34B","either","4","222","","","","","","","1","0","0","0.9201099193","","0.8","0.2","0.6","0.4","","","","","0.9303780437","0.8828292745","0.1757431166","0.9201099193","","","","","","","","76","L","3","","","90","main_expt",""
"","bandit","170","636633","0.0-131.0-0.0","46816213","wem/bandit_either_3","A1TP0SGMUSJ34B","either","4","331","","","","","","","1","0","0","0.9416722714","","0.8","0.2","0.6","0.4","","","","","0.8870296602","0.9016480115","0.3470073597","0.9416722714","","","","","","","","76","L","3","","","91","main_expt",""
"","bandit","171","638208","0.0-132.0-0.0","46816213","wem/bandit_either_3","A1TP0SGMUSJ34B","either","4","64","","","","","","","0","1","0","","0.943817784","0.8","0.2","0.6","0.4","0.8466670433","0.9077272713","0.4969118024","0.943817784","","","","","","","","","","","","76","L","3","","","92","main_expt",""
"","bandit","172","640021","0.0-133.0-0.0","46816213","wem/bandit_either_3","A1TP0SGMUSJ34B","either","4","300","","","","","","","0","1","0","","0.9078517942","0.8","0.2","0.6","0.4","0.850017275","0.875936713","0.5773598144","0.9078517942","","","","","","","","","","","","76","L","3","","","93","main_expt",""
"","bandit","173","641594","0.0-134.0-0.0","46816213","wem/bandit_either_3","A1TP0SGMUSJ34B","either","4","54","","","","","","","0","1","0","","0.8983200186","0.8","0.2","0.6","0.4","0.6893652978","0.8089346838","0.5513550223","0.8983200186","","","","","","","","","","","","76","L","3","","","94","main_expt",""
"","bandit","174","643457","0.0-135.0-0.0","46816213","wem/bandit_either_3","A1TP0SGMUSJ34B","either","4","352","","","","","","","0","0","1","0.8744309931","","0.8","0.2","0.6","0.4","","","","","0.6025630118","0.7472177953","0.5461825447","0.8744309931","","","","","","","","76","L","3","","","95","main_expt",""
"","bandit","175","645065","0.0-136.0-0.0","46816213","wem/bandit_either_3","A1TP0SGMUSJ34B","either","4","67","","","","","","","1","0","0","0.8894212924","","0.8","0.2","0.6","0.4","","","","","0.5565182624","0.631257407","0.5564841108","0.8894212924","","","","","","","","76","L","3","","","96","main_expt",""
"","bandit","176","646894","0.0-137.0-0.0","46816213","wem/bandit_either_3","A1TP0SGMUSJ34B","either","4","311","","","","","","","0","1","0","","0.891162681","0.8","0.2","0.6","0.4","0.4820287155","0.7474787878","0.6513715187","0.891162681","","","","","","","","","","","","76","L","3","","","97","main_expt",""
"","bandit","177","648785","0.0-138.0-0.0","46816213","wem/bandit_either_3","A1TP0SGMUSJ34B","either","4","374","","","","","","","1","0","0","0.8495400438","","0.8","0.2","0.6","0.4","","","","","0.4599621431","0.7753317291","0.7004254565","0.8495400438","","","","","","","","76","L","3","","","98","main_expt",""
"","bandit","178","650977","0.0-139.0-0.0","46816213","wem/bandit_either_3","A1TP0SGMUSJ34B","either","4","673","","","","","","","0","1","0","","0.8671572546","0.8","0.2","0.6","0.4","0.4109144258","0.7088399779","0.6473310623","0.8671572546","","","","","","","","","","","","76","L","3","","","99","main_expt",""
"","bandit","179","652869","0.0-140.0-0.0","46816213","wem/bandit_either_3","A1TP0SGMUSJ34B","either","4","373","","","","","","","0","1","0","","0.8312294914","0.8","0.2","0.6","0.4","0.3466085394","0.7328055719","0.6160818326","0.8312294914","","","","","","","","","","","","76","L","3","","","100","main_expt",""
"","bandit","180","654651","0.0-141.0-0.0","46816213","wem/bandit_either_3","A1TP0SGMUSJ34B","either","4","265","","","","","","","0","1","0","","0.8135240708","0.8","0.2","0.6","0.4","0.3712289037","0.8183789849","0.6963675268","0.8135240708","","","","","","","","","","","","76","L","3","","","101","main_expt",""
"","bandit","181","656716","0.0-142.0-0.0","46816213","wem/bandit_either_3","A1TP0SGMUSJ34B","either","4","545","","","","","","","0","0","1","0.8556055773","","0.8","0.2","0.6","0.4","","","","","0.3626324234","0.7854635714","0.6339579424","0.8556055773","","","","","","","","76","L","3","","","102","main_expt",""
"","bandit","182","658604","0.0-143.0-0.0","46816213","wem/bandit_either_3","A1TP0SGMUSJ34B","either","4","371","","","","","","","0","1","0","","0.7632006143","0.8","0.2","0.6","0.4","0.2748825764","0.8481411385","0.6908430899","0.7632006143","","","","","","","","","","","","76","L","3","","","103","main_expt",""
"","bandit","183","660395","0.0-144.0-0.0","46816213","wem/bandit_either_3","A1TP0SGMUSJ34B","either","4","272","","","","","","","0","1","0","","0.8273213265","0.8","0.2","0.6","0.4","0.2381725209","0.8129446485","0.6866318891","0.8273213265","","","","","","","","","","","","76","L","3","","","104","main_expt",""
"","bandit","184","662240","0.0-145.0-0.0","46816213","wem/bandit_either_3","A1TP0SGMUSJ34B","either","4","329","","","","","","","1","0","0","0.7930501456","","0.8","0.2","0.6","0.4","","","","","0.1939551764","0.7898688037","0.6749941214","0.7930501456","","","","","","","","76","L","3","","","105","main_expt",""
"","bandit","185","664022","0.0-146.0-0.0","46816213","wem/bandit_either_3","A1TP0SGMUSJ34B","either","4","264","","","","","","","1","0","0","0.7186603115","","0.8","0.2","0.6","0.4","","","","","0.1884153881","0.7810744832","0.7300347885","0.7186603115","","","","","","","","76","L","3","","","106","main_expt",""
"","bandit","186","665821","0.0-147.0-0.0","46816213","wem/bandit_either_3","A1TP0SGMUSJ34B","either","4","279","","","","","","","0","1","0","","0.7155595947","0.8","0.2","0.6","0.4","0.1011451677","0.7837395221","0.8133516847","0.7155595947","","","","","","","","","","","","76","L","3","","","107","main_expt",""
"","bandit","187","667615","0.0-148.0-0.0","46816213","wem/bandit_either_3","A1TP0SGMUSJ34B","either","4","277","","","","","","","0","0","1","","0.7654707556","0.8","0.2","0.6","0.4","0.1500242655","0.787971135","0.8009432675","0.7654707556","","","","","","","","","","","","76","L","3","","","108","main_expt",""
"","bandit","188","669389","0.0-149.0-0.0","46816213","wem/bandit_either_3","A1TP0SGMUSJ34B","either","4","255","","","","","","","0","0","1","","0.6288612937","0.8","0.2","0.6","0.4","0.1285750889","0.6866525704","0.7379370491","0.6288612937","","","","","","","","","","","","76","L","3","","","109","main_expt",""
"","bandit","189","671068","0.0-150.0-0.0","46816213","wem/bandit_either_3","A1TP0SGMUSJ34B","either","4","161","","","","","","","0","0","1","","0.6309058105","0.8","0.2","0.6","0.4","0.06279291231","0.5824748378","0.7379992527","0.6309058105","","","","","","","","","","","","76","L","3","","","110","main_expt",""
"","bandit","190","673152","0.0-151.0-0.0","46816213","wem/bandit_either_3","A1TP0SGMUSJ34B","either","4","558","","","","","","","0","1","0","","0.07144278273","0.8","0.2","0.6","0.4","0.07144278273","0.659702805","0.7464430213","0.6218965746","","","","","","","","","","","","72","H","0","img/none_selected.jpg","","111","main_expt",""
"","bandit","191","674828","0.0-152.0-0.0","46816213","wem/bandit_either_3","A1TP0SGMUSJ34B","either","4","160","","","","","","","0","0","1","","0.06013221683","0.8","0.2","0.6","0.4","0.06013221683","0.5111205641","0.7736339118","0.6741482942","","","","","","","","","","","","72","H","0","img/none_selected.jpg","","112","main_expt",""
"","bandit","192","676494","0.0-153.0-0.0","46816213","wem/bandit_either_3","A1TP0SGMUSJ34B","either","4","148","","","","","","","0","0","1","0.1442356489","","0.8","0.2","0.6","0.4","","","","","0.1442356489","0.4852392648","0.8480767854","0.7405202534","","","","","","","","72","H","0","img/none_selected.jpg","","113","main_expt",""
"","bandit","193","678171","0.0-154.0-0.0","46816213","wem/bandit_either_3","A1TP0SGMUSJ34B","either","4","158","","","","","","","1","0","0","0.1733870882","","0.8","0.2","0.6","0.4","","","","","0.1733870882","0.3531287621","0.8016933152","0.743157628","","","","","","","","72","H","0","img/none_selected.jpg","","114","main_expt",""
"","bandit","194","679826","0.0-155.0-0.0","46816213","wem/bandit_either_3","A1TP0SGMUSJ34B","either","4","137","","","","","","","0","0","1","0.2198725907","","0.8","0.2","0.6","0.4","","","","","0.2198725907","0.4090792957","0.8200260584","0.7732583829","","","","","","","","72","H","0","img/none_selected.jpg","","115","main_expt",""
"","bandit","195","681485","0.0-156.0-0.0","46816213","wem/bandit_either_3","A1TP0SGMUSJ34B","either","4","140","","","","","","","0","0","1","0.2116870815","","0.8","0.2","0.6","0.4","","","","","0.2116870815","0.4927933112","0.7761954976","0.6224016225","","","","","","","","72","H","0","img/none_selected.jpg","","116","main_expt",""
"","bandit","196","683164","0.0-157.0-0.0","46816213","wem/bandit_either_3","A1TP0SGMUSJ34B","either","4","156","","","","","","","0","0","1","","0.4255499736","0.8","0.2","0.6","0.4","0.1293815938","0.4255499736","0.7722233998","0.6784399158","","","","","","","","","","","","74","J","1","","","117","main_expt",""
"","bandit","197","684918","0.0-158.0-0.0","46816213","wem/bandit_either_3","A1TP0SGMUSJ34B","either","4","237","","","","","","","0","0","1","0.4073726931","","0.8","0.2","0.6","0.4","","","","","0.1442073762","0.4073726931","0.8049831996","0.7499631032","","","","","","","","74","J","1","","","118","main_expt",""
"","bandit","198","686571","0.0-159.0-0.0","46816213","wem/bandit_either_3","A1TP0SGMUSJ34B","either","4","141","","","","","","","0","1","0","","0.5447318884","0.8","0.2","0.6","0.4","0.2098334931","0.5447318884","0.8469405197","0.6258432538","","","","","","","","","","","","74","J","1","","","119","main_expt",""
"","bandit","199","688288","0.0-160.0-0.0","46816213","wem/bandit_either_3","A1TP0SGMUSJ34B","either","4","202","","","","","","","0","1","0","","0.5336717705","0.8","0.2","0.6","0.4","0.243218138","0.5336717705","0.783925966","0.5602994123","","","","","","","","","","","","74","J","1","","","120","main_expt",""
"","bandit","200","689885","0.0-161.0-0.0","46816213","wem/bandit_either_3","A1TP0SGMUSJ34B","either","4","83","","","","","","","0","1","0","","0.5621279662","0.8","0.2","0.6","0.4","0.1595445902","0.5621279662","0.8031476983","0.5850644561","","","","","","","","","","","","74","J","1","","","121","main_expt",""
"","bandit","201","691546","0.0-162.0-0.0","46816213","wem/bandit_either_3","A1TP0SGMUSJ34B","either","4","143","","","","","","","0","1","0","","0.5664238538","0.8","0.2","0.6","0.4","0.1939767007","0.5664238538","0.776878313","0.6205732407","","","","","","","","","","","","74","J","1","","","122","main_expt",""
"","bandit","202","693363","0.0-163.0-0.0","46816213","wem/bandit_either_3","A1TP0SGMUSJ34B","either","4","299","","","","","","","0","0","1","","0.6501842916","0.8","0.2","0.6","0.4","0.2265728871","0.6501842916","0.7695343448","0.7954206102","","","","","","","","","","","","74","J","1","","","123","main_expt",""
"","bandit","203","696061","0.0-164.0-0.0","46816213","wem/bandit_either_3","A1TP0SGMUSJ34B","either","4","1183","","","","","","","1","0","0","0.5413703051","","0.8","0.2","0.6","0.4","","","","","0.2027469411","0.5413703051","0.6154230174","0.881213352","","","","","","","","74","J","1","","","124","main_expt",""
"","bandit","204","698145","0.0-165.0-0.0","46816213","wem/bandit_either_3","A1TP0SGMUSJ34B","either","4","557","","","","","","","0","1","0","","0.5191338098","0.8","0.2","0.6","0.4","0.1506135949","0.5191338098","0.4710930195","0.8598562332","","","","","","","","","","","","74","J","1","","","125","main_expt",""
"","bandit","205","699954","0.0-166.0-0.0","46816213","wem/bandit_either_3","A1TP0SGMUSJ34B","either","4","294","","","","","","","0","1","0","","0.6232591378","0.8","0.2","0.6","0.4","0.1875851228","0.6232591378","0.5258886302","0.867144728","","","","","","","","","","","","74","J","1","","","126","main_expt",""
"","bandit","206","701638","0.0-167.0-0.0","46816213","wem/bandit_either_3","A1TP0SGMUSJ34B","either","4","171","","","","","","","0","1","0","","0.601333273","0.8","0.2","0.6","0.4","0.2106184636","0.601333273","0.3996486754","0.8677917819","","","","","","","","","","","","74","J","1","","","127","main_expt",""
"","bandit","207","703332","0.0-168.0-0.0","46816213","wem/bandit_either_3","A1TP0SGMUSJ34B","either","4","179","","","","","","","0","1","0","","0.6312294041","0.8","0.2","0.6","0.4","0.1276240755","0.6312294041","0.3557241191","0.8194058857","","","","","","","","","","","","74","J","1","","","128","main_expt",""
"","bandit","208","705102","0.0-169.0-0.0","46816213","wem/bandit_either_3","A1TP0SGMUSJ34B","either","4","256","","","","","","","0","0","1","","0.6655034733","0.8","0.2","0.6","0.4","0.2163335705","0.6655034733","0.2432070908","0.813940224","","","","","","","","","","","","74","J","1","","","129","main_expt",""
"","bandit","209","706808","0.0-170.0-0.0","46816213","wem/bandit_either_3","A1TP0SGMUSJ34B","either","4","184","","","","","","","0","1","0","","0.6882303755","0.8","0.2","0.6","0.4","0.2448863899","0.6882303755","0.1722843937","0.7296764962","","","","","","","","","","","","74","J","1","","","130","main_expt",""
"","bandit","210","708595","0.0-171.0-0.0","46816213","wem/bandit_either_3","A1TP0SGMUSJ34B","either","4","267","","","","","","","0","1","0","","0.6772884453","0.8","0.2","0.6","0.4","0.3447645787","0.6772884453","0.1336027919","0.614258276","","","","","","","","","","","","74","J","1","","","131","main_expt",""
"","bandit","211","710504","0.0-172.0-0.0","46816213","wem/bandit_either_3","A1TP0SGMUSJ34B","either","4","387","","","","","","","0","1","0","","0.6773684555","0.8","0.2","0.6","0.4","0.3622527956","0.6773684555","0.1351629047","0.5349540706","","","","","","","","","","","","74","J","1","","","132","main_expt",""
"","bandit","212","712596","0.0-173.0-0.0","46816213","wem/bandit_either_3","A1TP0SGMUSJ34B","either","4","574","","","","","","","1","0","0","0.7437755928","","0.8","0.2","0.6","0.4","","","","","0.2961885878","0.7437755928","0.2495029","0.5449090787","","","","","","","","74","J","1","","","133","main_expt",""
"","bandit","213","714420","0.0-174.0-0.0","46816213","wem/bandit_either_3","A1TP0SGMUSJ34B","either","4","303","","","","","","","0","0","1","","0.7423545867","0.8","0.2","0.6","0.4","0.2932126781","0.7423545867","0.2118512663","0.5037108559","","","","","","","","","","","","74","J","1","","","134","main_expt",""
"","bandit","214","716191","0.0-175.0-0.0","46816213","wem/bandit_either_3","A1TP0SGMUSJ34B","either","4","251","","","","","","","0","0","1","0.7462440124","","0.8","0.2","0.6","0.4","","","","","0.2836439675","0.7462440124","0.2474577379","0.5131336393","","","","","","","","74","J","1","","","135","main_expt",""
"","bandit","215","717758","0.0-176.0-0.0","46816213","wem/bandit_either_3","A1TP0SGMUSJ34B","either","4","46","","","","","","","0","0","1","","0.6372772774","0.8","0.2","0.6","0.4","0.1985775905","0.6372772774","0.1496333288","0.5847952324","","","","","","","","","","","","74","J","1","","","136","main_expt",""
"","bandit","216","719680","0.0-177.0-0.0","46816213","wem/bandit_either_3","A1TP0SGMUSJ34B","either","4","405","","","","","","","0","0","1","","0.164835495","0.8","0.2","0.6","0.4","0.2655975","0.6587707878","0.164835495","0.5191620222","","","","","","","","","","","","75","K","2","","","137","main_expt",""
"","bandit","217","721389","0.0-178.0-0.0","46816213","wem/bandit_either_3","A1TP0SGMUSJ34B","either","4","188","","","","","","","0","0","1","0.1629561883","","0.8","0.2","0.6","0.4","","","","","0.4066298912","0.6545472314","0.1629561883","0.3830682141","","","","","","","","75","K","2","","","138","main_expt",""
"","bandit","218","723026","0.0-179.0-0.0","46816213","wem/bandit_either_3","A1TP0SGMUSJ34B","either","4","118","","","","","","","0","1","0","","0.3036015776","0.8","0.2","0.6","0.4","0.4537429859","0.5773899651","0.1162724323","0.3036015776","","","","","","","","","","","","76","L","3","","","139","main_expt",""
"","bandit","219","724714","0.0-180.0-0.0","46816213","wem/bandit_either_3","A1TP0SGMUSJ34B","either","4","168","","","","","","","0","0","1","","0.2541790234","0.8","0.2","0.6","0.4","0.410026376","0.5786924042","0.1262651596","0.2541790234","","","","","","","","","","","","76","L","3","","","140","main_expt",""
"","bandit","220","726379","0.0-181.0-0.0","46816213","wem/bandit_either_3","A1TP0SGMUSJ34B","either","4","145","","","","","","","0","0","1","0.1899663758","","0.8","0.2","0.6","0.4","","","","","0.3978668086","0.4589731036","0.1258799353","0.1899663758","","","","","","","","76","L","3","","","141","main_expt",""
"","bandit","221","728055","0.0-182.0-0.0","46816213","wem/bandit_either_3","A1TP0SGMUSJ34B","either","4","155","","","","","","","0","0","1","","0.214868544","0.8","0.2","0.6","0.4","0.4096738096","0.3667804619","0.1220135665","0.214868544","","","","","","","","","","","","76","L","3","","","142","main_expt",""
"","bandit","222","729669","0.0-183.0-0.0","46816213","wem/bandit_either_3","A1TP0SGMUSJ34B","either","4","94","","","","","","","1","0","0","0.5422751762","","0.8","0.2","0.6","0.4","","","","","0.5422751762","0.3563831379","0.1600355681","0.1549416237","","","","","","","","72","H","0","img/none_selected.jpg","","143","main_expt",""
"","bandit","223","731212","0.0-184.0-0.0","46816213","wem/bandit_either_3","A1TP0SGMUSJ34B","either","4","22","","","","","","","1","0","0","0.6045197677","","0.8","0.2","0.6","0.4","","","","","0.6045197677","0.3675361202","0.103653669","0.2142728447","","","","","","","","72","H","0","img/none_selected.jpg","","144","main_expt",""
"","bandit","224","733035","0.0-185.0-0.0","46816213","wem/bandit_either_3","A1TP0SGMUSJ34B","either","4","310","","","","","","","0","0","1","0.6140727406","","0.8","0.2","0.6","0.4","","","","","0.6140727406","0.3266856562","0.1417267119","0.2166472609","","","","","","","","72","H","0","img/none_selected.jpg","","145","main_expt",""
"","bandit","225","736505","0.0-186.0-0.0","46816213","wem/bandit_either_3","A1TP0SGMUSJ34B","either","4","1947","","","","","","","0","0","1","0.5553742365","","0.8","0.2","0.6","0.4","","","","","0.5553742365","0.2815179259","0.1508894681","0.2446047688","","","","","","","","72","H","0","img/none_selected.jpg","","146","main_expt",""
"","bandit","226","738281","0.0-187.0-0.0","46816213","wem/bandit_either_3","A1TP0SGMUSJ34B","either","4","256","","","","","","","0","0","1","0.52787167","","0.8","0.2","0.6","0.4","","","","","0.52787167","0.3560244833","0.1207147728","0.3011136322","","","","","","","","72","H","0","img/none_selected.jpg","","147","main_expt",""
"","bandit","227","740369","0.0-188.0-0.0","46816213","wem/bandit_either_3","A1TP0SGMUSJ34B","either","4","566","","","","","","","0","0","1","","0.3585854149","0.8","0.2","0.6","0.4","0.5053851794","0.3585854149","0.1362234148","0.2519777133","","","","","","","","","","","","74","J","1","","","148","main_expt",""
"","bandit","228","742111","0.0-189.0-0.0","46816213","wem/bandit_either_3","A1TP0SGMUSJ34B","either","4","224","","","","","","","0","0","1","","0.284478414","0.8","0.2","0.6","0.4","0.5431256022","0.284478414","0.1244444975","0.2996109941","","","","","","","","","","","","74","J","1","","","149","main_expt",""
"","bandit","229","743664","0.0-190.0-0.0","46816213","wem/bandit_either_3","A1TP0SGMUSJ34B","either","4","30","","","","","","","0","0","1","0.2963563975","","0.8","0.2","0.6","0.4","","","","","0.422574086","0.2617238314","0.1109305632","0.2963563975","","","","","","","","76","L","3","","","150","main_expt",""
"","bandit","230","745383","0.0-191.0-0.0","46816213","wem/bandit_either_3","A1TP0SGMUSJ34B","either","4","203","","","","","","","0","0","1","","0.4327396174","0.8","0.2","0.6","0.4","0.3907227364","0.2709462114","0.11412436","0.4327396174","","","","","","","","","","","","76","L","3","","","151","main_expt",""
"","bandit","231","747191","0.0-192.0-0.0","46816213","wem/bandit_either_3","A1TP0SGMUSJ34B","either","4","289","","","","","","","0","0","1","","0.1469045903","0.8","0.2","0.6","0.4","0.5580814469","0.2993716907","0.1469045903","0.4303068123","","","","","","","","","","","","75","K","2","","","152","main_expt",""
"","bandit","232","749203","0.0-193.0-0.0","46816213","wem/bandit_either_3","A1TP0SGMUSJ34B","either","4","487","","","","","","","0","0","1","0.1633028487","","0.8","0.2","0.6","0.4","","","","","0.51223936","0.2733354782","0.1633028487","0.455197397","","","","","","","","75","K","2","","","153","main_expt",""
"","bandit","233","750740","0.0-194.0-0.0","46816213","wem/bandit_either_3","A1TP0SGMUSJ34B","either","4","20","","","","","","","0","0","1","0.4811601507","","0.8","0.2","0.6","0.4","","","","","0.4811601507","0.3264007987","0.1340882311","0.6184454144","","","","","","","","72","H","0","img/none_selected.jpg","","154","main_expt",""
"","bandit","234","752524","0.0-195.0-0.0","46816213","wem/bandit_either_3","A1TP0SGMUSJ34B","either","4","269","","","","","","","0","0","1","0.575425417","","0.8","0.2","0.6","0.4","","","","","0.575425417","0.204433578","0.1041462846","0.5833601464","","","","","","","","72","H","0","img/none_selected.jpg","","155","main_expt",""
"","bandit","235","754633","0.0-196.0-0.0","46816213","wem/bandit_either_3","A1TP0SGMUSJ34B","either","4","592","","","","","","","0","0","1","0.07451572188","","0.8","0.2","0.6","0.4","","","","","0.6109018817","0.07451572188","0.08564190031","0.646897734","","","","","","","","74","J","1","","","156","main_expt",""
"","bandit","236","756167","0.0-197.0-0.0","46816213","wem/bandit_either_3","A1TP0SGMUSJ34B","either","4","13","","","","","","","0","0","1","0.1251686374","","0.8","0.2","0.6","0.4","","","","","0.6812883852","0.1251686374","0.06977116317","0.6912470103","","","","","","","","74","J","1","","","157","main_expt",""
"","bandit","237","758052","0.0-198.0-0.0","46816213","wem/bandit_either_3","A1TP0SGMUSJ34B","either","4","369","","","","","","","0","0","1","0.1504927074","","0.8","0.2","0.6","0.4","","","","","0.73777041","0.1292052795","0.1504927074","0.7865398282","","","","","","","","75","K","2","","","158","main_expt",""
"","bandit","238","759730","0.0-199.0-0.0","46816213","wem/bandit_either_3","A1TP0SGMUSJ34B","either","4","161","","","","","","","0","0","1","0.1429264201","","0.8","0.2","0.6","0.4","","","","","0.8388849062","0.1200050714","0.1429264201","0.7220910122","","","","","","","","75","K","2","","","159","main_expt",""
"","bandit","239","761554","0.0-200.0-0.0","46816213","wem/bandit_either_3","A1TP0SGMUSJ34B","either","4","305","","","","","","","1","0","0","0.710563805","","0.8","0.2","0.6","0.4","","","","","0.8006667519","0.1156014834","0.1832893837","0.710563805","","","","","","","","76","L","3","","","160","main_expt",""
"","bandit","240","763234","0.0-201.0-0.0","46816213","wem/bandit_either_3","A1TP0SGMUSJ34B","either","4","138","","","","","","","1","0","0","0.6205281072","","0.8","0.2","0.6","0.4","","","","","0.7406956812","0.1425751263","0.2337310763","0.6205281072","","","","","","","","76","L","3","","","161","main_expt",""
"","bandit","241","764749","0.0-202.0-0.0","46816213","wem/bandit_either_3","A1TP0SGMUSJ34B","either","4","0","","","","","","","1","0","0","0.5246840185","","0.8","0.2","0.6","0.4","","","","","0.775259894","0.2108345254","0.2326198937","0.5246840185","","","","","","","","76","L","3","","","162","main_expt",""
"","bandit","242","766450","0.0-203.0-0.0","46816213","wem/bandit_either_3","A1TP0SGMUSJ34B","either","4","180","","","","","","","0","1","0","","0.569340372","0.8","0.2","0.6","0.4","0.6539471222","0.1664621688","0.1584290897","0.569340372","","","","","","","","","","","","76","L","3","","","163","main_expt",""
"","bandit","243","769062","0.0-204.0-0.0","46816213","wem/bandit_either_3","A1TP0SGMUSJ34B","either","4","1091","","","","","","","0","0","1","","0.5688323765","0.8","0.2","0.6","0.4","0.7914062868","0.1741279052","0.1417900361","0.5688323765","","","","","","","","","","","","76","L","3","","","164","main_expt",""
"","bandit","244","770653","0.0-205.0-0.0","46816213","wem/bandit_either_3","A1TP0SGMUSJ34B","either","4","67","","","","","","","0","1","0","","0.5195648955","0.8","0.2","0.6","0.4","0.8415061218","0.1891196979","0.08849486786","0.5195648955","","","","","","","","","","","","76","L","3","","","165","main_expt",""
"","bandit","245","772343","0.0-206.0-0.0","46816213","wem/bandit_either_3","A1TP0SGMUSJ34B","either","4","161","","","","","","","0","0","1","","0.536500984","0.8","0.2","0.6","0.4","0.9084068317","0.3016440744","0.1010416226","0.536500984","","","","","","","","","","","","76","L","3","","","166","main_expt",""
"","bandit","246","774658","0.0-207.0-0.0","46816213","wem/bandit_either_3","A1TP0SGMUSJ34B","either","4","792","","","","","","","0","0","1","0.4243381616","","0.8","0.2","0.6","0.4","","","","","0.8857506799","0.3427468607","0.1506776516","0.4243381616","","","","","","","","76","L","3","","","167","main_expt",""
"","bandit","247","776408","0.0-208.0-0.0","46816213","wem/bandit_either_3","A1TP0SGMUSJ34B","either","4","230","","","","","","","0","1","0","","0.4877327119","0.8","0.2","0.6","0.4","0.9247721234","0.3759001064","0.2532220847","0.4877327119","","","","","","","","","","","","76","L","3","","","168","main_expt",""
"","bandit","248","778136","0.0-209.0-0.0","46816213","wem/bandit_either_3","A1TP0SGMUSJ34B","either","4","204","","","","","","","1","0","0","0.5096331713","","0.8","0.2","0.6","0.4","","","","","0.8870410368","0.3824832387","0.2223654062","0.5096331713","","","","","","","","76","L","3","","","169","main_expt",""
"","bandit","249","779848","0.0-210.0-0.0","46816213","wem/bandit_either_3","A1TP0SGMUSJ34B","either","4","188","","","","","","","0","0","1","","0.6111595203","0.8","0.2","0.6","0.4","0.8782412079","0.3257043992","0.2161840498","0.6111595203","","","","","","","","","","","","76","L","3","","","170","main_expt",""
"","bandit","250","781895","0.0-211.0-0.0","46816213","wem/bandit_either_3","A1TP0SGMUSJ34B","either","4","520","","","","","","","0","0","1","0.5888321224","","0.8","0.2","0.6","0.4","","","","","0.7978982074","0.2943589708","0.1996440145","0.5888321224","","","","","","","","76","L","3","","","171","main_expt",""
"","bandit","251","783794","0.0-212.0-0.0","46816213","wem/bandit_either_3","A1TP0SGMUSJ34B","either","4","377","","","","","","","0","0","1","","0.6295404033","0.8","0.2","0.6","0.4","0.7896885826","0.4298537702","0.275753823","0.6295404033","","","","","","","","","","","","76","L","3","","","172","main_expt",""
"","bandit","252","785797","0.0-213.0-0.0","46816213","wem/bandit_either_3","A1TP0SGMUSJ34B","either","4","471","","","","","","","1","0","0","0.7771385218","","0.8","0.2","0.6","0.4","","","","","0.7771385218","0.4196262671","0.2850946521","0.5976712981","","","","","","","","72","H","0","img/none_selected.jpg","","173","main_expt",""
"","bandit","253","787550","0.0-214.0-0.0","46816213","wem/bandit_either_3","A1TP0SGMUSJ34B","either","4","233","","","","","","","0","1","0","","0.8412209493","0.8","0.2","0.6","0.4","0.8412209493","0.4056978145","0.2836726952","0.5936331925","","","","","","","","","","","","72","H","0","img/none_selected.jpg","","174","main_expt",""
"","bandit","254","789132","0.0-215.0-0.0","46816213","wem/bandit_either_3","A1TP0SGMUSJ34B","either","4","62","","","","","","","0","1","0","","0.8433491626","0.8","0.2","0.6","0.4","0.8433491626","0.3323311207","0.27413619","0.544145328","","","","","","","","","","","","72","H","0","img/none_selected.jpg","","175","main_expt",""
"","bandit","255","790946","0.0-216.0-0.0","46816213","wem/bandit_either_3","A1TP0SGMUSJ34B","either","4","294","","","","","","","1","0","0","0.778586436","","0.8","0.2","0.6","0.4","","","","","0.778586436","0.3087900888","0.2369491767","0.3584947592","","","","","","","","72","H","0","img/none_selected.jpg","","176","main_expt",""
"","bandit","256","792542","0.0-217.0-0.0","46816213","wem/bandit_either_3","A1TP0SGMUSJ34B","either","4","76","","","","","","","0","0","1","0.7488794252","","0.8","0.2","0.6","0.4","","","","","0.7488794252","0.3898613412","0.3440943848","0.436171931","","","","","","","","72","H","0","img/none_selected.jpg","","177","main_expt",""
"","bandit","257","794102","0.0-218.0-0.0","46816213","wem/bandit_either_3","A1TP0SGMUSJ34B","either","4","37","","","","","","","1","0","0","0.7738581751","","0.8","0.2","0.6","0.4","","","","","0.7738581751","0.5236321052","0.3529135521","0.5193680035","","","","","","","","72","H","0","img/none_selected.jpg","","178","main_expt",""
"","bandit","258","795727","0.0-219.0-0.0","46816213","wem/bandit_either_3","A1TP0SGMUSJ34B","either","4","105","","","","","","","1","0","0","0.7527820287","","0.8","0.2","0.6","0.4","","","","","0.7527820287","0.2955080601","0.3787243664","0.3957798075","","","","","","","","72","H","0","img/none_selected.jpg","","179","main_expt",""
"","bandit","259","797501","0.0-220.0-0.0","46816213","wem/bandit_either_3","A1TP0SGMUSJ34B","either","4","252","","","","","","","0","0","1","0.8022950929","","0.8","0.2","0.6","0.4","","","","","0.8022950929","0.3174151272","0.3092677326","0.4249873197","","","","","","","","72","H","0","img/none_selected.jpg","","180","main_expt",""
"","bandit","260","800370","0.0-221.0-0.0","46816213","wem/bandit_either_3","A1TP0SGMUSJ34B","either","4","1344","","","","","","","1","0","0","0.7505347306","","0.8","0.2","0.6","0.4","","","","","0.7505347306","0.3560995969","0.3701559146","0.4260342439","","","","","","","","72","H","0","img/none_selected.jpg","","181","main_expt",""
"","bandit","261","802351","0.0-222.0-0.0","46816213","wem/bandit_either_3","A1TP0SGMUSJ34B","either","4","459","","","","","","","1","0","0","0.603349844","","0.8","0.2","0.6","0.4","","","","","0.603349844","0.4649908644","0.2672844749","0.4305619521","","","","","","","","72","H","0","img/none_selected.jpg","","182","main_expt",""
"","bandit","262","804187","0.0-223.0-0.0","46816213","wem/bandit_either_3","A1TP0SGMUSJ34B","either","4","310","","","","","","","1","0","0","0.6464544124","","0.8","0.2","0.6","0.4","","","","","0.6464544124","0.4588174784","0.3046315644","0.4638513582","","","","","","","","72","H","0","img/none_selected.jpg","","183","main_expt",""
"","bandit","263","806132","0.0-224.0-0.0","46816213","wem/bandit_either_3","A1TP0SGMUSJ34B","either","4","428","","","","","","","0","1","0","","0.6606024443","0.8","0.2","0.6","0.4","0.6606024443","0.509799977","0.3507685813","0.5084330557","","","","","","","","","","","","72","H","0","img/none_selected.jpg","","184","main_expt",""
"","bandit","264","808128","0.0-225.0-0.0","46816213","wem/bandit_either_3","A1TP0SGMUSJ34B","either","4","479","","","","","","","1","0","0","0.7034535028","","0.8","0.2","0.6","0.4","","","","","0.7034535028","0.4557178443","0.3250269766","0.5853778332","","","","","","","","72","H","0","img/none_selected.jpg","","185","main_expt",""
"","bandit","265","810019","0.0-226.0-0.0","46816213","wem/bandit_either_3","A1TP0SGMUSJ34B","either","4","375","","","","","","","1","0","0","0.7672503758","","0.8","0.2","0.6","0.4","","","","","0.7672503758","0.3250172706","0.3636669497","0.5009207633","","","","","","","","72","H","0","img/none_selected.jpg","","186","main_expt",""
"","bandit","266","811939","0.0-227.0-0.0","46816213","wem/bandit_either_3","A1TP0SGMUSJ34B","either","4","404","","","","","","","1","0","0","0.7505037824","","0.8","0.2","0.6","0.4","","","","","0.7505037824","0.2982192525","0.4095027401","0.4376492532","","","","","","","","72","H","0","img/none_selected.jpg","","187","main_expt",""
"","bandit","267","813669","0.0-228.0-0.0","46816213","wem/bandit_either_3","A1TP0SGMUSJ34B","either","4","213","","","","","","","1","0","0","0.7458261356","","0.8","0.2","0.6","0.4","","","","","0.7458261356","0.2647713636","0.3356624093","0.317868257","","","","","","","","72","H","0","img/none_selected.jpg","","188","main_expt",""
"","bandit","268","815490","0.0-229.0-0.0","46816213","wem/bandit_either_3","A1TP0SGMUSJ34B","either","4","303","","","","","","","0","0","1","","0.747965221","0.8","0.2","0.6","0.4","0.747965221","0.2798663258","0.3717951419","0.3700786551","","","","","","","","","","","","72","H","0","img/none_selected.jpg","","189","main_expt",""
"","bandit","269","817171","0.0-230.0-0.0","46816213","wem/bandit_either_3","A1TP0SGMUSJ34B","either","4","161","","","","","","","0","0","1","0.7459095382","","0.8","0.2","0.6","0.4","","","","","0.7459095382","0.2146362806","0.3266606931","0.3423477616","","","","","","","","72","H","0","img/none_selected.jpg","","190","main_expt",""
"","bandit","270","819017","0.0-231.0-0.0","46816213","wem/bandit_either_3","A1TP0SGMUSJ34B","either","4","331","","","","","","","0","0","1","0.6299055833","","0.8","0.2","0.6","0.4","","","","","0.6299055833","0.3132783624","0.4206899072","0.2488230813","","","","","","","","72","H","0","img/none_selected.jpg","","191","main_expt",""
"","bandit","271","820765","0.0-232.0-0.0","46816213","wem/bandit_either_3","A1TP0SGMUSJ34B","either","4","228","","","","","","","0","0","1","","0.2488083766","0.8","0.2","0.6","0.4","0.688533977","0.2488083766","0.4982817076","0.2193108308","","","","","","","","","","","","74","J","1","","","192","main_expt",""
"","bandit","272","822315","0.0-233.0-0.0","46816213","wem/bandit_either_3","A1TP0SGMUSJ34B","either","4","36","","","","","","","0","1","0","","0.225611763","0.8","0.2","0.6","0.4","0.7176496952","0.225611763","0.4820211017","0.4057276106","","","","","","","","","","","","74","J","1","","","193","main_expt",""
"","bandit","273","824118","0.0-234.0-0.0","46816213","wem/bandit_either_3","A1TP0SGMUSJ34B","either","4","286","","","","","","","0","0","1","","0.2159393038","0.8","0.2","0.6","0.4","0.746212457","0.2159393038","0.5373891537","0.3826056333","","","","","","","","","","","","74","J","1","","","194","main_expt",""
"","bandit","274","825653","0.0-235.0-0.0","46816213","wem/bandit_either_3","A1TP0SGMUSJ34B","either","4","20","","","","","","","0","1","0","","0.3112228701","0.8","0.2","0.6","0.4","0.6800784202","0.3112228701","0.3890275207","0.4922935908","","","","","","","","","","","","74","J","1","","","195","main_expt",""
"","bandit","275","827380","0.0-236.0-0.0","46816213","wem/bandit_either_3","A1TP0SGMUSJ34B","either","4","205","","","","","","","0","0","1","0.3249051539","","0.8","0.2","0.6","0.4","","","","","0.5986295964","0.3249051539","0.4329462643","0.5475793877","","","","","","","","74","J","1","","","196","main_expt",""
"","bandit","276","829071","0.0-237.0-0.0","46816213","wem/bandit_either_3","A1TP0SGMUSJ34B","either","4","169","","","","","","","0","0","1","","0.2985018541","0.8","0.2","0.6","0.4","0.5323622673","0.2985018541","0.416825946","0.6069385875","","","","","","","","","","","","74","J","1","","","197","main_expt",""
"","bandit","277","830626","0.0-238.0-0.0","46816213","wem/bandit_either_3","A1TP0SGMUSJ34B","either","4","29","","","","","","","0","0","1","","0.3109366799","0.8","0.2","0.6","0.4","0.5348043844","0.3109366799","0.4063336836","0.4946816555","","","","","","","","","","","","74","J","1","","","198","main_expt",""
"","bandit","278","832660","0.0-239.0-0.0","46816213","wem/bandit_either_3","A1TP0SGMUSJ34B","either","4","514","","","","","","","0","0","1","0.361264989","","0.8","0.2","0.6","0.4","","","","","0.4534403339","0.3143364341","0.361264989","0.479635203","","","","","","","","75","K","2","","","199","main_expt",""
"","bandit","279","834461","0.0-240.0-0.0","46816213","wem/bandit_either_3","A1TP0SGMUSJ34B","either","4","277","","","","","","","0","0","1","","0.4700223374","0.8","0.2","0.6","0.4","0.4185876589","0.3176919365","0.4700223374","0.4969837249","","","","","","","","","","","","75","K","2","","","200","main_expt",""
"","bandit","280","836377","0.0-241.0-0.0","46816213","wem/bandit_either_3","A1TP0SGMUSJ34B","either","4","394","","","","","","","0","0","1","0.4751543938","","0.8","0.2","0.6","0.4","","","","","0.3812211227","0.2848283651","0.4751543938","0.4548125401","","","","","","","","75","K","2","","","201","main_expt",""
"","bandit","281","838325","0.0-242.0-0.0","46816213","wem/bandit_either_3","A1TP0SGMUSJ34B","either","4","429","","","","","","","0","1","0","","0.5767771981","0.8","0.2","0.6","0.4","0.4414728031","0.2439676923","0.4044794657","0.5767771981","","","","","","","","","","","","76","L","3","","","202","main_expt",""
"","bandit","282","840388","0.0-243.0-0.0","46816213","wem/bandit_either_3","A1TP0SGMUSJ34B","either","4","537","","","","","","","1","0","0","0.6118171827","","0.8","0.2","0.6","0.4","","","","","0.3698030662","0.2582922662","0.3321077444","0.6118171827","","","","","","","","76","L","3","","","203","main_expt",""
"","bandit","283","842158","0.0-244.0-0.0","46816213","wem/bandit_either_3","A1TP0SGMUSJ34B","either","4","243","","","","","","","0","0","1","","0.5373194108","0.8","0.2","0.6","0.4","0.4899087748","0.3799793739","0.3697340749","0.5373194108","","","","","","","","","","","","76","L","3","","","204","main_expt",""
"","bandit","284","844624","0.0-245.0-0.0","46816213","wem/bandit_either_3","A1TP0SGMUSJ34B","either","4","939","","","","","","","0","0","1","","0.5501461309","0.8","0.2","0.6","0.4","0.4310108402","0.4441528059","0.3998168993","0.5501461309","","","","","","","","","","","","76","L","3","","","205","main_expt",""
"","bandit","285","846424","0.0-246.0-0.0","46816213","wem/bandit_either_3","A1TP0SGMUSJ34B","either","4","276","","","","","","","0","1","0","","0.5094027242","0.8","0.2","0.6","0.4","0.3912115078","0.4468516792","0.4929909192","0.5094027242","","","","","","","","","","","","76","L","3","","","206","main_expt",""
"","bandit","286","848215","0.0-247.0-0.0","46816213","wem/bandit_either_3","A1TP0SGMUSJ34B","either","4","264","","","","","","","0","1","0","","0.6449696869","0.8","0.2","0.6","0.4","0.3195818707","0.399366085","0.4960693894","0.6449696869","","","","","","","","","","","","76","L","3","","","207","main_expt",""
"","bandit","287","850116","0.0-248.0-0.0","46816213","wem/bandit_either_3","A1TP0SGMUSJ34B","either","4","374","","","","","","","0","0","1","0.549996868","","0.8","0.2","0.6","0.4","","","","","0.2378171997","0.4206610772","0.3912862986","0.549996868","","","","","","","","76","L","3","","","208","main_expt",""
"","bandit","288","851916","0.0-249.0-0.0","46816213","wem/bandit_either_3","A1TP0SGMUSJ34B","either","4","269","","","","","","","0","1","0","","0.5258833792","0.8","0.2","0.6","0.4","0.2339104391","0.5145499259","0.4218938049","0.5258833792","","","","","","","","","","","","76","L","3","","","209","main_expt",""
"","bandit","289","853740","0.0-250.0-0.0","46816213","wem/bandit_either_3","A1TP0SGMUSJ34B","either","4","303","","","","","","","0","0","1","0.5453980868","","0.8","0.2","0.6","0.4","","","","","0.2506558306","0.3497539355","0.6003160005","0.5453980868","","","","","","","","76","L","3","","","210","main_expt",""
"","bandit","290","855448","0.0-251.0-0.0","46816213","wem/bandit_either_3","A1TP0SGMUSJ34B","either","4","186","","","","","","","0","1","0","","0.5370950561","0.8","0.2","0.6","0.4","0.3466578502","0.3335821388","0.5481562991","0.5370950561","","","","","","","","","","","","76","L","3","","","211","main_expt",""
"","bandit","291","857088","0.0-252.0-0.0","46816213","wem/bandit_either_3","A1TP0SGMUSJ34B","either","4","119","","","","","","","0","1","0","","0.5774996514","0.8","0.2","0.6","0.4","0.4162959965","0.2778022227","0.6210595125","0.5774996514","","","","","","","","","","","","76","L","3","","","212","main_expt",""
"","bandit","292","858845","0.0-253.0-0.0","46816213","wem/bandit_either_3","A1TP0SGMUSJ34B","either","4","224","","","","","","","1","0","0","0.4826056363","","0.8","0.2","0.6","0.4","","","","","0.545788555","0.2949104287","0.7732161257","0.4826056363","","","","","","","","76","L","3","","","213","main_expt",""
"","bandit","293","861113","0.0-254.0-0.0","46816213","wem/bandit_either_3","A1TP0SGMUSJ34B","either","4","740","","","","","","","0","1","0","","0.4913277851","0.8","0.2","0.6","0.4","0.6077749924","0.2443343027","0.7689771773","0.4913277851","","","","","","","","","","","","76","L","3","","","214","main_expt",""
"","bandit","294","862892","0.0-255.0-0.0","46816213","wem/bandit_either_3","A1TP0SGMUSJ34B","either","4","256","","","","","","","0","1","0","","0.5415006571","0.8","0.2","0.6","0.4","0.4883429648","0.2232989174","0.6841712945","0.5415006571","","","","","","","","","","","","76","L","3","","","215","main_expt",""
"","bandit","295","864806","0.0-256.0-0.0","46816213","wem/bandit_either_3","A1TP0SGMUSJ34B","either","4","391","","","","","","","1","0","0","0.5198015267","","0.8","0.2","0.6","0.4","","","","","0.3309854328","0.2918619336","0.7019934296","0.5198015267","","","","","","","","76","L","3","","","216","main_expt",""
"","bandit","296","866727","0.0-257.0-0.0","46816213","wem/bandit_either_3","A1TP0SGMUSJ34B","either","4","408","","","","","","","0","0","1","","0.545097872","0.8","0.2","0.6","0.4","0.3310528633","0.3571058798","0.7537099884","0.545097872","","","","","","","","","","","","76","L","3","","","217","main_expt",""
"","bandit","297","868364","0.0-258.0-0.0","46816213","wem/bandit_either_3","A1TP0SGMUSJ34B","either","4","118","","","","","","","0","1","0","","0.5776025334","0.8","0.2","0.6","0.4","0.4147218791","0.3738303097","0.8428980993","0.5776025334","","","","","","","","","","","","76","L","3","","","218","main_expt",""
"","bandit","298","870411","0.0-259.0-0.0","46816213","wem/bandit_either_3","A1TP0SGMUSJ34B","either","4","529","","","","","","","0","1","0","","0.5616346574","0.8","0.2","0.6","0.4","0.3402104323","0.4832874948","0.8007326434","0.5616346574","","","","","","","","","","","","76","L","3","","","219","main_expt",""
"","bandit","299","872393","0.0-260.0-0.0","46816213","wem/bandit_either_3","A1TP0SGMUSJ34B","either","4","468","","","","","","","0","0","1","","0.6261942659","0.8","0.2","0.6","0.4","0.3448871422","0.475455537","0.8518850648","0.6261942659","","","","","","","","","","","","76","L","3","","","220","main_expt",""
"","bandit","300","874257","0.0-261.0-0.0","46816213","wem/bandit_either_3","A1TP0SGMUSJ34B","either","4","341","","","","","","","0","1","0","","0.6533416475","0.8","0.2","0.6","0.4","0.4438284365","0.3849790123","0.8488451861","0.6533416475","","","","","","","","","","","","76","L","3","","","221","main_expt",""
"","bandit","301","876210","0.0-262.0-0.0","46816213","wem/bandit_either_3","A1TP0SGMUSJ34B","either","4","432","","","","","","","0","1","0","","0.6780524799","0.8","0.2","0.6","0.4","0.3768672835","0.2708628555","0.8202185963","0.6780524799","","","","","","","","","","","","76","L","3","","","222","main_expt",""
"","bandit","302","878166","0.0-263.0-0.0","46816213","wem/bandit_either_3","A1TP0SGMUSJ34B","either","4","436","","","","","","","0","1","0","","0.638470603","0.8","0.2","0.6","0.4","0.4599748191","0.3886191555","0.839196386","0.638470603","","","","","","","","","","","","76","L","3","","","223","main_expt",""
"","bandit","303","880184","0.0-264.0-0.0","46816213","wem/bandit_either_3","A1TP0SGMUSJ34B","either","4","490","","","","","","","0","1","0","","0.560582988","0.8","0.2","0.6","0.4","0.5868274652","0.3352763987","0.8340435664","0.560582988","","","","","","","","","","","","76","L","3","","","224","main_expt",""
"","bandit","304","882166","0.0-265.0-0.0","46816213","wem/bandit_either_3","A1TP0SGMUSJ34B","either","4","449","","","","","","","0","0","1","0.5004803289","","0.8","0.2","0.6","0.4","","","","","0.510759767","0.3948846532","0.8229669419","0.5004803289","","","","","","","","76","L","3","","","225","main_expt",""
"","bandit","305","883979","0.0-266.0-0.0","46816213","wem/bandit_either_3","A1TP0SGMUSJ34B","either","4","289","","","","","","","0","0","1","","0.5109709899","0.8","0.2","0.6","0.4","0.6026028704","0.385279681","0.8326575293","0.5109709899","","","","","","","","","","","","76","L","3","","","226","main_expt",""
"","bandit","306","885949","0.0-267.0-0.0","46816213","wem/bandit_either_3","A1TP0SGMUSJ34B","either","4","449","","","","","","","0","0","1","","0.4271661703","0.8","0.2","0.6","0.4","0.588132951","0.3296530349","0.8904476858","0.4271661703","","","","","","","","","","","","76","L","3","","","227","main_expt",""
"","bandit","307","887922","0.0-268.0-0.0","46816213","wem/bandit_either_3","A1TP0SGMUSJ34B","either","4","444","","","","","","","1","0","0","0.5754590721","","0.8","0.2","0.6","0.4","","","","","0.5754590721","0.4227788413","0.8877596604","0.374673526","","","","","","","","72","H","0","img/none_selected.jpg","","228","main_expt",""
"","bandit","308","889675","0.0-269.0-0.0","46816213","wem/bandit_either_3","A1TP0SGMUSJ34B","either","4","230","","","","","","","0","0","1","","0.6311951266","0.8","0.2","0.6","0.4","0.6311951266","0.4470353227","0.8647697669","0.393435759","","","","","","","","","","","","72","H","0","img/none_selected.jpg","","229","main_expt",""
"","bandit","309","891464","0.0-270.0-0.0","46816213","wem/bandit_either_3","A1TP0SGMUSJ34B","either","4","267","","","","","","","0","0","1","","0.6164228117","0.8","0.2","0.6","0.4","0.6164228117","0.2986819632","0.8704214291","0.3299431778","","","","","","","","","","","","72","H","0","img/none_selected.jpg","","230","main_expt",""
"","bandit","310","893310","0.0-271.0-0.0","46816213","wem/bandit_either_3","A1TP0SGMUSJ34B","either","4","322","","","","","","","0","0","1","0.5943568022","","0.8","0.2","0.6","0.4","","","","","0.5943568022","0.4508866759","0.8598686354","0.3477061432","","","","","","","","72","H","0","img/none_selected.jpg","","231","main_expt",""
"","bandit","311","895126","0.0-272.0-0.0","46816213","wem/bandit_either_3","A1TP0SGMUSJ34B","either","4","293","","","","","","","0","0","1","","0.5125968159","0.8","0.2","0.6","0.4","0.6032910051","0.5125968159","0.7939027672","0.3430234075","","","","","","","","","","","","74","J","1","","","232","main_expt",""
"","bandit","312","896947","0.0-273.0-0.0","46816213","wem/bandit_either_3","A1TP0SGMUSJ34B","either","4","297","","","","","","","0","0","1","0.6020802482","","0.8","0.2","0.6","0.4","","","","","0.7225660168","0.6020802482","0.7930400566","0.2812772396","","","","","","","","74","J","1","","","233","main_expt",""
"","bandit","313","898692","0.0-274.0-0.0","46816213","wem/bandit_either_3","A1TP0SGMUSJ34B","either","4","215","","","","","","","0","0","1","","0.5927943616","0.8","0.2","0.6","0.4","0.6718439238","0.5927943616","0.7549101179","0.2049555934","","","","","","","","","","","","74","J","1","","","234","main_expt",""
"","bandit","314","900446","0.0-275.0-0.0","46816213","wem/bandit_either_3","A1TP0SGMUSJ34B","either","4","232","","","","","","","0","1","0","","0.5814417759","0.8","0.2","0.6","0.4","0.6025803433","0.5814417759","0.7654291135","0.144612338","","","","","","","","","","","","74","J","1","","","235","main_expt",""
"","bandit","315","902154","0.0-276.0-0.0","46816213","wem/bandit_either_3","A1TP0SGMUSJ34B","either","4","180","","","","","","","0","0","1","","0.6530024001","0.8","0.2","0.6","0.4","0.6170166349","0.6530024001","0.6965918162","0.1509581517","","","","","","","","","","","","74","J","1","","","236","main_expt",""
"","bandit","316","904116","0.0-277.0-0.0","46816213","wem/bandit_either_3","A1TP0SGMUSJ34B","either","4","438","","","","","","","0","1","0","","0.8151927982","0.8","0.2","0.6","0.4","0.6426153702","0.5861490443","0.8151927982","0.2267465707","","","","","","","","","","","","75","K","2","","","237","main_expt",""
"","bandit","317","905860","0.0-278.0-0.0","46816213","wem/bandit_either_3","A1TP0SGMUSJ34B","either","4","217","","","","","","","1","0","0","0.7696745118","","0.8","0.2","0.6","0.4","","","","","0.5421138037","0.6086881899","0.7696745118","0.1651127221","","","","","","","","75","K","2","","","238","main_expt",""
"","bandit","318","907794","0.0-279.0-0.0","46816213","wem/bandit_either_3","A1TP0SGMUSJ34B","either","4","409","","","","","","","1","0","0","0.7368178416","","0.8","0.2","0.6","0.4","","","","","0.5534077834","0.6323362843","0.7368178416","0.1587945469","","","","","","","","75","K","2","","","239","main_expt",""
"","bandit","319","909420","0.0-280.0-0.0","46816213","wem/bandit_either_3","A1TP0SGMUSJ34B","either","4","104","","","","","","","0","0","1","","0.6443792527","0.8","0.2","0.6","0.4","0.7267030345","0.5620837446","0.6443792527","0.08644000702","","","","","","","","","","","","75","K","2","","","240","main_expt",""
"","bandit","320","911105","0.0-281.0-0.0","46816213","wem/bandit_either_3","A1TP0SGMUSJ34B","either","4","163","","","","","","","1","0","0","0.6467572307","","0.8","0.2","0.6","0.4","","","","","0.7211407476","0.5571148452","0.6467572307","0.06677296221","","","","","","","","75","K","2","","","241","main_expt",""
"","bandit","321","912851","0.0-282.0-0.0","46816213","wem/bandit_either_3","A1TP0SGMUSJ34B","either","4","219","","","","","","","1","0","0","0.6131120494","","0.8","0.2","0.6","0.4","","","","","0.6764936995","0.4016720442","0.6131120494","0.08066643837","","","","","","","","75","K","2","","","242","main_expt",""
"","bandit","322","914641","0.0-283.0-0.0","46816213","wem/bandit_either_3","A1TP0SGMUSJ34B","either","4","265","","","","","","","1","0","0","0.7409975133","","0.8","0.2","0.6","0.4","","","","","0.6677952341","0.5389796081","0.7409975133","0.08086195374","","","","","","","","75","K","2","","","243","main_expt",""
"","bandit","323","916438","0.0-284.0-0.0","46816213","wem/bandit_either_3","A1TP0SGMUSJ34B","either","4","271","","","","","","","0","0","1","","0.6582216966","0.8","0.2","0.6","0.4","0.7284567303","0.5123058505","0.6582216966","0.1496534925","","","","","","","","","","","","75","K","2","","","244","main_expt",""
"","bandit","324","918344","0.0-285.0-0.0","46816213","wem/bandit_either_3","A1TP0SGMUSJ34B","either","4","381","","","","","","","1","0","0","0.7274682542","","0.8","0.2","0.6","0.4","","","","","0.7435316078","0.434346282","0.7274682542","0.1788819116","","","","","","","","75","K","2","","","245","main_expt",""
"","bandit","325","920218","0.0-286.0-0.0","46816213","wem/bandit_either_3","A1TP0SGMUSJ34B","either","4","348","","","","","","","0","1","0","","0.7675378805","0.8","0.2","0.6","0.4","0.7420547497","0.4080319695","0.7675378805","0.2147576294","","","","","","","","","","","","75","K","2","","","246","main_expt",""
