"consent","trial_type","trial_index","time_elapsed","internal_node_id","subjID","study","MID","cond","drift","rt","responses","key_press","expt_phase","like","value","connected","gems","bombs","no_reward","GemPrChosen","BombPrChosen","GainOverPainPr_0","GainOverPainPr_1","GainOverPainPr_2","GainOverPainPr_3","LosePr_0","LosePr_1","LosePr_2","LosePr_3","WinPr_0","WinPr_1","WinPr_2","WinPr_3","Q0","Q1","Q2","gender","age","ethnicity","target","respCharCode","respKey","respChoiceNum","respChoice","practice","trial_counter","trial_label","button_pressed"
"INL_behavioral_consent_30min_online.html","consent","0","9337","0.0-0.0","49343852","wem/bandit_either_3","A1VSHM4NLZ705D","either","1","","","","","","","","","","","","","","","","","","","","","","","","","","","","","","","","","","","","","","",""
"","survey-text","1","14804","0.0-1.0","49343852","wem/bandit_either_3","A1VSHM4NLZ705D","either","1","4328","{""Q0"":""A1VSHM4NLZ705D""}","","","","","","","","","","","","","","","","","","","","","","","","","","","","","","","","","","","","",""
"","text","2","35013","0.0-2.0","49343852","wem/bandit_either_3","A1VSHM4NLZ705D","either","1","19184","","32","","","","","","","","","","","","","","","","","","","","","","","","","","","","","","","","","","","",""
"","text","3","57330","0.0-3.0","49343852","wem/bandit_either_3","A1VSHM4NLZ705D","either","1","22311","","32","","","","","","","","","","","","","","","","","","","","","","","","","","","","","","","","","","","",""
"","text","4","84532","0.0-4.0","49343852","wem/bandit_either_3","A1VSHM4NLZ705D","either","1","27197","","32","","","","","","","","","","","","","","","","","","","","","","","","","","","","","","","","","","","",""
"","text","5","110773","0.0-5.0","49343852","wem/bandit_either_3","A1VSHM4NLZ705D","either","1","26235","","32","","","","","","","","","","","","","","","","","","","","","","","","","","","","","","","","","","","",""
"","text","6","134789","0.0-6.0","49343852","wem/bandit_either_3","A1VSHM4NLZ705D","either","1","24012","","32","","","","","","","","","","","","","","","","","","","","","","","","","","","","","","","","","","","",""
"","text","7","139382","0.0-7.0","49343852","wem/bandit_either_3","A1VSHM4NLZ705D","either","1","4589","","32","","","","","","","","","","","","","","","","","","","","","","","","","","","","","","","","","","","",""
"","text","8","143446","0.0-8.0","49343852","wem/bandit_either_3","A1VSHM4NLZ705D","either","1","4063","","32","","","","","","","","","","","","","","","","","","","","","","","","","","","","","","","","","","","",""
"","identification","9","165296","0.0-9.0-0.0","49343852","wem/bandit_either_3","A1VSHM4NLZ705D","either","1","21822","","","","6","6","6","","","","","","","","","","","","","","","","","","","","","","","","the village of Zur","","","","","","","",""
"","identification","10","173458","0.0-9.0-1.0","49343852","wem/bandit_either_3","A1VSHM4NLZ705D","either","1","7068","","","","1","1","0","","","","","","","","","","","","","","","","","","","","","","","","the village of Nyx","","","","","","","",""
"","text","11","191379","0.0-10.0","49343852","wem/bandit_either_3","A1VSHM4NLZ705D","either","1","16790","","32","","","","","","","","","","","","","","","","","","","","","","","","","","","","","","","","","","","",""
"","text","12","207281","0.0-11.0","49343852","wem/bandit_either_3","A1VSHM4NLZ705D","either","1","15899","","32","","","","","","","","","","","","","","","","","","","","","","","","","","","","","","","","","","","",""
"","text","13","215016","0.0-12.0","49343852","wem/bandit_either_3","A1VSHM4NLZ705D","either","1","7733","","32","","","","","","","","","","","","","","","","","","","","","","","","","","","","","","","","","","","",""
"","text","14","229289","0.0-13.0","49343852","wem/bandit_either_3","A1VSHM4NLZ705D","either","1","14270","","32","","","","","","","","","","","","","","","","","","","","","","","","","","","","","","","","","","","",""
"","bandit","15","235731","0.0-14.0-0.0","49343852","wem/bandit_either_3","A1VSHM4NLZ705D","either","1","4844","","","","","","","0","0","1","0","0","","","","","0","","","","0","","","","","","","","","","","74","J","0","img/none_selected_demo.jpg","true","0","",""
"","bandit","16","238710","0.0-15.0-0.0","49343852","wem/bandit_either_3","A1VSHM4NLZ705D","either","1","1431","","","","","","","0","0","1","0","0","","","","","0","","","","0","","","","","","","","","","","75","K","0","img/none_selected_demo.jpg","true","0","",""
"","text","17","246064","0.0-16.0","49343852","wem/bandit_either_3","A1VSHM4NLZ705D","either","1","7350","","32","","","","","","","","","","","","","","","","","","","","","","","","","","","","","","","","","","","",""
"","text","18","259818","0.0-17.0","49343852","wem/bandit_either_3","A1VSHM4NLZ705D","either","1","13751","","32","","","","","","","","","","","","","","","","","","","","","","","","","","","","","","","","","","","",""
"","text","19","269224","0.0-18.0","49343852","wem/bandit_either_3","A1VSHM4NLZ705D","either","1","9404","","32","","","","","","","","","","","","","","","","","","","","","","","","","","","","","","","","","","","",""
"","text","20","273817","0.0-19.0","49343852","wem/bandit_either_3","A1VSHM4NLZ705D","either","1","4591","","32","","","","","","","","","","","","","","","","","","","","","","","","","","","","","","","","","","","",""
"","bandit","21","276188","0.0-20.0-0.0","49343852","wem/bandit_either_3","A1VSHM4NLZ705D","either","1","818","","","","","","","0","1","0","","0.8","0.5","0.5","","","0.8","0.2","","","","","","","","","","","","","","74","J","0","img/none_selected_demo.jpg","true","0","80_20_practice",""
"","bandit","22","279646","0.0-20.0-1.0","49343852","wem/bandit_either_3","A1VSHM4NLZ705D","either","1","1913","","","","","","","1","0","0","0.8","","0.5","0.5","","","","","","","0.8","0.2","","","","","","","","","","74","J","0","img/none_selected_demo.jpg","true","0","80_20_practice",""
"","bandit","23","281685","0.0-20.0-2.0","49343852","wem/bandit_either_3","A1VSHM4NLZ705D","either","1","486","","","","","","","0","0","1","0.8","","0.5","0.5","","","","","","","0.8","0.2","","","","","","","","","","74","J","0","img/none_selected_demo.jpg","true","0","80_20_practice",""
"","bandit","24","283722","0.0-20.0-3.0","49343852","wem/bandit_either_3","A1VSHM4NLZ705D","either","1","515","","","","","","","0","0","1","","0.8","0.5","0.5","","","0.8","0.2","","","","","","","","","","","","","","74","J","0","img/none_selected_demo.jpg","true","0","80_20_practice",""
"","bandit","25","285708","0.0-20.0-4.0","49343852","wem/bandit_either_3","A1VSHM4NLZ705D","either","1","466","","","","","","","0","0","1","0.2","","0.5","0.5","","","","","","","0.8","0.2","","","","","","","","","","75","K","1","","true","0","80_20_practice",""
"","bandit","26","287681","0.0-20.0-5.0","49343852","wem/bandit_either_3","A1VSHM4NLZ705D","either","1","406","","","","","","","0","1","0","","0.2","0.5","0.5","","","0.8","0.2","","","","","","","","","","","","","","75","K","1","","true","0","80_20_practice",""
"","bandit","27","289582","0.0-20.0-6.0","49343852","wem/bandit_either_3","A1VSHM4NLZ705D","either","1","387","","","","","","","0","0","1","0.2","","0.5","0.5","","","","","","","0.8","0.2","","","","","","","","","","75","K","1","","true","0","80_20_practice",""
"","bandit","28","291756","0.0-20.0-7.0","49343852","wem/bandit_either_3","A1VSHM4NLZ705D","either","1","534","","","","","","","1","0","0","0.8","","0.5","0.5","","","","","","","0.8","0.2","","","","","","","","","","74","J","0","img/none_selected_demo.jpg","true","0","80_20_practice",""
"","bandit","29","293695","0.0-20.0-8.0","49343852","wem/bandit_either_3","A1VSHM4NLZ705D","either","1","403","","","","","","","0","1","0","","0.8","0.5","0.5","","","0.8","0.2","","","","","","","","","","","","","","74","J","0","img/none_selected_demo.jpg","true","0","80_20_practice",""
"","bandit","30","295652","0.0-20.0-9.0","49343852","wem/bandit_either_3","A1VSHM4NLZ705D","either","1","388","","","","","","","0","1","0","","0.8","0.5","0.5","","","0.8","0.2","","","","","","","","","","","","","","74","J","0","img/none_selected_demo.jpg","true","0","80_20_practice",""
"","bandit","31","297800","0.0-20.0-10.0","49343852","wem/bandit_either_3","A1VSHM4NLZ705D","either","1","625","","","","","","","0","1","0","","0.8","0.5","0.5","","","0.8","0.2","","","","","","","","","","","","","","74","J","0","img/none_selected_demo.jpg","true","0","80_20_practice",""
"","bandit","32","299746","0.0-20.0-11.0","49343852","wem/bandit_either_3","A1VSHM4NLZ705D","either","1","422","","","","","","","0","1","0","","0.8","0.5","0.5","","","0.8","0.2","","","","","","","","","","","","","","74","J","0","img/none_selected_demo.jpg","true","0","80_20_practice",""
"","bandit","33","301900","0.0-20.0-12.0","49343852","wem/bandit_either_3","A1VSHM4NLZ705D","either","1","587","","","","","","","1","0","0","0.8","","0.5","0.5","","","","","","","0.8","0.2","","","","","","","","","","74","J","0","img/none_selected_demo.jpg","true","0","80_20_practice",""
"","bandit","34","305133","0.0-20.0-13.0","49343852","wem/bandit_either_3","A1VSHM4NLZ705D","either","1","1704","","","","","","","1","0","0","0.8","","0.5","0.5","","","","","","","0.8","0.2","","","","","","","","","","74","J","0","img/none_selected_demo.jpg","true","0","80_20_practice",""
"","bandit","35","307176","0.0-20.0-14.0","49343852","wem/bandit_either_3","A1VSHM4NLZ705D","either","1","518","","","","","","","0","0","1","0.8","","0.5","0.5","","","","","","","0.8","0.2","","","","","","","","","","74","J","0","img/none_selected_demo.jpg","true","0","80_20_practice",""
"","bandit","36","309121","0.0-20.0-15.0","49343852","wem/bandit_either_3","A1VSHM4NLZ705D","either","1","381","","","","","","","1","0","0","0.8","","0.5","0.5","","","","","","","0.8","0.2","","","","","","","","","","74","J","0","img/none_selected_demo.jpg","true","0","80_20_practice",""
"","bandit","37","310952","0.0-20.0-16.0","49343852","wem/bandit_either_3","A1VSHM4NLZ705D","either","1","309","","","","","","","0","1","0","","0.8","0.5","0.5","","","0.8","0.2","","","","","","","","","","","","","","74","J","0","img/none_selected_demo.jpg","true","0","80_20_practice",""
"","bandit","38","313068","0.0-20.0-17.0","49343852","wem/bandit_either_3","A1VSHM4NLZ705D","either","1","579","","","","","","","0","1","0","","0.8","0.5","0.5","","","0.8","0.2","","","","","","","","","","","","","","74","J","0","img/none_selected_demo.jpg","true","0","80_20_practice",""
"","bandit","39","316160","0.0-20.0-18.0","49343852","wem/bandit_either_3","A1VSHM4NLZ705D","either","1","1567","","","","","","","1","0","0","0.8","","0.5","0.5","","","","","","","0.8","0.2","","","","","","","","","","74","J","0","img/none_selected_demo.jpg","true","0","80_20_practice",""
"","bandit","40","318283","0.0-20.0-19.0","49343852","wem/bandit_either_3","A1VSHM4NLZ705D","either","1","603","","","","","","","0","1","0","","0.8","0.5","0.5","","","0.8","0.2","","","","","","","","","","","","","","74","J","0","img/none_selected_demo.jpg","true","0","80_20_practice",""
"","text","41","325155","0.0-21.0","49343852","wem/bandit_either_3","A1VSHM4NLZ705D","either","1","6869","","32","","","","","","","","","","","","","","","","","","","","","","","","","","","","","","","","","","","",""
"","bandit","42","328073","0.0-22.0-0.0","49343852","wem/bandit_either_3","A1VSHM4NLZ705D","either","1","1392","","","","","","","1","0","0","1","0","","","","","0","1","","","1","0","","","","","","","","","","74","J","0","img/none_selected_demo.jpg","true","0","",""
"","text","43","336793","0.0-23.0","49343852","wem/bandit_either_3","A1VSHM4NLZ705D","either","1","8719","","32","","","","","","","","","","","","","","","","","","","","","","","","","","","","","","","","","","","",""
"","text","44","341570","0.0-24.0","49343852","wem/bandit_either_3","A1VSHM4NLZ705D","either","1","4775","","32","","","","","","","","","","","","","","","","","","","","","","","","","","","","","","","","","","","",""
"","text","45","344802","0.0-25.0","49343852","wem/bandit_either_3","A1VSHM4NLZ705D","either","1","3229","","32","","","","","","","","","","","","","","","","","","","","","","","","","","","","","","","","","","","",""
"","text","46","350016","0.0-26.0","49343852","wem/bandit_either_3","A1VSHM4NLZ705D","either","1","5211","","32","","","","","","","","","","","","","","","","","","","","","","","","","","","","","","","","","","","",""
"","text","47","360588","0.0-27.0","49343852","wem/bandit_either_3","A1VSHM4NLZ705D","either","1","10566","","32","","","","","","","","","","","","","","","","","","","","","","","","","","","","","","","","","","","",""
"","text","48","363311","0.0-28.0","49343852","wem/bandit_either_3","A1VSHM4NLZ705D","either","1","2719","","32","","","","","","","","","","","","","","","","","","","","","","","","","","","","","","","","","","","",""
"","text","49","366712","0.0-29.0","49343852","wem/bandit_either_3","A1VSHM4NLZ705D","either","1","3398","","32","","","","","","","","","","","","","","","","","","","","","","","","","","","","","","","","","","","",""
"","text","50","371952","0.0-30.0","49343852","wem/bandit_either_3","A1VSHM4NLZ705D","either","1","5236","","32","","","","","","","","","","","","","","","","","","","","","","","","","","","","","","","","","","","",""
"","text","51","375341","0.0-31.0","49343852","wem/bandit_either_3","A1VSHM4NLZ705D","either","1","3387","","32","","","","","","","","","","","","","","","","","","","","","","","","","","","","","","","","","","","",""
"","text","52","376304","0.0-32.0","49343852","wem/bandit_either_3","A1VSHM4NLZ705D","either","1","960","","32","","","","","","","","","","","","","","","","","","","","","","","","","","","","","","","","","","","",""
"","text","53","379568","0.0-33.0","49343852","wem/bandit_either_3","A1VSHM4NLZ705D","either","1","3261","","32","","","","","","","","","","","","","","","","","","","","","","","","","","","","","","","","","","","",""
"","bandit","54","382296","0.0-34.0-0.0","49343852","wem/bandit_either_3","A1VSHM4NLZ705D","either","1","1170","","","","","","","1","0","0","0.8","","0.5","0.5","0.5","0.5","","","","","0.8","0.2","0.6","0.2","","","","","","","","72","H","0","img/none_selected.jpg","true","0","full_practice",""
"","bandit","55","384243","0.0-34.0-1.0","49343852","wem/bandit_either_3","A1VSHM4NLZ705D","either","1","419","","","","","","","0","0","1","0.2","","0.5","0.5","0.5","0.5","","","","","0.8","0.2","0.6","0.2","","","","","","","","74","J","1","","true","0","full_practice",""
"","bandit","56","386083","0.0-34.0-2.0","49343852","wem/bandit_either_3","A1VSHM4NLZ705D","either","1","326","","","","","","","0","1","0","","0.6","0.5","0.5","0.5","0.5","0.8","0.2","0.6","0.2","","","","","","","","","","","","75","K","2","","true","0","full_practice",""
"","bandit","57","388068","0.0-34.0-3.0","49343852","wem/bandit_either_3","A1VSHM4NLZ705D","either","1","462","","","","","","","0","0","1","0.2","","0.5","0.5","0.5","0.5","","","","","0.8","0.2","0.6","0.2","","","","","","","","76","L","3","","true","0","full_practice",""
"","bandit","58","390327","0.0-34.0-4.0","49343852","wem/bandit_either_3","A1VSHM4NLZ705D","either","1","735","","","","","","","1","0","0","0.8","","0.5","0.5","0.5","0.5","","","","","0.8","0.2","0.6","0.2","","","","","","","","72","H","0","img/none_selected.jpg","true","0","full_practice",""
"","bandit","59","392200","0.0-34.0-5.0","49343852","wem/bandit_either_3","A1VSHM4NLZ705D","either","1","316","","","","","","","0","0","1","","0.8","0.5","0.5","0.5","0.5","0.8","0.2","0.6","0.2","","","","","","","","","","","","72","H","0","img/none_selected.jpg","true","0","full_practice",""
"","bandit","60","394207","0.0-34.0-6.0","49343852","wem/bandit_either_3","A1VSHM4NLZ705D","either","1","483","","","","","","","0","0","1","0.2","","0.5","0.5","0.5","0.5","","","","","0.8","0.2","0.6","0.2","","","","","","","","74","J","1","","true","0","full_practice",""
"","bandit","61","396157","0.0-34.0-7.0","49343852","wem/bandit_either_3","A1VSHM4NLZ705D","either","1","350","","","","","","","1","0","0","0.8","","0.5","0.5","0.5","0.5","","","","","0.8","0.2","0.6","0.2","","","","","","","","72","H","0","img/none_selected.jpg","true","0","full_practice",""
"","bandit","62","398105","0.0-34.0-8.0","49343852","wem/bandit_either_3","A1VSHM4NLZ705D","either","1","397","","","","","","","1","0","0","0.8","","0.5","0.5","0.5","0.5","","","","","0.8","0.2","0.6","0.2","","","","","","","","72","H","0","img/none_selected.jpg","true","0","full_practice",""
"","bandit","63","400175","0.0-34.0-9.0","49343852","wem/bandit_either_3","A1VSHM4NLZ705D","either","1","449","","","","","","","1","0","0","0.8","","0.5","0.5","0.5","0.5","","","","","0.8","0.2","0.6","0.2","","","","","","","","72","H","0","img/none_selected.jpg","true","0","full_practice",""
"","bandit","64","402399","0.0-34.0-10.0","49343852","wem/bandit_either_3","A1VSHM4NLZ705D","either","1","685","","","","","","","0","1","0","","0.8","0.5","0.5","0.5","0.5","0.8","0.2","0.6","0.2","","","","","","","","","","","","72","H","0","img/none_selected.jpg","true","0","full_practice",""
"","bandit","65","404511","0.0-34.0-11.0","49343852","wem/bandit_either_3","A1VSHM4NLZ705D","either","1","593","","","","","","","0","1","0","","0.8","0.5","0.5","0.5","0.5","0.8","0.2","0.6","0.2","","","","","","","","","","","","72","H","0","img/none_selected.jpg","true","0","full_practice",""
"","bandit","66","406678","0.0-34.0-12.0","49343852","wem/bandit_either_3","A1VSHM4NLZ705D","either","1","635","","","","","","","0","0","1","0.8","","0.5","0.5","0.5","0.5","","","","","0.8","0.2","0.6","0.2","","","","","","","","72","H","0","img/none_selected.jpg","true","0","full_practice",""
"","bandit","67","408226","0.0-34.0-13.0","49343852","wem/bandit_either_3","A1VSHM4NLZ705D","either","1","37","","","","","","","0","0","1","","0.2","0.5","0.5","0.5","0.5","0.8","0.2","0.6","0.2","","","","","","","","","","","","74","J","1","","true","0","full_practice",""
"","bandit","68","410199","0.0-34.0-14.0","49343852","wem/bandit_either_3","A1VSHM4NLZ705D","either","1","434","","","","","","","0","1","0","","0.6","0.5","0.5","0.5","0.5","0.8","0.2","0.6","0.2","","","","","","","","","","","","75","K","2","","true","0","full_practice",""
"","bandit","69","412033","0.0-34.0-15.0","49343852","wem/bandit_either_3","A1VSHM4NLZ705D","either","1","264","","","","","","","1","0","0","0.6","","0.5","0.5","0.5","0.5","","","","","0.8","0.2","0.6","0.2","","","","","","","","75","K","2","","true","0","full_practice",""
"","bandit","70","413917","0.0-34.0-16.0","49343852","wem/bandit_either_3","A1VSHM4NLZ705D","either","1","359","","","","","","","0","0","1","0.6","","0.5","0.5","0.5","0.5","","","","","0.8","0.2","0.6","0.2","","","","","","","","75","K","2","","true","0","full_practice",""
"","bandit","71","415931","0.0-34.0-17.0","49343852","wem/bandit_either_3","A1VSHM4NLZ705D","either","1","454","","","","","","","0","0","1","0.8","","0.5","0.5","0.5","0.5","","","","","0.8","0.2","0.6","0.2","","","","","","","","72","H","0","img/none_selected.jpg","true","0","full_practice",""
"","bandit","72","418026","0.0-34.0-18.0","49343852","wem/bandit_either_3","A1VSHM4NLZ705D","either","1","488","","","","","","","0","0","1","","0.6","0.5","0.5","0.5","0.5","0.8","0.2","0.6","0.2","","","","","","","","","","","","75","K","2","","true","0","full_practice",""
"","bandit","73","420477","0.0-34.0-19.0","49343852","wem/bandit_either_3","A1VSHM4NLZ705D","either","1","936","","","","","","","0","0","1","","0.2","0.5","0.5","0.5","0.5","0.8","0.2","0.6","0.2","","","","","","","","","","","","76","L","3","","true","0","full_practice",""
"","text","74","424792","0.0-35.0","49343852","wem/bandit_either_3","A1VSHM4NLZ705D","either","1","4304","","32","","","","","","","","","","","","","","","","","","","","","","","","","","","","","","","","","","","",""
"","text","75","457873","0.0-36.0","49343852","wem/bandit_either_3","A1VSHM4NLZ705D","either","1","32073","","32","","","","","","","","","","","","","","","","","","","","","","","","","","","","","","","","","","","",""
"","text","76","463704","0.0-37.0","49343852","wem/bandit_either_3","A1VSHM4NLZ705D","either","1","5827","","32","","","","","","","","","","","","","","","","","","","","","","","","","","","","","","","","","","","",""
"","text","77","467107","0.0-38.0","49343852","wem/bandit_either_3","A1VSHM4NLZ705D","either","1","3398","","32","","","","","","","","","","","","","","","","","","","","","","","","","","","","","","","","","","","",""
"","text","78","472520","0.0-39.0","49343852","wem/bandit_either_3","A1VSHM4NLZ705D","either","1","5411","","32","","","","","","","","","","","","","","","","","","","","","","","","","","","","","","","","","","","",""
"","text","79","476960","0.0-40.0","49343852","wem/bandit_either_3","A1VSHM4NLZ705D","either","1","4438","","32","","","","","","","","","","","","","","","","","","","","","","","","","","","","","","","","","","","",""
"","bandit","80","480188","0.0-41.0-0.0","49343852","wem/bandit_either_3","A1VSHM4NLZ705D","either","1","1690","","","","","","","1","0","0","0.8101107889","","0.6","0.8","0.4","0.2","","","","","0.8101107889","0.7674833066","0.4995060561","0.5202783506","","","","","","","","72","H","0","img/none_selected.jpg","","1","main_expt",""
"","bandit","81","482196","0.0-42.0-0.0","49343852","wem/bandit_either_3","A1VSHM4NLZ705D","either","1","422","","","","","","","0","1","0","","0.8827976921","0.6","0.8","0.4","0.2","0.8827976921","0.7786696111","0.4452888422","0.4559554218","","","","","","","","","","","","72","H","0","img/none_selected.jpg","","2","main_expt",""
"","bandit","82","484193","0.0-43.0-0.0","49343852","wem/bandit_either_3","A1VSHM4NLZ705D","either","1","379","","","","","","","1","0","0","0.918633781","","0.6","0.8","0.4","0.2","","","","","0.918633781","0.7883912796","0.4956599627","0.3791335739","","","","","","","","72","H","0","img/none_selected.jpg","","3","main_expt",""
"","bandit","83","486317","0.0-44.0-0.0","49343852","wem/bandit_either_3","A1VSHM4NLZ705D","either","1","601","","","","","","","0","1","0","","0.8961075186","0.6","0.8","0.4","0.2","0.8961075186","0.8311681014","0.3939226057","0.362446662","","","","","","","","","","","","72","H","0","img/none_selected.jpg","","4","main_expt",""
"","bandit","84","488220","0.0-45.0-0.0","49343852","wem/bandit_either_3","A1VSHM4NLZ705D","either","1","392","","","","","","","1","0","0","0.9065038385","","0.6","0.8","0.4","0.2","","","","","0.9065038385","0.706748425","0.4737796053","0.4337427147","","","","","","","","72","H","0","img/none_selected.jpg","","5","main_expt",""
"","bandit","85","490084","0.0-46.0-0.0","49343852","wem/bandit_either_3","A1VSHM4NLZ705D","either","1","343","","","","","","","1","0","0","0.9628954729","","0.6","0.8","0.4","0.2","","","","","0.9628954729","0.7246132019","0.5798080576","0.4260566605","","","","","","","","72","H","0","img/none_selected.jpg","","6","main_expt",""
"","bandit","86","491961","0.0-47.0-0.0","49343852","wem/bandit_either_3","A1VSHM4NLZ705D","either","1","344","","","","","","","0","0","1","","0.9244273404","0.6","0.8","0.4","0.2","0.9244273404","0.822103072","0.6184433593","0.5595739282","","","","","","","","","","","","72","H","0","img/none_selected.jpg","","7","main_expt",""
"","bandit","87","494133","0.0-48.0-0.0","49343852","wem/bandit_either_3","A1VSHM4NLZ705D","either","1","646","","","","","","","0","1","0","","0.9214665689","0.6","0.8","0.4","0.2","0.9214665689","0.8176183596","0.5380809204","0.5757792393","","","","","","","","","","","","72","H","0","img/none_selected.jpg","","8","main_expt",""
"","bandit","88","496423","0.0-49.0-0.0","49343852","wem/bandit_either_3","A1VSHM4NLZ705D","either","1","517","","","","","","","1","0","0","0.9604963414","","0.6","0.8","0.4","0.2","","","","","0.9604963414","0.7421782695","0.4884558296","0.5508288143","","","","","","","","72","H","0","img/none_selected.jpg","","9","main_expt",""
"","bandit","89","498100","0.0-50.0-0.0","49343852","wem/bandit_either_3","A1VSHM4NLZ705D","either","1","115","","","","","","","1","0","0","0.973544224","","0.6","0.8","0.4","0.2","","","","","0.973544224","0.7112185725","0.6062827564","0.4615344473","","","","","","","","72","H","0","img/none_selected.jpg","","10","main_expt",""
"","bandit","90","500025","0.0-51.0-0.0","49343852","wem/bandit_either_3","A1VSHM4NLZ705D","either","1","404","","","","","","","0","1","0","","0.9756729976","0.6","0.8","0.4","0.2","0.9756729976","0.6656122322","0.6618996933","0.4731032433","","","","","","","","","","","","72","H","0","img/none_selected.jpg","","11","main_expt",""
"","bandit","91","502009","0.0-52.0-0.0","49343852","wem/bandit_either_3","A1VSHM4NLZ705D","either","1","459","","","","","","","1","0","0","0.9824084628","","0.6","0.8","0.4","0.2","","","","","0.9824084628","0.632951522","0.6589688621","0.5028989732","","","","","","","","72","H","0","img/none_selected.jpg","","12","main_expt",""
"","bandit","92","503707","0.0-53.0-0.0","49343852","wem/bandit_either_3","A1VSHM4NLZ705D","either","1","171","","","","","","","1","0","0","0.9852841122","","0.6","0.8","0.4","0.2","","","","","0.9852841122","0.6428643634","0.7483501345","0.5252386458","","","","","","","","72","H","0","img/none_selected.jpg","","13","main_expt",""
"","bandit","93","505567","0.0-54.0-0.0","49343852","wem/bandit_either_3","A1VSHM4NLZ705D","either","1","321","","","","","","","1","0","0","0.9844185579","","0.6","0.8","0.4","0.2","","","","","0.9844185579","0.5693663763","0.7642220585","0.4883642101","","","","","","","","72","H","0","img/none_selected.jpg","","14","main_expt",""
"","bandit","94","507446","0.0-55.0-0.0","49343852","wem/bandit_either_3","A1VSHM4NLZ705D","either","1","346","","","","","","","0","1","0","","0.9716790186","0.6","0.8","0.4","0.2","0.9716790186","0.6354763258","0.8255663415","0.5125695872","","","","","","","","","","","","72","H","0","img/none_selected.jpg","","15","main_expt",""
"","bandit","95","509265","0.0-56.0-0.0","49343852","wem/bandit_either_3","A1VSHM4NLZ705D","either","1","292","","","","","","","0","1","0","","0.9724226268","0.6","0.8","0.4","0.2","0.9724226268","0.6074668868","0.8262734196","0.483313844","","","","","","","","","","","","72","H","0","img/none_selected.jpg","","16","main_expt",""
"","bandit","96","511307","0.0-57.0-0.0","49343852","wem/bandit_either_3","A1VSHM4NLZ705D","either","1","347","","","","","","","0","1","0","","0.969397438","0.6","0.8","0.4","0.2","0.969397438","0.634379517","0.8957105494","0.4764119597","","","","","","","","","","","","72","H","0","img/none_selected.jpg","","17","main_expt",""
"","bandit","97","513191","0.0-58.0-0.0","49343852","wem/bandit_either_3","A1VSHM4NLZ705D","either","1","362","","","","","","","1","0","0","0.9487821198","","0.6","0.8","0.4","0.2","","","","","0.9487821198","0.7399013172","0.8243017832","0.4742144938","","","","","","","","72","H","0","img/none_selected.jpg","","18","main_expt",""
"","bandit","98","515004","0.0-59.0-0.0","49343852","wem/bandit_either_3","A1VSHM4NLZ705D","either","1","285","","","","","","","0","1","0","","0.8822386923","0.6","0.8","0.4","0.2","0.8822386923","0.6892422428","0.8174393347","0.5445729057","","","","","","","","","","","","72","H","0","img/none_selected.jpg","","19","main_expt",""
"","bandit","99","517051","0.0-60.0-0.0","49343852","wem/bandit_either_3","A1VSHM4NLZ705D","either","1","516","","","","","","","1","0","0","0.8658452863","","0.6","0.8","0.4","0.2","","","","","0.8658452863","0.5544472153","0.8457625901","0.5114357523","","","","","","","","72","H","0","img/none_selected.jpg","","20","main_expt",""
"","bandit","100","518969","0.0-61.0-0.0","49343852","wem/bandit_either_3","A1VSHM4NLZ705D","either","1","389","","","","","","","0","0","1","0.8597265301","","0.6","0.8","0.4","0.2","","","","","0.8597265301","0.4705077418","0.8565453533","0.4948626968","","","","","","","","72","H","0","img/none_selected.jpg","","21","main_expt",""
"","bandit","101","521137","0.0-62.0-0.0","49343852","wem/bandit_either_3","A1VSHM4NLZ705D","either","1","633","","","","","","","1","0","0","0.929530396","","0.6","0.8","0.4","0.2","","","","","0.929530396","0.5364913494","0.8821281293","0.3750889156","","","","","","","","72","H","0","img/none_selected.jpg","","22","main_expt",""
"","bandit","102","523111","0.0-63.0-0.0","49343852","wem/bandit_either_3","A1VSHM4NLZ705D","either","1","461","","","","","","","1","0","0","0.9149061772","","0.6","0.8","0.4","0.2","","","","","0.9149061772","0.5450887529","0.8253896901","0.3874093852","","","","","","","","72","H","0","img/none_selected.jpg","","23","main_expt",""
"","bandit","103","525019","0.0-64.0-0.0","49343852","wem/bandit_either_3","A1VSHM4NLZ705D","either","1","347","","","","","","","1","0","0","0.9389899916","","0.6","0.8","0.4","0.2","","","","","0.9389899916","0.6013055931","0.8682133559","0.4126546177","","","","","","","","72","H","0","img/none_selected.jpg","","24","main_expt",""
"","bandit","104","526928","0.0-65.0-0.0","49343852","wem/bandit_either_3","A1VSHM4NLZ705D","either","1","367","","","","","","","1","0","0","0.9583062328","","0.6","0.8","0.4","0.2","","","","","0.9583062328","0.7116226269","0.8186134727","0.3871809826","","","","","","","","72","H","0","img/none_selected.jpg","","25","main_expt",""
"","bandit","105","528857","0.0-66.0-0.0","49343852","wem/bandit_either_3","A1VSHM4NLZ705D","either","1","384","","","","","","","1","0","0","0.9349434311","","0.6","0.8","0.4","0.2","","","","","0.9349434311","0.7284905038","0.841170918","0.4162773602","","","","","","","","72","H","0","img/none_selected.jpg","","26","main_expt",""
"","bandit","106","530721","0.0-67.0-0.0","49343852","wem/bandit_either_3","A1VSHM4NLZ705D","either","1","337","","","","","","","1","0","0","0.9147743466","","0.6","0.8","0.4","0.2","","","","","0.9147743466","0.7007901837","0.8332298301","0.4153433109","","","","","","","","72","H","0","img/none_selected.jpg","","27","main_expt",""
"","bandit","107","532689","0.0-68.0-0.0","49343852","wem/bandit_either_3","A1VSHM4NLZ705D","either","1","445","","","","","","","0","1","0","","0.8913744663","0.6","0.8","0.4","0.2","0.8913744663","0.7197690037","0.8340804883","0.3083156359","","","","","","","","","","","","72","H","0","img/none_selected.jpg","","28","main_expt",""
"","bandit","108","535518","0.0-69.0-0.0","49343852","wem/bandit_either_3","A1VSHM4NLZ705D","either","1","1313","","","","","","","1","0","0","0.9004815278","","0.6","0.8","0.4","0.2","","","","","0.9004815278","0.7569205749","0.8800986549","0.4048150761","","","","","","","","72","H","0","img/none_selected.jpg","","29","main_expt",""
"","bandit","109","537538","0.0-70.0-0.0","49343852","wem/bandit_either_3","A1VSHM4NLZ705D","either","1","460","","","","","","","1","0","0","0.8335499875","","0.6","0.8","0.4","0.2","","","","","0.8335499875","0.7007062976","0.800988266","0.5604470694","","","","","","","","72","H","0","img/none_selected.jpg","","30","main_expt",""
"","bandit","110","539466","0.0-71.0-0.0","49343852","wem/bandit_either_3","A1VSHM4NLZ705D","either","1","387","","","","","","","0","1","0","","0.7904098286","0.6","0.8","0.4","0.2","0.7904098286","0.6218809145","0.8092707987","0.5114456598","","","","","","","","","","","","72","H","0","img/none_selected.jpg","","31","main_expt",""
"","bandit","111","541328","0.0-72.0-0.0","49343852","wem/bandit_either_3","A1VSHM4NLZ705D","either","1","320","","","","","","","0","0","1","0.8156470634","","0.6","0.8","0.4","0.2","","","","","0.8156470634","0.5448888872","0.7600689364","0.5195843055","","","","","","","","72","H","0","img/none_selected.jpg","","32","main_expt",""
"","bandit","112","543445","0.0-73.0-0.0","49343852","wem/bandit_either_3","A1VSHM4NLZ705D","either","1","593","","","","","","","0","0","1","0.7458483223","","0.6","0.8","0.4","0.2","","","","","0.7458483223","0.4396040002","0.7268405739","0.4278216128","","","","","","","","72","H","0","img/none_selected.jpg","","33","main_expt",""
"","bandit","113","545355","0.0-74.0-0.0","49343852","wem/bandit_either_3","A1VSHM4NLZ705D","either","1","386","","","","","","","1","0","0","0.8745519215","","0.6","0.8","0.4","0.2","","","","","0.8745519215","0.3418027302","0.7867385379","0.4581725564","","","","","","","","72","H","0","img/none_selected.jpg","","34","main_expt",""
"","bandit","114","547324","0.0-75.0-0.0","49343852","wem/bandit_either_3","A1VSHM4NLZ705D","either","1","412","","","","","","","0","1","0","","0.8761773117","0.6","0.8","0.4","0.2","0.8761773117","0.3770378826","0.7776722478","0.5170179058","","","","","","","","","","","","72","H","0","img/none_selected.jpg","","35","main_expt",""
"","bandit","115","549205","0.0-76.0-0.0","49343852","wem/bandit_either_3","A1VSHM4NLZ705D","either","1","357","","","","","","","0","1","0","","0.8898579413","0.6","0.8","0.4","0.2","0.8898579413","0.3264650107","0.8110731924","0.5761285305","","","","","","","","","","","","72","H","0","img/none_selected.jpg","","36","main_expt",""
"","bandit","116","551061","0.0-77.0-0.0","49343852","wem/bandit_either_3","A1VSHM4NLZ705D","either","1","332","","","","","","","1","0","0","0.9189960073","","0.6","0.8","0.4","0.2","","","","","0.9189960073","0.1696248696","0.8371501114","0.5824592389","","","","","","","","72","H","0","img/none_selected.jpg","","37","main_expt",""
"","bandit","117","554065","0.0-78.0-0.0","49343852","wem/bandit_either_3","A1VSHM4NLZ705D","either","1","1428","","","","","","","1","0","0","0.9429067042","","0.6","0.8","0.4","0.2","","","","","0.9429067042","0.3008725236","0.801984358","0.5039158184","","","","","","","","72","H","0","img/none_selected.jpg","","38","main_expt",""
"","bandit","118","556107","0.0-79.0-0.0","49343852","wem/bandit_either_3","A1VSHM4NLZ705D","either","1","488","","","","","","","0","0","1","0.8860185862","","0.6","0.8","0.4","0.2","","","","","0.8860185862","0.3612597963","0.836760671","0.4906961915","","","","","","","","72","H","0","img/none_selected.jpg","","39","main_expt",""
"","bandit","119","558588","0.0-80.0-0.0","49343852","wem/bandit_either_3","A1VSHM4NLZ705D","either","1","961","","","","","","","0","1","0","","0.8958725565","0.6","0.8","0.4","0.2","0.8958725565","0.3316001813","0.7930168878","0.5118773476","","","","","","","","","","","","72","H","0","img/none_selected.jpg","","40","main_expt",""
"","bandit","120","560763","0.0-81.0-0.0","49343852","wem/bandit_either_3","A1VSHM4NLZ705D","either","1","470","","","","","","","1","0","0","0.8369757826","","0.6","0.8","0.4","0.2","","","","","0.8369757826","0.251761063","0.6758505439","0.5207000815","","","","","","","","72","H","0","img/none_selected.jpg","","41","main_expt",""
"","bandit","121","562806","0.0-82.0-0.0","49343852","wem/bandit_either_3","A1VSHM4NLZ705D","either","1","519","","","","","","","1","0","0","0.8724413244","","0.6","0.8","0.4","0.2","","","","","0.8724413244","0.3764367217","0.669091732","0.6208632684","","","","","","","","72","H","0","img/none_selected.jpg","","42","main_expt",""
"","bandit","122","564669","0.0-83.0-0.0","49343852","wem/bandit_either_3","A1VSHM4NLZ705D","either","1","339","","","","","","","1","0","0","0.8721156492","","0.6","0.8","0.4","0.2","","","","","0.8721156492","0.4280411123","0.5774386383","0.6736877605","","","","","","","","72","H","0","img/none_selected.jpg","","43","main_expt",""
"","bandit","123","566613","0.0-84.0-0.0","49343852","wem/bandit_either_3","A1VSHM4NLZ705D","either","1","406","","","","","","","1","0","0","0.874486911","","0.6","0.8","0.4","0.2","","","","","0.874486911","0.4250007774","0.5402750746","0.6770598463","","","","","","","","72","H","0","img/none_selected.jpg","","44","main_expt",""
"","bandit","124","568475","0.0-85.0-0.0","49343852","wem/bandit_either_3","A1VSHM4NLZ705D","either","1","341","","","","","","","0","1","0","","0.7653026016","0.6","0.8","0.4","0.2","0.7653026016","0.3964774122","0.4769525635","0.6811336834","","","","","","","","","","","","72","H","0","img/none_selected.jpg","","45","main_expt",""
"","bandit","125","570339","0.0-86.0-0.0","49343852","wem/bandit_either_3","A1VSHM4NLZ705D","either","1","340","","","","","","","0","1","0","","0.6884850605","0.6","0.8","0.4","0.2","0.6884850605","0.3755541509","0.460739512","0.7409040253","","","","","","","","","","","","72","H","0","img/none_selected.jpg","","46","main_expt",""
"","bandit","126","572216","0.0-87.0-0.0","49343852","wem/bandit_either_3","A1VSHM4NLZ705D","either","1","342","","","","","","","1","0","0","0.6869729855","","0.6","0.8","0.4","0.2","","","","","0.6869729855","0.3698766084","0.3953603582","0.8602274841","","","","","","","","72","H","0","img/none_selected.jpg","","47","main_expt",""
"","bandit","127","574077","0.0-88.0-0.0","49343852","wem/bandit_either_3","A1VSHM4NLZ705D","either","1","322","","","","","","","0","0","1","","0.624749708","0.6","0.8","0.4","0.2","0.624749708","0.2924141828","0.5194217752","0.8947369126","","","","","","","","","","","","72","H","0","img/none_selected.jpg","","48","main_expt",""
"","bandit","128","576187","0.0-89.0-0.0","49343852","wem/bandit_either_3","A1VSHM4NLZ705D","either","1","421","","","","","","","0","0","1","0.6269608649","","0.6","0.8","0.4","0.2","","","","","0.6269608649","0.2506794134","0.5015721984","0.9071052574","","","","","","","","72","H","0","img/none_selected.jpg","","49","main_expt",""
"","bandit","129","578107","0.0-90.0-0.0","49343852","wem/bandit_either_3","A1VSHM4NLZ705D","either","1","401","","","","","","","0","0","1","0.5394470416","","0.6","0.8","0.4","0.2","","","","","0.5394470416","0.2200095001","0.4427204185","0.8569531155","","","","","","","","72","H","0","img/none_selected.jpg","","50","main_expt",""
"","bandit","130","580701","0.0-91.0-0.0","49343852","wem/bandit_either_3","A1VSHM4NLZ705D","either","1","1049","","","","","","","1","0","0","0.2703780474","","0.6","0.8","0.4","0.2","","","","","0.4991806479","0.2703780474","0.5194544998","0.8728609703","","","","","","","","74","J","1","","","51","main_expt",""
"","bandit","131","582524","0.0-92.0-0.0","49343852","wem/bandit_either_3","A1VSHM4NLZ705D","either","1","308","","","","","","","0","0","1","0.3215640211","","0.6","0.8","0.4","0.2","","","","","0.5431464126","0.3215640211","0.4420680866","0.902184381","","","","","","","","74","J","1","","","52","main_expt",""
"","bandit","132","584424","0.0-93.0-0.0","49343852","wem/bandit_either_3","A1VSHM4NLZ705D","either","1","385","","","","","","","1","0","0","0.2918797996","","0.6","0.8","0.4","0.2","","","","","0.4799783957","0.2918797996","0.5541791803","0.8975054296","","","","","","","","74","J","1","","","53","main_expt",""
"","bandit","133","586262","0.0-94.0-0.0","49343852","wem/bandit_either_3","A1VSHM4NLZ705D","either","1","321","","","","","","","0","0","1","0.2432815539","","0.6","0.8","0.4","0.2","","","","","0.3946877269","0.2432815539","0.6187664305","0.9436546011","","","","","","","","74","J","1","","","54","main_expt",""
"","bandit","134","588180","0.0-95.0-0.0","49343852","wem/bandit_either_3","A1VSHM4NLZ705D","either","1","381","","","","","","","0","0","1","0.1993500609","","0.6","0.8","0.4","0.2","","","","","0.3892466866","0.1993500609","0.538030076","0.9411334538","","","","","","","","74","J","1","","","55","main_expt",""
"","bandit","135","590070","0.0-96.0-0.0","49343852","wem/bandit_either_3","A1VSHM4NLZ705D","either","1","363","","","","","","","0","0","1","0.1832364248","","0.6","0.8","0.4","0.2","","","","","0.347268188","0.1832364248","0.5137881872","0.862285227","","","","","","","","74","J","1","","","56","main_expt",""
"","bandit","136","591972","0.0-97.0-0.0","49343852","wem/bandit_either_3","A1VSHM4NLZ705D","either","1","310","","","","","","","1","0","0","0.6274604021","","0.6","0.8","0.4","0.2","","","","","0.3462231845","0.1703919496","0.6274604021","0.9034803314","","","","","","","","75","K","2","","","57","main_expt",""
"","bandit","137","593730","0.0-98.0-0.0","49343852","wem/bandit_either_3","A1VSHM4NLZ705D","either","1","228","","","","","","","0","0","1","","0.5636132077","0.6","0.8","0.4","0.2","0.3707442777","0.2146973212","0.5636132077","0.9062052911","","","","","","","","","","","","75","K","2","","","58","main_expt",""
"","bandit","138","595571","0.0-99.0-0.0","49343852","wem/bandit_either_3","A1VSHM4NLZ705D","either","1","321","","","","","","","0","1","0","","0.6555757088","0.6","0.8","0.4","0.2","0.4530366532","0.2118107272","0.6555757088","0.9169546289","","","","","","","","","","","","75","K","2","","","59","main_expt",""
"","bandit","139","597440","0.0-100.0-0.0","49343852","wem/bandit_either_3","A1VSHM4NLZ705D","either","1","308","","","","","","","0","0","1","","0.6555481193","0.6","0.8","0.4","0.2","0.4335409142","0.2096036334","0.6555481193","0.9048679239","","","","","","","","","","","","75","K","2","","","60","main_expt",""
"","bandit","140","599340","0.0-101.0-0.0","49343852","wem/bandit_either_3","A1VSHM4NLZ705D","either","1","369","","","","","","","1","0","0","0.6988977931","","0.6","0.8","0.4","0.2","","","","","0.3601573371","0.1985607356","0.6988977931","0.9346572725","","","","","","","","75","K","2","","","61","main_expt",""
"","bandit","141","601153","0.0-102.0-0.0","49343852","wem/bandit_either_3","A1VSHM4NLZ705D","either","1","284","","","","","","","0","1","0","","0.6124712875","0.6","0.8","0.4","0.2","0.3187004912","0.2352246004","0.6124712875","0.9332729597","","","","","","","","","","","","75","K","2","","","62","main_expt",""
"","bandit","142","602982","0.0-103.0-0.0","49343852","wem/bandit_either_3","A1VSHM4NLZ705D","either","1","288","","","","","","","0","0","1","","0.4881994696","0.6","0.8","0.4","0.2","0.331276396","0.1989126294","0.4881994696","0.9300142507","","","","","","","","","","","","75","K","2","","","63","main_expt",""
"","bandit","143","604856","0.0-104.0-0.0","49343852","wem/bandit_either_3","A1VSHM4NLZ705D","either","1","341","","","","","","","1","0","0","0.5007509184","","0.6","0.8","0.4","0.2","","","","","0.3984677","0.2231035509","0.5007509184","0.8992917639","","","","","","","","75","K","2","","","64","main_expt",""
"","bandit","144","606806","0.0-105.0-0.0","49343852","wem/bandit_either_3","A1VSHM4NLZ705D","either","1","392","","","","","","","0","0","1","","0.6077525222","0.6","0.8","0.4","0.2","0.3012021372","0.174077904","0.6077525222","0.7939475476","","","","","","","","","","","","75","K","2","","","65","main_expt",""
"","bandit","145","608699","0.0-106.0-0.0","49343852","wem/bandit_either_3","A1VSHM4NLZ705D","either","1","360","","","","","","","0","0","1","0.4876759876","","0.6","0.8","0.4","0.2","","","","","0.2848395029","0.1505104035","0.4876759876","0.7848839068","","","","","","","","75","K","2","","","66","main_expt",""
"","bandit","146","610626","0.0-107.0-0.0","49343852","wem/bandit_either_3","A1VSHM4NLZ705D","either","1","349","","","","","","","0","1","0","","0.4705728971","0.6","0.8","0.4","0.2","0.2908363747","0.1706094741","0.4705728971","0.7712869283","","","","","","","","","","","","75","K","2","","","67","main_expt",""
"","bandit","147","612525","0.0-108.0-0.0","49343852","wem/bandit_either_3","A1VSHM4NLZ705D","either","1","342","","","","","","","1","0","0","0.5822594153","","0.6","0.8","0.4","0.2","","","","","0.3226378352","0.193375558","0.5822594153","0.7426915226","","","","","","","","75","K","2","","","68","main_expt",""
"","bandit","148","614406","0.0-109.0-0.0","49343852","wem/bandit_either_3","A1VSHM4NLZ705D","either","1","351","","","","","","","0","1","0","","0.6189715015","0.6","0.8","0.4","0.2","0.4490581071","0.226811003","0.6189715015","0.592712881","","","","","","","","","","","","75","K","2","","","69","main_expt",""
"","bandit","149","616353","0.0-110.0-0.0","49343852","wem/bandit_either_3","A1VSHM4NLZ705D","either","1","396","","","","","","","0","0","1","0.5307799745","","0.6","0.8","0.4","0.2","","","","","0.42365523","0.191142909","0.5307799745","0.6587085967","","","","","","","","75","K","2","","","70","main_expt",""
"","bandit","150","618256","0.0-111.0-0.0","49343852","wem/bandit_either_3","A1VSHM4NLZ705D","either","1","384","","","","","","","0","0","1","","0.5205551237","0.6","0.8","0.4","0.2","0.427101634","0.2371486809","0.5205551237","0.7562029562","","","","","","","","","","","","75","K","2","","","71","main_expt",""
"","bandit","151","620126","0.0-112.0-0.0","49343852","wem/bandit_either_3","A1VSHM4NLZ705D","either","1","340","","","","","","","1","0","0","0.5913901284","","0.6","0.8","0.4","0.2","","","","","0.5387899421","0.2602117984","0.5913901284","0.670676276","","","","","","","","75","K","2","","","72","main_expt",""
"","bandit","152","622430","0.0-113.0-0.0","49343852","wem/bandit_either_3","A1VSHM4NLZ705D","either","1","602","","","","","","","0","1","0","","0.7127465592","0.6","0.8","0.4","0.2","0.4931252492","0.1837165363","0.7127465592","0.6870219419","","","","","","","","","","","","75","K","2","","","73","main_expt",""
"","bandit","153","624693","0.0-114.0-0.0","49343852","wem/bandit_either_3","A1VSHM4NLZ705D","either","1","658","","","","","","","1","0","0","0.7804212289","","0.6","0.8","0.4","0.2","","","","","0.3888626504","0.2032334464","0.7804212289","0.582898469","","","","","","","","75","K","2","","","74","main_expt",""
"","bandit","154","626534","0.0-115.0-0.0","49343852","wem/bandit_either_3","A1VSHM4NLZ705D","either","1","308","","","","","","","0","1","0","","0.7966502287","0.6","0.8","0.4","0.2","0.3866429177","0.2782751631","0.7966502287","0.6452442043","","","","","","","","","","","","75","K","2","","","75","main_expt",""
"","bandit","155","628604","0.0-116.0-0.0","49343852","wem/bandit_either_3","A1VSHM4NLZ705D","either","1","547","","","","","","","0","1","0","","0.7775959854","0.6","0.8","0.4","0.2","0.3948468247","0.3318782676","0.7775959854","0.7031137023","","","","","","","","","","","","75","K","2","","","76","main_expt",""
"","bandit","156","630474","0.0-117.0-0.0","49343852","wem/bandit_either_3","A1VSHM4NLZ705D","either","1","343","","","","","","","1","0","0","0.8523583745","","0.6","0.8","0.4","0.2","","","","","0.4853082722","0.312607664","0.8523583745","0.6096498107","","","","","","","","75","K","2","","","77","main_expt",""
"","bandit","157","632594","0.0-118.0-0.0","49343852","wem/bandit_either_3","A1VSHM4NLZ705D","either","1","585","","","","","","","0","1","0","","0.7707034136","0.6","0.8","0.4","0.2","0.4971609959","0.3250695504","0.7707034136","0.532302087","","","","","","","","","","","","75","K","2","","","78","main_expt",""
"","bandit","158","634464","0.0-119.0-0.0","49343852","wem/bandit_either_3","A1VSHM4NLZ705D","either","1","351","","","","","","","0","1","0","","0.7919080975","0.6","0.8","0.4","0.2","0.5349041547","0.277144637","0.7919080975","0.4448734945","","","","","","","","","","","","75","K","2","","","79","main_expt",""
"","bandit","159","636256","0.0-120.0-0.0","49343852","wem/bandit_either_3","A1VSHM4NLZ705D","either","1","264","","","","","","","0","0","1","0.8107458935","","0.6","0.8","0.4","0.2","","","","","0.4713204996","0.293018971","0.8107458935","0.34513516","","","","","","","","75","K","2","","","80","main_expt",""
"","bandit","160","638212","0.0-121.0-0.0","49343852","wem/bandit_either_3","A1VSHM4NLZ705D","either","1","418","","","","","","","1","0","0","0.7851591746","","0.6","0.8","0.4","0.2","","","","","0.4132476049","0.2730851157","0.7851591746","0.406584365","","","","","","","","75","K","2","","","81","main_expt",""
"","bandit","161","640147","0.0-122.0-0.0","49343852","wem/bandit_either_3","A1VSHM4NLZ705D","either","1","276","","","","","","","0","0","1","0.8067558171","","0.6","0.8","0.4","0.2","","","","","0.4640808921","0.2436011542","0.8067558171","0.5068312928","","","","","","","","75","K","2","","","82","main_expt",""
"","bandit","162","641735","0.0-123.0-0.0","49343852","wem/bandit_either_3","A1VSHM4NLZ705D","either","1","64","","","","","","","0","1","0","","0.7777816444","0.6","0.8","0.4","0.2","0.442115463","0.2009218657","0.7777816444","0.5209063211","","","","","","","","","","","","75","K","2","","","83","main_expt",""
"","bandit","163","645423","0.0-124.0-0.0","49343852","wem/bandit_either_3","A1VSHM4NLZ705D","either","1","2146","","","","","","","0","1","0","","0.7801041195","0.6","0.8","0.4","0.2","0.5117806844","0.1550904625","0.7801041195","0.6221591745","","","","","","","","","","","","75","K","2","","","84","main_expt",""
"","bandit","164","647843","0.0-125.0-0.0","49343852","wem/bandit_either_3","A1VSHM4NLZ705D","either","1","850","","","","","","","0","0","1","0.7593249252","","0.6","0.8","0.4","0.2","","","","","0.5309627618","0.1193398435","0.7593249252","0.6939346182","","","","","","","","75","K","2","","","85","main_expt",""
"","bandit","165","651173","0.0-126.0-0.0","49343852","wem/bandit_either_3","A1VSHM4NLZ705D","either","1","1725","","","","","","","1","0","0","0.7911667705","","0.6","0.8","0.4","0.2","","","","","0.5482659382","0.1398572341","0.7911667705","0.7533471596","","","","","","","","75","K","2","","","86","main_expt",""
"","bandit","166","654154","0.0-127.0-0.0","49343852","wem/bandit_either_3","A1VSHM4NLZ705D","either","1","1365","","","","","","","1","0","0","0.8480662183","","0.6","0.8","0.4","0.2","","","","","0.4772076429","0.1941505275","0.8480662183","0.8040573679","","","","","","","","75","K","2","","","87","main_expt",""
"","bandit","167","656647","0.0-128.0-0.0","49343852","wem/bandit_either_3","A1VSHM4NLZ705D","either","1","972","","","","","","","1","0","0","0.8110462569","","0.6","0.8","0.4","0.2","","","","","0.5202977678","0.09645570925","0.8110462569","0.7800800897","","","","","","","","75","K","2","","","88","main_expt",""
"","bandit","168","659330","0.0-129.0-0.0","49343852","wem/bandit_either_3","A1VSHM4NLZ705D","either","1","1092","","","","","","","0","1","0","","0.7924414871","0.6","0.8","0.4","0.2","0.4970482359","0.1304326216","0.7924414871","0.7329239748","","","","","","","","","","","","75","K","2","","","89","main_expt",""
"","bandit","169","661412","0.0-130.0-0.0","49343852","wem/bandit_either_3","A1VSHM4NLZ705D","either","1","519","","","","","","","1","0","0","0.8190855249","","0.6","0.8","0.4","0.2","","","","","0.4671205494","0.1410434261","0.8190855249","0.7202813078","","","","","","","","75","K","2","","","90","main_expt",""
"","bandit","170","664452","0.0-131.0-0.0","49343852","wem/bandit_either_3","A1VSHM4NLZ705D","either","1","1520","","","","","","","0","1","0","","0.858270253","0.6","0.8","0.4","0.2","0.5518401665","0.1277095213","0.858270253","0.698586111","","","","","","","","","","","","75","K","2","","","91","main_expt",""
"","bandit","171","666417","0.0-132.0-0.0","49343852","wem/bandit_either_3","A1VSHM4NLZ705D","either","1","405","","","","","","","1","0","0","0.8583259383","","0.6","0.8","0.4","0.2","","","","","0.620788192","0.08596821216","0.8583259383","0.6054304462","","","","","","","","75","K","2","","","92","main_expt",""
"","bandit","172","668583","0.0-133.0-0.0","49343852","wem/bandit_either_3","A1VSHM4NLZ705D","either","1","578","","","","","","","0","1","0","","0.8335107661","0.6","0.8","0.4","0.2","0.679669404","0.05652587691","0.8335107661","0.6829204303","","","","","","","","","","","","75","K","2","","","93","main_expt",""
"","bandit","173","671873","0.0-134.0-0.0","49343852","wem/bandit_either_3","A1VSHM4NLZ705D","either","1","1743","","","","","","","1","0","0","0.8849423118","","0.6","0.8","0.4","0.2","","","","","0.6726581754","0.07490457358","0.8849423118","0.6084783934","","","","","","","","75","K","2","","","94","main_expt",""
"","bandit","174","673762","0.0-135.0-0.0","49343852","wem/bandit_either_3","A1VSHM4NLZ705D","either","1","296","","","","","","","1","0","0","0.9175662658","","0.6","0.8","0.4","0.2","","","","","0.5983950962","0.05201682933","0.9175662658","0.51962455","","","","","","","","75","K","2","","","95","main_expt",""
"","bandit","175","677382","0.0-136.0-0.0","49343852","wem/bandit_either_3","A1VSHM4NLZ705D","either","1","2092","","","","","","","0","1","0","","0.8726153548","0.6","0.8","0.4","0.2","0.6316158747","0.0353667714","0.8726153548","0.453067158","","","","","","","","","","","","75","K","2","","","96","main_expt",""
"","bandit","176","679755","0.0-137.0-0.0","49343852","wem/bandit_either_3","A1VSHM4NLZ705D","either","1","767","","","","","","","0","0","1","0.7260562137","","0.6","0.8","0.4","0.2","","","","","0.6660601513","0.04301306848","0.7260562137","0.4090095009","","","","","","","","75","K","2","","","97","main_expt",""
"","bandit","177","681709","0.0-138.0-0.0","49343852","wem/bandit_either_3","A1VSHM4NLZ705D","either","1","441","","","","","","","0","1","0","","0.6506148609","0.6","0.8","0.4","0.2","0.6185462561","0.03950067624","0.6506148609","0.360727585","","","","","","","","","","","","75","K","2","","","98","main_expt",""
"","bandit","178","683712","0.0-139.0-0.0","49343852","wem/bandit_either_3","A1VSHM4NLZ705D","either","1","315","","","","","","","1","0","0","0.5816342488","","0.6","0.8","0.4","0.2","","","","","0.581128502","0.03156699585","0.5816342488","0.3351327477","","","","","","","","75","K","2","","","99","main_expt",""
"","bandit","179","685748","0.0-140.0-0.0","49343852","wem/bandit_either_3","A1VSHM4NLZ705D","either","1","421","","","","","","","0","1","0","","0.5521464449","0.6","0.8","0.4","0.2","0.479775063","0.0248161238","0.5521464449","0.3491912274","","","","","","","","","","","","75","K","2","","","100","main_expt",""
"","bandit","180","688022","0.0-141.0-0.0","49343852","wem/bandit_either_3","A1VSHM4NLZ705D","either","1","660","","","","","","","1","0","0","0.6063232436","","0.6","0.8","0.4","0.2","","","","","0.5114647241","0.02218075004","0.6063232436","0.4105375765","","","","","","","","75","K","2","","","101","main_expt",""
"","bandit","181","690146","0.0-142.0-0.0","49343852","wem/bandit_either_3","A1VSHM4NLZ705D","either","1","595","","","","","","","1","0","0","0.5636213764","","0.6","0.8","0.4","0.2","","","","","0.4718740674","0.01802152149","0.5636213764","0.438632671","","","","","","","","75","K","2","","","102","main_expt",""
"","bandit","182","692195","0.0-143.0-0.0","49343852","wem/bandit_either_3","A1VSHM4NLZ705D","either","1","495","","","","","","","1","0","0","0.5370473259","","0.6","0.8","0.4","0.2","","","","","0.5245129891","0.01877214671","0.5370473259","0.372838406","","","","","","","","75","K","2","","","103","main_expt",""
"","bandit","183","694256","0.0-144.0-0.0","49343852","wem/bandit_either_3","A1VSHM4NLZ705D","either","1","540","","","","","","","0","0","1","","0.549647281","0.6","0.8","0.4","0.2","0.5170751474","0.01556743346","0.549647281","0.3057692375","","","","","","","","","","","","75","K","2","","","104","main_expt",""
"","bandit","184","696228","0.0-145.0-0.0","49343852","wem/bandit_either_3","A1VSHM4NLZ705D","either","1","447","","","","","","","0","1","0","","0.4225976111","0.6","0.8","0.4","0.2","0.472330124","0.03717147126","0.4225976111","0.37369274","","","","","","","","","","","","75","K","2","","","105","main_expt",""
"","bandit","185","698504","0.0-146.0-0.0","49343852","wem/bandit_either_3","A1VSHM4NLZ705D","either","1","740","","","","","","","0","1","0","","0.5005163425","0.6","0.8","0.4","0.2","0.568133852","0.07687033395","0.5005163425","0.3179799449","","","","","","","","","","","","75","K","2","","","106","main_expt",""
"","bandit","186","700724","0.0-147.0-0.0","49343852","wem/bandit_either_3","A1VSHM4NLZ705D","either","1","697","","","","","","","0","0","1","0.3995396385","","0.6","0.8","0.4","0.2","","","","","0.536018559","0.07659049968","0.3995396385","0.3053765494","","","","","","","","75","K","2","","","107","main_expt",""
"","bandit","187","703248","0.0-148.0-0.0","49343852","wem/bandit_either_3","A1VSHM4NLZ705D","either","1","908","","","","","","","0","1","0","","0.3855926336","0.6","0.8","0.4","0.2","0.3880888981","0.07827602418","0.3855926336","0.2732860947","","","","","","","","","","","","75","K","2","","","108","main_expt",""
"","bandit","188","705393","0.0-149.0-0.0","49343852","wem/bandit_either_3","A1VSHM4NLZ705D","either","1","613","","","","","","","0","0","1","","0.3059937163","0.6","0.8","0.4","0.2","0.3675045314","0.1352418701","0.3059937163","0.2624197952","","","","","","","","","","","","75","K","2","","","109","main_expt",""
"","bandit","189","707638","0.0-150.0-0.0","49343852","wem/bandit_either_3","A1VSHM4NLZ705D","either","1","680","","","","","","","0","0","1","","0.2752892785","0.6","0.8","0.4","0.2","0.4560700489","0.1705666919","0.2752892785","0.3303210632","","","","","","","","","","","","75","K","2","","","110","main_expt",""
"","bandit","190","709530","0.0-151.0-0.0","49343852","wem/bandit_either_3","A1VSHM4NLZ705D","either","1","374","","","","","","","0","0","1","0.3038626008","","0.6","0.8","0.4","0.2","","","","","0.5366389876","0.2202970635","0.3038626008","0.3541452024","","","","","","","","75","K","2","","","111","main_expt",""
"","bandit","191","711507","0.0-152.0-0.0","49343852","wem/bandit_either_3","A1VSHM4NLZ705D","either","1","312","","","","","","","1","0","0","0.2368742277","","0.6","0.8","0.4","0.2","","","","","0.5742054707","0.2368742277","0.2308866464","0.4468573219","","","","","","","","74","J","1","","","112","main_expt",""
"","bandit","192","713102","0.0-153.0-0.0","49343852","wem/bandit_either_3","A1VSHM4NLZ705D","either","1","70","","","","","","","0","0","1","0.2487241586","","0.6","0.8","0.4","0.2","","","","","0.6014260319","0.2487241586","0.2420052043","0.5163231944","","","","","","","","74","J","1","","","113","main_expt",""
"","bandit","193","714938","0.0-154.0-0.0","49343852","wem/bandit_either_3","A1VSHM4NLZ705D","either","1","310","","","","","","","1","0","0","0.238824581","","0.6","0.8","0.4","0.2","","","","","0.5398035654","0.238824581","0.3277817495","0.4064640458","","","","","","","","74","J","1","","","114","main_expt",""
"","bandit","194","716808","0.0-155.0-0.0","49343852","wem/bandit_either_3","A1VSHM4NLZ705D","either","1","346","","","","","","","0","1","0","","0.1480638281","0.6","0.8","0.4","0.2","0.5008208772","0.1480638281","0.3280884562","0.4085425191","","","","","","","","","","","","74","J","1","","","115","main_expt",""
"","bandit","195","718815","0.0-156.0-0.0","49343852","wem/bandit_either_3","A1VSHM4NLZ705D","either","1","488","","","","","","","0","0","1","0.1246447603","","0.6","0.8","0.4","0.2","","","","","0.4200837231","0.1246447603","0.4137256642","0.4412864427","","","","","","","","74","J","1","","","116","main_expt",""
"","bandit","196","720768","0.0-157.0-0.0","49343852","wem/bandit_either_3","A1VSHM4NLZ705D","either","1","427","","","","","","","0","0","1","0.1308085784","","0.6","0.8","0.4","0.2","","","","","0.4094987027","0.1308085784","0.372751341","0.5188885271","","","","","","","","74","J","1","","","117","main_expt",""
"","bandit","197","722736","0.0-158.0-0.0","49343852","wem/bandit_either_3","A1VSHM4NLZ705D","either","1","449","","","","","","","0","0","1","0.09076242324","","0.6","0.8","0.4","0.2","","","","","0.3862907493","0.09076242324","0.4225631273","0.5728151575","","","","","","","","74","J","1","","","118","main_expt",""
"","bandit","198","725229","0.0-159.0-0.0","49343852","wem/bandit_either_3","A1VSHM4NLZ705D","either","1","965","","","","","","","0","1","0","","0.5065624602","0.6","0.8","0.4","0.2","0.4437318585","0.09057925276","0.4188482812","0.5065624602","","","","","","","","","","","","76","L","3","","","119","main_expt",""
"","bandit","199","727150","0.0-160.0-0.0","49343852","wem/bandit_either_3","A1VSHM4NLZ705D","either","1","383","","","","","","","0","0","1","","0.4064427813","0.6","0.8","0.4","0.2","0.293469011","0.1288926122","0.3729077829","0.4064427813","","","","","","","","","","","","76","L","3","","","120","main_expt",""
"","bandit","200","729064","0.0-161.0-0.0","49343852","wem/bandit_either_3","A1VSHM4NLZ705D","either","1","374","","","","","","","0","0","1","","0.3948988447","0.6","0.8","0.4","0.2","0.2141601759","0.1479701512","0.3817262037","0.3948988447","","","","","","","","","","","","76","L","3","","","121","main_expt",""
"","bandit","201","731032","0.0-162.0-0.0","49343852","wem/bandit_either_3","A1VSHM4NLZ705D","either","1","405","","","","","","","0","0","1","","0.316823658","0.6","0.8","0.4","0.2","0.2594293103","0.1663524813","0.3537210734","0.316823658","","","","","","","","","","","","76","L","3","","","122","main_expt",""
"","bandit","202","733776","0.0-163.0-0.0","49343852","wem/bandit_either_3","A1VSHM4NLZ705D","either","1","1023","","","","","","","1","0","0","0.1519240937","","0.6","0.8","0.4","0.2","","","","","0.1519240937","0.1993917655","0.3633727708","0.3045978244","","","","","","","","72","H","0","img/none_selected.jpg","","123","main_expt",""
"","bandit","203","735952","0.0-164.0-0.0","49343852","wem/bandit_either_3","A1VSHM4NLZ705D","either","1","306","","","","","","","1","0","0","0.2311656533","","0.6","0.8","0.4","0.2","","","","","0.2311656533","0.2948689786","0.4139908316","0.2389028675","","","","","","","","72","H","0","img/none_selected.jpg","","124","main_expt",""
"","bandit","204","739178","0.0-165.0-0.0","49343852","wem/bandit_either_3","A1VSHM4NLZ705D","either","1","1702","","","","","","","0","0","1","","0.1956748967","0.6","0.8","0.4","0.2","0.1956748967","0.4054398129","0.3619800754","0.2166803268","","","","","","","","","","","","72","H","0","img/none_selected.jpg","","125","main_expt",""
"","bandit","205","741228","0.0-166.0-0.0","49343852","wem/bandit_either_3","A1VSHM4NLZ705D","either","1","483","","","","","","","0","0","1","","0.1419383156","0.6","0.8","0.4","0.2","0.1419383156","0.5337661481","0.353362548","0.1613674106","","","","","","","","","","","","72","H","0","img/none_selected.jpg","","126","main_expt",""
"","bandit","206","743246","0.0-167.0-0.0","49343852","wem/bandit_either_3","A1VSHM4NLZ705D","either","1","411","","","","","","","0","0","1","0.1768105291","","0.6","0.8","0.4","0.2","","","","","0.1768105291","0.5510518781","0.2888217425","0.1682412955","","","","","","","","72","H","0","img/none_selected.jpg","","127","main_expt",""
"","bandit","207","745566","0.0-168.0-0.0","49343852","wem/bandit_either_3","A1VSHM4NLZ705D","either","1","769","","","","","","","0","0","1","","0.3131893798","0.6","0.8","0.4","0.2","0.1187699492","0.4746642732","0.3131893798","0.1655910943","","","","","","","","","","","","75","K","2","","","128","main_expt",""
"","bandit","208","747468","0.0-169.0-0.0","49343852","wem/bandit_either_3","A1VSHM4NLZ705D","either","1","378","","","","","","","0","0","1","0.2826861836","","0.6","0.8","0.4","0.2","","","","","0.1860330609","0.5345142674","0.2826861836","0.1845506081","","","","","","","","75","K","2","","","129","main_expt",""
"","bandit","209","749338","0.0-170.0-0.0","49343852","wem/bandit_either_3","A1VSHM4NLZ705D","either","1","343","","","","","","","0","0","1","","0.3434973012","0.6","0.8","0.4","0.2","0.09722607165","0.6617219445","0.3434973012","0.1548240476","","","","","","","","","","","","75","K","2","","","130","main_expt",""
"","bandit","210","751564","0.0-171.0-0.0","49343852","wem/bandit_either_3","A1VSHM4NLZ705D","either","1","710","","","","","","","0","0","1","0.6183560712","","0.6","0.8","0.4","0.2","","","","","0.05626421391","0.6183560712","0.3848082556","0.1503989","","","","","","","","74","J","1","","","131","main_expt",""
"","bandit","211","753449","0.0-172.0-0.0","49343852","wem/bandit_either_3","A1VSHM4NLZ705D","either","1","363","","","","","","","1","0","0","0.7009512511","","0.6","0.8","0.4","0.2","","","","","0.1149854728","0.7009512511","0.4140069858","0.1199593994","","","","","","","","74","J","1","","","132","main_expt",""
"","bandit","212","755307","0.0-173.0-0.0","49343852","wem/bandit_either_3","A1VSHM4NLZ705D","either","1","343","","","","","","","0","0","1","0.5838974895","","0.6","0.8","0.4","0.2","","","","","0.1698175541","0.5838974895","0.3745017877","0.1518383839","","","","","","","","74","J","1","","","133","main_expt",""
"","bandit","213","757179","0.0-174.0-0.0","49343852","wem/bandit_either_3","A1VSHM4NLZ705D","either","1","325","","","","","","","1","0","0","0.6628563986","","0.6","0.8","0.4","0.2","","","","","0.1925371395","0.6628563986","0.3918835711","0.1855528241","","","","","","","","74","J","1","","","134","main_expt",""
"","bandit","214","759112","0.0-175.0-0.0","49343852","wem/bandit_either_3","A1VSHM4NLZ705D","either","1","384","","","","","","","1","0","0","0.5610912218","","0.6","0.8","0.4","0.2","","","","","0.246136332","0.5610912218","0.3405764209","0.2187769305","","","","","","","","74","J","1","","","135","main_expt",""
"","bandit","215","760984","0.0-176.0-0.0","49343852","wem/bandit_either_3","A1VSHM4NLZ705D","either","1","325","","","","","","","0","1","0","","0.4834649218","0.6","0.8","0.4","0.2","0.2277518718","0.4834649218","0.4155430462","0.2001534018","","","","","","","","","","","","74","J","1","","","136","main_expt",""
"","bandit","216","763000","0.0-177.0-0.0","49343852","wem/bandit_either_3","A1VSHM4NLZ705D","either","1","465","","","","","","","0","0","1","","0.513072369","0.6","0.8","0.4","0.2","0.252962458","0.513072369","0.3389252929","0.176995917","","","","","","","","","","","","74","J","1","","","137","main_expt",""
"","bandit","217","764910","0.0-178.0-0.0","49343852","wem/bandit_either_3","A1VSHM4NLZ705D","either","1","383","","","","","","","1","0","0","0.5502636267","","0.6","0.8","0.4","0.2","","","","","0.3018696236","0.5502636267","0.2698753193","0.1460019238","","","","","","","","74","J","1","","","138","main_expt",""
"","bandit","218","767232","0.0-179.0-0.0","49343852","wem/bandit_either_3","A1VSHM4NLZ705D","either","1","706","","","","","","","0","0","1","0.4564922144","","0.6","0.8","0.4","0.2","","","","","0.347353107","0.4564922144","0.2821570394","0.06707115951","","","","","","","","74","J","1","","","139","main_expt",""
"","bandit","219","768831","0.0-180.0-0.0","49343852","wem/bandit_either_3","A1VSHM4NLZ705D","either","1","57","","","","","","","0","0","1","0.4116013625","","0.6","0.8","0.4","0.2","","","","","0.2477375586","0.4116013625","0.3577533322","0.1071331831","","","","","","","","74","J","1","","","140","main_expt",""
"","bandit","220","770800","0.0-181.0-0.0","49343852","wem/bandit_either_3","A1VSHM4NLZ705D","either","1","396","","","","","","","0","0","1","0.4498847811","","0.6","0.8","0.4","0.2","","","","","0.2880826197","0.4498847811","0.4250900652","0.1224459691","","","","","","","","74","J","1","","","141","main_expt",""
"","bandit","221","772980","0.0-182.0-0.0","49343852","wem/bandit_either_3","A1VSHM4NLZ705D","either","1","352","","","","","","","0","0","1","0.4822150968","","0.6","0.8","0.4","0.2","","","","","0.2287108423","0.4822150968","0.3451055681","0.1127900777","","","","","","","","74","J","1","","","142","main_expt",""
"","bandit","222","774924","0.0-183.0-0.0","49343852","wem/bandit_either_3","A1VSHM4NLZ705D","either","1","388","","","","","","","0","0","1","","0.2096850542","0.6","0.8","0.4","0.2","0.2096850542","0.513506041","0.4661026996","0.1736101882","","","","","","","","","","","","72","H","0","img/none_selected.jpg","","143","main_expt",""
"","bandit","223","776814","0.0-184.0-0.0","49343852","wem/bandit_either_3","A1VSHM4NLZ705D","either","1","372","","","","","","","1","0","0","0.2214165798","","0.6","0.8","0.4","0.2","","","","","0.2214165798","0.556822441","0.4683168179","0.1231714597","","","","","","","","72","H","0","img/none_selected.jpg","","144","main_expt",""
"","bandit","224","778704","0.0-185.0-0.0","49343852","wem/bandit_either_3","A1VSHM4NLZ705D","either","1","357","","","","","","","0","0","1","","0.2412424024","0.6","0.8","0.4","0.2","0.2412424024","0.5633269006","0.448697065","0.10514291","","","","","","","","","","","","72","H","0","img/none_selected.jpg","","145","main_expt",""
"","bandit","225","780638","0.0-186.0-0.0","49343852","wem/bandit_either_3","A1VSHM4NLZ705D","either","1","353","","","","","","","0","0","1","0.1841611904","","0.6","0.8","0.4","0.2","","","","","0.1841611904","0.6482805244","0.4560677512","0.0972381369","","","","","","","","72","H","0","img/none_selected.jpg","","146","main_expt",""
"","bandit","226","782570","0.0-187.0-0.0","49343852","wem/bandit_either_3","A1VSHM4NLZ705D","either","1","388","","","","","","","0","0","1","","0.1577922033","0.6","0.8","0.4","0.2","0.1577922033","0.6036290043","0.513472809","0.1897119627","","","","","","","","","","","","72","H","0","img/none_selected.jpg","","147","main_expt",""
"","bandit","227","784868","0.0-188.0-0.0","49343852","wem/bandit_either_3","A1VSHM4NLZ705D","either","1","741","","","","","","","0","0","1","","0.3820674583","0.6","0.8","0.4","0.2","0.1663963597","0.6110248825","0.3820674583","0.1759094881","","","","","","","","","","","","75","K","2","","","148","main_expt",""
"","bandit","228","786778","0.0-189.0-0.0","49343852","wem/bandit_either_3","A1VSHM4NLZ705D","either","1","377","","","","","","","0","0","1","","0.3116557105","0.6","0.8","0.4","0.2","0.319747154","0.6453676348","0.3116557105","0.2204336569","","","","","","","","","","","","75","K","2","","","149","main_expt",""
"","bandit","229","789008","0.0-190.0-0.0","49343852","wem/bandit_either_3","A1VSHM4NLZ705D","either","1","704","","","","","","","0","1","0","","0.3039338698","0.6","0.8","0.4","0.2","0.5410110608","0.66235511","0.3039338698","0.2328853871","","","","","","","","","","","","75","K","2","","","150","main_expt",""
"","bandit","230","791308","0.0-191.0-0.0","49343852","wem/bandit_either_3","A1VSHM4NLZ705D","either","1","778","","","","","","","0","0","1","","0.3092958796","0.6","0.8","0.4","0.2","0.5584745132","0.5547575852","0.3092958796","0.2652525627","","","","","","","","","","","","75","K","2","","","151","main_expt",""
"","bandit","231","793568","0.0-192.0-0.0","49343852","wem/bandit_either_3","A1VSHM4NLZ705D","either","1","731","","","","","","","0","0","1","","0.3097370874","0.6","0.8","0.4","0.2","0.5709378499","0.5223098228","0.3097370874","0.2654363334","","","","","","","","","","","","75","K","2","","","152","main_expt",""
"","bandit","232","796465","0.0-193.0-0.0","49343852","wem/bandit_either_3","A1VSHM4NLZ705D","either","1","1350","","","","","","","0","1","0","","0.2955649657","0.6","0.8","0.4","0.2","0.6314515046","0.5137303037","0.2955649657","0.3505589273","","","","","","","","","","","","75","K","2","","","153","main_expt",""
"","bandit","233","798941","0.0-194.0-0.0","49343852","wem/bandit_either_3","A1VSHM4NLZ705D","either","1","909","","","","","","","0","0","1","0.221553637","","0.6","0.8","0.4","0.2","","","","","0.6734276465","0.5193194566","0.221553637","0.39889796","","","","","","","","75","K","2","","","154","main_expt",""
"","bandit","234","800916","0.0-195.0-0.0","49343852","wem/bandit_either_3","A1VSHM4NLZ705D","either","1","436","","","","","","","0","0","1","0.2231547498","","0.6","0.8","0.4","0.2","","","","","0.7019144477","0.4736812385","0.2231547498","0.4202606707","","","","","","","","75","K","2","","","155","main_expt",""
"","bandit","235","802835","0.0-196.0-0.0","49343852","wem/bandit_either_3","A1VSHM4NLZ705D","either","1","387","","","","","","","0","0","1","","0.2750957943","0.6","0.8","0.4","0.2","0.6695455193","0.4616442501","0.2750957943","0.4814159609","","","","","","","","","","","","75","K","2","","","156","main_expt",""
"","bandit","236","804817","0.0-197.0-0.0","49343852","wem/bandit_either_3","A1VSHM4NLZ705D","either","1","445","","","","","","","0","0","1","","0.5316807058","0.6","0.8","0.4","0.2","0.6179864128","0.5025740222","0.2005793054","0.5316807058","","","","","","","","","","","","76","L","3","","","157","main_expt",""
"","bandit","237","806888","0.0-198.0-0.0","49343852","wem/bandit_either_3","A1VSHM4NLZ705D","either","1","548","","","","","","","0","0","1","0.5429668589","","0.6","0.8","0.4","0.2","","","","","0.7380689997","0.4548105643","0.2502080146","0.5429668589","","","","","","","","76","L","3","","","158","main_expt",""
"","bandit","238","809174","0.0-199.0-0.0","49343852","wem/bandit_either_3","A1VSHM4NLZ705D","either","1","675","","","","","","","0","1","0","","0.5991419929","0.6","0.8","0.4","0.2","0.7632184112","0.4622667215","0.2729805177","0.5991419929","","","","","","","","","","","","76","L","3","","","159","main_expt",""
"","bandit","239","811845","0.0-200.0-0.0","49343852","wem/bandit_either_3","A1VSHM4NLZ705D","either","1","753","","","","","","","0","0","1","","0.6480894682","0.6","0.8","0.4","0.2","0.6917664031","0.4600517474","0.2801697818","0.6480894682","","","","","","","","","","","","76","L","3","","","160","main_expt",""
"","bandit","240","813925","0.0-201.0-0.0","49343852","wem/bandit_either_3","A1VSHM4NLZ705D","either","1","374","","","","","","","0","0","1","0.6776161973","","0.6","0.8","0.4","0.2","","","","","0.7106531984","0.481388234","0.2437938608","0.6776161973","","","","","","","","76","L","3","","","161","main_expt",""
"","bandit","241","815942","0.0-202.0-0.0","49343852","wem/bandit_either_3","A1VSHM4NLZ705D","either","1","468","","","","","","","0","1","0","","0.7134031715","0.6","0.8","0.4","0.2","0.809310282","0.3850106192","0.2687553501","0.7134031715","","","","","","","","","","","","76","L","3","","","162","main_expt",""
"","bandit","242","818399","0.0-203.0-0.0","49343852","wem/bandit_either_3","A1VSHM4NLZ705D","either","1","895","","","","","","","0","1","0","","0.6215635068","0.6","0.8","0.4","0.2","0.7492875705","0.3498723973","0.245991677","0.6215635068","","","","","","","","","","","","76","L","3","","","163","main_expt",""
"","bandit","243","820634","0.0-204.0-0.0","49343852","wem/bandit_either_3","A1VSHM4NLZ705D","either","1","695","","","","","","","0","0","1","","0.5219240024","0.6","0.8","0.4","0.2","0.7561394707","0.4287417444","0.270385563","0.5219240024","","","","","","","","","","","","76","L","3","","","164","main_expt",""
"","bandit","244","823210","0.0-205.0-0.0","49343852","wem/bandit_either_3","A1VSHM4NLZ705D","either","1","1051","","","","","","","0","0","1","","0.8111415702","0.6","0.8","0.4","0.2","0.8111415702","0.3150145745","0.3037855967","0.4727302842","","","","","","","","","","","","72","H","0","img/none_selected.jpg","","165","main_expt",""
"","bandit","245","825075","0.0-206.0-0.0","49343852","wem/bandit_either_3","A1VSHM4NLZ705D","either","1","348","","","","","","","0","0","1","0.2927018344","","0.6","0.8","0.4","0.2","","","","","0.7759938205","0.2927018344","0.3395577104","0.5181018645","","","","","","","","74","J","1","","","166","main_expt",""
"","bandit","246","827018","0.0-207.0-0.0","49343852","wem/bandit_either_3","A1VSHM4NLZ705D","either","1","425","","","","","","","0","0","1","","0.3443901906","0.6","0.8","0.4","0.2","0.8267633335","0.3610256338","0.3443901906","0.5280433419","","","","","","","","","","","","75","K","2","","","167","main_expt",""
"","bandit","247","829067","0.0-208.0-0.0","49343852","wem/bandit_either_3","A1VSHM4NLZ705D","either","1","534","","","","","","","1","0","0","0.5470010145","","0.6","0.8","0.4","0.2","","","","","0.8136073627","0.3137127159","0.2552323567","0.5470010145","","","","","","","","76","L","3","","","168","main_expt",""
"","bandit","248","830801","0.0-209.0-0.0","49343852","wem/bandit_either_3","A1VSHM4NLZ705D","either","1","219","","","","","","","1","0","0","0.5558845962","","0.6","0.8","0.4","0.2","","","","","0.7308533614","0.2292796242","0.289352286","0.5558845962","","","","","","","","76","L","3","","","169","main_expt",""
"","bandit","249","832674","0.0-210.0-0.0","49343852","wem/bandit_either_3","A1VSHM4NLZ705D","either","1","330","","","","","","","0","1","0","","0.5799309324","0.6","0.8","0.4","0.2","0.7090730391","0.221948569","0.2262743404","0.5799309324","","","","","","","","","","","","76","L","3","","","170","main_expt",""
"","bandit","250","834588","0.0-211.0-0.0","49343852","wem/bandit_either_3","A1VSHM4NLZ705D","either","1","317","","","","","","","0","1","0","","0.6643953266","0.6","0.8","0.4","0.2","0.7229684446","0.159615594","0.2644351609","0.6643953266","","","","","","","","","","","","76","L","3","","","171","main_expt",""
"","bandit","251","836470","0.0-212.0-0.0","49343852","wem/bandit_either_3","A1VSHM4NLZ705D","either","1","339","","","","","","","0","1","0","","0.7610666705","0.6","0.8","0.4","0.2","0.6612043244","0.1303854457","0.4136296373","0.7610666705","","","","","","","","","","","","76","L","3","","","172","main_expt",""
"","bandit","252","838380","0.0-213.0-0.0","49343852","wem/bandit_either_3","A1VSHM4NLZ705D","either","1","324","","","","","","","1","0","0","0.8006149786","","0.6","0.8","0.4","0.2","","","","","0.7669021743","0.07729024622","0.491318492","0.8006149786","","","","","","","","76","L","3","","","173","main_expt",""
"","bandit","253","840244","0.0-214.0-0.0","49343852","wem/bandit_either_3","A1VSHM4NLZ705D","either","1","326","","","","","","","0","0","1","","0.791095403","0.6","0.8","0.4","0.2","0.8111867287","0.1227026474","0.4966763124","0.791095403","","","","","","","","","","","","76","L","3","","","174","main_expt",""
"","bandit","254","842380","0.0-215.0-0.0","49343852","wem/bandit_either_3","A1VSHM4NLZ705D","either","1","609","","","","","","","0","1","0","","0.8572088762","0.6","0.8","0.4","0.2","0.8192498968","0.09483306355","0.5109350621","0.8572088762","","","","","","","","","","","","76","L","3","","","175","main_expt",""
"","bandit","255","844918","0.0-216.0-0.0","49343852","wem/bandit_either_3","A1VSHM4NLZ705D","either","1","956","","","","","","","0","1","0","","0.8576080684","0.6","0.8","0.4","0.2","0.8371283275","0.143069758","0.6321295754","0.8576080684","","","","","","","","","","","","76","L","3","","","176","main_expt",""
"","bandit","256","847047","0.0-217.0-0.0","49343852","wem/bandit_either_3","A1VSHM4NLZ705D","either","1","584","","","","","","","0","0","1","0.8678158231","","0.6","0.8","0.4","0.2","","","","","0.8545140947","0.1741656422","0.5515755996","0.8678158231","","","","","","","","76","L","3","","","177","main_expt",""
"","bandit","257","849371","0.0-218.0-0.0","49343852","wem/bandit_either_3","A1VSHM4NLZ705D","either","1","745","","","","","","","0","1","0","","0.8820542777","0.6","0.8","0.4","0.2","0.8794893657","0.1904086474","0.5086275016","0.8820542777","","","","","","","","","","","","76","L","3","","","178","main_expt",""
"","bandit","258","852084","0.0-219.0-0.0","49343852","wem/bandit_either_3","A1VSHM4NLZ705D","either","1","1059","","","","","","","0","1","0","","0.8907334788","0.6","0.8","0.4","0.2","0.8939587296","0.1778905233","0.5215192908","0.8907334788","","","","","","","","","","","","76","L","3","","","179","main_expt",""
"","bandit","259","854220","0.0-220.0-0.0","49343852","wem/bandit_either_3","A1VSHM4NLZ705D","either","1","602","","","","","","","0","1","0","","0.9161653667","0.6","0.8","0.4","0.2","0.868077767","0.2112817454","0.5193414217","0.9161653667","","","","","","","","","","","","76","L","3","","","180","main_expt",""
"","bandit","260","856756","0.0-221.0-0.0","49343852","wem/bandit_either_3","A1VSHM4NLZ705D","either","1","977","","","","","","","0","0","1","0.9327112184","","0.6","0.8","0.4","0.2","","","","","0.9295405476","0.2236312472","0.4613460131","0.9327112184","","","","","","","","76","L","3","","","181","main_expt",""
"","bandit","261","859296","0.0-222.0-0.0","49343852","wem/bandit_either_3","A1VSHM4NLZ705D","either","1","1011","","","","","","","0","1","0","","0.9284398706","0.6","0.8","0.4","0.2","0.9213574857","0.264467441","0.4468633868","0.9284398706","","","","","","","","","","","","76","L","3","","","182","main_expt",""
"","bandit","262","862198","0.0-223.0-0.0","49343852","wem/bandit_either_3","A1VSHM4NLZ705D","either","1","1353","","","","","","","0","1","0","","0.89591471","0.6","0.8","0.4","0.2","0.9374560388","0.2240632979","0.4985091709","0.89591471","","","","","","","","","","","","76","L","3","","","183","main_expt",""
"","bandit","263","864406","0.0-224.0-0.0","49343852","wem/bandit_either_3","A1VSHM4NLZ705D","either","1","676","","","","","","","0","1","0","","0.9146434193","0.6","0.8","0.4","0.2","0.9120054929","0.1671404848","0.6057575335","0.9146434193","","","","","","","","","","","","76","L","3","","","184","main_expt",""
"","bandit","264","866632","0.0-225.0-0.0","49343852","wem/bandit_either_3","A1VSHM4NLZ705D","either","1","691","","","","","","","0","0","1","0.8575823977","","0.6","0.8","0.4","0.2","","","","","0.8428471033","0.1932257563","0.4915456485","0.8575823977","","","","","","","","76","L","3","","","185","main_expt",""
"","bandit","265","869469","0.0-226.0-0.0","49343852","wem/bandit_either_3","A1VSHM4NLZ705D","either","1","1293","","","","","","","0","0","1","0.7734335662","","0.6","0.8","0.4","0.2","","","","","0.7734335662","0.155472597","0.5976273718","0.8487952361","","","","","","","","72","H","0","img/none_selected.jpg","","186","main_expt",""
"","bandit","266","871241","0.0-227.0-0.0","49343852","wem/bandit_either_3","A1VSHM4NLZ705D","either","1","239","","","","","","","0","0","1","0.1895871356","","0.6","0.8","0.4","0.2","","","","","0.7667319261","0.1895871356","0.5743595779","0.8603972339","","","","","","","","74","J","1","","","187","main_expt",""
"","bandit","267","873040","0.0-228.0-0.0","49343852","wem/bandit_either_3","A1VSHM4NLZ705D","either","1","265","","","","","","","1","0","0","0.6833173747","","0.6","0.8","0.4","0.2","","","","","0.5945875292","0.2119556673","0.6833173747","0.8834510925","","","","","","","","75","K","2","","","188","main_expt",""
"","bandit","268","874998","0.0-229.0-0.0","49343852","wem/bandit_either_3","A1VSHM4NLZ705D","either","1","390","","","","","","","0","0","1","","0.651089354","0.6","0.8","0.4","0.2","0.7406569186","0.2255007403","0.651089354","0.8973947779","","","","","","","","","","","","75","K","2","","","189","main_expt",""
"","bandit","269","876862","0.0-230.0-0.0","49343852","wem/bandit_either_3","A1VSHM4NLZ705D","either","1","337","","","","","","","0","1","0","","0.6599652607","0.6","0.8","0.4","0.2","0.7371931777","0.1754842532","0.6599652607","0.8824587855","","","","","","","","","","","","75","K","2","","","190","main_expt",""
"","bandit","270","878984","0.0-231.0-0.0","49343852","wem/bandit_either_3","A1VSHM4NLZ705D","either","1","522","","","","","","","1","0","0","0.6960236584","","0.6","0.8","0.4","0.2","","","","","0.7019705866","0.1936311571","0.6960236584","0.9076431997","","","","","","","","75","K","2","","","191","main_expt",""
"","bandit","271","880904","0.0-232.0-0.0","49343852","wem/bandit_either_3","A1VSHM4NLZ705D","either","1","373","","","","","","","1","0","0","0.6713911156","","0.6","0.8","0.4","0.2","","","","","0.6198122665","0.215612591","0.6713911156","0.8673165995","","","","","","","","75","K","2","","","192","main_expt",""
"","bandit","272","882982","0.0-233.0-0.0","49343852","wem/bandit_either_3","A1VSHM4NLZ705D","either","1","544","","","","","","","0","0","1","","0.7244072205","0.6","0.8","0.4","0.2","0.6100930929","0.2818734505","0.7244072205","0.8264401474","","","","","","","","","","","","75","K","2","","","193","main_expt",""
"","bandit","273","885493","0.0-234.0-0.0","49343852","wem/bandit_either_3","A1VSHM4NLZ705D","either","1","664","","","","","","","0","1","0","","0.7397798508","0.6","0.8","0.4","0.2","0.6332739585","0.3616108755","0.7397798508","0.8546086414","","","","","","","","","","","","75","K","2","","","194","main_expt",""
"","bandit","274","889400","0.0-235.0-0.0","49343852","wem/bandit_either_3","A1VSHM4NLZ705D","either","1","2274","","","","","","","0","1","0","","0.7602069811","0.6","0.8","0.4","0.2","0.609207161","0.3979961615","0.7602069811","0.7914914872","","","","","","","","","","","","75","K","2","","","195","main_expt",""
"","bandit","275","891793","0.0-236.0-0.0","49343852","wem/bandit_either_3","A1VSHM4NLZ705D","either","1","849","","","","","","","0","0","1","0.7114092524","","0.6","0.8","0.4","0.2","","","","","0.6560649547","0.4366641927","0.7114092524","0.7608346536","","","","","","","","75","K","2","","","196","main_expt",""
"","bandit","276","893717","0.0-237.0-0.0","49343852","wem/bandit_either_3","A1VSHM4NLZ705D","either","1","394","","","","","","","1","0","0","0.6917424169","","0.6","0.8","0.4","0.2","","","","","0.6656533059","0.560782874","0.6917424169","0.7003784325","","","","","","","","75","K","2","","","197","main_expt",""
"","bandit","277","896493","0.0-238.0-0.0","49343852","wem/bandit_either_3","A1VSHM4NLZ705D","either","1","1251","","","","","","","0","1","0","","0.6561069913","0.6","0.8","0.4","0.2","0.6841747727","0.5649388288","0.6561069913","0.6036075577","","","","","","","","","","","","75","K","2","","","198","main_expt",""
"","bandit","278","899276","0.0-239.0-0.0","49343852","wem/bandit_either_3","A1VSHM4NLZ705D","either","1","1247","","","","","","","0","0","1","0.6948346643","","0.6","0.8","0.4","0.2","","","","","0.7105065455","0.5375892324","0.6948346643","0.5843314555","","","","","","","","75","K","2","","","199","main_expt",""
"","bandit","279","901243","0.0-240.0-0.0","49343852","wem/bandit_either_3","A1VSHM4NLZ705D","either","1","442","","","","","","","0","1","0","","0.7369743936","0.6","0.8","0.4","0.2","0.7380433654","0.5625167851","0.7369743936","0.539414212","","","","","","","","","","","","75","K","2","","","200","main_expt",""
"","bandit","280","903105","0.0-241.0-0.0","49343852","wem/bandit_either_3","A1VSHM4NLZ705D","either","1","332","","","","","","","1","0","0","0.8347268415","","0.6","0.8","0.4","0.2","","","","","0.6432951689","0.6266810217","0.8347268415","0.3774065742","","","","","","","","75","K","2","","","201","main_expt",""
"","bandit","281","905045","0.0-242.0-0.0","49343852","wem/bandit_either_3","A1VSHM4NLZ705D","either","1","368","","","","","","","1","0","0","0.7612264534","","0.6","0.8","0.4","0.2","","","","","0.4995879772","0.6661075828","0.7612264534","0.2824615609","","","","","","","","75","K","2","","","202","main_expt",""
"","bandit","282","907014","0.0-243.0-0.0","49343852","wem/bandit_either_3","A1VSHM4NLZ705D","either","1","396","","","","","","","0","1","0","","0.6904596671","0.6","0.8","0.4","0.2","0.4767352753","0.7534099026","0.6904596671","0.210170224","","","","","","","","","","","","75","K","2","","","203","main_expt",""
"","bandit","283","908885","0.0-244.0-0.0","49343852","wem/bandit_either_3","A1VSHM4NLZ705D","either","1","335","","","","","","","0","0","1","","0.6855485072","0.6","0.8","0.4","0.2","0.3680612217","0.7033522103","0.6855485072","0.2708138581","","","","","","","","","","","","75","K","2","","","204","main_expt",""
"","bandit","284","912069","0.0-245.0-0.0","49343852","wem/bandit_either_3","A1VSHM4NLZ705D","either","1","1644","","","","","","","0","0","1","","0.3319820794","0.6","0.8","0.4","0.2","0.3404512965","0.6105989365","0.7006332368","0.3319820794","","","","","","","","","","","","76","L","3","","","205","main_expt",""
"","bandit","285","913991","0.0-246.0-0.0","49343852","wem/bandit_either_3","A1VSHM4NLZ705D","either","1","368","","","","","","","1","0","0","0.7533130943","","0.6","0.8","0.4","0.2","","","","","0.2774568564","0.725137222","0.7533130943","0.3517339603","","","","","","","","75","K","2","","","206","main_expt",""
"","bandit","286","915876","0.0-247.0-0.0","49343852","wem/bandit_either_3","A1VSHM4NLZ705D","either","1","358","","","","","","","0","0","1","","0.7191760557","0.6","0.8","0.4","0.2","0.2228883469","0.5888984072","0.7191760557","0.2871079035","","","","","","","","","","","","75","K","2","","","207","main_expt",""
"","bandit","287","917741","0.0-248.0-0.0","49343852","wem/bandit_either_3","A1VSHM4NLZ705D","either","1","338","","","","","","","0","0","1","","0.6264293856","0.6","0.8","0.4","0.2","0.2829247412","0.4650323514","0.6264293856","0.2642306377","","","","","","","","","","","","75","K","2","","","208","main_expt",""
"","bandit","288","919643","0.0-249.0-0.0","49343852","wem/bandit_either_3","A1VSHM4NLZ705D","either","1","364","","","","","","","0","1","0","","0.6500478562","0.6","0.8","0.4","0.2","0.3169104167","0.4100719568","0.6500478562","0.3587725811","","","","","","","","","","","","75","K","2","","","209","main_expt",""
"","bandit","289","921892","0.0-250.0-0.0","49343852","wem/bandit_either_3","A1VSHM4NLZ705D","either","1","702","","","","","","","0","0","1","0.6498865343","","0.6","0.8","0.4","0.2","","","","","0.2090062306","0.5177296744","0.6498865343","0.3103342645","","","","","","","","75","K","2","","","210","main_expt",""
"","bandit","290","924634","0.0-251.0-0.0","49343852","wem/bandit_either_3","A1VSHM4NLZ705D","either","1","1201","","","","","","","0","1","0","","0.5950812693","0.6","0.8","0.4","0.2","0.1481662818","0.5950812693","0.6056301442","0.3760595068","","","","","","","","","","","","74","J","1","","","211","main_expt",""
"","bandit","291","926889","0.0-252.0-0.0","49343852","wem/bandit_either_3","A1VSHM4NLZ705D","either","1","667","","","","","","","1","0","0","0.7169745983","","0.6","0.8","0.4","0.2","","","","","0.2114888193","0.7169745983","0.5524844402","0.447023013","","","","","","","","74","J","1","","","212","main_expt",""
"","bandit","292","928955","0.0-253.0-0.0","49343852","wem/bandit_either_3","A1VSHM4NLZ705D","either","1","483","","","","","","","0","0","1","","0.6766124197","0.6","0.8","0.4","0.2","0.2234642754","0.6766124197","0.6984249358","0.4529182837","","","","","","","","","","","","74","J","1","","","213","main_expt",""
"","bandit","293","931398","0.0-254.0-0.0","49343852","wem/bandit_either_3","A1VSHM4NLZ705D","either","1","907","","","","","","","0","0","1","","0.2315139555","0.6","0.8","0.4","0.2","0.2315139555","0.8005648136","0.5996975418","0.4306534983","","","","","","","","","","","","72","H","0","img/none_selected.jpg","","214","main_expt",""
"","bandit","294","933705","0.0-255.0-0.0","49343852","wem/bandit_either_3","A1VSHM4NLZ705D","either","1","602","","","","","","","0","0","1","0.1949488974","","0.6","0.8","0.4","0.2","","","","","0.1949488974","0.8487964291","0.6067129047","0.4314469479","","","","","","","","72","H","0","img/none_selected.jpg","","215","main_expt",""
"","bandit","295","936465","0.0-256.0-0.0","49343852","wem/bandit_either_3","A1VSHM4NLZ705D","either","1","1204","","","","","","","1","0","0","0.8674123454","","0.6","0.8","0.4","0.2","","","","","0.2333303883","0.8674123454","0.6297976658","0.45439575","","","","","","","","74","J","1","","","216","main_expt",""
"","bandit","296","939054","0.0-257.0-0.0","49343852","wem/bandit_either_3","A1VSHM4NLZ705D","either","1","1062","","","","","","","1","0","0","0.8774404243","","0.6","0.8","0.4","0.2","","","","","0.2027763819","0.8774404243","0.6095272491","0.5228861726","","","","","","","","74","J","1","","","217","main_expt",""
"","bandit","297","941034","0.0-258.0-0.0","49343852","wem/bandit_either_3","A1VSHM4NLZ705D","either","1","450","","","","","","","1","0","0","0.8836448068","","0.6","0.8","0.4","0.2","","","","","0.1895874514","0.8836448068","0.7058099393","0.463703458","","","","","","","","74","J","1","","","218","main_expt",""
"","bandit","298","942872","0.0-259.0-0.0","49343852","wem/bandit_either_3","A1VSHM4NLZ705D","either","1","310","","","","","","","0","1","0","","0.880498508","0.6","0.8","0.4","0.2","0.1537120117","0.880498508","0.7396246451","0.4522864467","","","","","","","","","","","","74","J","1","","","219","main_expt",""
"","bandit","299","944894","0.0-260.0-0.0","49343852","wem/bandit_either_3","A1VSHM4NLZ705D","either","1","470","","","","","","","1","0","0","0.8740874997","","0.6","0.8","0.4","0.2","","","","","0.2022747423","0.8740874997","0.7091968036","0.4561576612","","","","","","","","74","J","1","","","220","main_expt",""
"","bandit","300","946764","0.0-261.0-0.0","49343852","wem/bandit_either_3","A1VSHM4NLZ705D","either","1","350","","","","","","","0","0","1","0.8527830905","","0.6","0.8","0.4","0.2","","","","","0.3174413427","0.8527830905","0.7116308873","0.4264657168","","","","","","","","74","J","1","","","221","main_expt",""
"","bandit","301","949098","0.0-262.0-0.0","49343852","wem/bandit_either_3","A1VSHM4NLZ705D","either","1","717","","","","","","","1","0","0","0.7717907476","","0.6","0.8","0.4","0.2","","","","","0.2315667073","0.7717907476","0.769465391","0.3055141729","","","","","","","","74","J","1","","","222","main_expt",""
"","bandit","302","951044","0.0-263.0-0.0","49343852","wem/bandit_either_3","A1VSHM4NLZ705D","either","1","415","","","","","","","1","0","0","0.8359700354","","0.6","0.8","0.4","0.2","","","","","0.2261006122","0.8359700354","0.7509006974","0.2868954791","","","","","","","","74","J","1","","","223","main_expt",""
"","bandit","303","952870","0.0-264.0-0.0","49343852","wem/bandit_either_3","A1VSHM4NLZ705D","either","1","300","","","","","","","1","0","0","0.819670806","","0.6","0.8","0.4","0.2","","","","","0.2662378096","0.819670806","0.7007688409","0.2698185242","","","","","","","","74","J","1","","","224","main_expt",""
"","bandit","304","954757","0.0-265.0-0.0","49343852","wem/bandit_either_3","A1VSHM4NLZ705D","either","1","359","","","","","","","1","0","0","0.8512382749","","0.6","0.8","0.4","0.2","","","","","0.2163280173","0.8512382749","0.7409020096","0.213842325","","","","","","","","74","J","1","","","225","main_expt",""
"","bandit","305","956778","0.0-266.0-0.0","49343852","wem/bandit_either_3","A1VSHM4NLZ705D","either","1","497","","","","","","","0","0","1","0.8342861847","","0.6","0.8","0.4","0.2","","","","","0.2809353625","0.8342861847","0.7052945704","0.1616408491","","","","","","","","74","J","1","","","226","main_expt",""
"","bandit","306","958708","0.0-267.0-0.0","49343852","wem/bandit_either_3","A1VSHM4NLZ705D","either","1","400","","","","","","","0","1","0","","0.7736041865","0.6","0.8","0.4","0.2","0.2396571279","0.7736041865","0.606091252","0.1777599287","","","","","","","","","","","","74","J","1","","","227","main_expt",""
"","bandit","307","961716","0.0-268.0-0.0","49343852","wem/bandit_either_3","A1VSHM4NLZ705D","either","1","603","","","","","","","0","0","1","0.8094350608","","0.6","0.8","0.4","0.2","","","","","0.3430446928","0.8094350608","0.5834203199","0.2866543064","","","","","","","","74","J","1","","","228","main_expt",""
"","bandit","308","963982","0.0-269.0-0.0","49343852","wem/bandit_either_3","A1VSHM4NLZ705D","either","1","721","","","","","","","1","0","0","0.8078722129","","0.6","0.8","0.4","0.2","","","","","0.2886233194","0.8078722129","0.5466214007","0.3948293382","","","","","","","","74","J","1","","","229","main_expt",""
"","bandit","309","966085","0.0-270.0-0.0","49343852","wem/bandit_either_3","A1VSHM4NLZ705D","either","1","538","","","","","","","0","0","1","0.7719043616","","0.6","0.8","0.4","0.2","","","","","0.3213731463","0.7719043616","0.5519014059","0.3291786684","","","","","","","","74","J","1","","","230","main_expt",""
"","bandit","310","968018","0.0-271.0-0.0","49343852","wem/bandit_either_3","A1VSHM4NLZ705D","either","1","390","","","","","","","1","0","0","0.8049264475","","0.6","0.8","0.4","0.2","","","","","0.2771614906","0.8049264475","0.4527164215","0.2378236032","","","","","","","","74","J","1","","","231","main_expt",""
"","bandit","311","970144","0.0-272.0-0.0","49343852","wem/bandit_either_3","A1VSHM4NLZ705D","either","1","554","","","","","","","1","0","0","0.8850589997","","0.6","0.8","0.4","0.2","","","","","0.2249105956","0.8850589997","0.5135082398","0.246393804","","","","","","","","74","J","1","","","232","main_expt",""
"","bandit","312","972267","0.0-273.0-0.0","49343852","wem/bandit_either_3","A1VSHM4NLZ705D","either","1","530","","","","","","","1","0","0","0.9183615156","","0.6","0.8","0.4","0.2","","","","","0.2447973041","0.9183615156","0.5502454751","0.2141634692","","","","","","","","74","J","1","","","233","main_expt",""
"","bandit","313","974792","0.0-274.0-0.0","49343852","wem/bandit_either_3","A1VSHM4NLZ705D","either","1","963","","","","","","","1","0","0","0.9639410842","","0.6","0.8","0.4","0.2","","","","","0.24601643","0.9639410842","0.3783923662","0.2876436191","","","","","","","","74","J","1","","","234","main_expt",""
"","bandit","314","976768","0.0-275.0-0.0","49343852","wem/bandit_either_3","A1VSHM4NLZ705D","either","1","447","","","","","","","1","0","0","0.9697187448","","0.6","0.8","0.4","0.2","","","","","0.1629844561","0.9697187448","0.2814299379","0.2769077257","","","","","","","","74","J","1","","","235","main_expt",""
"","bandit","315","978429","0.0-276.0-0.0","49343852","wem/bandit_either_3","A1VSHM4NLZ705D","either","1","111","","","","","","","1","0","0","0.9571573523","","0.6","0.8","0.4","0.2","","","","","0.1929455839","0.9571573523","0.3106100538","0.136865198","","","","","","","","74","J","1","","","236","main_expt",""
"","bandit","316","980643","0.0-277.0-0.0","49343852","wem/bandit_either_3","A1VSHM4NLZ705D","either","1","476","","","","","","","1","0","0","0.9170696074","","0.6","0.8","0.4","0.2","","","","","0.1497712966","0.9170696074","0.3152445528","0.1123790732","","","","","","","","74","J","1","","","237","main_expt",""
"","bandit","317","984345","0.0-278.0-0.0","49343852","wem/bandit_either_3","A1VSHM4NLZ705D","either","1","2170","","","","","","","1","0","0","0.9207491077","","0.6","0.8","0.4","0.2","","","","","0.1526491196","0.9207491077","0.2637175197","0.09027024906","","","","","","","","74","J","1","","","238","main_expt",""
"","bandit","318","987941","0.0-279.0-0.0","49343852","wem/bandit_either_3","A1VSHM4NLZ705D","either","1","2013","","","","","","","0","1","0","","0.9211301165","0.6","0.8","0.4","0.2","0.1745924244","0.9211301165","0.1889878372","0.08323179304","","","","","","","","","","","","74","J","1","","","239","main_expt",""
"","bandit","319","990070","0.0-280.0-0.0","49343852","wem/bandit_either_3","A1VSHM4NLZ705D","either","1","547","","","","","","","0","1","0","","0.8992774771","0.6","0.8","0.4","0.2","0.1159399908","0.8992774771","0.1710885746","0.08130265934","","","","","","","","","","","","74","J","1","","","240","main_expt",""
"","bandit","320","992431","0.0-281.0-0.0","49343852","wem/bandit_either_3","A1VSHM4NLZ705D","either","1","751","","","","","","","1","0","0","0.8977441673","","0.6","0.8","0.4","0.2","","","","","0.1682101231","0.8977441673","0.1232632504","0.1424736114","","","","","","","","74","J","1","","","241","main_expt",""
"","bandit","321","995169","0.0-282.0-0.0","49343852","wem/bandit_either_3","A1VSHM4NLZ705D","either","1","1208","","","","","","","1","0","0","0.853076495","","0.6","0.8","0.4","0.2","","","","","0.1643169396","0.853076495","0.210295675","0.2433221762","","","","","","","","74","J","1","","","242","main_expt",""
"","bandit","322","997941","0.0-283.0-0.0","49343852","wem/bandit_either_3","A1VSHM4NLZ705D","either","1","1198","","","","","","","0","1","0","","0.8942427246","0.6","0.8","0.4","0.2","0.1355776028","0.8942427246","0.289349801","0.3185073654","","","","","","","","","","","","74","J","1","","","243","main_expt",""
"","bandit","323","1000817","0.0-284.0-0.0","49343852","wem/bandit_either_3","A1VSHM4NLZ705D","either","1","1336","","","","","","","1","0","0","0.8701402288","","0.6","0.8","0.4","0.2","","","","","0.1311829495","0.8701402288","0.4071614743","0.3533170098","","","","","","","","74","J","1","","","244","main_expt",""
