"consent","trial_type","trial_index","time_elapsed","internal_node_id","subjID","study","MID","cond","drift","rt","responses","key_press","expt_phase","like","value","connected","gems","bombs","no_reward","GemPrChosen","BombPrChosen","GainOverPainPr_0","GainOverPainPr_1","GainOverPainPr_2","GainOverPainPr_3","LosePr_0","LosePr_1","LosePr_2","LosePr_3","WinPr_0","WinPr_1","WinPr_2","WinPr_3","Q0","Q1","Q2","gender","age","ethnicity","target","respCharCode","respKey","respChoiceNum","respChoice","practice","trial_counter","trial_label","button_pressed"
"INL_behavioral_consent_30min_online.html","consent","0","22754","0.0-0.0","49380017","wem/bandit_either_3","AMN2BRHBYE4G1","either","8","","","","","","","","","","","","","","","","","","","","","","","","","","","","","","","","","","","","","","",""
"","survey-text","1","34328","0.0-1.0","49380017","wem/bandit_either_3","AMN2BRHBYE4G1","either","8","10555","{""Q0"":""AMN2BRHBYE4G1""}","","","","","","","","","","","","","","","","","","","","","","","","","","","","","","","","","","","","",""
"","text","2","50130","0.0-2.0","49380017","wem/bandit_either_3","AMN2BRHBYE4G1","either","8","14797","","32","","","","","","","","","","","","","","","","","","","","","","","","","","","","","","","","","","","",""
"","text","3","68275","0.0-3.0","49380017","wem/bandit_either_3","AMN2BRHBYE4G1","either","8","18142","","32","","","","","","","","","","","","","","","","","","","","","","","","","","","","","","","","","","","",""
"","text","4","123136","0.0-4.0","49380017","wem/bandit_either_3","AMN2BRHBYE4G1","either","8","54859","","32","","","","","","","","","","","","","","","","","","","","","","","","","","","","","","","","","","","",""
"","text","5","142145","0.0-5.0","49380017","wem/bandit_either_3","AMN2BRHBYE4G1","either","8","19007","","32","","","","","","","","","","","","","","","","","","","","","","","","","","","","","","","","","","","",""
"","text","6","185801","0.0-6.0","49380017","wem/bandit_either_3","AMN2BRHBYE4G1","either","8","43652","","32","","","","","","","","","","","","","","","","","","","","","","","","","","","","","","","","","","","",""
"","text","7","211598","0.0-7.0","49380017","wem/bandit_either_3","AMN2BRHBYE4G1","either","8","25795","","32","","","","","","","","","","","","","","","","","","","","","","","","","","","","","","","","","","","",""
"","text","8","218958","0.0-8.0","49380017","wem/bandit_either_3","AMN2BRHBYE4G1","either","8","7358","","32","","","","","","","","","","","","","","","","","","","","","","","","","","","","","","","","","","","",""
"","identification","9","257987","0.0-9.0-0.0","49380017","wem/bandit_either_3","AMN2BRHBYE4G1","either","8","38983","","","","4","4","4","","","","","","","","","","","","","","","","","","","","","","","","the village of Zur","","","","","","","",""
"","identification","10","267989","0.0-9.0-1.0","49380017","wem/bandit_either_3","AMN2BRHBYE4G1","either","8","8969","","","","4","4","4","","","","","","","","","","","","","","","","","","","","","","","","the village of Nyx","","","","","","","",""
"","text","11","279282","0.0-10.0","49380017","wem/bandit_either_3","AMN2BRHBYE4G1","either","8","10290","","32","","","","","","","","","","","","","","","","","","","","","","","","","","","","","","","","","","","",""
"","text","12","282783","0.0-11.0","49380017","wem/bandit_either_3","AMN2BRHBYE4G1","either","8","3495","","32","","","","","","","","","","","","","","","","","","","","","","","","","","","","","","","","","","","",""
"","text","13","290428","0.0-12.0","49380017","wem/bandit_either_3","AMN2BRHBYE4G1","either","8","7642","","32","","","","","","","","","","","","","","","","","","","","","","","","","","","","","","","","","","","",""
"","text","14","298823","0.0-13.0","49380017","wem/bandit_either_3","AMN2BRHBYE4G1","either","8","8393","","32","","","","","","","","","","","","","","","","","","","","","","","","","","","","","","","","","","","",""
"","bandit","15","306604","0.0-14.0-0.0","49380017","wem/bandit_either_3","AMN2BRHBYE4G1","either","8","6263","","","","","","","0","0","1","0","0","","","","","0","","","","0","","","","","","","","","","","74","J","0","img/none_selected_demo.jpg","true","0","",""
"","bandit","16","309029","0.0-15.0-0.0","49380017","wem/bandit_either_3","AMN2BRHBYE4G1","either","8","915","","","","","","","0","0","1","0","0","","","","","0","","","","0","","","","","","","","","","","75","K","0","img/none_selected_demo.jpg","true","0","",""
"","text","17","322047","0.0-16.0","49380017","wem/bandit_either_3","AMN2BRHBYE4G1","either","8","13015","","32","","","","","","","","","","","","","","","","","","","","","","","","","","","","","","","","","","","",""
"","text","18","367707","0.0-17.0","49380017","wem/bandit_either_3","AMN2BRHBYE4G1","either","8","45657","","32","","","","","","","","","","","","","","","","","","","","","","","","","","","","","","","","","","","",""
"","text","19","387647","0.0-18.0","49380017","wem/bandit_either_3","AMN2BRHBYE4G1","either","8","19937","","32","","","","","","","","","","","","","","","","","","","","","","","","","","","","","","","","","","","",""
"","text","20","395726","0.0-19.0","49380017","wem/bandit_either_3","AMN2BRHBYE4G1","either","8","8076","","32","","","","","","","","","","","","","","","","","","","","","","","","","","","","","","","","","","","",""
"","bandit","21","400602","0.0-20.0-0.0","49380017","wem/bandit_either_3","AMN2BRHBYE4G1","either","8","3366","","","","","","","1","0","0","0.8","","0.5","0.5","","","","","","","0.8","0.2","","","","","","","","","","74","J","0","img/none_selected_demo.jpg","true","0","80_20_practice",""
"","bandit","22","403439","0.0-20.0-1.0","49380017","wem/bandit_either_3","AMN2BRHBYE4G1","either","8","1325","","","","","","","0","0","1","0.2","","0.5","0.5","","","","","","","0.8","0.2","","","","","","","","","","75","K","1","","true","0","80_20_practice",""
"","bandit","23","408237","0.0-20.0-2.0","49380017","wem/bandit_either_3","AMN2BRHBYE4G1","either","8","3289","","","","","","","0","0","1","0.8","","0.5","0.5","","","","","","","0.8","0.2","","","","","","","","","","74","J","0","img/none_selected_demo.jpg","true","0","80_20_practice",""
"","bandit","24","410786","0.0-20.0-3.0","49380017","wem/bandit_either_3","AMN2BRHBYE4G1","either","8","1036","","","","","","","0","0","1","","0.2","0.5","0.5","","","0.8","0.2","","","","","","","","","","","","","","75","K","1","","true","0","80_20_practice",""
"","bandit","25","414190","0.0-20.0-4.0","49380017","wem/bandit_either_3","AMN2BRHBYE4G1","either","8","1892","","","","","","","0","0","1","","0.8","0.5","0.5","","","0.8","0.2","","","","","","","","","","","","","","74","J","0","img/none_selected_demo.jpg","true","0","80_20_practice",""
"","bandit","26","416551","0.0-20.0-5.0","49380017","wem/bandit_either_3","AMN2BRHBYE4G1","either","8","852","","","","","","","0","0","1","0.2","","0.5","0.5","","","","","","","0.8","0.2","","","","","","","","","","75","K","1","","true","0","80_20_practice",""
"","bandit","27","418759","0.0-20.0-6.0","49380017","wem/bandit_either_3","AMN2BRHBYE4G1","either","8","699","","","","","","","0","1","0","","0.8","0.5","0.5","","","0.8","0.2","","","","","","","","","","","","","","74","J","0","img/none_selected_demo.jpg","true","0","80_20_practice",""
"","bandit","28","420889","0.0-20.0-7.0","49380017","wem/bandit_either_3","AMN2BRHBYE4G1","either","8","622","","","","","","","1","0","0","0.8","","0.5","0.5","","","","","","","0.8","0.2","","","","","","","","","","74","J","0","img/none_selected_demo.jpg","true","0","80_20_practice",""
"","bandit","29","423031","0.0-20.0-8.0","49380017","wem/bandit_either_3","AMN2BRHBYE4G1","either","8","629","","","","","","","1","0","0","0.8","","0.5","0.5","","","","","","","0.8","0.2","","","","","","","","","","74","J","0","img/none_selected_demo.jpg","true","0","80_20_practice",""
"","bandit","30","425134","0.0-20.0-9.0","49380017","wem/bandit_either_3","AMN2BRHBYE4G1","either","8","594","","","","","","","1","0","0","0.8","","0.5","0.5","","","","","","","0.8","0.2","","","","","","","","","","74","J","0","img/none_selected_demo.jpg","true","0","80_20_practice",""
"","bandit","31","427260","0.0-20.0-10.0","49380017","wem/bandit_either_3","AMN2BRHBYE4G1","either","8","611","","","","","","","0","0","1","0.8","","0.5","0.5","","","","","","","0.8","0.2","","","","","","","","","","74","J","0","img/none_selected_demo.jpg","true","0","80_20_practice",""
"","bandit","32","429246","0.0-20.0-11.0","49380017","wem/bandit_either_3","AMN2BRHBYE4G1","either","8","468","","","","","","","0","0","1","","0.8","0.5","0.5","","","0.8","0.2","","","","","","","","","","","","","","74","J","0","img/none_selected_demo.jpg","true","0","80_20_practice",""
"","bandit","33","431227","0.0-20.0-12.0","49380017","wem/bandit_either_3","AMN2BRHBYE4G1","either","8","471","","","","","","","0","1","0","","0.8","0.5","0.5","","","0.8","0.2","","","","","","","","","","","","","","74","J","0","img/none_selected_demo.jpg","true","0","80_20_practice",""
"","bandit","34","433285","0.0-20.0-13.0","49380017","wem/bandit_either_3","AMN2BRHBYE4G1","either","8","550","","","","","","","1","0","0","0.8","","0.5","0.5","","","","","","","0.8","0.2","","","","","","","","","","74","J","0","img/none_selected_demo.jpg","true","0","80_20_practice",""
"","bandit","35","436328","0.0-20.0-14.0","49380017","wem/bandit_either_3","AMN2BRHBYE4G1","either","8","1533","","","","","","","0","0","1","0.2","","0.5","0.5","","","","","","","0.8","0.2","","","","","","","","","","75","K","1","","true","0","80_20_practice",""
"","bandit","36","438510","0.0-20.0-15.0","49380017","wem/bandit_either_3","AMN2BRHBYE4G1","either","8","673","","","","","","","0","0","1","0.2","","0.5","0.5","","","","","","","0.8","0.2","","","","","","","","","","75","K","1","","true","0","80_20_practice",""
"","bandit","37","440462","0.0-20.0-16.0","49380017","wem/bandit_either_3","AMN2BRHBYE4G1","either","8","444","","","","","","","0","1","0","","0.2","0.5","0.5","","","0.8","0.2","","","","","","","","","","","","","","75","K","1","","true","0","80_20_practice",""
"","bandit","38","442433","0.0-20.0-17.0","49380017","wem/bandit_either_3","AMN2BRHBYE4G1","either","8","462","","","","","","","0","0","1","","0.2","0.5","0.5","","","0.8","0.2","","","","","","","","","","","","","","75","K","1","","true","0","80_20_practice",""
"","bandit","39","444438","0.0-20.0-18.0","49380017","wem/bandit_either_3","AMN2BRHBYE4G1","either","8","484","","","","","","","0","0","1","","0.2","0.5","0.5","","","0.8","0.2","","","","","","","","","","","","","","75","K","1","","true","0","80_20_practice",""
"","bandit","40","447366","0.0-20.0-19.0","49380017","wem/bandit_either_3","AMN2BRHBYE4G1","either","8","1416","","","","","","","0","0","1","0.8","","0.5","0.5","","","","","","","0.8","0.2","","","","","","","","","","74","J","0","img/none_selected_demo.jpg","true","0","80_20_practice",""
"","text","41","452986","0.0-21.0","49380017","wem/bandit_either_3","AMN2BRHBYE4G1","either","8","5616","","32","","","","","","","","","","","","","","","","","","","","","","","","","","","","","","","","","","","",""
"","bandit","42","456286","0.0-22.0-0.0","49380017","wem/bandit_either_3","AMN2BRHBYE4G1","either","8","1789","","","","","","","1","0","0","1","0","","","","","0","1","","","1","0","","","","","","","","","","74","J","0","img/none_selected_demo.jpg","true","0","",""
"","text","43","463993","0.0-23.0","49380017","wem/bandit_either_3","AMN2BRHBYE4G1","either","8","7702","","32","","","","","","","","","","","","","","","","","","","","","","","","","","","","","","","","","","","",""
"","text","44","468943","0.0-24.0","49380017","wem/bandit_either_3","AMN2BRHBYE4G1","either","8","4944","","32","","","","","","","","","","","","","","","","","","","","","","","","","","","","","","","","","","","",""
"","text","45","472222","0.0-25.0","49380017","wem/bandit_either_3","AMN2BRHBYE4G1","either","8","3276","","32","","","","","","","","","","","","","","","","","","","","","","","","","","","","","","","","","","","",""
"","text","46","479649","0.0-26.0","49380017","wem/bandit_either_3","AMN2BRHBYE4G1","either","8","7423","","32","","","","","","","","","","","","","","","","","","","","","","","","","","","","","","","","","","","",""
"","text","47","497289","0.0-27.0","49380017","wem/bandit_either_3","AMN2BRHBYE4G1","either","8","17635","","32","","","","","","","","","","","","","","","","","","","","","","","","","","","","","","","","","","","",""
"","text","48","503455","0.0-28.0","49380017","wem/bandit_either_3","AMN2BRHBYE4G1","either","8","6161","","32","","","","","","","","","","","","","","","","","","","","","","","","","","","","","","","","","","","",""
"","text","49","513345","0.0-29.0","49380017","wem/bandit_either_3","AMN2BRHBYE4G1","either","8","9885","","32","","","","","","","","","","","","","","","","","","","","","","","","","","","","","","","","","","","",""
"","text","50","519550","0.0-30.0","49380017","wem/bandit_either_3","AMN2BRHBYE4G1","either","8","6200","","32","","","","","","","","","","","","","","","","","","","","","","","","","","","","","","","","","","","",""
"","text","51","534625","0.0-31.0","49380017","wem/bandit_either_3","AMN2BRHBYE4G1","either","8","15069","","32","","","","","","","","","","","","","","","","","","","","","","","","","","","","","","","","","","","",""
"","text","52","538317","0.0-32.0","49380017","wem/bandit_either_3","AMN2BRHBYE4G1","either","8","3689","","32","","","","","","","","","","","","","","","","","","","","","","","","","","","","","","","","","","","",""
"","text","53","542639","0.0-33.0","49380017","wem/bandit_either_3","AMN2BRHBYE4G1","either","8","4318","","32","","","","","","","","","","","","","","","","","","","","","","","","","","","","","","","","","","","",""
"","bandit","54","545935","0.0-34.0-0.0","49380017","wem/bandit_either_3","AMN2BRHBYE4G1","either","8","1770","","","","","","","0","0","1","","0.8","0.5","0.5","0.5","0.5","0.8","0.2","0.6","0.2","","","","","","","","","","","","72","H","0","img/none_selected.jpg","true","0","full_practice",""
"","bandit","55","548073","0.0-34.0-1.0","49380017","wem/bandit_either_3","AMN2BRHBYE4G1","either","8","623","","","","","","","0","1","0","","0.8","0.5","0.5","0.5","0.5","0.8","0.2","0.6","0.2","","","","","","","","","","","","72","H","0","img/none_selected.jpg","true","0","full_practice",""
"","bandit","56","550054","0.0-34.0-2.0","49380017","wem/bandit_either_3","AMN2BRHBYE4G1","either","8","469","","","","","","","1","0","0","0.8","","0.5","0.5","0.5","0.5","","","","","0.8","0.2","0.6","0.2","","","","","","","","72","H","0","img/none_selected.jpg","true","0","full_practice",""
"","bandit","57","552037","0.0-34.0-3.0","49380017","wem/bandit_either_3","AMN2BRHBYE4G1","either","8","471","","","","","","","1","0","0","0.8","","0.5","0.5","0.5","0.5","","","","","0.8","0.2","0.6","0.2","","","","","","","","72","H","0","img/none_selected.jpg","true","0","full_practice",""
"","bandit","58","554021","0.0-34.0-4.0","49380017","wem/bandit_either_3","AMN2BRHBYE4G1","either","8","471","","","","","","","0","0","1","","0.8","0.5","0.5","0.5","0.5","0.8","0.2","0.6","0.2","","","","","","","","","","","","72","H","0","img/none_selected.jpg","true","0","full_practice",""
"","bandit","59","556181","0.0-34.0-5.0","49380017","wem/bandit_either_3","AMN2BRHBYE4G1","either","8","651","","","","","","","1","0","0","0.8","","0.5","0.5","0.5","0.5","","","","","0.8","0.2","0.6","0.2","","","","","","","","72","H","0","img/none_selected.jpg","true","0","full_practice",""
"","bandit","60","558346","0.0-34.0-6.0","49380017","wem/bandit_either_3","AMN2BRHBYE4G1","either","8","649","","","","","","","0","0","1","0.2","","0.5","0.5","0.5","0.5","","","","","0.8","0.2","0.6","0.2","","","","","","","","74","J","1","","true","0","full_practice",""
"","bandit","61","560359","0.0-34.0-7.0","49380017","wem/bandit_either_3","AMN2BRHBYE4G1","either","8","504","","","","","","","0","0","1","0.2","","0.5","0.5","0.5","0.5","","","","","0.8","0.2","0.6","0.2","","","","","","","","74","J","1","","true","0","full_practice",""
"","bandit","62","562449","0.0-34.0-8.0","49380017","wem/bandit_either_3","AMN2BRHBYE4G1","either","8","572","","","","","","","0","0","1","0.2","","0.5","0.5","0.5","0.5","","","","","0.8","0.2","0.6","0.2","","","","","","","","74","J","1","","true","0","full_practice",""
"","bandit","63","564406","0.0-34.0-9.0","49380017","wem/bandit_either_3","AMN2BRHBYE4G1","either","8","444","","","","","","","0","0","1","0.6","","0.5","0.5","0.5","0.5","","","","","0.8","0.2","0.6","0.2","","","","","","","","75","K","2","","true","0","full_practice",""
"","bandit","64","566392","0.0-34.0-10.0","49380017","wem/bandit_either_3","AMN2BRHBYE4G1","either","8","475","","","","","","","0","1","0","","0.6","0.5","0.5","0.5","0.5","0.8","0.2","0.6","0.2","","","","","","","","","","","","75","K","2","","true","0","full_practice",""
"","bandit","65","568333","0.0-34.0-11.0","49380017","wem/bandit_either_3","AMN2BRHBYE4G1","either","8","428","","","","","","","0","0","1","0.6","","0.5","0.5","0.5","0.5","","","","","0.8","0.2","0.6","0.2","","","","","","","","75","K","2","","true","0","full_practice",""
"","bandit","66","570249","0.0-34.0-12.0","49380017","wem/bandit_either_3","AMN2BRHBYE4G1","either","8","406","","","","","","","1","0","0","0.6","","0.5","0.5","0.5","0.5","","","","","0.8","0.2","0.6","0.2","","","","","","","","75","K","2","","true","0","full_practice",""
"","bandit","67","572557","0.0-34.0-13.0","49380017","wem/bandit_either_3","AMN2BRHBYE4G1","either","8","798","","","","","","","0","0","1","0.2","","0.5","0.5","0.5","0.5","","","","","0.8","0.2","0.6","0.2","","","","","","","","76","L","3","","true","0","full_practice",""
"","bandit","68","574494","0.0-34.0-14.0","49380017","wem/bandit_either_3","AMN2BRHBYE4G1","either","8","426","","","","","","","1","0","0","0.2","","0.5","0.5","0.5","0.5","","","","","0.8","0.2","0.6","0.2","","","","","","","","76","L","3","","true","0","full_practice",""
"","bandit","69","576461","0.0-34.0-15.0","49380017","wem/bandit_either_3","AMN2BRHBYE4G1","either","8","452","","","","","","","0","0","1","","0.2","0.5","0.5","0.5","0.5","0.8","0.2","0.6","0.2","","","","","","","","","","","","76","L","3","","true","0","full_practice",""
"","bandit","70","578373","0.0-34.0-16.0","49380017","wem/bandit_either_3","AMN2BRHBYE4G1","either","8","394","","","","","","","0","0","1","0.2","","0.5","0.5","0.5","0.5","","","","","0.8","0.2","0.6","0.2","","","","","","","","76","L","3","","true","0","full_practice",""
"","bandit","71","580265","0.0-34.0-17.0","49380017","wem/bandit_either_3","AMN2BRHBYE4G1","either","8","369","","","","","","","0","0","1","0.2","","0.5","0.5","0.5","0.5","","","","","0.8","0.2","0.6","0.2","","","","","","","","76","L","3","","true","0","full_practice",""
"","bandit","72","583336","0.0-34.0-18.0","49380017","wem/bandit_either_3","AMN2BRHBYE4G1","either","8","1552","","","","","","","0","0","1","0.8","","0.5","0.5","0.5","0.5","","","","","0.8","0.2","0.6","0.2","","","","","","","","72","H","0","img/none_selected.jpg","true","0","full_practice",""
"","bandit","73","585233","0.0-34.0-19.0","49380017","wem/bandit_either_3","AMN2BRHBYE4G1","either","8","382","","","","","","","0","1","0","","0.8","0.5","0.5","0.5","0.5","0.8","0.2","0.6","0.2","","","","","","","","","","","","72","H","0","img/none_selected.jpg","true","0","full_practice",""
"","text","74","591553","0.0-35.0","49380017","wem/bandit_either_3","AMN2BRHBYE4G1","either","8","6306","","32","","","","","","","","","","","","","","","","","","","","","","","","","","","","","","","","","","","",""
"","text","75","608504","0.0-36.0","49380017","wem/bandit_either_3","AMN2BRHBYE4G1","either","8","15944","","32","","","","","","","","","","","","","","","","","","","","","","","","","","","","","","","","","","","",""
"","text","76","626435","0.0-37.0","49380017","wem/bandit_either_3","AMN2BRHBYE4G1","either","8","17925","","32","","","","","","","","","","","","","","","","","","","","","","","","","","","","","","","","","","","",""
"","text","77","633166","0.0-38.0","49380017","wem/bandit_either_3","AMN2BRHBYE4G1","either","8","6726","","32","","","","","","","","","","","","","","","","","","","","","","","","","","","","","","","","","","","",""
"","text","78","643129","0.0-39.0","49380017","wem/bandit_either_3","AMN2BRHBYE4G1","either","8","9956","","32","","","","","","","","","","","","","","","","","","","","","","","","","","","","","","","","","","","",""
"","text","79","653473","0.0-40.0","49380017","wem/bandit_either_3","AMN2BRHBYE4G1","either","8","10336","","32","","","","","","","","","","","","","","","","","","","","","","","","","","","","","","","","","","","",""
"","bandit","80","657522","0.0-41.0-0.0","49380017","wem/bandit_either_3","AMN2BRHBYE4G1","either","8","2536","","","","","","","0","1","0","","0.3040937467","0.2","0.4","0.8","0.6","0.3040937467","0.2428949588","0.6337563202","0.4468950172","","","","","","","","","","","","72","H","0","img/none_selected.jpg","","1","main_expt",""
"","bandit","81","659431","0.0-42.0-0.0","49380017","wem/bandit_either_3","AMN2BRHBYE4G1","either","8","397","","","","","","","0","0","1","","0.2687625136","0.2","0.4","0.8","0.6","0.2687625136","0.248961424","0.7380673114","0.3846124694","","","","","","","","","","","","72","H","0","img/none_selected.jpg","","2","main_expt",""
"","bandit","82","661336","0.0-43.0-0.0","49380017","wem/bandit_either_3","AMN2BRHBYE4G1","either","8","390","","","","","","","0","1","0","","0.3017919557","0.2","0.4","0.8","0.6","0.3017919557","0.1878604038","0.7715549737","0.3885967974","","","","","","","","","","","","72","H","0","img/none_selected.jpg","","3","main_expt",""
"","bandit","83","663285","0.0-44.0-0.0","49380017","wem/bandit_either_3","AMN2BRHBYE4G1","either","8","431","","","","","","","0","1","0","","0.3388517529","0.2","0.4","0.8","0.6","0.3388517529","0.1194049449","0.8257013646","0.2891644394","","","","","","","","","","","","72","H","0","img/none_selected.jpg","","4","main_expt",""
"","bandit","84","665285","0.0-45.0-0.0","49380017","wem/bandit_either_3","AMN2BRHBYE4G1","either","8","484","","","","","","","0","0","1","","0.389096829","0.2","0.4","0.8","0.6","0.389096829","0.197046458","0.8617886559","0.2654579937","","","","","","","","","","","","72","H","0","img/none_selected.jpg","","5","main_expt",""
"","bandit","85","667194","0.0-46.0-0.0","49380017","wem/bandit_either_3","AMN2BRHBYE4G1","either","8","396","","","","","","","0","1","0","","0.4799636182","0.2","0.4","0.8","0.6","0.4799636182","0.2312720201","0.8452125903","0.355160999","","","","","","","","","","","","72","H","0","img/none_selected.jpg","","6","main_expt",""
"","bandit","86","669103","0.0-47.0-0.0","49380017","wem/bandit_either_3","AMN2BRHBYE4G1","either","8","395","","","","","","","0","0","1","0.5316557606","","0.2","0.4","0.8","0.6","","","","","0.5316557606","0.3255591742","0.8765288384","0.4733904832","","","","","","","","72","H","0","img/none_selected.jpg","","7","main_expt",""
"","bandit","87","671049","0.0-48.0-0.0","49380017","wem/bandit_either_3","AMN2BRHBYE4G1","either","8","430","","","","","","","0","1","0","","0.4935712437","0.2","0.4","0.8","0.6","0.4935712437","0.163151729","0.8625068071","0.4900136729","","","","","","","","","","","","72","H","0","img/none_selected.jpg","","8","main_expt",""
"","bandit","88","672990","0.0-49.0-0.0","49380017","wem/bandit_either_3","AMN2BRHBYE4G1","either","8","430","","","","","","","0","1","0","","0.5400450001","0.2","0.4","0.8","0.6","0.5400450001","0.1671639775","0.8385781597","0.4543552171","","","","","","","","","","","","72","H","0","img/none_selected.jpg","","9","main_expt",""
"","bandit","89","674903","0.0-50.0-0.0","49380017","wem/bandit_either_3","AMN2BRHBYE4G1","either","8","394","","","","","","","0","1","0","","0.6510952772","0.2","0.4","0.8","0.6","0.6510952772","0.1315225434","0.833356221","0.4523920981","","","","","","","","","","","","72","H","0","img/none_selected.jpg","","10","main_expt",""
"","bandit","90","676809","0.0-51.0-0.0","49380017","wem/bandit_either_3","AMN2BRHBYE4G1","either","8","392","","","","","","","0","0","1","","0.6117649901","0.2","0.4","0.8","0.6","0.6117649901","0.1287002637","0.9030756702","0.4053083118","","","","","","","","","","","","72","H","0","img/none_selected.jpg","","11","main_expt",""
"","bandit","91","678735","0.0-52.0-0.0","49380017","wem/bandit_either_3","AMN2BRHBYE4G1","either","8","414","","","","","","","1","0","0","0.6360746298","","0.2","0.4","0.8","0.6","","","","","0.6360746298","0.1026596936","0.9129290363","0.4059907931","","","","","","","","72","H","0","img/none_selected.jpg","","12","main_expt",""
"","bandit","92","680706","0.0-53.0-0.0","49380017","wem/bandit_either_3","AMN2BRHBYE4G1","either","8","457","","","","","","","0","1","0","","0.5673960652","0.2","0.4","0.8","0.6","0.5673960652","0.1287514256","0.8638417716","0.2934167972","","","","","","","","","","","","72","H","0","img/none_selected.jpg","","13","main_expt",""
"","bandit","93","682709","0.0-54.0-0.0","49380017","wem/bandit_either_3","AMN2BRHBYE4G1","either","8","486","","","","","","","0","1","0","","0.6747725803","0.2","0.4","0.8","0.6","0.6747725803","0.1786171179","0.787806988","0.3260927596","","","","","","","","","","","","72","H","0","img/none_selected.jpg","","14","main_expt",""
"","bandit","94","684584","0.0-55.0-0.0","49380017","wem/bandit_either_3","AMN2BRHBYE4G1","either","8","363","","","","","","","0","0","1","","0.6277188345","0.2","0.4","0.8","0.6","0.6277188345","0.1459410532","0.7254212376","0.3355382734","","","","","","","","","","","","72","H","0","img/none_selected.jpg","","15","main_expt",""
"","bandit","95","686479","0.0-56.0-0.0","49380017","wem/bandit_either_3","AMN2BRHBYE4G1","either","8","383","","","","","","","1","0","0","0.5435568235","","0.2","0.4","0.8","0.6","","","","","0.5435568235","0.2255600906","0.7238415528","0.3040928121","","","","","","","","72","H","0","img/none_selected.jpg","","16","main_expt",""
"","bandit","96","688378","0.0-57.0-0.0","49380017","wem/bandit_either_3","AMN2BRHBYE4G1","either","8","381","","","","","","","0","0","1","0.4180161478","","0.2","0.4","0.8","0.6","","","","","0.4180161478","0.2052013943","0.7796243455","0.2730366263","","","","","","","","72","H","0","img/none_selected.jpg","","17","main_expt",""
"","bandit","97","690303","0.0-58.0-0.0","49380017","wem/bandit_either_3","AMN2BRHBYE4G1","either","8","412","","","","","","","0","1","0","","0.4961111773","0.2","0.4","0.8","0.6","0.4961111773","0.1780354615","0.6928902724","0.4105298721","","","","","","","","","","","","72","H","0","img/none_selected.jpg","","18","main_expt",""
"","bandit","98","692206","0.0-59.0-0.0","49380017","wem/bandit_either_3","AMN2BRHBYE4G1","either","8","388","","","","","","","0","1","0","","0.445530788","0.2","0.4","0.8","0.6","0.445530788","0.1576496117","0.7658630901","0.3586923344","","","","","","","","","","","","72","H","0","img/none_selected.jpg","","19","main_expt",""
"","bandit","99","694111","0.0-60.0-0.0","49380017","wem/bandit_either_3","AMN2BRHBYE4G1","either","8","378","","","","","","","0","1","0","","0.3443163705","0.2","0.4","0.8","0.6","0.3443163705","0.1618752313","0.7584200513","0.3220075653","","","","","","","","","","","","72","H","0","img/none_selected.jpg","","20","main_expt",""
"","bandit","100","696008","0.0-61.0-0.0","49380017","wem/bandit_either_3","AMN2BRHBYE4G1","either","8","374","","","","","","","1","0","0","0.3012808647","","0.2","0.4","0.8","0.6","","","","","0.3012808647","0.2152187387","0.7727038765","0.2729660799","","","","","","","","72","H","0","img/none_selected.jpg","","21","main_expt",""
"","bandit","101","697879","0.0-62.0-0.0","49380017","wem/bandit_either_3","AMN2BRHBYE4G1","either","8","354","","","","","","","0","0","1","","0.2882062485","0.2","0.4","0.8","0.6","0.2882062485","0.3547982299","0.8152565923","0.2712352107","","","","","","","","","","","","72","H","0","img/none_selected.jpg","","22","main_expt",""
"","bandit","102","699754","0.0-63.0-0.0","49380017","wem/bandit_either_3","AMN2BRHBYE4G1","either","8","362","","","","","","","0","0","1","","0.2113421372","0.2","0.4","0.8","0.6","0.2113421372","0.323805638","0.7537075358","0.3390855774","","","","","","","","","","","","72","H","0","img/none_selected.jpg","","23","main_expt",""
"","bandit","103","701645","0.0-64.0-0.0","49380017","wem/bandit_either_3","AMN2BRHBYE4G1","either","8","369","","","","","","","0","0","1","","0.2201805416","0.2","0.4","0.8","0.6","0.2201805416","0.3588909826","0.7108822858","0.3483259141","","","","","","","","","","","","72","H","0","img/none_selected.jpg","","24","main_expt",""
"","bandit","104","703744","0.0-65.0-0.0","49380017","wem/bandit_either_3","AMN2BRHBYE4G1","either","8","565","","","","","","","1","0","0","0.3416976173","","0.2","0.4","0.8","0.6","","","","","0.2580956466","0.3885553436","0.6930515954","0.3416976173","","","","","","","","76","L","3","","","25","main_expt",""
"","bandit","105","705695","0.0-66.0-0.0","49380017","wem/bandit_either_3","AMN2BRHBYE4G1","either","8","440","","","","","","","0","0","1","","0.4243476322","0.2","0.4","0.8","0.6","0.2153432854","0.4871556374","0.6905393417","0.4243476322","","","","","","","","","","","","76","L","3","","","26","main_expt",""
"","bandit","106","707685","0.0-67.0-0.0","49380017","wem/bandit_either_3","AMN2BRHBYE4G1","either","8","472","","","","","","","1","0","0","0.5257754898","","0.2","0.4","0.8","0.6","","","","","0.1727955236","0.4934119911","0.7531652131","0.5257754898","","","","","","","","76","L","3","","","27","main_expt",""
"","bandit","107","709606","0.0-68.0-0.0","49380017","wem/bandit_either_3","AMN2BRHBYE4G1","either","8","405","","","","","","","0","0","1","0.5246232361","","0.2","0.4","0.8","0.6","","","","","0.1894296703","0.4322092846","0.8001777041","0.5246232361","","","","","","","","76","L","3","","","28","main_expt",""
"","bandit","108","711491","0.0-69.0-0.0","49380017","wem/bandit_either_3","AMN2BRHBYE4G1","either","8","363","","","","","","","0","0","1","","0.375994784","0.2","0.4","0.8","0.6","0.2128919211","0.3459113699","0.8118404327","0.375994784","","","","","","","","","","","","76","L","3","","","29","main_expt",""
"","bandit","109","713438","0.0-70.0-0.0","49380017","wem/bandit_either_3","AMN2BRHBYE4G1","either","8","431","","","","","","","0","0","1","0.7839534503","","0.2","0.4","0.8","0.6","","","","","0.206056468","0.280789843","0.7839534503","0.2936890161","","","","","","","","75","K","2","","","30","main_expt",""
"","bandit","110","715351","0.0-71.0-0.0","49380017","wem/bandit_either_3","AMN2BRHBYE4G1","either","8","397","","","","","","","1","0","0","0.8066372971","","0.2","0.4","0.8","0.6","","","","","0.1725623241","0.2613810438","0.8066372971","0.2878812258","","","","","","","","75","K","2","","","31","main_expt",""
"","bandit","111","717256","0.0-72.0-0.0","49380017","wem/bandit_either_3","AMN2BRHBYE4G1","either","8","388","","","","","","","1","0","0","0.8049259064","","0.2","0.4","0.8","0.6","","","","","0.1629883914","0.3821585683","0.8049259064","0.2451492808","","","","","","","","75","K","2","","","32","main_expt",""
"","bandit","112","719119","0.0-73.0-0.0","49380017","wem/bandit_either_3","AMN2BRHBYE4G1","either","8","348","","","","","","","1","0","0","0.7891664673","","0.2","0.4","0.8","0.6","","","","","0.2107911223","0.2714925976","0.7891664673","0.2802113289","","","","","","","","75","K","2","","","33","main_expt",""
"","bandit","113","720983","0.0-74.0-0.0","49380017","wem/bandit_either_3","AMN2BRHBYE4G1","either","8","348","","","","","","","1","0","0","0.7854278051","","0.2","0.4","0.8","0.6","","","","","0.1025901997","0.2755575364","0.7854278051","0.2892342718","","","","","","","","75","K","2","","","34","main_expt",""
"","bandit","114","722849","0.0-75.0-0.0","49380017","wem/bandit_either_3","AMN2BRHBYE4G1","either","8","350","","","","","","","0","0","1","0.7260182018","","0.2","0.4","0.8","0.6","","","","","0.1289879153","0.2697856654","0.7260182018","0.2486893666","","","","","","","","75","K","2","","","35","main_expt",""
"","bandit","115","724702","0.0-76.0-0.0","49380017","wem/bandit_either_3","AMN2BRHBYE4G1","either","8","330","","","","","","","1","0","0","0.7910957192","","0.2","0.4","0.8","0.6","","","","","0.1645491317","0.2483646443","0.7910957192","0.3536408983","","","","","","","","75","K","2","","","36","main_expt",""
"","bandit","116","726621","0.0-77.0-0.0","49380017","wem/bandit_either_3","AMN2BRHBYE4G1","either","8","409","","","","","","","0","1","0","","0.7996551039","0.2","0.4","0.8","0.6","0.1698046746","0.2103950957","0.7996551039","0.2493566902","","","","","","","","","","","","75","K","2","","","37","main_expt",""
"","bandit","117","728530","0.0-78.0-0.0","49380017","wem/bandit_either_3","AMN2BRHBYE4G1","either","8","380","","","","","","","1","0","0","0.6717479894","","0.2","0.4","0.8","0.6","","","","","0.2281502886","0.2128944509","0.6717479894","0.2948354516","","","","","","","","75","K","2","","","38","main_expt",""
"","bandit","118","730441","0.0-79.0-0.0","49380017","wem/bandit_either_3","AMN2BRHBYE4G1","either","8","394","","","","","","","0","0","1","0.7121128808","","0.2","0.4","0.8","0.6","","","","","0.1561271762","0.2965153327","0.7121128808","0.3373274679","","","","","","","","75","K","2","","","39","main_expt",""
"","bandit","119","732343","0.0-80.0-0.0","49380017","wem/bandit_either_3","AMN2BRHBYE4G1","either","8","365","","","","","","","0","0","1","0.7157410044","","0.2","0.4","0.8","0.6","","","","","0.1543620621","0.4447532253","0.7157410044","0.4138768052","","","","","","","","75","K","2","","","40","main_expt",""
"","bandit","120","734257","0.0-81.0-0.0","49380017","wem/bandit_either_3","AMN2BRHBYE4G1","either","8","398","","","","","","","1","0","0","0.5330008696","","0.2","0.4","0.8","0.6","","","","","0.2271499981","0.5330008696","0.681196038","0.438096834","","","","","","","","74","J","1","","","41","main_expt",""
"","bandit","121","736167","0.0-82.0-0.0","49380017","wem/bandit_either_3","AMN2BRHBYE4G1","either","8","391","","","","","","","1","0","0","0.573861049","","0.2","0.4","0.8","0.6","","","","","0.2882452936","0.573861049","0.6504320647","0.4185173612","","","","","","","","74","J","1","","","42","main_expt",""
"","bandit","122","738047","0.0-83.0-0.0","49380017","wem/bandit_either_3","AMN2BRHBYE4G1","either","8","363","","","","","","","0","0","1","0.6654349765","","0.2","0.4","0.8","0.6","","","","","0.298522686","0.6654349765","0.7369830744","0.3796335567","","","","","","","","74","J","1","","","43","main_expt",""
"","bandit","123","739871","0.0-84.0-0.0","49380017","wem/bandit_either_3","AMN2BRHBYE4G1","either","8","306","","","","","","","1","0","0","0.691198465","","0.2","0.4","0.8","0.6","","","","","0.3188886026","0.691198465","0.6797935378","0.31766129","","","","","","","","74","J","1","","","44","main_expt",""
"","bandit","124","741767","0.0-85.0-0.0","49380017","wem/bandit_either_3","AMN2BRHBYE4G1","either","8","378","","","","","","","0","1","0","","0.7652674903","0.2","0.4","0.8","0.6","0.2705760174","0.7652674903","0.6507473666","0.4047397141","","","","","","","","","","","","74","J","1","","","45","main_expt",""
"","bandit","125","743662","0.0-86.0-0.0","49380017","wem/bandit_either_3","AMN2BRHBYE4G1","either","8","382","","","","","","","0","1","0","","0.8065230058","0.2","0.4","0.8","0.6","0.2506880939","0.8065230058","0.6334510787","0.4961613307","","","","","","","","","","","","74","J","1","","","46","main_expt",""
"","bandit","126","745563","0.0-87.0-0.0","49380017","wem/bandit_either_3","AMN2BRHBYE4G1","either","8","380","","","","","","","0","1","0","","0.7774474893","0.2","0.4","0.8","0.6","0.2491585872","0.7774474893","0.6143175143","0.4624468315","","","","","","","","","","","","74","J","1","","","47","main_expt",""
"","bandit","127","747422","0.0-88.0-0.0","49380017","wem/bandit_either_3","AMN2BRHBYE4G1","either","8","340","","","","","","","0","0","1","","0.7693176975","0.2","0.4","0.8","0.6","0.1997021219","0.7693176975","0.6404512611","0.4886537242","","","","","","","","","","","","74","J","1","","","48","main_expt",""
"","bandit","128","749261","0.0-89.0-0.0","49380017","wem/bandit_either_3","AMN2BRHBYE4G1","either","8","322","","","","","","","0","1","0","","0.807419373","0.2","0.4","0.8","0.6","0.2119577724","0.807419373","0.6758621215","0.4270302022","","","","","","","","","","","","74","J","1","","","49","main_expt",""
"","bandit","129","751151","0.0-90.0-0.0","49380017","wem/bandit_either_3","AMN2BRHBYE4G1","either","8","369","","","","","","","0","0","1","0.8562769227","","0.2","0.4","0.8","0.6","","","","","0.2615271711","0.8562769227","0.6873234502","0.5151345658","","","","","","","","74","J","1","","","50","main_expt",""
"","bandit","130","753103","0.0-91.0-0.0","49380017","wem/bandit_either_3","AMN2BRHBYE4G1","either","8","436","","","","","","","0","1","0","","0.8705114925","0.2","0.4","0.8","0.6","0.2764427577","0.8705114925","0.7776044395","0.5134524181","","","","","","","","","","","","74","J","1","","","51","main_expt",""
"","bandit","131","755064","0.0-92.0-0.0","49380017","wem/bandit_either_3","AMN2BRHBYE4G1","either","8","442","","","","","","","0","1","0","","0.9310361031","0.2","0.4","0.8","0.6","0.3833776697","0.9310361031","0.8403410939","0.4842684999","","","","","","","","","","","","74","J","1","","","52","main_expt",""
"","bandit","132","756993","0.0-93.0-0.0","49380017","wem/bandit_either_3","AMN2BRHBYE4G1","either","8","413","","","","","","","0","1","0","","0.905794742","0.2","0.4","0.8","0.6","0.4356502318","0.905794742","0.8151983534","0.4412850773","","","","","","","","","","","","74","J","1","","","53","main_expt",""
"","bandit","133","758862","0.0-94.0-0.0","49380017","wem/bandit_either_3","AMN2BRHBYE4G1","either","8","357","","","","","","","1","0","0","0.9391541593","","0.2","0.4","0.8","0.6","","","","","0.4120588364","0.9391541593","0.8081222638","0.4397693946","","","","","","","","74","J","1","","","54","main_expt",""
"","bandit","134","760747","0.0-95.0-0.0","49380017","wem/bandit_either_3","AMN2BRHBYE4G1","either","8","368","","","","","","","1","0","0","0.9596285882","","0.2","0.4","0.8","0.6","","","","","0.2714296105","0.9596285882","0.742009976","0.3928202278","","","","","","","","74","J","1","","","55","main_expt",""
"","bandit","135","762672","0.0-96.0-0.0","49380017","wem/bandit_either_3","AMN2BRHBYE4G1","either","8","411","","","","","","","0","1","0","","0.9565658233","0.2","0.4","0.8","0.6","0.2122311877","0.9565658233","0.7065076074","0.4593665993","","","","","","","","","","","","74","J","1","","","56","main_expt",""
"","bandit","136","764505","0.0-97.0-0.0","49380017","wem/bandit_either_3","AMN2BRHBYE4G1","either","8","317","","","","","","","1","0","0","0.9681540372","","0.2","0.4","0.8","0.6","","","","","0.2282278588","0.9681540372","0.6860695476","0.4006145211","","","","","","","","74","J","1","","","57","main_expt",""
"","bandit","137","766407","0.0-98.0-0.0","49380017","wem/bandit_either_3","AMN2BRHBYE4G1","either","8","382","","","","","","","0","1","0","","0.9207083952","0.2","0.4","0.8","0.6","0.1392076118","0.9207083952","0.742301155","0.4597890412","","","","","","","","","","","","74","J","1","","","58","main_expt",""
"","bandit","138","768297","0.0-99.0-0.0","49380017","wem/bandit_either_3","AMN2BRHBYE4G1","either","8","372","","","","","","","0","1","0","","0.9178227258","0.2","0.4","0.8","0.6","0.1706239206","0.9178227258","0.5291004622","0.4232266093","","","","","","","","","","","","74","J","1","","","59","main_expt",""
"","bandit","139","770223","0.0-100.0-0.0","49380017","wem/bandit_either_3","AMN2BRHBYE4G1","either","8","412","","","","","","","0","1","0","","0.8951285427","0.2","0.4","0.8","0.6","0.1674269281","0.8951285427","0.6348838793","0.3565880291","","","","","","","","","","","","74","J","1","","","60","main_expt",""
"","bandit","140","772134","0.0-101.0-0.0","49380017","wem/bandit_either_3","AMN2BRHBYE4G1","either","8","392","","","","","","","1","0","0","0.8506814954","","0.2","0.4","0.8","0.6","","","","","0.2182313474","0.8506814954","0.6796423313","0.3663276413","","","","","","","","74","J","1","","","61","main_expt",""
"","bandit","141","774055","0.0-102.0-0.0","49380017","wem/bandit_either_3","AMN2BRHBYE4G1","either","8","404","","","","","","","0","1","0","","0.8513854559","0.2","0.4","0.8","0.6","0.2949218256","0.8513854559","0.6928172916","0.3193005293","","","","","","","","","","","","74","J","1","","","62","main_expt",""
"","bandit","142","776232","0.0-103.0-0.0","49380017","wem/bandit_either_3","AMN2BRHBYE4G1","either","8","661","","","","","","","1","0","0","0.8927579502","","0.2","0.4","0.8","0.6","","","","","0.3170222383","0.8927579502","0.6996506825","0.1562068481","","","","","","","","74","J","1","","","63","main_expt",""
"","bandit","143","778166","0.0-104.0-0.0","49380017","wem/bandit_either_3","AMN2BRHBYE4G1","either","8","409","","","","","","","1","0","0","0.9217936765","","0.2","0.4","0.8","0.6","","","","","0.3033511374","0.9217936765","0.7294442249","0.2300477965","","","","","","","","74","J","1","","","64","main_expt",""
"","bandit","144","780088","0.0-105.0-0.0","49380017","wem/bandit_either_3","AMN2BRHBYE4G1","either","8","403","","","","","","","1","0","0","0.9357047413","","0.2","0.4","0.8","0.6","","","","","0.3973690147","0.9357047413","0.6605354899","0.2869838185","","","","","","","","74","J","1","","","65","main_expt",""
"","bandit","145","782049","0.0-106.0-0.0","49380017","wem/bandit_either_3","AMN2BRHBYE4G1","either","8","439","","","","","","","0","1","0","","0.910343843","0.2","0.4","0.8","0.6","0.4320294497","0.910343843","0.6959621059","0.3287476356","","","","","","","","","","","","74","J","1","","","66","main_expt",""
"","bandit","146","783938","0.0-107.0-0.0","49380017","wem/bandit_either_3","AMN2BRHBYE4G1","either","8","371","","","","","","","1","0","0","0.9022080512","","0.2","0.4","0.8","0.6","","","","","0.3208465419","0.9022080512","0.653899752","0.3018365728","","","","","","","","74","J","1","","","67","main_expt",""
"","bandit","147","785850","0.0-108.0-0.0","49380017","wem/bandit_either_3","AMN2BRHBYE4G1","either","8","388","","","","","","","1","0","0","0.8492414063","","0.2","0.4","0.8","0.6","","","","","0.3570730799","0.8492414063","0.6517851336","0.3208616414","","","","","","","","74","J","1","","","68","main_expt",""
"","bandit","148","787719","0.0-109.0-0.0","49380017","wem/bandit_either_3","AMN2BRHBYE4G1","either","8","351","","","","","","","0","1","0","","0.768219052","0.2","0.4","0.8","0.6","0.3451514791","0.768219052","0.7011615004","0.386863802","","","","","","","","","","","","74","J","1","","","69","main_expt",""
"","bandit","149","789584","0.0-110.0-0.0","49380017","wem/bandit_either_3","AMN2BRHBYE4G1","either","8","346","","","","","","","0","0","1","","0.7996218848","0.2","0.4","0.8","0.6","0.3127714871","0.7996218848","0.6278947594","0.3628244161","","","","","","","","","","","","74","J","1","","","70","main_expt",""
"","bandit","150","791522","0.0-111.0-0.0","49380017","wem/bandit_either_3","AMN2BRHBYE4G1","either","8","425","","","","","","","0","0","1","","0.9130189757","0.2","0.4","0.8","0.6","0.3855297895","0.9130189757","0.688517509","0.2969295023","","","","","","","","","","","","74","J","1","","","71","main_expt",""
"","bandit","151","794198","0.0-112.0-0.0","49380017","wem/bandit_either_3","AMN2BRHBYE4G1","either","8","1164","","","","","","","0","1","0","","0.9016843832","0.2","0.4","0.8","0.6","0.3555010044","0.9016843832","0.6125440106","0.3512325323","","","","","","","","","","","","74","J","1","","","72","main_expt",""
"","bandit","152","796254","0.0-113.0-0.0","49380017","wem/bandit_either_3","AMN2BRHBYE4G1","either","8","538","","","","","","","1","0","0","0.9166584401","","0.2","0.4","0.8","0.6","","","","","0.3278360739","0.9166584401","0.4884410468","0.3845321254","","","","","","","","74","J","1","","","73","main_expt",""
"","bandit","153","798174","0.0-114.0-0.0","49380017","wem/bandit_either_3","AMN2BRHBYE4G1","either","8","400","","","","","","","0","1","0","","0.8699410266","0.2","0.4","0.8","0.6","0.3275161349","0.8699410266","0.5800760741","0.3760614253","","","","","","","","","","","","74","J","1","","","74","main_expt",""
"","bandit","154","800084","0.0-115.0-0.0","49380017","wem/bandit_either_3","AMN2BRHBYE4G1","either","8","391","","","","","","","0","1","0","","0.8192171788","0.2","0.4","0.8","0.6","0.3454333807","0.8192171788","0.6614390465","0.370831352","","","","","","","","","","","","74","J","1","","","75","main_expt",""
"","bandit","155","801947","0.0-116.0-0.0","49380017","wem/bandit_either_3","AMN2BRHBYE4G1","either","8","339","","","","","","","0","1","0","","0.8990587115","0.2","0.4","0.8","0.6","0.4213924804","0.8990587115","0.6861570843","0.4008199491","","","","","","","","","","","","74","J","1","","","76","main_expt",""
"","bandit","156","803851","0.0-117.0-0.0","49380017","wem/bandit_either_3","AMN2BRHBYE4G1","either","8","384","","","","","","","0","1","0","","0.9062137116","0.2","0.4","0.8","0.6","0.439510692","0.9062137116","0.5980737028","0.3928984844","","","","","","","","","","","","74","J","1","","","77","main_expt",""
"","bandit","157","805718","0.0-118.0-0.0","49380017","wem/bandit_either_3","AMN2BRHBYE4G1","either","8","354","","","","","","","1","0","0","0.9215914722","","0.2","0.4","0.8","0.6","","","","","0.4419424199","0.9215914722","0.6754083514","0.4709058574","","","","","","","","74","J","1","","","78","main_expt",""
"","bandit","158","807603","0.0-119.0-0.0","49380017","wem/bandit_either_3","AMN2BRHBYE4G1","either","8","365","","","","","","","1","0","0","0.895443078","","0.2","0.4","0.8","0.6","","","","","0.5056762283","0.895443078","0.7012934339","0.4971614577","","","","","","","","74","J","1","","","79","main_expt",""
"","bandit","159","809471","0.0-120.0-0.0","49380017","wem/bandit_either_3","AMN2BRHBYE4G1","either","8","355","","","","","","","0","1","0","","0.7789772955","0.2","0.4","0.8","0.6","0.4558190996","0.7789772955","0.7067798052","0.4828267768","","","","","","","","","","","","74","J","1","","","80","main_expt",""
"","bandit","160","811326","0.0-121.0-0.0","49380017","wem/bandit_either_3","AMN2BRHBYE4G1","either","8","338","","","","","","","1","0","0","0.755426824","","0.2","0.4","0.8","0.6","","","","","0.4774921548","0.755426824","0.7259433061","0.4280570329","","","","","","","","74","J","1","","","81","main_expt",""
"","bandit","161","813233","0.0-122.0-0.0","49380017","wem/bandit_either_3","AMN2BRHBYE4G1","either","8","386","","","","","","","1","0","0","0.8356426425","","0.2","0.4","0.8","0.6","","","","","0.3611036613","0.8356426425","0.7022130872","0.486136241","","","","","","","","74","J","1","","","82","main_expt",""
"","bandit","162","815278","0.0-123.0-0.0","49380017","wem/bandit_either_3","AMN2BRHBYE4G1","either","8","525","","","","","","","1","0","0","0.8783145762","","0.2","0.4","0.8","0.6","","","","","0.3341354767","0.8783145762","0.75927227","0.3539143083","","","","","","","","74","J","1","","","83","main_expt",""
"","bandit","163","817127","0.0-124.0-0.0","49380017","wem/bandit_either_3","AMN2BRHBYE4G1","either","8","331","","","","","","","0","1","0","","0.9087743635","0.2","0.4","0.8","0.6","0.288479151","0.9087743635","0.8556046088","0.374811954","","","","","","","","","","","","74","J","1","","","84","main_expt",""
"","bandit","164","819007","0.0-125.0-0.0","49380017","wem/bandit_either_3","AMN2BRHBYE4G1","either","8","358","","","","","","","0","1","0","","0.8632011641","0.2","0.4","0.8","0.6","0.3061923995","0.8632011641","0.7835234447","0.4518264681","","","","","","","","","","","","74","J","1","","","85","main_expt",""
"","bandit","165","820887","0.0-126.0-0.0","49380017","wem/bandit_either_3","AMN2BRHBYE4G1","either","8","361","","","","","","","1","0","0","0.8341253046","","0.2","0.4","0.8","0.6","","","","","0.3370204437","0.8341253046","0.7037548709","0.461936863","","","","","","","","74","J","1","","","86","main_expt",""
"","bandit","166","822783","0.0-127.0-0.0","49380017","wem/bandit_either_3","AMN2BRHBYE4G1","either","8","379","","","","","","","1","0","0","0.8728746981","","0.2","0.4","0.8","0.6","","","","","0.3900809043","0.8728746981","0.6903674631","0.3681660755","","","","","","","","74","J","1","","","87","main_expt",""
"","bandit","167","824713","0.0-128.0-0.0","49380017","wem/bandit_either_3","AMN2BRHBYE4G1","either","8","405","","","","","","","0","0","1","","0.8408980459","0.2","0.4","0.8","0.6","0.4296615172","0.8408980459","0.5883284312","0.3788462328","","","","","","","","","","","","74","J","1","","","88","main_expt",""
"","bandit","168","826645","0.0-129.0-0.0","49380017","wem/bandit_either_3","AMN2BRHBYE4G1","either","8","408","","","","","","","0","1","0","","0.8585781628","0.2","0.4","0.8","0.6","0.4636560077","0.8585781628","0.5258490985","0.3316952272","","","","","","","","","","","","74","J","1","","","89","main_expt",""
"","bandit","169","828623","0.0-130.0-0.0","49380017","wem/bandit_either_3","AMN2BRHBYE4G1","either","8","460","","","","","","","0","1","0","","0.925840658","0.2","0.4","0.8","0.6","0.4463585346","0.925840658","0.6395041767","0.438068917","","","","","","","","","","","","74","J","1","","","90","main_expt",""
"","bandit","170","830526","0.0-131.0-0.0","49380017","wem/bandit_either_3","AMN2BRHBYE4G1","either","8","383","","","","","","","0","1","0","","0.9201841885","0.2","0.4","0.8","0.6","0.4734463503","0.9201841885","0.6931091445","0.5158843935","","","","","","","","","","","","74","J","1","","","91","main_expt",""
"","bandit","171","832429","0.0-132.0-0.0","49380017","wem/bandit_either_3","AMN2BRHBYE4G1","either","8","385","","","","","","","1","0","0","0.8508076908","","0.2","0.4","0.8","0.6","","","","","0.5248255385","0.8508076908","0.6725373887","0.5182757575","","","","","","","","74","J","1","","","92","main_expt",""
"","bandit","172","834281","0.0-133.0-0.0","49380017","wem/bandit_either_3","AMN2BRHBYE4G1","either","8","335","","","","","","","1","0","0","0.8106711147","","0.2","0.4","0.8","0.6","","","","","0.3386726181","0.8106711147","0.7388835399","0.5498130742","","","","","","","","74","J","1","","","93","main_expt",""
"","bandit","173","836184","0.0-134.0-0.0","49380017","wem/bandit_either_3","AMN2BRHBYE4G1","either","8","381","","","","","","","0","1","0","","0.8543263914","0.2","0.4","0.8","0.6","0.3718894848","0.8543263914","0.697373586","0.6049407638","","","","","","","","","","","","74","J","1","","","94","main_expt",""
"","bandit","174","838182","0.0-135.0-0.0","49380017","wem/bandit_either_3","AMN2BRHBYE4G1","either","8","479","","","","","","","0","0","1","","0.8387782901","0.2","0.4","0.8","0.6","0.4005278521","0.8387782901","0.7550322224","0.6604115927","","","","","","","","","","","","74","J","1","","","95","main_expt",""
"","bandit","175","840231","0.0-136.0-0.0","49380017","wem/bandit_either_3","AMN2BRHBYE4G1","either","8","533","","","","","","","0","1","0","","0.8208071174","0.2","0.4","0.8","0.6","0.3694595514","0.8208071174","0.6576962358","0.7003847986","","","","","","","","","","","","74","J","1","","","96","main_expt",""
"","bandit","176","842142","0.0-137.0-0.0","49380017","wem/bandit_either_3","AMN2BRHBYE4G1","either","8","389","","","","","","","1","0","0","0.765358829","","0.2","0.4","0.8","0.6","","","","","0.3186037095","0.765358829","0.6802484638","0.6793148949","","","","","","","","74","J","1","","","97","main_expt",""
"","bandit","177","844070","0.0-138.0-0.0","49380017","wem/bandit_either_3","AMN2BRHBYE4G1","either","8","405","","","","","","","1","0","0","0.7823463211","","0.2","0.4","0.8","0.6","","","","","0.2786717818","0.7823463211","0.7042077447","0.6204607354","","","","","","","","74","J","1","","","98","main_expt",""
"","bandit","178","846231","0.0-139.0-0.0","49380017","wem/bandit_either_3","AMN2BRHBYE4G1","either","8","642","","","","","","","0","1","0","","0.7523003034","0.2","0.4","0.8","0.6","0.32929866","0.7523003034","0.7355617892","0.6166262367","","","","","","","","","","","","74","J","1","","","99","main_expt",""
"","bandit","179","848699","0.0-140.0-0.0","49380017","wem/bandit_either_3","AMN2BRHBYE4G1","either","8","945","","","","","","","0","0","1","","0.7174790615","0.2","0.4","0.8","0.6","0.3115323478","0.7174790615","0.7117411671","0.5347115766","","","","","","","","","","","","74","J","1","","","100","main_expt",""
"","bandit","180","850654","0.0-141.0-0.0","49380017","wem/bandit_either_3","AMN2BRHBYE4G1","either","8","439","","","","","","","0","1","0","","0.7660578318","0.2","0.4","0.8","0.6","0.4221749579","0.7660578318","0.7263903312","0.3418016043","","","","","","","","","","","","74","J","1","","","101","main_expt",""
"","bandit","181","852838","0.0-142.0-0.0","49380017","wem/bandit_either_3","AMN2BRHBYE4G1","either","8","664","","","","","","","1","0","0","0.7201180075","","0.2","0.4","0.8","0.6","","","","","0.2718078598","0.7201180075","0.7357346189","0.2550922237","","","","","","","","74","J","1","","","102","main_expt",""
"","bandit","182","854826","0.0-143.0-0.0","49380017","wem/bandit_either_3","AMN2BRHBYE4G1","either","8","466","","","","","","","0","1","0","","0.8452780714","0.2","0.4","0.8","0.6","0.3011307106","0.8452780714","0.7026134783","0.3181696353","","","","","","","","","","","","74","J","1","","","103","main_expt",""
"","bandit","183","856929","0.0-144.0-0.0","49380017","wem/bandit_either_3","AMN2BRHBYE4G1","either","8","580","","","","","","","1","0","0","0.7236924273","","0.2","0.4","0.8","0.6","","","","","0.3659291838","0.7236924273","0.8073666152","0.3383579412","","","","","","","","74","J","1","","","104","main_expt",""
"","bandit","184","858904","0.0-145.0-0.0","49380017","wem/bandit_either_3","AMN2BRHBYE4G1","either","8","452","","","","","","","0","1","0","","0.743719778","0.2","0.4","0.8","0.6","0.3499435223","0.743719778","0.824483439","0.2354673658","","","","","","","","","","","","74","J","1","","","105","main_expt",""
"","bandit","185","860978","0.0-146.0-0.0","49380017","wem/bandit_either_3","AMN2BRHBYE4G1","either","8","556","","","","","","","0","1","0","","0.7985687284","0.2","0.4","0.8","0.6","0.3602262465","0.7985687284","0.9208810438","0.159398249","","","","","","","","","","","","74","J","1","","","106","main_expt",""
"","bandit","186","862983","0.0-147.0-0.0","49380017","wem/bandit_either_3","AMN2BRHBYE4G1","either","8","484","","","","","","","1","0","0","0.799345197","","0.2","0.4","0.8","0.6","","","","","0.3252215163","0.799345197","0.8911910097","0.1295169146","","","","","","","","74","J","1","","","107","main_expt",""
"","bandit","187","864987","0.0-148.0-0.0","49380017","wem/bandit_either_3","AMN2BRHBYE4G1","either","8","485","","","","","","","1","0","0","0.8681690713","","0.2","0.4","0.8","0.6","","","","","0.2812406992","0.8681690713","0.8450149587","0.07754053308","","","","","","","","74","J","1","","","108","main_expt",""
"","bandit","188","866937","0.0-149.0-0.0","49380017","wem/bandit_either_3","AMN2BRHBYE4G1","either","8","430","","","","","","","1","0","0","0.8556732204","","0.2","0.4","0.8","0.6","","","","","0.2559497519","0.8556732204","0.868327257","0.06591215473","","","","","","","","74","J","1","","","109","main_expt",""
"","bandit","189","868647","0.0-150.0-0.0","49380017","wem/bandit_either_3","AMN2BRHBYE4G1","either","8","190","","","","","","","0","1","0","","0.8669893864","0.2","0.4","0.8","0.6","0.2817400418","0.8669893864","0.8868335222","0.1189546392","","","","","","","","","","","","74","J","1","","","110","main_expt",""
"","bandit","190","870622","0.0-151.0-0.0","49380017","wem/bandit_either_3","AMN2BRHBYE4G1","either","8","453","","","","","","","0","1","0","","0.799383849","0.2","0.4","0.8","0.6","0.2773620367","0.799383849","0.8770728171","0.09523351692","","","","","","","","","","","","74","J","1","","","111","main_expt",""
"","bandit","191","872895","0.0-152.0-0.0","49380017","wem/bandit_either_3","AMN2BRHBYE4G1","either","8","751","","","","","","","1","0","0","0.859799476","","0.2","0.4","0.8","0.6","","","","","0.2833316415","0.859799476","0.8481710002","0.107489667","","","","","","","","74","J","1","","","112","main_expt",""
"","bandit","192","874782","0.0-153.0-0.0","49380017","wem/bandit_either_3","AMN2BRHBYE4G1","either","8","361","","","","","","","0","0","1","0.7932436089","","0.2","0.4","0.8","0.6","","","","","0.3433702059","0.7932436089","0.8573528835","0.1026187258","","","","","","","","74","J","1","","","113","main_expt",""
"","bandit","193","876774","0.0-154.0-0.0","49380017","wem/bandit_either_3","AMN2BRHBYE4G1","either","8","476","","","","","","","1","0","0","0.849407262","","0.2","0.4","0.8","0.6","","","","","0.4828882278","0.849407262","0.8291807482","0.1044839951","","","","","","","","74","J","1","","","114","main_expt",""
"","bandit","194","878767","0.0-155.0-0.0","49380017","wem/bandit_either_3","AMN2BRHBYE4G1","either","8","477","","","","","","","0","1","0","","0.8882716547","0.2","0.4","0.8","0.6","0.54932579","0.8882716547","0.761972944","0.1213931844","","","","","","","","","","","","74","J","1","","","115","main_expt",""
"","bandit","195","880623","0.0-156.0-0.0","49380017","wem/bandit_either_3","AMN2BRHBYE4G1","either","8","342","","","","","","","1","0","0","0.8741354715","","0.2","0.4","0.8","0.6","","","","","0.6971345968","0.8741354715","0.786197192","0.1184144227","","","","","","","","74","J","1","","","116","main_expt",""
"","bandit","196","882623","0.0-157.0-0.0","49380017","wem/bandit_either_3","AMN2BRHBYE4G1","either","8","479","","","","","","","1","0","0","0.8083823922","","0.2","0.4","0.8","0.6","","","","","0.5396272374","0.8083823922","0.7834453561","0.1983931569","","","","","","","","74","J","1","","","117","main_expt",""
"","bandit","197","884590","0.0-158.0-0.0","49380017","wem/bandit_either_3","AMN2BRHBYE4G1","either","8","446","","","","","","","1","0","0","0.868525306","","0.2","0.4","0.8","0.6","","","","","0.5544567993","0.868525306","0.6742380839","0.2840039584","","","","","","","","74","J","1","","","118","main_expt",""
"","bandit","198","886542","0.0-159.0-0.0","49380017","wem/bandit_either_3","AMN2BRHBYE4G1","either","8","433","","","","","","","0","1","0","","0.8386471998","0.2","0.4","0.8","0.6","0.5504896642","0.8386471998","0.7350700153","0.3563325119","","","","","","","","","","","","74","J","1","","","119","main_expt",""
"","bandit","199","888448","0.0-160.0-0.0","49380017","wem/bandit_either_3","AMN2BRHBYE4G1","either","8","389","","","","","","","1","0","0","0.8103559508","","0.2","0.4","0.8","0.6","","","","","0.5812137135","0.8103559508","0.70601835","0.5682387565","","","","","","","","74","J","1","","","120","main_expt",""
"","bandit","200","890321","0.0-161.0-0.0","49380017","wem/bandit_either_3","AMN2BRHBYE4G1","either","8","352","","","","","","","0","1","0","","0.8193015173","0.2","0.4","0.8","0.6","0.6033058466","0.8193015173","0.7347719752","0.5189107771","","","","","","","","","","","","74","J","1","","","121","main_expt",""
"","bandit","201","892175","0.0-162.0-0.0","49380017","wem/bandit_either_3","AMN2BRHBYE4G1","either","8","333","","","","","","","1","0","0","0.8025146027","","0.2","0.4","0.8","0.6","","","","","0.6102220397","0.8025146027","0.8270923978","0.4428493372","","","","","","","","74","J","1","","","122","main_expt",""
"","bandit","202","894054","0.0-163.0-0.0","49380017","wem/bandit_either_3","AMN2BRHBYE4G1","either","8","354","","","","","","","0","1","0","","0.8121847492","0.2","0.4","0.8","0.6","0.6108151959","0.8121847492","0.7980631313","0.472724465","","","","","","","","","","","","74","J","1","","","123","main_expt",""
"","bandit","203","895943","0.0-164.0-0.0","49380017","wem/bandit_either_3","AMN2BRHBYE4G1","either","8","371","","","","","","","0","1","0","","0.8299418439","0.2","0.4","0.8","0.6","0.7117385939","0.8299418439","0.7369852887","0.4799585558","","","","","","","","","","","","74","J","1","","","124","main_expt",""
"","bandit","204","897950","0.0-165.0-0.0","49380017","wem/bandit_either_3","AMN2BRHBYE4G1","either","8","485","","","","","","","0","1","0","","0.825688343","0.2","0.4","0.8","0.6","0.7554186078","0.825688343","0.7465944313","0.5080184993","","","","","","","","","","","","74","J","1","","","125","main_expt",""
"","bandit","205","899910","0.0-166.0-0.0","49380017","wem/bandit_either_3","AMN2BRHBYE4G1","either","8","439","","","","","","","1","0","0","0.8372054396","","0.2","0.4","0.8","0.6","","","","","0.8855751833","0.8372054396","0.7596834852","0.4555098289","","","","","","","","74","J","1","","","126","main_expt",""
"","bandit","206","901889","0.0-167.0-0.0","49380017","wem/bandit_either_3","AMN2BRHBYE4G1","either","8","457","","","","","","","0","1","0","","0.7906689898","0.2","0.4","0.8","0.6","0.8003015049","0.7906689898","0.7398299979","0.5475411796","","","","","","","","","","","","74","J","1","","","127","main_expt",""
"","bandit","207","903816","0.0-168.0-0.0","49380017","wem/bandit_either_3","AMN2BRHBYE4G1","either","8","410","","","","","","","0","1","0","","0.8008571507","0.2","0.4","0.8","0.6","0.8403113951","0.8008571507","0.7764866849","0.612647382","","","","","","","","","","","","74","J","1","","","128","main_expt",""
"","bandit","208","905695","0.0-169.0-0.0","49380017","wem/bandit_either_3","AMN2BRHBYE4G1","either","8","364","","","","","","","0","0","1","","0.7829297973","0.2","0.4","0.8","0.6","0.8826872071","0.7829297973","0.6435675963","0.7128970287","","","","","","","","","","","","74","J","1","","","129","main_expt",""
"","bandit","209","907576","0.0-170.0-0.0","49380017","wem/bandit_either_3","AMN2BRHBYE4G1","either","8","364","","","","","","","0","0","1","","0.6898445721","0.2","0.4","0.8","0.6","0.8641000085","0.6898445721","0.7030252038","0.7309911721","","","","","","","","","","","","74","J","1","","","130","main_expt",""
"","bandit","210","909503","0.0-171.0-0.0","49380017","wem/bandit_either_3","AMN2BRHBYE4G1","either","8","404","","","","","","","0","1","0","","0.5864867529","0.2","0.4","0.8","0.6","0.8752037592","0.5864867529","0.6829232191","0.73180147","","","","","","","","","","","","74","J","1","","","131","main_expt",""
"","bandit","211","911425","0.0-172.0-0.0","49380017","wem/bandit_either_3","AMN2BRHBYE4G1","either","8","400","","","","","","","1","0","0","0.560122833","","0.2","0.4","0.8","0.6","","","","","0.8279556795","0.560122833","0.7406452387","0.8467134838","","","","","","","","74","J","1","","","132","main_expt",""
"","bandit","212","913351","0.0-173.0-0.0","49380017","wem/bandit_either_3","AMN2BRHBYE4G1","either","8","404","","","","","","","0","1","0","","0.48439517","0.2","0.4","0.8","0.6","0.8194722428","0.48439517","0.6666234363","0.8481264083","","","","","","","","","","","","74","J","1","","","133","main_expt",""
"","bandit","213","915263","0.0-174.0-0.0","49380017","wem/bandit_either_3","AMN2BRHBYE4G1","either","8","391","","","","","","","0","0","1","","0.3919863126","0.2","0.4","0.8","0.6","0.8037084922","0.3919863126","0.680542061","0.8771050955","","","","","","","","","","","","74","J","1","","","134","main_expt",""
"","bandit","214","917207","0.0-175.0-0.0","49380017","wem/bandit_either_3","AMN2BRHBYE4G1","either","8","417","","","","","","","0","0","1","0.5174750093","","0.2","0.4","0.8","0.6","","","","","0.8155916457","0.5174750093","0.7006187635","0.9103241533","","","","","","","","74","J","1","","","135","main_expt",""
"","bandit","215","919110","0.0-176.0-0.0","49380017","wem/bandit_either_3","AMN2BRHBYE4G1","either","8","381","","","","","","","0","0","1","0.4264762493","","0.2","0.4","0.8","0.6","","","","","0.8281957705","0.4264762493","0.6936815578","0.9126032517","","","","","","","","74","J","1","","","136","main_expt",""
"","bandit","216","921610","0.0-177.0-0.0","49380017","wem/bandit_either_3","AMN2BRHBYE4G1","either","8","979","","","","","","","0","0","1","","0.7055403129","0.2","0.4","0.8","0.6","0.7055403129","0.5351999402","0.6531428085","0.8983360858","","","","","","","","","","","","72","H","0","img/none_selected.jpg","","137","main_expt",""
"","bandit","217","923618","0.0-178.0-0.0","49380017","wem/bandit_either_3","AMN2BRHBYE4G1","either","8","484","","","","","","","0","1","0","","0.6884351598","0.2","0.4","0.8","0.6","0.6884351598","0.4758748922","0.6769758131","0.8851370462","","","","","","","","","","","","72","H","0","img/none_selected.jpg","","138","main_expt",""
"","bandit","218","925575","0.0-179.0-0.0","49380017","wem/bandit_either_3","AMN2BRHBYE4G1","either","8","441","","","","","","","1","0","0","0.6090423031","","0.2","0.4","0.8","0.6","","","","","0.6090423031","0.4039793023","0.7649589049","0.8662270416","","","","","","","","72","H","0","img/none_selected.jpg","","139","main_expt",""
"","bandit","219","927511","0.0-180.0-0.0","49380017","wem/bandit_either_3","AMN2BRHBYE4G1","either","8","413","","","","","","","0","1","0","","0.7000077187","0.2","0.4","0.8","0.6","0.7000077187","0.384774136","0.7674202191","0.8345767194","","","","","","","","","","","","72","H","0","img/none_selected.jpg","","140","main_expt",""
"","bandit","220","929430","0.0-181.0-0.0","49380017","wem/bandit_either_3","AMN2BRHBYE4G1","either","8","397","","","","","","","0","1","0","","0.6643185619","0.2","0.4","0.8","0.6","0.6643185619","0.327254859","0.8575114448","0.8783670964","","","","","","","","","","","","72","H","0","img/none_selected.jpg","","141","main_expt",""
"","bandit","221","931494","0.0-182.0-0.0","49380017","wem/bandit_either_3","AMN2BRHBYE4G1","either","8","537","","","","","","","0","0","1","","0.7079845674","0.2","0.4","0.8","0.6","0.7079845674","0.4536641492","0.8134430427","0.8895828315","","","","","","","","","","","","72","H","0","img/none_selected.jpg","","142","main_expt",""
"","bandit","222","933463","0.0-183.0-0.0","49380017","wem/bandit_either_3","AMN2BRHBYE4G1","either","8","446","","","","","","","0","0","1","","0.6624187643","0.2","0.4","0.8","0.6","0.6624187643","0.4348486293","0.8345505038","0.9053928798","","","","","","","","","","","","72","H","0","img/none_selected.jpg","","143","main_expt",""
"","bandit","223","935440","0.0-184.0-0.0","49380017","wem/bandit_either_3","AMN2BRHBYE4G1","either","8","453","","","","","","","0","0","1","","0.6779247185","0.2","0.4","0.8","0.6","0.6779247185","0.4086594597","0.7482817554","0.9033088386","","","","","","","","","","","","72","H","0","img/none_selected.jpg","","144","main_expt",""
"","bandit","224","937415","0.0-185.0-0.0","49380017","wem/bandit_either_3","AMN2BRHBYE4G1","either","8","452","","","","","","","0","1","0","","0.7400387939","0.2","0.4","0.8","0.6","0.7216102374","0.4420772456","0.7400387939","0.8572864227","","","","","","","","","","","","75","K","2","","","145","main_expt",""
"","bandit","225","939350","0.0-186.0-0.0","49380017","wem/bandit_either_3","AMN2BRHBYE4G1","either","8","415","","","","","","","0","0","1","0.795971973","","0.2","0.4","0.8","0.6","","","","","0.7837267619","0.508741462","0.795971973","0.8687508917","","","","","","","","75","K","2","","","146","main_expt",""
"","bandit","226","941407","0.0-187.0-0.0","49380017","wem/bandit_either_3","AMN2BRHBYE4G1","either","8","529","","","","","","","1","0","0","0.7503502301","","0.2","0.4","0.8","0.6","","","","","0.7652264833","0.4624398998","0.7503502301","0.8657621525","","","","","","","","75","K","2","","","147","main_expt",""
"","bandit","227","943375","0.0-188.0-0.0","49380017","wem/bandit_either_3","AMN2BRHBYE4G1","either","8","453","","","","","","","1","0","0","0.8200474043","","0.2","0.4","0.8","0.6","","","","","0.7358716413","0.4062589849","0.8200474043","0.8362891365","","","","","","","","75","K","2","","","148","main_expt",""
"","bandit","228","945562","0.0-189.0-0.0","49380017","wem/bandit_either_3","AMN2BRHBYE4G1","either","8","661","","","","","","","1","0","0","0.8509010271","","0.2","0.4","0.8","0.6","","","","","0.7129200786","0.4895331913","0.8509010271","0.8144386017","","","","","","","","75","K","2","","","149","main_expt",""
"","bandit","229","947463","0.0-190.0-0.0","49380017","wem/bandit_either_3","AMN2BRHBYE4G1","either","8","378","","","","","","","1","0","0","0.8298908313","","0.2","0.4","0.8","0.6","","","","","0.705531668","0.4704746919","0.8298908313","0.6948055455","","","","","","","","75","K","2","","","150","main_expt",""
"","bandit","230","950170","0.0-191.0-0.0","49380017","wem/bandit_either_3","AMN2BRHBYE4G1","either","8","1183","","","","","","","1","0","0","0.7362749002","","0.2","0.4","0.8","0.6","","","","","0.5744604188","0.4725745774","0.7362749002","0.6231991314","","","","","","","","75","K","2","","","151","main_expt",""
"","bandit","231","952127","0.0-192.0-0.0","49380017","wem/bandit_either_3","AMN2BRHBYE4G1","either","8","432","","","","","","","0","1","0","","0.7601791643","0.2","0.4","0.8","0.6","0.5372669321","0.4943906398","0.7601791643","0.7045057733","","","","","","","","","","","","75","K","2","","","152","main_expt",""
"","bandit","232","954087","0.0-193.0-0.0","49380017","wem/bandit_either_3","AMN2BRHBYE4G1","either","8","436","","","","","","","0","0","1","","0.7590648118","0.2","0.4","0.8","0.6","0.5447545218","0.4639524782","0.7590648118","0.5331338622","","","","","","","","","","","","75","K","2","","","153","main_expt",""
"","bandit","233","956011","0.0-194.0-0.0","49380017","wem/bandit_either_3","AMN2BRHBYE4G1","either","8","398","","","","","","","0","0","1","0.7805387907","","0.2","0.4","0.8","0.6","","","","","0.4191749193","0.3935792086","0.7805387907","0.5096720896","","","","","","","","75","K","2","","","154","main_expt",""
"","bandit","234","957918","0.0-195.0-0.0","49380017","wem/bandit_either_3","AMN2BRHBYE4G1","either","8","390","","","","","","","1","0","0","0.8450805748","","0.2","0.4","0.8","0.6","","","","","0.4269770229","0.4127348605","0.8450805748","0.4719011365","","","","","","","","75","K","2","","","155","main_expt",""
"","bandit","235","959800","0.0-196.0-0.0","49380017","wem/bandit_either_3","AMN2BRHBYE4G1","either","8","358","","","","","","","1","0","0","0.8513110265","","0.2","0.4","0.8","0.6","","","","","0.4589862704","0.3697675558","0.8513110265","0.5818713095","","","","","","","","75","K","2","","","156","main_expt",""
"","bandit","236","961710","0.0-197.0-0.0","49380017","wem/bandit_either_3","AMN2BRHBYE4G1","either","8","390","","","","","","","1","0","0","0.8226236001","","0.2","0.4","0.8","0.6","","","","","0.5370818316","0.3604398023","0.8226236001","0.5804022203","","","","","","","","75","K","2","","","157","main_expt",""
"","bandit","237","963624","0.0-198.0-0.0","49380017","wem/bandit_either_3","AMN2BRHBYE4G1","either","8","398","","","","","","","1","0","0","0.8843141367","","0.2","0.4","0.8","0.6","","","","","0.4757376888","0.4061750625","0.8843141367","0.4773166223","","","","","","","","75","K","2","","","158","main_expt",""
"","bandit","238","965546","0.0-199.0-0.0","49380017","wem/bandit_either_3","AMN2BRHBYE4G1","either","8","396","","","","","","","1","0","0","0.8078798749","","0.2","0.4","0.8","0.6","","","","","0.4887287223","0.4696417586","0.8078798749","0.419048585","","","","","","","","75","K","2","","","159","main_expt",""
"","bandit","239","967469","0.0-200.0-0.0","49380017","wem/bandit_either_3","AMN2BRHBYE4G1","either","8","403","","","","","","","1","0","0","0.7689164465","","0.2","0.4","0.8","0.6","","","","","0.4588489809","0.4659569923","0.7689164465","0.4672574386","","","","","","","","75","K","2","","","160","main_expt",""
"","bandit","240","969390","0.0-201.0-0.0","49380017","wem/bandit_either_3","AMN2BRHBYE4G1","either","8","404","","","","","","","1","0","0","0.7863156869","","0.2","0.4","0.8","0.6","","","","","0.4920004413","0.3947207546","0.7863156869","0.5612985374","","","","","","","","75","K","2","","","161","main_expt",""
"","bandit","241","971286","0.0-202.0-0.0","49380017","wem/bandit_either_3","AMN2BRHBYE4G1","either","8","373","","","","","","","1","0","0","0.8098475403","","0.2","0.4","0.8","0.6","","","","","0.5389881207","0.2460097942","0.8098475403","0.5288680036","","","","","","","","75","K","2","","","162","main_expt",""
"","bandit","242","973246","0.0-203.0-0.0","49380017","wem/bandit_either_3","AMN2BRHBYE4G1","either","8","433","","","","","","","0","1","0","","0.8222712862","0.2","0.4","0.8","0.6","0.6040136001","0.3603606056","0.8222712862","0.6096883849","","","","","","","","","","","","75","K","2","","","163","main_expt",""
"","bandit","243","975239","0.0-204.0-0.0","49380017","wem/bandit_either_3","AMN2BRHBYE4G1","either","8","478","","","","","","","0","1","0","","0.7876031225","0.2","0.4","0.8","0.6","0.623756827","0.2507209727","0.7876031225","0.4868922288","","","","","","","","","","","","75","K","2","","","164","main_expt",""
"","bandit","244","977081","0.0-205.0-0.0","49380017","wem/bandit_either_3","AMN2BRHBYE4G1","either","8","323","","","","","","","0","0","1","","0.7435052823","0.2","0.4","0.8","0.6","0.6164515281","0.2162043423","0.7435052823","0.4055552053","","","","","","","","","","","","75","K","2","","","165","main_expt",""
"","bandit","245","979201","0.0-206.0-0.0","49380017","wem/bandit_either_3","AMN2BRHBYE4G1","either","8","597","","","","","","","1","0","0","0.6545739251","","0.2","0.4","0.8","0.6","","","","","0.4660222187","0.2573409732","0.6545739251","0.4748236382","","","","","","","","75","K","2","","","166","main_expt",""
"","bandit","246","981175","0.0-207.0-0.0","49380017","wem/bandit_either_3","AMN2BRHBYE4G1","either","8","451","","","","","","","0","1","0","","0.6645907447","0.2","0.4","0.8","0.6","0.3336058786","0.4016088623","0.6645907447","0.4725242185","","","","","","","","","","","","75","K","2","","","167","main_expt",""
"","bandit","247","983096","0.0-208.0-0.0","49380017","wem/bandit_either_3","AMN2BRHBYE4G1","either","8","395","","","","","","","0","0","1","0.7243751722","","0.2","0.4","0.8","0.6","","","","","0.2887723434","0.5522858252","0.7243751722","0.4775208721","","","","","","","","75","K","2","","","168","main_expt",""
"","bandit","248","985055","0.0-209.0-0.0","49380017","wem/bandit_either_3","AMN2BRHBYE4G1","either","8","432","","","","","","","0","0","1","0.6453105543","","0.2","0.4","0.8","0.6","","","","","0.3357056981","0.5461138513","0.6453105543","0.4682732781","","","","","","","","75","K","2","","","169","main_expt",""
"","bandit","249","986975","0.0-210.0-0.0","49380017","wem/bandit_either_3","AMN2BRHBYE4G1","either","8","396","","","","","","","1","0","0","0.5334010147","","0.2","0.4","0.8","0.6","","","","","0.4179693295","0.4402798015","0.5334010147","0.4246621539","","","","","","","","75","K","2","","","170","main_expt",""
"","bandit","250","988966","0.0-211.0-0.0","49380017","wem/bandit_either_3","AMN2BRHBYE4G1","either","8","467","","","","","","","0","0","1","0.498122785","","0.2","0.4","0.8","0.6","","","","","0.3050406521","0.450294849","0.498122785","0.2843380906","","","","","","","","75","K","2","","","171","main_expt",""
"","bandit","251","990874","0.0-212.0-0.0","49380017","wem/bandit_either_3","AMN2BRHBYE4G1","either","8","383","","","","","","","0","0","1","0.4356988635","","0.2","0.4","0.8","0.6","","","","","0.3364500029","0.6475755847","0.4356988635","0.2668952485","","","","","","","","75","K","2","","","172","main_expt",""
"","bandit","252","992928","0.0-213.0-0.0","49380017","wem/bandit_either_3","AMN2BRHBYE4G1","either","8","526","","","","","","","0","1","0","","0.3802819164","0.2","0.4","0.8","0.6","0.421339117","0.6095255177","0.3964199688","0.3802819164","","","","","","","","","","","","76","L","3","","","173","main_expt",""
"","bandit","253","994879","0.0-214.0-0.0","49380017","wem/bandit_either_3","AMN2BRHBYE4G1","either","8","435","","","","","","","0","0","1","","0.4042455133","0.2","0.4","0.8","0.6","0.4913704717","0.5003628493","0.3194345802","0.4042455133","","","","","","","","","","","","76","L","3","","","174","main_expt",""
"","bandit","254","996831","0.0-215.0-0.0","49380017","wem/bandit_either_3","AMN2BRHBYE4G1","either","8","436","","","","","","","1","0","0","0.4393989914","","0.2","0.4","0.8","0.6","","","","","0.5882611891","0.5576212716","0.2865230234","0.4393989914","","","","","","","","76","L","3","","","175","main_expt",""
"","bandit","255","998839","0.0-216.0-0.0","49380017","wem/bandit_either_3","AMN2BRHBYE4G1","either","8","482","","","","","","","1","0","0","0.4705173801","","0.2","0.4","0.8","0.6","","","","","0.6313830356","0.6230679906","0.3352692614","0.4705173801","","","","","","","","76","L","3","","","176","main_expt",""
"","bandit","256","1000766","0.0-217.0-0.0","49380017","wem/bandit_either_3","AMN2BRHBYE4G1","either","8","407","","","","","","","1","0","0","0.4698597734","","0.2","0.4","0.8","0.6","","","","","0.5531265137","0.6501784685","0.3389264817","0.4698597734","","","","","","","","76","L","3","","","177","main_expt",""
"","bandit","257","1002746","0.0-218.0-0.0","49380017","wem/bandit_either_3","AMN2BRHBYE4G1","either","8","445","","","","","","","0","0","1","0.3570804947","","0.2","0.4","0.8","0.6","","","","","0.4621004187","0.6334155083","0.3709673039","0.3570804947","","","","","","","","76","L","3","","","178","main_expt",""
"","bandit","258","1004686","0.0-219.0-0.0","49380017","wem/bandit_either_3","AMN2BRHBYE4G1","either","8","415","","","","","","","0","0","1","","0.3441184995","0.2","0.4","0.8","0.6","0.512884041","0.7548338289","0.2940579202","0.3441184995","","","","","","","","","","","","76","L","3","","","179","main_expt",""
"","bandit","259","1006623","0.0-220.0-0.0","49380017","wem/bandit_either_3","AMN2BRHBYE4G1","either","8","409","","","","","","","0","0","1","0.3646136501","","0.2","0.4","0.8","0.6","","","","","0.506744284","0.8074073351","0.3218724025","0.3646136501","","","","","","","","76","L","3","","","180","main_expt",""
"","bandit","260","1008670","0.0-221.0-0.0","49380017","wem/bandit_either_3","AMN2BRHBYE4G1","either","8","521","","","","","","","1","0","0","0.3777688814","","0.2","0.4","0.8","0.6","","","","","0.4556494723","0.780721516","0.3633286182","0.3777688814","","","","","","","","76","L","3","","","181","main_expt",""
"","bandit","261","1010606","0.0-222.0-0.0","49380017","wem/bandit_either_3","AMN2BRHBYE4G1","either","8","405","","","","","","","0","1","0","","0.4578236703","0.2","0.4","0.8","0.6","0.4494525508","0.7647415088","0.3324048704","0.4578236703","","","","","","","","","","","","76","L","3","","","182","main_expt",""
"","bandit","262","1012456","0.0-223.0-0.0","49380017","wem/bandit_either_3","AMN2BRHBYE4G1","either","8","332","","","","","","","0","0","1","0.4244895098","","0.2","0.4","0.8","0.6","","","","","0.5189143621","0.7349307529","0.3092830871","0.4244895098","","","","","","","","76","L","3","","","183","main_expt",""
"","bandit","263","1014384","0.0-224.0-0.0","49380017","wem/bandit_either_3","AMN2BRHBYE4G1","either","8","401","","","","","","","0","1","0","","0.3566779322","0.2","0.4","0.8","0.6","0.5167606333","0.8298088288","0.3905692936","0.3566779322","","","","","","","","","","","","76","L","3","","","184","main_expt",""
"","bandit","264","1016279","0.0-225.0-0.0","49380017","wem/bandit_either_3","AMN2BRHBYE4G1","either","8","373","","","","","","","0","1","0","","0.3737416658","0.2","0.4","0.8","0.6","0.5270237034","0.7894193193","0.4626192444","0.3737416658","","","","","","","","","","","","76","L","3","","","185","main_expt",""
"","bandit","265","1018150","0.0-226.0-0.0","49380017","wem/bandit_either_3","AMN2BRHBYE4G1","either","8","343","","","","","","","1","0","0","0.3120176694","","0.2","0.4","0.8","0.6","","","","","0.5556036571","0.7665022487","0.6061762586","0.3120176694","","","","","","","","76","L","3","","","186","main_expt",""
"","bandit","266","1019857","0.0-227.0-0.0","49380017","wem/bandit_either_3","AMN2BRHBYE4G1","either","8","178","","","","","","","1","0","0","0.4134691065","","0.2","0.4","0.8","0.6","","","","","0.5865134094","0.7394266891","0.530958695","0.4134691065","","","","","","","","76","L","3","","","187","main_expt",""
"","bandit","267","1021752","0.0-228.0-0.0","49380017","wem/bandit_either_3","AMN2BRHBYE4G1","either","8","363","","","","","","","1","0","0","0.4637770407","","0.2","0.4","0.8","0.6","","","","","0.5034866795","0.6567361442","0.380024655","0.4637770407","","","","","","","","76","L","3","","","188","main_expt",""
"","bandit","268","1023611","0.0-229.0-0.0","49380017","wem/bandit_either_3","AMN2BRHBYE4G1","either","8","334","","","","","","","0","0","1","0.5739034088","","0.2","0.4","0.8","0.6","","","","","0.5761715841","0.6572443956","0.4563575644","0.5739034088","","","","","","","","76","L","3","","","189","main_expt",""
"","bandit","269","1025514","0.0-230.0-0.0","49380017","wem/bandit_either_3","AMN2BRHBYE4G1","either","8","375","","","","","","","1","0","0","0.5859504021","","0.2","0.4","0.8","0.6","","","","","0.5325489933","0.6735764162","0.4540853102","0.5859504021","","","","","","","","76","L","3","","","190","main_expt",""
"","bandit","270","1027445","0.0-231.0-0.0","49380017","wem/bandit_either_3","AMN2BRHBYE4G1","either","8","403","","","","","","","0","0","1","0.5325822721","","0.2","0.4","0.8","0.6","","","","","0.5614919892","0.5997518312","0.4328006462","0.5325822721","","","","","","","","76","L","3","","","191","main_expt",""
"","bandit","271","1029312","0.0-232.0-0.0","49380017","wem/bandit_either_3","AMN2BRHBYE4G1","either","8","336","","","","","","","0","0","1","","0.4622441745","0.2","0.4","0.8","0.6","0.5972832049","0.6582178794","0.4979354652","0.4622441745","","","","","","","","","","","","76","L","3","","","192","main_expt",""
"","bandit","272","1033751","0.0-233.0-0.0","49380017","wem/bandit_either_3","AMN2BRHBYE4G1","either","8","2911","","","","","","","0","0","1","","0.6997951875","0.2","0.4","0.8","0.6","0.6997951875","0.7246172867","0.4887187701","0.4765036663","","","","","","","","","","","","72","H","0","img/none_selected.jpg","","193","main_expt",""
"","bandit","273","1035713","0.0-234.0-0.0","49380017","wem/bandit_either_3","AMN2BRHBYE4G1","either","8","436","","","","","","","0","1","0","","0.7511051992","0.2","0.4","0.8","0.6","0.7511051992","0.7721250451","0.4993882896","0.4504155567","","","","","","","","","","","","72","H","0","img/none_selected.jpg","","194","main_expt",""
"","bandit","274","1037647","0.0-235.0-0.0","49380017","wem/bandit_either_3","AMN2BRHBYE4G1","either","8","412","","","","","","","0","1","0","","0.8281457055","0.2","0.4","0.8","0.6","0.8281457055","0.8366496483","0.5011331455","0.4354252764","","","","","","","","","","","","72","H","0","img/none_selected.jpg","","195","main_expt",""
"","bandit","275","1039574","0.0-236.0-0.0","49380017","wem/bandit_either_3","AMN2BRHBYE4G1","either","8","409","","","","","","","0","0","1","","0.8248544968","0.2","0.4","0.8","0.6","0.8248544968","0.8484646997","0.4487960683","0.4170899215","","","","","","","","","","","","72","H","0","img/none_selected.jpg","","196","main_expt",""
"","bandit","276","1041534","0.0-237.0-0.0","49380017","wem/bandit_either_3","AMN2BRHBYE4G1","either","8","434","","","","","","","0","1","0","","0.8532714289","0.2","0.4","0.8","0.6","0.8532714289","0.8734060335","0.3975590019","0.4149059055","","","","","","","","","","","","72","H","0","img/none_selected.jpg","","197","main_expt",""
"","bandit","277","1043557","0.0-238.0-0.0","49380017","wem/bandit_either_3","AMN2BRHBYE4G1","either","8","495","","","","","","","0","1","0","","0.7587337752","0.2","0.4","0.8","0.6","0.7587337752","0.8515360685","0.4161601929","0.4737306044","","","","","","","","","","","","72","H","0","img/none_selected.jpg","","198","main_expt",""
"","bandit","278","1045342","0.0-239.0-0.0","49380017","wem/bandit_either_3","AMN2BRHBYE4G1","either","8","250","","","","","","","0","1","0","","0.8124408481","0.2","0.4","0.8","0.6","0.8124408481","0.8805923715","0.4483979408","0.4541760911","","","","","","","","","","","","72","H","0","img/none_selected.jpg","","199","main_expt",""
"","bandit","279","1047224","0.0-240.0-0.0","49380017","wem/bandit_either_3","AMN2BRHBYE4G1","either","8","353","","","","","","","0","1","0","","0.7935778268","0.2","0.4","0.8","0.6","0.7935778268","0.9645818821","0.5303380975","0.3964714959","","","","","","","","","","","","72","H","0","img/none_selected.jpg","","200","main_expt",""
"","bandit","280","1049087","0.0-241.0-0.0","49380017","wem/bandit_either_3","AMN2BRHBYE4G1","either","8","336","","","","","","","0","1","0","","0.736942723","0.2","0.4","0.8","0.6","0.736942723","0.9689478708","0.4014045657","0.3815447649","","","","","","","","","","","","72","H","0","img/none_selected.jpg","","201","main_expt",""
"","bandit","281","1051015","0.0-242.0-0.0","49380017","wem/bandit_either_3","AMN2BRHBYE4G1","either","8","401","","","","","","","0","0","1","","0.7001951276","0.2","0.4","0.8","0.6","0.7001951276","0.9678291885","0.5115169607","0.3726367513","","","","","","","","","","","","72","H","0","img/none_selected.jpg","","202","main_expt",""
"","bandit","282","1052950","0.0-243.0-0.0","49380017","wem/bandit_either_3","AMN2BRHBYE4G1","either","8","411","","","","","","","0","1","0","","0.7209300446","0.2","0.4","0.8","0.6","0.7209300446","0.9633244117","0.5026191452","0.3062653216","","","","","","","","","","","","72","H","0","img/none_selected.jpg","","203","main_expt",""
"","bandit","283","1054881","0.0-244.0-0.0","49380017","wem/bandit_either_3","AMN2BRHBYE4G1","either","8","409","","","","","","","0","1","0","","0.8574132932","0.2","0.4","0.8","0.6","0.8574132932","0.9730812582","0.4736298566","0.2848501254","","","","","","","","","","","","72","H","0","img/none_selected.jpg","","204","main_expt",""
"","bandit","284","1056902","0.0-245.0-0.0","49380017","wem/bandit_either_3","AMN2BRHBYE4G1","either","8","493","","","","","","","0","1","0","","0.9038760074","0.2","0.4","0.8","0.6","0.9038760074","0.9521206422","0.6121858428","0.3457586416","","","","","","","","","","","","72","H","0","img/none_selected.jpg","","205","main_expt",""
"","bandit","285","1058825","0.0-246.0-0.0","49380017","wem/bandit_either_3","AMN2BRHBYE4G1","either","8","394","","","","","","","1","0","0","0.9273356803","","0.2","0.4","0.8","0.6","","","","","0.9273356803","0.9614764056","0.6377028942","0.4609097875","","","","","","","","72","H","0","img/none_selected.jpg","","206","main_expt",""
"","bandit","286","1060753","0.0-247.0-0.0","49380017","wem/bandit_either_3","AMN2BRHBYE4G1","either","8","396","","","","","","","0","1","0","","0.9502037039","0.2","0.4","0.8","0.6","0.9502037039","0.9625830716","0.5700483165","0.4980316736","","","","","","","","","","","","72","H","0","img/none_selected.jpg","","207","main_expt",""
"","bandit","287","1062639","0.0-248.0-0.0","49380017","wem/bandit_either_3","AMN2BRHBYE4G1","either","8","358","","","","","","","0","1","0","","0.944094639","0.2","0.4","0.8","0.6","0.944094639","0.9359306517","0.624428721","0.4537691537","","","","","","","","","","","","72","H","0","img/none_selected.jpg","","208","main_expt",""
"","bandit","288","1064543","0.0-249.0-0.0","49380017","wem/bandit_either_3","AMN2BRHBYE4G1","either","8","376","","","","","","","0","1","0","","0.9070839441","0.2","0.4","0.8","0.6","0.9070839441","0.9632917203","0.4861871301","0.4475842875","","","","","","","","","","","","72","H","0","img/none_selected.jpg","","209","main_expt",""
"","bandit","289","1066478","0.0-250.0-0.0","49380017","wem/bandit_either_3","AMN2BRHBYE4G1","either","8","401","","","","","","","0","1","0","","0.8960653589","0.2","0.4","0.8","0.6","0.8960653589","0.9633226214","0.3956361612","0.4803454055","","","","","","","","","","","","72","H","0","img/none_selected.jpg","","210","main_expt",""
"","bandit","290","1068583","0.0-251.0-0.0","49380017","wem/bandit_either_3","AMN2BRHBYE4G1","either","8","574","","","","","","","0","1","0","","0.9155455821","0.2","0.4","0.8","0.6","0.9155455821","0.9719781217","0.3599204452","0.4126443349","","","","","","","","","","","","72","H","0","img/none_selected.jpg","","211","main_expt",""
"","bandit","291","1071505","0.0-252.0-0.0","49380017","wem/bandit_either_3","AMN2BRHBYE4G1","either","8","1393","","","","","","","1","0","0","0.9087954588","","0.2","0.4","0.8","0.6","","","","","0.9087954588","0.9700781686","0.3349000901","0.3384802849","","","","","","","","72","H","0","img/none_selected.jpg","","212","main_expt",""
"","bandit","292","1073430","0.0-253.0-0.0","49380017","wem/bandit_either_3","AMN2BRHBYE4G1","either","8","399","","","","","","","0","1","0","","0.8528540962","0.2","0.4","0.8","0.6","0.8528540962","0.971165811","0.3183344176","0.3039242722","","","","","","","","","","","","72","H","0","img/none_selected.jpg","","213","main_expt",""
"","bandit","293","1075422","0.0-254.0-0.0","49380017","wem/bandit_either_3","AMN2BRHBYE4G1","either","8","462","","","","","","","0","1","0","","0.8506041988","0.2","0.4","0.8","0.6","0.8506041988","0.9627117","0.2390758011","0.4541530846","","","","","","","","","","","","72","H","0","img/none_selected.jpg","","214","main_expt",""
"","bandit","294","1077398","0.0-255.0-0.0","49380017","wem/bandit_either_3","AMN2BRHBYE4G1","either","8","447","","","","","","","0","0","1","","0.8001829978","0.2","0.4","0.8","0.6","0.8001829978","0.9552130497","0.1997060473","0.5101749692","","","","","","","","","","","","72","H","0","img/none_selected.jpg","","215","main_expt",""
"","bandit","295","1079246","0.0-256.0-0.0","49380017","wem/bandit_either_3","AMN2BRHBYE4G1","either","8","319","","","","","","","0","1","0","","0.733614842","0.2","0.4","0.8","0.6","0.733614842","0.9220350188","0.2326539104","0.5580520347","","","","","","","","","","","","72","H","0","img/none_selected.jpg","","216","main_expt",""
"","bandit","296","1081262","0.0-257.0-0.0","49380017","wem/bandit_either_3","AMN2BRHBYE4G1","either","8","491","","","","","","","0","1","0","","0.7479737912","0.2","0.4","0.8","0.6","0.7479737912","0.8736667029","0.2319826337","0.4368451062","","","","","","","","","","","","72","H","0","img/none_selected.jpg","","217","main_expt",""
"","bandit","297","1083155","0.0-258.0-0.0","49380017","wem/bandit_either_3","AMN2BRHBYE4G1","either","8","369","","","","","","","0","1","0","","0.7713398237","0.2","0.4","0.8","0.6","0.7713398237","0.7602784417","0.3143382807","0.3963441813","","","","","","","","","","","","72","H","0","img/none_selected.jpg","","218","main_expt",""
"","bandit","298","1085063","0.0-259.0-0.0","49380017","wem/bandit_either_3","AMN2BRHBYE4G1","either","8","379","","","","","","","1","0","0","0.8077055691","","0.2","0.4","0.8","0.6","","","","","0.8077055691","0.7643050859","0.3304972923","0.4809426617","","","","","","","","72","H","0","img/none_selected.jpg","","219","main_expt",""
"","bandit","299","1086999","0.0-260.0-0.0","49380017","wem/bandit_either_3","AMN2BRHBYE4G1","either","8","408","","","","","","","1","0","0","0.7778114837","","0.2","0.4","0.8","0.6","","","","","0.7778114837","0.7793587236","0.2866104843","0.397759556","","","","","","","","72","H","0","img/none_selected.jpg","","220","main_expt",""
"","bandit","300","1088887","0.0-261.0-0.0","49380017","wem/bandit_either_3","AMN2BRHBYE4G1","either","8","369","","","","","","","0","1","0","","0.7214198583","0.2","0.4","0.8","0.6","0.7214198583","0.82086311","0.3602561646","0.4087677593","","","","","","","","","","","","72","H","0","img/none_selected.jpg","","221","main_expt",""
"","bandit","301","1090781","0.0-262.0-0.0","49380017","wem/bandit_either_3","AMN2BRHBYE4G1","either","8","363","","","","","","","1","0","0","0.8091526303","","0.2","0.4","0.8","0.6","","","","","0.8091526303","0.8543662658","0.3228749062","0.4561280915","","","","","","","","72","H","0","img/none_selected.jpg","","222","main_expt",""
"","bandit","302","1092702","0.0-263.0-0.0","49380017","wem/bandit_either_3","AMN2BRHBYE4G1","either","8","401","","","","","","","1","0","0","0.8240838469","","0.2","0.4","0.8","0.6","","","","","0.8240838469","0.8599459829","0.2549485676","0.4419858618","","","","","","","","72","H","0","img/none_selected.jpg","","223","main_expt",""
"","bandit","303","1094681","0.0-264.0-0.0","49380017","wem/bandit_either_3","AMN2BRHBYE4G1","either","8","452","","","","","","","0","1","0","","0.7670685714","0.2","0.4","0.8","0.6","0.7670685714","0.8747991669","0.2389333491","0.494409337","","","","","","","","","","","","72","H","0","img/none_selected.jpg","","224","main_expt",""
"","bandit","304","1096614","0.0-265.0-0.0","49380017","wem/bandit_either_3","AMN2BRHBYE4G1","either","8","402","","","","","","","1","0","0","0.8775689376","","0.2","0.4","0.8","0.6","","","","","0.8775689376","0.7910409491","0.1517307125","0.3713348049","","","","","","","","72","H","0","img/none_selected.jpg","","225","main_expt",""
"","bandit","305","1098496","0.0-266.0-0.0","49380017","wem/bandit_either_3","AMN2BRHBYE4G1","either","8","350","","","","","","","1","0","0","0.8846504348","","0.2","0.4","0.8","0.6","","","","","0.8846504348","0.7212928749","0.1002450003","0.4013452417","","","","","","","","72","H","0","img/none_selected.jpg","","226","main_expt",""
"","bandit","306","1100449","0.0-267.0-0.0","49380017","wem/bandit_either_3","AMN2BRHBYE4G1","either","8","420","","","","","","","0","1","0","","0.851087938","0.2","0.4","0.8","0.6","0.851087938","0.7090989562","0.1049945928","0.393451628","","","","","","","","","","","","72","H","0","img/none_selected.jpg","","227","main_expt",""
"","bandit","307","1102343","0.0-268.0-0.0","49380017","wem/bandit_either_3","AMN2BRHBYE4G1","either","8","363","","","","","","","0","1","0","","0.9074720337","0.2","0.4","0.8","0.6","0.9074720337","0.6606736223","0.03915988122","0.4175844788","","","","","","","","","","","","72","H","0","img/none_selected.jpg","","228","main_expt",""
"","bandit","308","1104231","0.0-269.0-0.0","49380017","wem/bandit_either_3","AMN2BRHBYE4G1","either","8","357","","","","","","","0","1","0","","0.872332114","0.2","0.4","0.8","0.6","0.872332114","0.6893924153","0.03767516843","0.408368909","","","","","","","","","","","","72","H","0","img/none_selected.jpg","","229","main_expt",""
"","bandit","309","1106344","0.0-270.0-0.0","49380017","wem/bandit_either_3","AMN2BRHBYE4G1","either","8","582","","","","","","","0","0","1","","0.7967167456","0.2","0.4","0.8","0.6","0.7967167456","0.6067604319","0.05804790214","0.4777699032","","","","","","","","","","","","72","H","0","img/none_selected.jpg","","230","main_expt",""
"","bandit","310","1108191","0.0-271.0-0.0","49380017","wem/bandit_either_3","AMN2BRHBYE4G1","either","8","318","","","","","","","0","1","0","","0.7760618079","0.2","0.4","0.8","0.6","0.7760618079","0.5037419277","0.04963095007","0.4935442242","","","","","","","","","","","","72","H","0","img/none_selected.jpg","","231","main_expt",""
"","bandit","311","1110062","0.0-272.0-0.0","49380017","wem/bandit_either_3","AMN2BRHBYE4G1","either","8","342","","","","","","","0","0","1","","0.7765467853","0.2","0.4","0.8","0.6","0.7765467853","0.4339479185","0.03759782928","0.4889590317","","","","","","","","","","","","72","H","0","img/none_selected.jpg","","232","main_expt",""
"","bandit","312","1111807","0.0-273.0-0.0","49380017","wem/bandit_either_3","AMN2BRHBYE4G1","either","8","227","","","","","","","0","0","1","","0.7895219362","0.2","0.4","0.8","0.6","0.7895219362","0.4525546635","0.03147013274","0.5212294662","","","","","","","","","","","","72","H","0","img/none_selected.jpg","","233","main_expt",""
"","bandit","313","1113958","0.0-274.0-0.0","49380017","wem/bandit_either_3","AMN2BRHBYE4G1","either","8","629","","","","","","","0","0","1","0.7491899586","","0.2","0.4","0.8","0.6","","","","","0.7491899586","0.3680080929","0.03547440544","0.4420617392","","","","","","","","72","H","0","img/none_selected.jpg","","234","main_expt",""
"","bandit","314","1116449","0.0-275.0-0.0","49380017","wem/bandit_either_3","AMN2BRHBYE4G1","either","8","959","","","","","","","0","0","1","0.3416373547","","0.2","0.4","0.8","0.6","","","","","0.7397351474","0.3416373547","0.04486782706","0.4816955248","","","","","","","","74","J","1","","","235","main_expt",""
"","bandit","315","1118402","0.0-276.0-0.0","49380017","wem/bandit_either_3","AMN2BRHBYE4G1","either","8","418","","","","","","","0","0","1","","0.3722877153","0.2","0.4","0.8","0.6","0.6587673302","0.3722877153","0.03122339122","0.3028121716","","","","","","","","","","","","74","J","1","","","236","main_expt",""
"","bandit","316","1120438","0.0-277.0-0.0","49380017","wem/bandit_either_3","AMN2BRHBYE4G1","either","8","506","","","","","","","0","0","1","0.04191117605","","0.2","0.4","0.8","0.6","","","","","0.7534934878","0.3081002542","0.04191117605","0.3802502189","","","","","","","","75","K","2","","","237","main_expt",""
"","bandit","317","1122414","0.0-278.0-0.0","49380017","wem/bandit_either_3","AMN2BRHBYE4G1","either","8","446","","","","","","","0","0","1","0.06367740527","","0.2","0.4","0.8","0.6","","","","","0.8023031038","0.2546656634","0.06367740527","0.4160754302","","","","","","","","75","K","2","","","238","main_expt",""
"","bandit","318","1124909","0.0-279.0-0.0","49380017","wem/bandit_either_3","AMN2BRHBYE4G1","either","8","964","","","","","","","0","0","1","0.3510440385","","0.2","0.4","0.8","0.6","","","","","0.8333986962","0.3038323055","0.06315957527","0.3510440385","","","","","","","","76","L","3","","","239","main_expt",""
"","bandit","319","1126936","0.0-280.0-0.0","49380017","wem/bandit_either_3","AMN2BRHBYE4G1","either","8","497","","","","","","","0","0","1","","0.4182550587","0.2","0.4","0.8","0.6","0.840768508","0.291884511","0.05324295338","0.4182550587","","","","","","","","","","","","76","L","3","","","240","main_expt",""
"","bandit","320","1129806","0.0-281.0-0.0","49380017","wem/bandit_either_3","AMN2BRHBYE4G1","either","8","1339","","","","","","","0","0","1","0.5037088371","","0.2","0.4","0.8","0.6","","","","","0.823006268","0.3124975621","0.04641095239","0.5037088371","","","","","","","","76","L","3","","","241","main_expt",""
"","bandit","321","1133116","0.0-282.0-0.0","49380017","wem/bandit_either_3","AMN2BRHBYE4G1","either","8","1775","","","","","","","0","0","1","","0.8152254121","0.2","0.4","0.8","0.6","0.8152254121","0.3637146884","0.04954190216","0.4877747003","","","","","","","","","","","","72","H","0","img/none_selected.jpg","","242","main_expt",""
"","bandit","322","1135518","0.0-283.0-0.0","49380017","wem/bandit_either_3","AMN2BRHBYE4G1","either","8","885","","","","","","","0","0","1","0.3304840913","","0.2","0.4","0.8","0.6","","","","","0.8377493118","0.3304840913","0.05592390002","0.5007011316","","","","","","","","74","J","1","","","243","main_expt",""
"","bandit","323","1137489","0.0-284.0-0.0","49380017","wem/bandit_either_3","AMN2BRHBYE4G1","either","8","437","","","","","","","0","0","1","","0.4067767971","0.2","0.4","0.8","0.6","0.8258586067","0.4067767971","0.03808637997","0.5730304632","","","","","","","","","","","","74","J","1","","","244","main_expt",""
