"consent","trial_type","trial_index","time_elapsed","internal_node_id","subjID","study","MID","cond","drift","rt","responses","key_press","expt_phase","like","value","connected","gems","bombs","no_reward","GemPrChosen","BombPrChosen","GainOverPainPr_0","GainOverPainPr_1","GainOverPainPr_2","GainOverPainPr_3","LosePr_0","LosePr_1","LosePr_2","LosePr_3","WinPr_0","WinPr_1","WinPr_2","WinPr_3","Q0","Q1","Q2","gender","age","ethnicity","target","respCharCode","respKey","respChoiceNum","respChoice","practice","trial_counter","trial_label","button_pressed"
"INL_behavioral_consent_30min_online.html","consent","0","12421","0.0-0.0","49684556","wem/bandit_either_3","AXJSZ1BBVYIYL","either","6","","","","","","","","","","","","","","","","","","","","","","","","","","","","","","","","","","","","","","",""
"","survey-text","1","21612","0.0-1.0","49684556","wem/bandit_either_3","AXJSZ1BBVYIYL","either","6","8182","{""Q0"":""AXJSZ1BBVYIYL""}","","","","","","","","","","","","","","","","","","","","","","","","","","","","","","","","","","","","",""
"","text","2","34291","0.0-2.0","49684556","wem/bandit_either_3","AXJSZ1BBVYIYL","either","6","11669","","32","","","","","","","","","","","","","","","","","","","","","","","","","","","","","","","","","","","",""
"","text","3","41872","0.0-3.0","49684556","wem/bandit_either_3","AXJSZ1BBVYIYL","either","6","7581","","32","","","","","","","","","","","","","","","","","","","","","","","","","","","","","","","","","","","",""
"","text","4","65069","0.0-4.0","49684556","wem/bandit_either_3","AXJSZ1BBVYIYL","either","6","23195","","32","","","","","","","","","","","","","","","","","","","","","","","","","","","","","","","","","","","",""
"","text","5","79511","0.0-5.0","49684556","wem/bandit_either_3","AXJSZ1BBVYIYL","either","6","14440","","32","","","","","","","","","","","","","","","","","","","","","","","","","","","","","","","","","","","",""
"","text","6","112779","0.0-6.0","49684556","wem/bandit_either_3","AXJSZ1BBVYIYL","either","6","33266","","32","","","","","","","","","","","","","","","","","","","","","","","","","","","","","","","","","","","",""
"","text","7","118467","0.0-7.0","49684556","wem/bandit_either_3","AXJSZ1BBVYIYL","either","6","5686","","32","","","","","","","","","","","","","","","","","","","","","","","","","","","","","","","","","","","",""
"","text","8","123971","0.0-8.0","49684556","wem/bandit_either_3","AXJSZ1BBVYIYL","either","6","5503","","32","","","","","","","","","","","","","","","","","","","","","","","","","","","","","","","","","","","",""
"","identification","9","132911","0.0-9.0-0.0","49684556","wem/bandit_either_3","AXJSZ1BBVYIYL","either","6","8926","","","","5","5","6","","","","","","","","","","","","","","","","","","","","","","","","the village of Zur","","","","","","","",""
"","identification","10","141215","0.0-9.0-1.0","49684556","wem/bandit_either_3","AXJSZ1BBVYIYL","either","6","7280","","","","1","3","1","","","","","","","","","","","","","","","","","","","","","","","","the village of Nyx","","","","","","","",""
"","text","11","147744","0.0-10.0","49684556","wem/bandit_either_3","AXJSZ1BBVYIYL","either","6","5527","","32","","","","","","","","","","","","","","","","","","","","","","","","","","","","","","","","","","","",""
"","text","12","150839","0.0-11.0","49684556","wem/bandit_either_3","AXJSZ1BBVYIYL","either","6","3092","","32","","","","","","","","","","","","","","","","","","","","","","","","","","","","","","","","","","","",""
"","text","13","152493","0.0-12.0","49684556","wem/bandit_either_3","AXJSZ1BBVYIYL","either","6","1653","","32","","","","","","","","","","","","","","","","","","","","","","","","","","","","","","","","","","","",""
"","text","14","159654","0.0-13.0","49684556","wem/bandit_either_3","AXJSZ1BBVYIYL","either","6","7160","","32","","","","","","","","","","","","","","","","","","","","","","","","","","","","","","","","","","","",""
"","bandit","15","163919","0.0-14.0-0.0","49684556","wem/bandit_either_3","AXJSZ1BBVYIYL","either","6","2748","","","","","","","0","0","1","0","0","","","","","0","","","","0","","","","","","","","","","","74","J","0","img/none_selected_demo.jpg","true","0","",""
"","bandit","16","166452","0.0-15.0-0.0","49684556","wem/bandit_either_3","AXJSZ1BBVYIYL","either","6","1007","","","","","","","0","0","1","0","0","","","","","0","","","","0","","","","","","","","","","","75","K","0","img/none_selected_demo.jpg","true","0","",""
"","text","17","174278","0.0-16.0","49684556","wem/bandit_either_3","AXJSZ1BBVYIYL","either","6","7825","","32","","","","","","","","","","","","","","","","","","","","","","","","","","","","","","","","","","","",""
"","text","18","184768","0.0-17.0","49684556","wem/bandit_either_3","AXJSZ1BBVYIYL","either","6","10489","","32","","","","","","","","","","","","","","","","","","","","","","","","","","","","","","","","","","","",""
"","text","19","195432","0.0-18.0","49684556","wem/bandit_either_3","AXJSZ1BBVYIYL","either","6","10663","","32","","","","","","","","","","","","","","","","","","","","","","","","","","","","","","","","","","","",""
"","text","20","199682","0.0-19.0","49684556","wem/bandit_either_3","AXJSZ1BBVYIYL","either","6","4248","","32","","","","","","","","","","","","","","","","","","","","","","","","","","","","","","","","","","","",""
"","bandit","21","202027","0.0-20.0-0.0","49684556","wem/bandit_either_3","AXJSZ1BBVYIYL","either","6","813","","","","","","","0","0","1","","0.8","0.5","0.5","","","0.8","0.2","","","","","","","","","","","","","","74","J","0","img/none_selected_demo.jpg","true","0","80_20_practice",""
"","bandit","22","203954","0.0-20.0-1.0","49684556","wem/bandit_either_3","AXJSZ1BBVYIYL","either","6","404","","","","","","","1","0","0","0.8","","0.5","0.5","","","","","","","0.8","0.2","","","","","","","","","","74","J","0","img/none_selected_demo.jpg","true","0","80_20_practice",""
"","bandit","23","205927","0.0-20.0-2.0","49684556","wem/bandit_either_3","AXJSZ1BBVYIYL","either","6","456","","","","","","","1","0","0","0.8","","0.5","0.5","","","","","","","0.8","0.2","","","","","","","","","","74","J","0","img/none_selected_demo.jpg","true","0","80_20_practice",""
"","bandit","24","207855","0.0-20.0-3.0","49684556","wem/bandit_either_3","AXJSZ1BBVYIYL","either","6","400","","","","","","","1","0","0","0.8","","0.5","0.5","","","","","","","0.8","0.2","","","","","","","","","","74","J","0","img/none_selected_demo.jpg","true","0","80_20_practice",""
"","bandit","25","209736","0.0-20.0-4.0","49684556","wem/bandit_either_3","AXJSZ1BBVYIYL","either","6","351","","","","","","","1","0","0","0.8","","0.5","0.5","","","","","","","0.8","0.2","","","","","","","","","","74","J","0","img/none_selected_demo.jpg","true","0","80_20_practice",""
"","bandit","26","211569","0.0-20.0-5.0","49684556","wem/bandit_either_3","AXJSZ1BBVYIYL","either","6","317","","","","","","","0","1","0","","0.8","0.5","0.5","","","0.8","0.2","","","","","","","","","","","","","","74","J","0","img/none_selected_demo.jpg","true","0","80_20_practice",""
"","bandit","27","213542","0.0-20.0-6.0","49684556","wem/bandit_either_3","AXJSZ1BBVYIYL","either","6","455","","","","","","","1","0","0","0.8","","0.5","0.5","","","","","","","0.8","0.2","","","","","","","","","","74","J","0","img/none_selected_demo.jpg","true","0","80_20_practice",""
"","bandit","28","215485","0.0-20.0-7.0","49684556","wem/bandit_either_3","AXJSZ1BBVYIYL","either","6","416","","","","","","","0","1","0","","0.8","0.5","0.5","","","0.8","0.2","","","","","","","","","","","","","","74","J","0","img/none_selected_demo.jpg","true","0","80_20_practice",""
"","bandit","29","217366","0.0-20.0-8.0","49684556","wem/bandit_either_3","AXJSZ1BBVYIYL","either","6","361","","","","","","","0","1","0","","0.8","0.5","0.5","","","0.8","0.2","","","","","","","","","","","","","","74","J","0","img/none_selected_demo.jpg","true","0","80_20_practice",""
"","bandit","30","219169","0.0-20.0-9.0","49684556","wem/bandit_either_3","AXJSZ1BBVYIYL","either","6","285","","","","","","","1","0","0","0.8","","0.5","0.5","","","","","","","0.8","0.2","","","","","","","","","","74","J","0","img/none_selected_demo.jpg","true","0","80_20_practice",""
"","bandit","31","221034","0.0-20.0-10.0","49684556","wem/bandit_either_3","AXJSZ1BBVYIYL","either","6","350","","","","","","","1","0","0","0.8","","0.5","0.5","","","","","","","0.8","0.2","","","","","","","","","","74","J","0","img/none_selected_demo.jpg","true","0","80_20_practice",""
"","bandit","32","222852","0.0-20.0-11.0","49684556","wem/bandit_either_3","AXJSZ1BBVYIYL","either","6","296","","","","","","","0","1","0","","0.8","0.5","0.5","","","0.8","0.2","","","","","","","","","","","","","","74","J","0","img/none_selected_demo.jpg","true","0","80_20_practice",""
"","bandit","33","224670","0.0-20.0-12.0","49684556","wem/bandit_either_3","AXJSZ1BBVYIYL","either","6","291","","","","","","","0","1","0","","0.8","0.5","0.5","","","0.8","0.2","","","","","","","","","","","","","","74","J","0","img/none_selected_demo.jpg","true","0","80_20_practice",""
"","bandit","34","226504","0.0-20.0-13.0","49684556","wem/bandit_either_3","AXJSZ1BBVYIYL","either","6","311","","","","","","","1","0","0","0.8","","0.5","0.5","","","","","","","0.8","0.2","","","","","","","","","","74","J","0","img/none_selected_demo.jpg","true","0","80_20_practice",""
"","bandit","35","228384","0.0-20.0-14.0","49684556","wem/bandit_either_3","AXJSZ1BBVYIYL","either","6","355","","","","","","","0","1","0","","0.8","0.5","0.5","","","0.8","0.2","","","","","","","","","","","","","","74","J","0","img/none_selected_demo.jpg","true","0","80_20_practice",""
"","bandit","36","230284","0.0-20.0-15.0","49684556","wem/bandit_either_3","AXJSZ1BBVYIYL","either","6","370","","","","","","","0","1","0","","0.8","0.5","0.5","","","0.8","0.2","","","","","","","","","","","","","","74","J","0","img/none_selected_demo.jpg","true","0","80_20_practice",""
"","bandit","37","232441","0.0-20.0-16.0","49684556","wem/bandit_either_3","AXJSZ1BBVYIYL","either","6","631","","","","","","","0","0","1","","0.8","0.5","0.5","","","0.8","0.2","","","","","","","","","","","","","","74","J","0","img/none_selected_demo.jpg","true","0","80_20_practice",""
"","bandit","38","234321","0.0-20.0-17.0","49684556","wem/bandit_either_3","AXJSZ1BBVYIYL","either","6","365","","","","","","","0","1","0","","0.8","0.5","0.5","","","0.8","0.2","","","","","","","","","","","","","","74","J","0","img/none_selected_demo.jpg","true","0","80_20_practice",""
"","bandit","39","236248","0.0-20.0-18.0","49684556","wem/bandit_either_3","AXJSZ1BBVYIYL","either","6","408","","","","","","","0","1","0","","0.8","0.5","0.5","","","0.8","0.2","","","","","","","","","","","","","","74","J","0","img/none_selected_demo.jpg","true","0","80_20_practice",""
"","bandit","40","238098","0.0-20.0-19.0","49684556","wem/bandit_either_3","AXJSZ1BBVYIYL","either","6","330","","","","","","","1","0","0","0.8","","0.5","0.5","","","","","","","0.8","0.2","","","","","","","","","","74","J","0","img/none_selected_demo.jpg","true","0","80_20_practice",""
"","text","41","241543","0.0-21.0","49684556","wem/bandit_either_3","AXJSZ1BBVYIYL","either","6","3445","","32","","","","","","","","","","","","","","","","","","","","","","","","","","","","","","","","","","","",""
"","bandit","42","244392","0.0-22.0-0.0","49684556","wem/bandit_either_3","AXJSZ1BBVYIYL","either","6","1326","","","","","","","1","0","0","1","0","","","","","0","1","","","1","0","","","","","","","","","","74","J","0","img/none_selected_demo.jpg","true","0","",""
"","text","43","248664","0.0-23.0","49684556","wem/bandit_either_3","AXJSZ1BBVYIYL","either","6","4271","","32","","","","","","","","","","","","","","","","","","","","","","","","","","","","","","","","","","","",""
"","text","44","251945","0.0-24.0","49684556","wem/bandit_either_3","AXJSZ1BBVYIYL","either","6","3280","","32","","","","","","","","","","","","","","","","","","","","","","","","","","","","","","","","","","","",""
"","text","45","255960","0.0-25.0","49684556","wem/bandit_either_3","AXJSZ1BBVYIYL","either","6","4014","","32","","","","","","","","","","","","","","","","","","","","","","","","","","","","","","","","","","","",""
"","text","46","259963","0.0-26.0","49684556","wem/bandit_either_3","AXJSZ1BBVYIYL","either","6","4002","","32","","","","","","","","","","","","","","","","","","","","","","","","","","","","","","","","","","","",""
"","text","47","270809","0.0-27.0","49684556","wem/bandit_either_3","AXJSZ1BBVYIYL","either","6","10844","","32","","","","","","","","","","","","","","","","","","","","","","","","","","","","","","","","","","","",""
"","text","48","274971","0.0-28.0","49684556","wem/bandit_either_3","AXJSZ1BBVYIYL","either","6","4159","","32","","","","","","","","","","","","","","","","","","","","","","","","","","","","","","","","","","","",""
"","text","49","278865","0.0-29.0","49684556","wem/bandit_either_3","AXJSZ1BBVYIYL","either","6","3891","","32","","","","","","","","","","","","","","","","","","","","","","","","","","","","","","","","","","","",""
"","text","50","284142","0.0-30.0","49684556","wem/bandit_either_3","AXJSZ1BBVYIYL","either","6","5274","","32","","","","","","","","","","","","","","","","","","","","","","","","","","","","","","","","","","","",""
"","text","51","289331","0.0-31.0","49684556","wem/bandit_either_3","AXJSZ1BBVYIYL","either","6","5187","","32","","","","","","","","","","","","","","","","","","","","","","","","","","","","","","","","","","","",""
"","text","52","291426","0.0-32.0","49684556","wem/bandit_either_3","AXJSZ1BBVYIYL","either","6","2093","","32","","","","","","","","","","","","","","","","","","","","","","","","","","","","","","","","","","","",""
"","text","53","294162","0.0-33.0","49684556","wem/bandit_either_3","AXJSZ1BBVYIYL","either","6","2735","","32","","","","","","","","","","","","","","","","","","","","","","","","","","","","","","","","","","","",""
"","bandit","54","296740","0.0-34.0-0.0","49684556","wem/bandit_either_3","AXJSZ1BBVYIYL","either","6","1058","","","","","","","0","0","1","","0.8","0.5","0.5","0.5","0.5","0.8","0.2","0.6","0.2","","","","","","","","","","","","72","H","0","img/none_selected.jpg","true","0","full_practice",""
"","bandit","55","298558","0.0-34.0-1.0","49684556","wem/bandit_either_3","AXJSZ1BBVYIYL","either","6","291","","","","","","","1","0","0","0.8","","0.5","0.5","0.5","0.5","","","","","0.8","0.2","0.6","0.2","","","","","","","","72","H","0","img/none_selected.jpg","true","0","full_practice",""
"","bandit","56","300391","0.0-34.0-2.0","49684556","wem/bandit_either_3","AXJSZ1BBVYIYL","either","6","312","","","","","","","1","0","0","0.8","","0.5","0.5","0.5","0.5","","","","","0.8","0.2","0.6","0.2","","","","","","","","72","H","0","img/none_selected.jpg","true","0","full_practice",""
"","bandit","57","302303","0.0-34.0-3.0","49684556","wem/bandit_either_3","AXJSZ1BBVYIYL","either","6","395","","","","","","","1","0","0","0.8","","0.5","0.5","0.5","0.5","","","","","0.8","0.2","0.6","0.2","","","","","","","","72","H","0","img/none_selected.jpg","true","0","full_practice",""
"","bandit","58","304137","0.0-34.0-4.0","49684556","wem/bandit_either_3","AXJSZ1BBVYIYL","either","6","319","","","","","","","1","0","0","0.8","","0.5","0.5","0.5","0.5","","","","","0.8","0.2","0.6","0.2","","","","","","","","72","H","0","img/none_selected.jpg","true","0","full_practice",""
"","bandit","59","305971","0.0-34.0-5.0","49684556","wem/bandit_either_3","AXJSZ1BBVYIYL","either","6","311","","","","","","","0","0","1","0.8","","0.5","0.5","0.5","0.5","","","","","0.8","0.2","0.6","0.2","","","","","","","","72","H","0","img/none_selected.jpg","true","0","full_practice",""
"","bandit","60","307820","0.0-34.0-6.0","49684556","wem/bandit_either_3","AXJSZ1BBVYIYL","either","6","327","","","","","","","1","0","0","0.8","","0.5","0.5","0.5","0.5","","","","","0.8","0.2","0.6","0.2","","","","","","","","72","H","0","img/none_selected.jpg","true","0","full_practice",""
"","bandit","61","309624","0.0-34.0-7.0","49684556","wem/bandit_either_3","AXJSZ1BBVYIYL","either","6","287","","","","","","","0","1","0","","0.8","0.5","0.5","0.5","0.5","0.8","0.2","0.6","0.2","","","","","","","","","","","","72","H","0","img/none_selected.jpg","true","0","full_practice",""
"","bandit","62","311504","0.0-34.0-8.0","49684556","wem/bandit_either_3","AXJSZ1BBVYIYL","either","6","367","","","","","","","1","0","0","0.8","","0.5","0.5","0.5","0.5","","","","","0.8","0.2","0.6","0.2","","","","","","","","72","H","0","img/none_selected.jpg","true","0","full_practice",""
"","bandit","63","313275","0.0-34.0-9.0","49684556","wem/bandit_either_3","AXJSZ1BBVYIYL","either","6","245","","","","","","","1","0","0","0.2","","0.5","0.5","0.5","0.5","","","","","0.8","0.2","0.6","0.2","","","","","","","","74","J","1","","true","0","full_practice",""
"","bandit","64","314845","0.0-34.0-10.0","49684556","wem/bandit_either_3","AXJSZ1BBVYIYL","either","6","53","","","","","","","0","0","1","","0.2","0.5","0.5","0.5","0.5","0.8","0.2","0.6","0.2","","","","","","","","","","","","74","J","1","","true","0","full_practice",""
"","bandit","65","316399","0.0-34.0-11.0","49684556","wem/bandit_either_3","AXJSZ1BBVYIYL","either","6","29","","","","","","","0","0","1","0.2","","0.5","0.5","0.5","0.5","","","","","0.8","0.2","0.6","0.2","","","","","","","","74","J","1","","true","0","full_practice",""
"","bandit","66","318078","0.0-34.0-12.0","49684556","wem/bandit_either_3","AXJSZ1BBVYIYL","either","6","166","","","","","","","1","0","0","0.2","","0.5","0.5","0.5","0.5","","","","","0.8","0.2","0.6","0.2","","","","","","","","74","J","1","","true","0","full_practice",""
"","bandit","67","319958","0.0-34.0-13.0","49684556","wem/bandit_either_3","AXJSZ1BBVYIYL","either","6","358","","","","","","","0","0","1","","0.2","0.5","0.5","0.5","0.5","0.8","0.2","0.6","0.2","","","","","","","","","","","","74","J","1","","true","0","full_practice",""
"","bandit","68","321730","0.0-34.0-14.0","49684556","wem/bandit_either_3","AXJSZ1BBVYIYL","either","6","248","","","","","","","0","1","0","","0.6","0.5","0.5","0.5","0.5","0.8","0.2","0.6","0.2","","","","","","","","","","","","75","K","2","","true","0","full_practice",""
"","bandit","69","323533","0.0-34.0-15.0","49684556","wem/bandit_either_3","AXJSZ1BBVYIYL","either","6","288","","","","","","","0","0","1","","0.6","0.5","0.5","0.5","0.5","0.8","0.2","0.6","0.2","","","","","","","","","","","","75","K","2","","true","0","full_practice",""
"","bandit","70","325335","0.0-34.0-16.0","49684556","wem/bandit_either_3","AXJSZ1BBVYIYL","either","6","276","","","","","","","1","0","0","0.6","","0.5","0.5","0.5","0.5","","","","","0.8","0.2","0.6","0.2","","","","","","","","75","K","2","","true","0","full_practice",""
"","bandit","71","327138","0.0-34.0-17.0","49684556","wem/bandit_either_3","AXJSZ1BBVYIYL","either","6","280","","","","","","","0","0","1","","0.6","0.5","0.5","0.5","0.5","0.8","0.2","0.6","0.2","","","","","","","","","","","","75","K","2","","true","0","full_practice",""
"","bandit","72","328755","0.0-34.0-18.0","49684556","wem/bandit_either_3","AXJSZ1BBVYIYL","either","6","96","","","","","","","0","1","0","","0.8","0.5","0.5","0.5","0.5","0.8","0.2","0.6","0.2","","","","","","","","","","","","72","H","0","img/none_selected.jpg","true","0","full_practice",""
"","bandit","73","330557","0.0-34.0-19.0","49684556","wem/bandit_either_3","AXJSZ1BBVYIYL","either","6","278","","","","","","","1","0","0","0.8","","0.5","0.5","0.5","0.5","","","","","0.8","0.2","0.6","0.2","","","","","","","","72","H","0","img/none_selected.jpg","true","0","full_practice",""
"","text","74","333503","0.0-35.0","49684556","wem/bandit_either_3","AXJSZ1BBVYIYL","either","6","2943","","32","","","","","","","","","","","","","","","","","","","","","","","","","","","","","","","","","","","",""
"","text","75","343703","0.0-36.0","49684556","wem/bandit_either_3","AXJSZ1BBVYIYL","either","6","9196","","32","","","","","","","","","","","","","","","","","","","","","","","","","","","","","","","","","","","",""
"","text","76","352527","0.0-37.0","49684556","wem/bandit_either_3","AXJSZ1BBVYIYL","either","6","8820","","32","","","","","","","","","","","","","","","","","","","","","","","","","","","","","","","","","","","",""
"","text","77","356881","0.0-38.0","49684556","wem/bandit_either_3","AXJSZ1BBVYIYL","either","6","4350","","32","","","","","","","","","","","","","","","","","","","","","","","","","","","","","","","","","","","",""
"","text","78","362909","0.0-39.0","49684556","wem/bandit_either_3","AXJSZ1BBVYIYL","either","6","6026","","32","","","","","","","","","","","","","","","","","","","","","","","","","","","","","","","","","","","",""
"","text","79","367274","0.0-40.0","49684556","wem/bandit_either_3","AXJSZ1BBVYIYL","either","6","4363","","32","","","","","","","","","","","","","","","","","","","","","","","","","","","","","","","","","","","",""
"","bandit","80","370150","0.0-41.0-0.0","49684556","wem/bandit_either_3","AXJSZ1BBVYIYL","either","6","1355","","","","","","","0","0","1","0.1947351938","","0.6","0.2","0.8","0.4","","","","","0.1947351938","0.7197236342","0.3049938501","0.2309914537","","","","","","","","72","H","0","img/none_selected.jpg","","1","main_expt",""
"","bandit","81","371969","0.0-42.0-0.0","49684556","wem/bandit_either_3","AXJSZ1BBVYIYL","either","6","297","","","","","","","0","0","1","0.1865171684","","0.6","0.2","0.8","0.4","","","","","0.1865171684","0.7453792406","0.3105507028","0.2351366282","","","","","","","","72","H","0","img/none_selected.jpg","","2","main_expt",""
"","bandit","82","373756","0.0-43.0-0.0","49684556","wem/bandit_either_3","AXJSZ1BBVYIYL","either","6","265","","","","","","","0","0","1","0.7422746785","","0.6","0.2","0.8","0.4","","","","","0.1578482069","0.7422746785","0.347932066","0.3338792953","","","","","","","","74","J","1","","","3","main_expt",""
"","bandit","83","375559","0.0-44.0-0.0","49684556","wem/bandit_either_3","AXJSZ1BBVYIYL","either","6","279","","","","","","","0","1","0","","0.8152876082","0.6","0.2","0.8","0.4","0.1733557992","0.8152876082","0.294099503","0.2578124611","","","","","","","","","","","","74","J","1","","","4","main_expt",""
"","bandit","84","377455","0.0-45.0-0.0","49684556","wem/bandit_either_3","AXJSZ1BBVYIYL","either","6","382","","","","","","","0","0","1","","0.8494846052","0.6","0.2","0.8","0.4","0.1275681293","0.8494846052","0.256228135","0.152782507","","","","","","","","","","","","74","J","1","","","5","main_expt",""
"","bandit","85","379180","0.0-46.0-0.0","49684556","wem/bandit_either_3","AXJSZ1BBVYIYL","either","6","207","","","","","","","1","0","0","0.8036792828","","0.6","0.2","0.8","0.4","","","","","0.1776351543","0.8036792828","0.3142053347","0.200224935","","","","","","","","74","J","1","","","6","main_expt",""
"","bandit","86","380967","0.0-47.0-0.0","49684556","wem/bandit_either_3","AXJSZ1BBVYIYL","either","6","264","","","","","","","0","1","0","","0.8659664865","0.6","0.2","0.8","0.4","0.1412615145","0.8659664865","0.2382568898","0.2200442108","","","","","","","","","","","","74","J","1","","","7","main_expt",""
"","bandit","87","382770","0.0-48.0-0.0","49684556","wem/bandit_either_3","AXJSZ1BBVYIYL","either","6","288","","","","","","","0","0","1","","0.8475436228","0.6","0.2","0.8","0.4","0.1508054742","0.8475436228","0.220471749","0.1516915951","","","","","","","","","","","","74","J","1","","","8","main_expt",""
"","bandit","88","384526","0.0-49.0-0.0","49684556","wem/bandit_either_3","AXJSZ1BBVYIYL","either","6","229","","","","","","","0","0","1","0.2842820234","","0.6","0.2","0.8","0.4","","","","","0.1882404854","0.8034999265","0.2842820234","0.1468829212","","","","","","","","75","K","2","","","9","main_expt",""
"","bandit","89","386313","0.0-50.0-0.0","49684556","wem/bandit_either_3","AXJSZ1BBVYIYL","either","6","268","","","","","","","0","0","1","0.3392415315","","0.6","0.2","0.8","0.4","","","","","0.1731305678","0.7148412232","0.3392415315","0.1507643719","","","","","","","","75","K","2","","","10","main_expt",""
"","bandit","90","388038","0.0-51.0-0.0","49684556","wem/bandit_either_3","AXJSZ1BBVYIYL","either","6","198","","","","","","","0","0","1","0.4470346709","","0.6","0.2","0.8","0.4","","","","","0.2475279461","0.7213030285","0.4470346709","0.18301","","","","","","","","75","K","2","","","11","main_expt",""
"","bandit","91","389841","0.0-52.0-0.0","49684556","wem/bandit_either_3","AXJSZ1BBVYIYL","either","6","282","","","","","","","0","0","1","","0.209562337","0.6","0.2","0.8","0.4","0.2068792089","0.7396148754","0.5143820195","0.209562337","","","","","","","","","","","","76","L","3","","","12","main_expt",""
"","bandit","92","391705","0.0-53.0-0.0","49684556","wem/bandit_either_3","AXJSZ1BBVYIYL","either","6","348","","","","","","","0","0","1","","0.2133897639","0.6","0.2","0.8","0.4","0.1594062408","0.6870781676","0.4934308908","0.2133897639","","","","","","","","","","","","76","L","3","","","13","main_expt",""
"","bandit","93","393384","0.0-54.0-0.0","49684556","wem/bandit_either_3","AXJSZ1BBVYIYL","either","6","152","","","","","","","1","0","0","0.6561171826","","0.6","0.2","0.8","0.4","","","","","0.1808320347","0.6561171826","0.5884397519","0.1865122749","","","","","","","","74","J","1","","","14","main_expt",""
"","bandit","94","395141","0.0-55.0-0.0","49684556","wem/bandit_either_3","AXJSZ1BBVYIYL","either","6","231","","","","","","","0","1","0","","0.6255101569","0.6","0.2","0.8","0.4","0.2401125286","0.6255101569","0.425765204","0.3169691733","","","","","","","","","","","","74","J","1","","","15","main_expt",""
"","bandit","95","396679","0.0-56.0-0.0","49684556","wem/bandit_either_3","AXJSZ1BBVYIYL","either","6","21","","","","","","","0","1","0","","0.6101220295","0.6","0.2","0.8","0.4","0.1823220599","0.6101220295","0.4458974369","0.3927767979","","","","","","","","","","","","74","J","1","","","16","main_expt",""
"","bandit","96","398513","0.0-57.0-0.0","49684556","wem/bandit_either_3","AXJSZ1BBVYIYL","either","6","320","","","","","","","0","0","1","","0.6233337625","0.6","0.2","0.8","0.4","0.2076179308","0.6233337625","0.4907358526","0.2882183284","","","","","","","","","","","","74","J","1","","","17","main_expt",""
"","bandit","97","400331","0.0-58.0-0.0","49684556","wem/bandit_either_3","AXJSZ1BBVYIYL","either","6","290","","","","","","","0","1","0","","0.598865074","0.6","0.2","0.8","0.4","0.2310064443","0.598865074","0.4895096529","0.3212622409","","","","","","","","","","","","74","J","1","","","18","main_expt",""
"","bandit","98","402165","0.0-59.0-0.0","49684556","wem/bandit_either_3","AXJSZ1BBVYIYL","either","6","311","","","","","","","0","0","1","","0.6318918302","0.6","0.2","0.8","0.4","0.1919199612","0.6318918302","0.5437378015","0.3678238944","","","","","","","","","","","","74","J","1","","","19","main_expt",""
"","bandit","99","403875","0.0-60.0-0.0","49684556","wem/bandit_either_3","AXJSZ1BBVYIYL","either","6","185","","","","","","","0","1","0","","0.5667690756","0.6","0.2","0.8","0.4","0.2150176637","0.5667690756","0.543071052","0.4357360734","","","","","","","","","","","","74","J","1","","","20","main_expt",""
"","bandit","100","405881","0.0-61.0-0.0","49684556","wem/bandit_either_3","AXJSZ1BBVYIYL","either","6","478","","","","","","","0","1","0","","0.6364396753","0.6","0.2","0.8","0.4","0.2980309021","0.6364396753","0.5457928974","0.4486518506","","","","","","","","","","","","74","J","1","","","21","main_expt",""
"","bandit","101","408009","0.0-62.0-0.0","49684556","wem/bandit_either_3","AXJSZ1BBVYIYL","either","6","597","","","","","","","0","0","1","","0.5563436533","0.6","0.2","0.8","0.4","0.3238742104","0.5563436533","0.4531799458","0.5145372488","","","","","","","","","","","","74","J","1","","","22","main_expt",""
"","bandit","102","409998","0.0-63.0-0.0","49684556","wem/bandit_either_3","AXJSZ1BBVYIYL","either","6","470","","","","","","","1","0","0","0.4555064456","","0.6","0.2","0.8","0.4","","","","","0.4158928209","0.4555064456","0.4321579995","0.6324996067","","","","","","","","74","J","1","","","23","main_expt",""
"","bandit","103","412065","0.0-64.0-0.0","49684556","wem/bandit_either_3","AXJSZ1BBVYIYL","either","6","549","","","","","","","0","1","0","","0.4398961724","0.6","0.2","0.8","0.4","0.2798670784","0.4398961724","0.3892872195","0.6665025749","","","","","","","","","","","","74","J","1","","","24","main_expt",""
"","bandit","104","414132","0.0-65.0-0.0","49684556","wem/bandit_either_3","AXJSZ1BBVYIYL","either","6","552","","","","","","","0","0","1","","0.3810464824","0.6","0.2","0.8","0.4","0.3932164435","0.3810464824","0.4322880781","0.5316582614","","","","","","","","","","","","74","J","1","","","25","main_expt",""
"","bandit","105","415968","0.0-66.0-0.0","49684556","wem/bandit_either_3","AXJSZ1BBVYIYL","either","6","310","","","","","","","0","0","1","","0.451695138","0.6","0.2","0.8","0.4","0.3243459504","0.451695138","0.4560392573","0.4282094451","","","","","","","","","","","","74","J","1","","","26","main_expt",""
"","bandit","106","417956","0.0-67.0-0.0","49684556","wem/bandit_either_3","AXJSZ1BBVYIYL","either","6","457","","","","","","","1","0","0","0.4423729324","","0.6","0.2","0.8","0.4","","","","","0.4266302179","0.4423729324","0.5372901799","0.4711380508","","","","","","","","74","J","1","","","27","main_expt",""
"","bandit","107","419914","0.0-68.0-0.0","49684556","wem/bandit_either_3","AXJSZ1BBVYIYL","either","6","430","","","","","","","0","1","0","","0.4206607535","0.6","0.2","0.8","0.4","0.4206607535","0.4221124674","0.6619872032","0.4539290932","","","","","","","","","","","","72","H","0","img/none_selected.jpg","","28","main_expt",""
"","bandit","108","421996","0.0-69.0-0.0","49684556","wem/bandit_either_3","AXJSZ1BBVYIYL","either","6","553","","","","","","","0","0","1","","0.440099583","0.6","0.2","0.8","0.4","0.440099583","0.489207998","0.5939885142","0.4378511583","","","","","","","","","","","","72","H","0","img/none_selected.jpg","","29","main_expt",""
"","bandit","109","424001","0.0-70.0-0.0","49684556","wem/bandit_either_3","AXJSZ1BBVYIYL","either","6","482","","","","","","","0","0","1","0.3982168329","","0.6","0.2","0.8","0.4","","","","","0.3982168329","0.4406356357","0.5602145404","0.3425428874","","","","","","","","72","H","0","img/none_selected.jpg","","30","main_expt",""
"","bandit","110","426053","0.0-71.0-0.0","49684556","wem/bandit_either_3","AXJSZ1BBVYIYL","either","6","527","","","","","","","1","0","0","0.3573437221","","0.6","0.2","0.8","0.4","","","","","0.3573437221","0.484130952","0.5376870091","0.2354865125","","","","","","","","72","H","0","img/none_selected.jpg","","31","main_expt",""
"","bandit","111","428089","0.0-72.0-0.0","49684556","wem/bandit_either_3","AXJSZ1BBVYIYL","either","6","510","","","","","","","0","0","1","0.3712986889","","0.6","0.2","0.8","0.4","","","","","0.3712986889","0.432294219","0.6346195819","0.2552437171","","","","","","","","72","H","0","img/none_selected.jpg","","32","main_expt",""
"","bandit","112","429938","0.0-73.0-0.0","49684556","wem/bandit_either_3","AXJSZ1BBVYIYL","either","6","329","","","","","","","0","0","1","","0.45096985","0.6","0.2","0.8","0.4","0.45096985","0.4821309474","0.7540961955","0.2470382599","","","","","","","","","","","","72","H","0","img/none_selected.jpg","","33","main_expt",""
"","bandit","113","431959","0.0-74.0-0.0","49684556","wem/bandit_either_3","AXJSZ1BBVYIYL","either","6","496","","","","","","","0","1","0","","0.699797925","0.6","0.2","0.8","0.4","0.5559331637","0.4702474349","0.699797925","0.2951894024","","","","","","","","","","","","75","K","2","","","34","main_expt",""
"","bandit","114","433979","0.0-75.0-0.0","49684556","wem/bandit_either_3","AXJSZ1BBVYIYL","either","6","493","","","","","","","1","0","0","0.7410295452","","0.6","0.2","0.8","0.4","","","","","0.7354386419","0.5363697359","0.7410295452","0.2596626779","","","","","","","","75","K","2","","","35","main_expt",""
"","bandit","115","436077","0.0-76.0-0.0","49684556","wem/bandit_either_3","AXJSZ1BBVYIYL","either","6","579","","","","","","","1","0","0","0.7332281969","","0.6","0.2","0.8","0.4","","","","","0.6934166837","0.602250539","0.7332281969","0.3164764808","","","","","","","","75","K","2","","","36","main_expt",""
"","bandit","116","438159","0.0-77.0-0.0","49684556","wem/bandit_either_3","AXJSZ1BBVYIYL","either","6","563","","","","","","","0","1","0","","0.736713329","0.6","0.2","0.8","0.4","0.6311869688","0.5337433964","0.736713329","0.3672962009","","","","","","","","","","","","75","K","2","","","37","main_expt",""
"","bandit","117","440335","0.0-78.0-0.0","49684556","wem/bandit_either_3","AXJSZ1BBVYIYL","either","6","653","","","","","","","0","0","1","0.6860808007","","0.6","0.2","0.8","0.4","","","","","0.6583504975","0.5970413872","0.6860808007","0.4056598401","","","","","","","","75","K","2","","","38","main_expt",""
"","bandit","118","442402","0.0-79.0-0.0","49684556","wem/bandit_either_3","AXJSZ1BBVYIYL","either","6","552","","","","","","","1","0","0","0.7498761973","","0.6","0.2","0.8","0.4","","","","","0.5861321806","0.6529448079","0.7498761973","0.4236995386","","","","","","","","75","K","2","","","39","main_expt",""
"","bandit","119","444672","0.0-80.0-0.0","49684556","wem/bandit_either_3","AXJSZ1BBVYIYL","either","6","754","","","","","","","1","0","0","0.7043283504","","0.6","0.2","0.8","0.4","","","","","0.4892836735","0.6612991154","0.7043283504","0.4365163158","","","","","","","","75","K","2","","","40","main_expt",""
"","bandit","120","446754","0.0-81.0-0.0","49684556","wem/bandit_either_3","AXJSZ1BBVYIYL","either","6","562","","","","","","","1","0","0","0.6469690382","","0.6","0.2","0.8","0.4","","","","","0.3479900608","0.7390431107","0.6469690382","0.4854269132","","","","","","","","75","K","2","","","41","main_expt",""
"","bandit","121","448821","0.0-82.0-0.0","49684556","wem/bandit_either_3","AXJSZ1BBVYIYL","either","6","538","","","","","","","0","1","0","","0.6388905256","0.6","0.2","0.8","0.4","0.376709287","0.7609423287","0.6388905256","0.4753587859","","","","","","","","","","","","75","K","2","","","42","main_expt",""
"","bandit","122","450919","0.0-83.0-0.0","49684556","wem/bandit_either_3","AXJSZ1BBVYIYL","either","6","572","","","","","","","0","0","1","0.6383372244","","0.6","0.2","0.8","0.4","","","","","0.4319300722","0.8039673949","0.6383372244","0.452202747","","","","","","","","75","K","2","","","43","main_expt",""
"","bandit","123","452955","0.0-84.0-0.0","49684556","wem/bandit_either_3","AXJSZ1BBVYIYL","either","6","514","","","","","","","1","0","0","0.6247854939","","0.6","0.2","0.8","0.4","","","","","0.4458636389","0.8216753652","0.6247854939","0.5522191005","","","","","","","","75","K","2","","","44","main_expt",""
"","bandit","124","455224","0.0-85.0-0.0","49684556","wem/bandit_either_3","AXJSZ1BBVYIYL","either","6","749","","","","","","","0","0","1","","0.6341880498","0.6","0.2","0.8","0.4","0.4323480181","0.7636866317","0.6341880498","0.4878962787","","","","","","","","","","","","75","K","2","","","45","main_expt",""
"","bandit","125","457011","0.0-86.0-0.0","49684556","wem/bandit_either_3","AXJSZ1BBVYIYL","either","6","261","","","","","","","1","0","0","0.5081310512","","0.6","0.2","0.8","0.4","","","","","0.4348202433","0.8203755575","0.5081310512","0.487595293","","","","","","","","75","K","2","","","46","main_expt",""
"","bandit","126","458985","0.0-87.0-0.0","49684556","wem/bandit_either_3","AXJSZ1BBVYIYL","either","6","459","","","","","","","0","0","1","0.4202927251","","0.6","0.2","0.8","0.4","","","","","0.3430847618","0.8706375764","0.4202927251","0.444754188","","","","","","","","75","K","2","","","47","main_expt",""
"","bandit","127","460834","0.0-88.0-0.0","49684556","wem/bandit_either_3","AXJSZ1BBVYIYL","either","6","327","","","","","","","1","0","0","0.5044276746","","0.6","0.2","0.8","0.4","","","","","0.2601977795","0.8019506245","0.4767868938","0.5044276746","","","","","","","","76","L","3","","","48","main_expt",""
"","bandit","128","462886","0.0-89.0-0.0","49684556","wem/bandit_either_3","AXJSZ1BBVYIYL","either","6","530","","","","","","","0","0","1","","0.3766714482","0.6","0.2","0.8","0.4","0.2368144698","0.7331224435","0.3749468019","0.3766714482","","","","","","","","","","","","76","L","3","","","49","main_expt",""
"","bandit","129","464844","0.0-90.0-0.0","49684556","wem/bandit_either_3","AXJSZ1BBVYIYL","either","6","437","","","","","","","0","1","0","","0.406992786","0.6","0.2","0.8","0.4","0.2484527115","0.7908344101","0.3532902347","0.406992786","","","","","","","","","","","","76","L","3","","","50","main_expt",""
"","bandit","130","466927","0.0-91.0-0.0","49684556","wem/bandit_either_3","AXJSZ1BBVYIYL","either","6","561","","","","","","","1","0","0","0.3854505747","","0.6","0.2","0.8","0.4","","","","","0.230268934","0.7922828235","0.2413466802","0.3854505747","","","","","","","","76","L","3","","","51","main_expt",""
"","bandit","131","469087","0.0-92.0-0.0","49684556","wem/bandit_either_3","AXJSZ1BBVYIYL","either","6","637","","","","","","","0","0","1","","0.3956915145","0.6","0.2","0.8","0.4","0.3429002399","0.7485378942","0.2673723166","0.3956915145","","","","","","","","","","","","76","L","3","","","52","main_expt",""
"","bandit","132","471154","0.0-93.0-0.0","49684556","wem/bandit_either_3","AXJSZ1BBVYIYL","either","6","542","","","","","","","0","0","1","","0.3062348001","0.6","0.2","0.8","0.4","0.2871029552","0.6603794952","0.2806035608","0.3062348001","","","","","","","","","","","","76","L","3","","","53","main_expt",""
"","bandit","133","473284","0.0-94.0-0.0","49684556","wem/bandit_either_3","AXJSZ1BBVYIYL","either","6","607","","","","","","","0","1","0","","0.2996500993","0.6","0.2","0.8","0.4","0.2594444468","0.6931449795","0.2544312064","0.2996500993","","","","","","","","","","","","76","L","3","","","54","main_expt",""
"","bandit","134","475320","0.0-95.0-0.0","49684556","wem/bandit_either_3","AXJSZ1BBVYIYL","either","6","508","","","","","","","0","1","0","","0.7553272845","0.6","0.2","0.8","0.4","0.3333749245","0.7553272845","0.3362815808","0.2518247787","","","","","","","","","","","","74","J","1","","","55","main_expt",""
"","bandit","135","477527","0.0-96.0-0.0","49684556","wem/bandit_either_3","AXJSZ1BBVYIYL","either","6","675","","","","","","","0","0","1","0.7231548626","","0.6","0.2","0.8","0.4","","","","","0.3049104067","0.7231548626","0.3798256012","0.3014763065","","","","","","","","74","J","1","","","56","main_expt",""
"","bandit","136","479453","0.0-97.0-0.0","49684556","wem/bandit_either_3","AXJSZ1BBVYIYL","either","6","397","","","","","","","0","1","0","","0.7485901337","0.6","0.2","0.8","0.4","0.3623273811","0.7485901337","0.3989549393","0.2730843718","","","","","","","","","","","","74","J","1","","","57","main_expt",""
"","bandit","137","481427","0.0-98.0-0.0","49684556","wem/bandit_either_3","AXJSZ1BBVYIYL","either","6","448","","","","","","","0","0","1","","0.797082508","0.6","0.2","0.8","0.4","0.3621169042","0.797082508","0.3373398956","0.367239041","","","","","","","","","","","","74","J","1","","","58","main_expt",""
"","bandit","138","483279","0.0-99.0-0.0","49684556","wem/bandit_either_3","AXJSZ1BBVYIYL","either","6","325","","","","","","","0","0","1","0.3672848169","","0.6","0.2","0.8","0.4","","","","","0.3672848169","0.7466963627","0.3381045731","0.4005220403","","","","","","","","72","H","0","img/none_selected.jpg","","59","main_expt",""
"","bandit","139","485393","0.0-100.0-0.0","49684556","wem/bandit_either_3","AXJSZ1BBVYIYL","either","6","588","","","","","","","0","0","1","0.5123874715","","0.6","0.2","0.8","0.4","","","","","0.5123874715","0.6359615323","0.4838111383","0.4863912708","","","","","","","","72","H","0","img/none_selected.jpg","","60","main_expt",""
"","bandit","140","487289","0.0-101.0-0.0","49684556","wem/bandit_either_3","AXJSZ1BBVYIYL","either","6","374","","","","","","","0","1","0","","0.5218319631","0.6","0.2","0.8","0.4","0.5218319631","0.7125939799","0.4290776342","0.5220595343","","","","","","","","","","","","72","H","0","img/none_selected.jpg","","61","main_expt",""
"","bandit","141","489340","0.0-102.0-0.0","49684556","wem/bandit_either_3","AXJSZ1BBVYIYL","either","6","536","","","","","","","0","0","1","","0.6482151027","0.6","0.2","0.8","0.4","0.6482151027","0.5978650666","0.4387439774","0.5447889898","","","","","","","","","","","","72","H","0","img/none_selected.jpg","","62","main_expt",""
"","bandit","142","491237","0.0-103.0-0.0","49684556","wem/bandit_either_3","AXJSZ1BBVYIYL","either","6","374","","","","","","","0","0","1","0.3670418014","","0.6","0.2","0.8","0.4","","","","","0.6966290852","0.5166338879","0.3670418014","0.5517390004","","","","","","","","75","K","2","","","63","main_expt",""
"","bandit","143","493133","0.0-104.0-0.0","49684556","wem/bandit_either_3","AXJSZ1BBVYIYL","either","6","369","","","","","","","0","0","1","0.3470393933","","0.6","0.2","0.8","0.4","","","","","0.6497033777","0.4901650138","0.3470393933","0.6576188384","","","","","","","","75","K","2","","","64","main_expt",""
"","bandit","144","495277","0.0-105.0-0.0","49684556","wem/bandit_either_3","AXJSZ1BBVYIYL","either","6","624","","","","","","","0","1","0","","0.5156176703","0.6","0.2","0.8","0.4","0.6925184903","0.459365688","0.3361574661","0.5156176703","","","","","","","","","","","","76","L","3","","","65","main_expt",""
"","bandit","145","497422","0.0-106.0-0.0","49684556","wem/bandit_either_3","AXJSZ1BBVYIYL","either","6","617","","","","","","","0","0","1","","0.3851410914","0.6","0.2","0.8","0.4","0.8298767513","0.4666104807","0.34308242","0.3851410914","","","","","","","","","","","","76","L","3","","","66","main_expt",""
"","bandit","146","499675","0.0-107.0-0.0","49684556","wem/bandit_either_3","AXJSZ1BBVYIYL","either","6","727","","","","","","","0","0","1","0.3925250542","","0.6","0.2","0.8","0.4","","","","","0.8506596021","0.5547259005","0.3730603492","0.3925250542","","","","","","","","76","L","3","","","67","main_expt",""
"","bandit","147","501447","0.0-108.0-0.0","49684556","wem/bandit_either_3","AXJSZ1BBVYIYL","either","6","245","","","","","","","0","1","0","","0.6038719492","0.6","0.2","0.8","0.4","0.8536910832","0.6038719492","0.4089949532","0.3884113518","","","","","","","","","","","","74","J","1","","","68","main_expt",""
"","bandit","148","503887","0.0-109.0-0.0","49684556","wem/bandit_either_3","AXJSZ1BBVYIYL","either","6","913","","","","","","","0","0","1","","0.6148283845","0.6","0.2","0.8","0.4","0.8642538991","0.6148283845","0.3749002533","0.3434478979","","","","","","","","","","","","74","J","1","","","69","main_expt",""
"","bandit","149","505954","0.0-110.0-0.0","49684556","wem/bandit_either_3","AXJSZ1BBVYIYL","either","6","539","","","","","","","0","0","1","0.6683283761","","0.6","0.2","0.8","0.4","","","","","0.8073802352","0.6683283761","0.4133869845","0.4426642051","","","","","","","","74","J","1","","","70","main_expt",""
"","bandit","150","507897","0.0-111.0-0.0","49684556","wem/bandit_either_3","AXJSZ1BBVYIYL","either","6","416","","","","","","","0","1","0","","0.738459761","0.6","0.2","0.8","0.4","0.8059201048","0.738459761","0.3302164541","0.4518046004","","","","","","","","","","","","74","J","1","","","71","main_expt",""
"","bandit","151","510088","0.0-112.0-0.0","49684556","wem/bandit_either_3","AXJSZ1BBVYIYL","either","6","674","","","","","","","0","0","1","","0.6525166508","0.6","0.2","0.8","0.4","0.8262275011","0.6525166508","0.2570952275","0.4903223245","","","","","","","","","","","","74","J","1","","","72","main_expt",""
"","bandit","152","511954","0.0-113.0-0.0","49684556","wem/bandit_either_3","AXJSZ1BBVYIYL","either","6","349","","","","","","","0","0","1","","0.5296083002","0.6","0.2","0.8","0.4","0.7334390718","0.5715134512","0.2042885023","0.5296083002","","","","","","","","","","","","76","L","3","","","73","main_expt",""
"","bandit","153","513896","0.0-114.0-0.0","49684556","wem/bandit_either_3","AXJSZ1BBVYIYL","either","6","416","","","","","","","0","1","0","","0.4883026933","0.6","0.2","0.8","0.4","0.7490977197","0.6228045854","0.2152837516","0.4883026933","","","","","","","","","","","","76","L","3","","","74","main_expt",""
"","bandit","154","516072","0.0-115.0-0.0","49684556","wem/bandit_either_3","AXJSZ1BBVYIYL","either","6","645","","","","","","","0","0","1","","0.4914171484","0.6","0.2","0.8","0.4","0.7554087461","0.613630376","0.2044775694","0.4914171484","","","","","","","","","","","","76","L","3","","","75","main_expt",""
"","bandit","155","518031","0.0-116.0-0.0","49684556","wem/bandit_either_3","AXJSZ1BBVYIYL","either","6","442","","","","","","","1","0","0","0.6059218973","","0.6","0.2","0.8","0.4","","","","","0.804443878","0.7047266053","0.2247613499","0.6059218973","","","","","","","","76","L","3","","","76","main_expt",""
"","bandit","156","520393","0.0-117.0-0.0","49684556","wem/bandit_either_3","AXJSZ1BBVYIYL","either","6","827","","","","","","","0","0","1","","0.553792366","0.6","0.2","0.8","0.4","0.6656620098","0.6910360943","0.2266335256","0.553792366","","","","","","","","","","","","76","L","3","","","77","main_expt",""
"","bandit","157","522320","0.0-118.0-0.0","49684556","wem/bandit_either_3","AXJSZ1BBVYIYL","either","6","401","","","","","","","0","1","0","","0.6884193839","0.6","0.2","0.8","0.4","0.5898140708","0.5515992215","0.1659731505","0.6884193839","","","","","","","","","","","","76","L","3","","","78","main_expt",""
"","bandit","158","524542","0.0-119.0-0.0","49684556","wem/bandit_either_3","AXJSZ1BBVYIYL","either","6","701","","","","","","","1","0","0","0.7214277645","","0.6","0.2","0.8","0.4","","","","","0.613215191","0.6448399581","0.2343921172","0.7214277645","","","","","","","","76","L","3","","","79","main_expt",""
"","bandit","159","526655","0.0-120.0-0.0","49684556","wem/bandit_either_3","AXJSZ1BBVYIYL","either","6","596","","","","","","","0","0","1","","0.7328142644","0.6","0.2","0.8","0.4","0.4605925783","0.739479497","0.2164054515","0.7328142644","","","","","","","","","","","","76","L","3","","","80","main_expt",""
"","bandit","160","528552","0.0-121.0-0.0","49684556","wem/bandit_either_3","AXJSZ1BBVYIYL","either","6","382","","","","","","","1","0","0","0.7101675561","","0.6","0.2","0.8","0.4","","","","","0.5390789087","0.6956071838","0.1361232007","0.7101675561","","","","","","","","76","L","3","","","81","main_expt",""
"","bandit","161","530556","0.0-122.0-0.0","49684556","wem/bandit_either_3","AXJSZ1BBVYIYL","either","6","487","","","","","","","1","0","0","0.6984384541","","0.6","0.2","0.8","0.4","","","","","0.621290364","0.5886517937","0.2275447725","0.6984384541","","","","","","","","76","L","3","","","82","main_expt",""
"","bandit","162","532577","0.0-123.0-0.0","49684556","wem/bandit_either_3","AXJSZ1BBVYIYL","either","6","502","","","","","","","1","0","0","0.7447883659","","0.6","0.2","0.8","0.4","","","","","0.6359424421","0.4764182235","0.1900607051","0.7447883659","","","","","","","","76","L","3","","","83","main_expt",""
"","bandit","163","534473","0.0-124.0-0.0","49684556","wem/bandit_either_3","AXJSZ1BBVYIYL","either","6","374","","","","","","","0","0","1","","0.6900592863","0.6","0.2","0.8","0.4","0.6133664729","0.5149027494","0.1306868958","0.6900592863","","","","","","","","","","","","76","L","3","","","84","main_expt",""
"","bandit","164","536680","0.0-125.0-0.0","49684556","wem/bandit_either_3","AXJSZ1BBVYIYL","either","6","680","","","","","","","0","1","0","","0.7010597455","0.6","0.2","0.8","0.4","0.7815463305","0.4908067213","0.1683201849","0.7010597455","","","","","","","","","","","","76","L","3","","","85","main_expt",""
"","bandit","165","538965","0.0-126.0-0.0","49684556","wem/bandit_either_3","AXJSZ1BBVYIYL","either","6","759","","","","","","","0","1","0","","0.6171062652","0.6","0.2","0.8","0.4","0.7355789231","0.4139472458","0.1290314955","0.6171062652","","","","","","","","","","","","76","L","3","","","86","main_expt",""
"","bandit","166","541093","0.0-127.0-0.0","49684556","wem/bandit_either_3","AXJSZ1BBVYIYL","either","6","611","","","","","","","1","0","0","0.5629375242","","0.6","0.2","0.8","0.4","","","","","0.7267399876","0.4253818619","0.2297537383","0.5629375242","","","","","","","","76","L","3","","","87","main_expt",""
"","bandit","167","543782","0.0-128.0-0.0","49684556","wem/bandit_either_3","AXJSZ1BBVYIYL","either","6","1161","","","","","","","0","1","0","","0.6434443074","0.6","0.2","0.8","0.4","0.7703195612","0.4448862761","0.1878263516","0.6434443074","","","","","","","","","","","","76","L","3","","","88","main_expt",""
"","bandit","168","547124","0.0-129.0-0.0","49684556","wem/bandit_either_3","AXJSZ1BBVYIYL","either","6","1826","","","","","","","0","0","1","","0.7296698787","0.6","0.2","0.8","0.4","0.81872988","0.4295642349","0.1896964823","0.7296698787","","","","","","","","","","","","76","L","3","","","89","main_expt",""
"","bandit","169","549672","0.0-130.0-0.0","49684556","wem/bandit_either_3","AXJSZ1BBVYIYL","either","6","1024","","","","","","","1","0","0","0.7042864347","","0.6","0.2","0.8","0.4","","","","","0.8032570632","0.3655203192","0.1614970172","0.7042864347","","","","","","","","76","L","3","","","90","main_expt",""
"","bandit","170","552967","0.0-131.0-0.0","49684556","wem/bandit_either_3","AXJSZ1BBVYIYL","either","6","1771","","","","","","","0","1","0","","0.7606559624","0.6","0.2","0.8","0.4","0.8257352781","0.402428746","0.2107705911","0.7606559624","","","","","","","","","","","","76","L","3","","","91","main_expt",""
"","bandit","171","556977","0.0-132.0-0.0","49684556","wem/bandit_either_3","AXJSZ1BBVYIYL","either","6","2494","","","","","","","0","1","0","","0.8466818248","0.6","0.2","0.8","0.4","0.7762210657","0.452733603","0.1317951273","0.8466818248","","","","","","","","","","","","76","L","3","","","92","main_expt",""
"","bandit","172","561810","0.0-133.0-0.0","49684556","wem/bandit_either_3","AXJSZ1BBVYIYL","either","6","3304","","","","","","","1","0","0","0.8181600593","","0.6","0.2","0.8","0.4","","","","","0.8293629201","0.5416456901","0.09268613222","0.8181600593","","","","","","","","76","L","3","","","93","main_expt",""
"","bandit","173","566134","0.0-134.0-0.0","49684556","wem/bandit_either_3","AXJSZ1BBVYIYL","either","6","2807","","","","","","","0","0","1","","0.7259749053","0.6","0.2","0.8","0.4","0.7849393417","0.5246039132","0.06418168538","0.7259749053","","","","","","","","","","","","76","L","3","","","94","main_expt",""
"","bandit","174","568620","0.0-135.0-0.0","49684556","wem/bandit_either_3","AXJSZ1BBVYIYL","either","6","960","","","","","","","1","0","0","0.6538641892","","0.6","0.2","0.8","0.4","","","","","0.7850226125","0.606801291","0.100072779","0.6538641892","","","","","","","","76","L","3","","","95","main_expt",""
"","bandit","175","571931","0.0-136.0-0.0","49684556","wem/bandit_either_3","AXJSZ1BBVYIYL","either","6","1790","","","","","","","0","0","1","","0.6384360591","0.6","0.2","0.8","0.4","0.8013150942","0.7175242067","0.09628221604","0.6384360591","","","","","","","","","","","","76","L","3","","","96","main_expt",""
"","bandit","176","573858","0.0-137.0-0.0","49684556","wem/bandit_either_3","AXJSZ1BBVYIYL","either","6","404","","","","","","","0","1","0","","0.6836118029","0.6","0.2","0.8","0.4","0.70340399","0.7706560561","0.1335622201","0.6836118029","","","","","","","","","","","","76","L","3","","","97","main_expt",""
"","bandit","177","580417","0.0-138.0-0.0","49684556","wem/bandit_either_3","AXJSZ1BBVYIYL","either","6","5029","","","","","","","1","0","0","0.659457158","","0.6","0.2","0.8","0.4","","","","","0.7562517051","0.7234704616","0.167202632","0.659457158","","","","","","","","76","L","3","","","98","main_expt",""
"","bandit","178","584628","0.0-139.0-0.0","49684556","wem/bandit_either_3","AXJSZ1BBVYIYL","either","6","2686","","","","","","","0","1","0","","0.7726162223","0.6","0.2","0.8","0.4","0.6514659141","0.6582042781","0.1216125457","0.7726162223","","","","","","","","","","","","76","L","3","","","99","main_expt",""
"","bandit","179","586881","0.0-140.0-0.0","49684556","wem/bandit_either_3","AXJSZ1BBVYIYL","either","6","733","","","","","","","0","1","0","","0.8446518706","0.6","0.2","0.8","0.4","0.7112237606","0.6530973887","0.1163239148","0.8446518706","","","","","","","","","","","","76","L","3","","","100","main_expt",""
"","bandit","180","589119","0.0-141.0-0.0","49684556","wem/bandit_either_3","AXJSZ1BBVYIYL","either","6","714","","","","","","","1","0","0","0.8784151442","","0.6","0.2","0.8","0.4","","","","","0.6865981462","0.6690961394","0.1037928869","0.8784151442","","","","","","","","76","L","3","","","101","main_expt",""
"","bandit","181","591932","0.0-142.0-0.0","49684556","wem/bandit_either_3","AXJSZ1BBVYIYL","either","6","1288","","","","","","","0","0","1","0.8781202538","","0.6","0.2","0.8","0.4","","","","","0.6663704066","0.6268844929","0.0991068806","0.8781202538","","","","","","","","76","L","3","","","102","main_expt",""
"","bandit","182","594465","0.0-143.0-0.0","49684556","wem/bandit_either_3","AXJSZ1BBVYIYL","either","6","1013","","","","","","","0","1","0","","0.8123732176","0.6","0.2","0.8","0.4","0.6006744832","0.6657789595","0.1226752409","0.8123732176","","","","","","","","","","","","76","L","3","","","103","main_expt",""
"","bandit","183","597077","0.0-144.0-0.0","49684556","wem/bandit_either_3","AXJSZ1BBVYIYL","either","6","1095","","","","","","","0","1","0","","0.8461937008","0.6","0.2","0.8","0.4","0.518723913","0.6951589836","0.1552466415","0.8461937008","","","","","","","","","","","","76","L","3","","","104","main_expt",""
"","bandit","184","600076","0.0-145.0-0.0","49684556","wem/bandit_either_3","AXJSZ1BBVYIYL","either","6","1470","","","","","","","0","1","0","","0.8664825842","0.6","0.2","0.8","0.4","0.5343999165","0.6382729445","0.1702138509","0.8664825842","","","","","","","","","","","","76","L","3","","","105","main_expt",""
"","bandit","185","602656","0.0-146.0-0.0","49684556","wem/bandit_either_3","AXJSZ1BBVYIYL","either","6","1059","","","","","","","0","1","0","","0.8703997655","0.6","0.2","0.8","0.4","0.4959998489","0.7139624249","0.2021425125","0.8703997655","","","","","","","","","","","","76","L","3","","","106","main_expt",""
"","bandit","186","605748","0.0-147.0-0.0","49684556","wem/bandit_either_3","AXJSZ1BBVYIYL","either","6","1578","","","","","","","1","0","0","0.8964314806","","0.6","0.2","0.8","0.4","","","","","0.5052663648","0.7718136471","0.2196373816","0.8964314806","","","","","","","","76","L","3","","","107","main_expt",""
"","bandit","187","608592","0.0-148.0-0.0","49684556","wem/bandit_either_3","AXJSZ1BBVYIYL","either","6","1316","","","","","","","1","0","0","0.9080126319","","0.6","0.2","0.8","0.4","","","","","0.4859582203","0.8818715302","0.2393661099","0.9080126319","","","","","","","","76","L","3","","","108","main_expt",""
"","bandit","188","611856","0.0-149.0-0.0","49684556","wem/bandit_either_3","AXJSZ1BBVYIYL","either","6","1744","","","","","","","0","1","0","","0.8880845243","0.6","0.2","0.8","0.4","0.523617738","0.8757741924","0.2516352594","0.8880845243","","","","","","","","","","","","76","L","3","","","109","main_expt",""
"","bandit","189","614700","0.0-150.0-0.0","49684556","wem/bandit_either_3","AXJSZ1BBVYIYL","either","6","1315","","","","","","","0","1","0","","0.899251136","0.6","0.2","0.8","0.4","0.5492010791","0.8657151097","0.2424291788","0.899251136","","","","","","","","","","","","76","L","3","","","110","main_expt",""
"","bandit","190","617607","0.0-151.0-0.0","49684556","wem/bandit_either_3","AXJSZ1BBVYIYL","either","6","1384","","","","","","","0","1","0","","0.9019514556","0.6","0.2","0.8","0.4","0.5467154696","0.8457624762","0.2033086481","0.9019514556","","","","","","","","","","","","76","L","3","","","111","main_expt",""
"","bandit","191","620948","0.0-152.0-0.0","49684556","wem/bandit_either_3","AXJSZ1BBVYIYL","either","6","1812","","","","","","","0","1","0","","0.9315537639","0.6","0.2","0.8","0.4","0.5396215981","0.8756116827","0.208613213","0.9315537639","","","","","","","","","","","","76","L","3","","","112","main_expt",""
"","bandit","192","623621","0.0-153.0-0.0","49684556","wem/bandit_either_3","AXJSZ1BBVYIYL","either","6","1144","","","","","","","0","1","0","","0.9254394702","0.6","0.2","0.8","0.4","0.5542875214","0.8773181328","0.2743958833","0.9254394702","","","","","","","","","","","","76","L","3","","","113","main_expt",""
"","bandit","193","626543","0.0-154.0-0.0","49684556","wem/bandit_either_3","AXJSZ1BBVYIYL","either","6","1400","","","","","","","0","1","0","","0.9394904604","0.6","0.2","0.8","0.4","0.6411428718","0.8842236373","0.2657329006","0.9394904604","","","","","","","","","","","","76","L","3","","","114","main_expt",""
"","bandit","194","629325","0.0-155.0-0.0","49684556","wem/bandit_either_3","AXJSZ1BBVYIYL","either","6","1259","","","","","","","0","1","0","","0.9533355239","0.6","0.2","0.8","0.4","0.7261400339","0.8499121835","0.3234316928","0.9533355239","","","","","","","","","","","","76","L","3","","","115","main_expt",""
"","bandit","195","632200","0.0-156.0-0.0","49684556","wem/bandit_either_3","AXJSZ1BBVYIYL","either","6","1346","","","","","","","0","1","0","","0.960842596","0.6","0.2","0.8","0.4","0.7395407697","0.7890056153","0.3625587123","0.960842596","","","","","","","","","","","","76","L","3","","","116","main_expt",""
"","bandit","196","634966","0.0-157.0-0.0","49684556","wem/bandit_either_3","AXJSZ1BBVYIYL","either","6","1240","","","","","","","1","0","0","0.937733065","","0.6","0.2","0.8","0.4","","","","","0.8231731708","0.7709890197","0.4946904956","0.937733065","","","","","","","","76","L","3","","","117","main_expt",""
"","bandit","197","637844","0.0-158.0-0.0","49684556","wem/bandit_either_3","AXJSZ1BBVYIYL","either","6","1355","","","","","","","0","1","0","","0.9561499645","0.6","0.2","0.8","0.4","0.8278750807","0.7459937787","0.6246330079","0.9561499645","","","","","","","","","","","","76","L","3","","","118","main_expt",""
"","bandit","198","640546","0.0-159.0-0.0","49684556","wem/bandit_either_3","AXJSZ1BBVYIYL","either","6","1178","","","","","","","0","1","0","","0.9595118281","0.6","0.2","0.8","0.4","0.8715827524","0.716881491","0.5818097722","0.9595118281","","","","","","","","","","","","76","L","3","","","119","main_expt",""
"","bandit","199","643157","0.0-160.0-0.0","49684556","wem/bandit_either_3","AXJSZ1BBVYIYL","either","6","1082","","","","","","","0","1","0","","0.9548463758","0.6","0.2","0.8","0.4","0.8522670476","0.6595649419","0.5990025551","0.9548463758","","","","","","","","","","","","76","L","3","","","120","main_expt",""
"","bandit","200","645939","0.0-161.0-0.0","49684556","wem/bandit_either_3","AXJSZ1BBVYIYL","either","6","1254","","","","","","","0","1","0","","0.958085665","0.6","0.2","0.8","0.4","0.8266542562","0.6576447048","0.6534424477","0.958085665","","","","","","","","","","","","76","L","3","","","121","main_expt",""
"","bandit","201","648332","0.0-162.0-0.0","49684556","wem/bandit_either_3","AXJSZ1BBVYIYL","either","6","875","","","","","","","0","1","0","","0.9630601427","0.6","0.2","0.8","0.4","0.81688531","0.6391957719","0.5952731017","0.9630601427","","","","","","","","","","","","76","L","3","","","122","main_expt",""
"","bandit","202","650943","0.0-163.0-0.0","49684556","wem/bandit_either_3","AXJSZ1BBVYIYL","either","6","1098","","","","","","","1","0","0","0.9790283764","","0.6","0.2","0.8","0.4","","","","","0.8307363081","0.5873908865","0.6469086187","0.9790283764","","","","","","","","76","L","3","","","123","main_expt",""
"","bandit","203","653772","0.0-164.0-0.0","49684556","wem/bandit_either_3","AXJSZ1BBVYIYL","either","6","1313","","","","","","","1","0","0","0.9718765302","","0.6","0.2","0.8","0.4","","","","","0.6943824695","0.6592760984","0.6911454426","0.9718765302","","","","","","","","76","L","3","","","124","main_expt",""
"","bandit","204","656678","0.0-165.0-0.0","49684556","wem/bandit_either_3","AXJSZ1BBVYIYL","either","6","1390","","","","","","","1","0","0","0.9845173964","","0.6","0.2","0.8","0.4","","","","","0.7137568944","0.6012083746","0.750572215","0.9845173964","","","","","","","","76","L","3","","","125","main_expt",""
"","bandit","205","659382","0.0-166.0-0.0","49684556","wem/bandit_either_3","AXJSZ1BBVYIYL","either","6","1188","","","","","","","1","0","0","0.9804670004","","0.6","0.2","0.8","0.4","","","","","0.6878742658","0.6043440275","0.8108432581","0.9804670004","","","","","","","","76","L","3","","","126","main_expt",""
"","bandit","206","662055","0.0-167.0-0.0","49684556","wem/bandit_either_3","AXJSZ1BBVYIYL","either","6","1155","","","","","","","0","0","1","0.9792667249","","0.6","0.2","0.8","0.4","","","","","0.6175454059","0.5043142332","0.8338196277","0.9792667249","","","","","","","","76","L","3","","","127","main_expt",""
"","bandit","207","664573","0.0-168.0-0.0","49684556","wem/bandit_either_3","AXJSZ1BBVYIYL","either","6","998","","","","","","","1","0","0","0.9853815399","","0.6","0.2","0.8","0.4","","","","","0.5556505876","0.5778209799","0.8624128669","0.9853815399","","","","","","","","76","L","3","","","128","main_expt",""
"","bandit","208","667355","0.0-169.0-0.0","49684556","wem/bandit_either_3","AXJSZ1BBVYIYL","either","6","1259","","","","","","","0","0","1","0.9838319732","","0.6","0.2","0.8","0.4","","","","","0.5948532478","0.5806273004","0.9026068167","0.9838319732","","","","","","","","76","L","3","","","129","main_expt",""
"","bandit","209","669546","0.0-170.0-0.0","49684556","wem/bandit_either_3","AXJSZ1BBVYIYL","either","6","671","","","","","","","0","1","0","","0.9798768453","0.6","0.2","0.8","0.4","0.6646968067","0.4152233618","0.8983636673","0.9798768453","","","","","","","","","","","","76","L","3","","","130","main_expt",""
"","bandit","210","671892","0.0-171.0-0.0","49684556","wem/bandit_either_3","AXJSZ1BBVYIYL","either","6","820","","","","","","","0","1","0","","0.9628017066","0.6","0.2","0.8","0.4","0.6676177377","0.4527057242","0.888478962","0.9628017066","","","","","","","","","","","","76","L","3","","","131","main_expt",""
"","bandit","211","674581","0.0-172.0-0.0","49684556","wem/bandit_either_3","AXJSZ1BBVYIYL","either","6","1161","","","","","","","1","0","0","0.9723970119","","0.6","0.2","0.8","0.4","","","","","0.7638630926","0.5185753891","0.8470567254","0.9723970119","","","","","","","","76","L","3","","","132","main_expt",""
"","bandit","212","677332","0.0-173.0-0.0","49684556","wem/bandit_either_3","AXJSZ1BBVYIYL","either","6","1236","","","","","","","0","1","0","","0.9754432393","0.6","0.2","0.8","0.4","0.726350598","0.4567386081","0.8852081265","0.9754432393","","","","","","","","","","","","76","L","3","","","133","main_expt",""
"","bandit","213","680145","0.0-174.0-0.0","49684556","wem/bandit_either_3","AXJSZ1BBVYIYL","either","6","1290","","","","","","","0","1","0","","0.9635376407","0.6","0.2","0.8","0.4","0.7638059904","0.4494056808","0.8317422298","0.9635376407","","","","","","","","","","","","76","L","3","","","134","main_expt",""
"","bandit","214","682880","0.0-175.0-0.0","49684556","wem/bandit_either_3","AXJSZ1BBVYIYL","either","6","1212","","","","","","","1","0","0","0.9304273523","","0.6","0.2","0.8","0.4","","","","","0.7337835984","0.4608562393","0.8121858422","0.9304273523","","","","","","","","76","L","3","","","135","main_expt",""
"","bandit","215","685600","0.0-176.0-0.0","49684556","wem/bandit_either_3","AXJSZ1BBVYIYL","either","6","1193","","","","","","","0","1","0","","0.9295592062","0.6","0.2","0.8","0.4","0.7869055623","0.6684020244","0.8473276522","0.9295592062","","","","","","","","","","","","76","L","3","","","136","main_expt",""
"","bandit","216","688213","0.0-177.0-0.0","49684556","wem/bandit_either_3","AXJSZ1BBVYIYL","either","6","1083","","","","","","","1","0","0","0.9343332129","","0.6","0.2","0.8","0.4","","","","","0.8033651193","0.614137061","0.8251243182","0.9343332129","","","","","","","","76","L","3","","","137","main_expt",""
"","bandit","217","691272","0.0-178.0-0.0","49684556","wem/bandit_either_3","AXJSZ1BBVYIYL","either","6","1538","","","","","","","0","1","0","","0.9325781127","0.6","0.2","0.8","0.4","0.7620089345","0.711021659","0.7892590299","0.9325781127","","","","","","","","","","","","76","L","3","","","138","main_expt",""
"","bandit","218","694132","0.0-179.0-0.0","49684556","wem/bandit_either_3","AXJSZ1BBVYIYL","either","6","1339","","","","","","","0","0","1","","0.9687763229","0.6","0.2","0.8","0.4","0.8098853196","0.5731932267","0.753698647","0.9687763229","","","","","","","","","","","","76","L","3","","","139","main_expt",""
"","bandit","219","696729","0.0-180.0-0.0","49684556","wem/bandit_either_3","AXJSZ1BBVYIYL","either","6","1076","","","","","","","0","0","1","","0.9520204639","0.6","0.2","0.8","0.4","0.8737133651","0.6553783698","0.7281837229","0.9520204639","","","","","","","","","","","","76","L","3","","","140","main_expt",""
"","bandit","220","699090","0.0-181.0-0.0","49684556","wem/bandit_either_3","AXJSZ1BBVYIYL","either","6","830","","","","","","","1","0","0","0.9615613541","","0.6","0.2","0.8","0.4","","","","","0.8464817719","0.5665224918","0.7913145473","0.9615613541","","","","","","","","76","L","3","","","141","main_expt",""
"","bandit","221","701374","0.0-182.0-0.0","49684556","wem/bandit_either_3","AXJSZ1BBVYIYL","either","6","765","","","","","","","0","1","0","","0.9438722422","0.6","0.2","0.8","0.4","0.8457688645","0.5230460729","0.7498898283","0.9438722422","","","","","","","","","","","","76","L","3","","","142","main_expt",""
"","bandit","222","703706","0.0-183.0-0.0","49684556","wem/bandit_either_3","AXJSZ1BBVYIYL","either","6","806","","","","","","","1","0","0","0.9419241064","","0.6","0.2","0.8","0.4","","","","","0.8801682128","0.5401897842","0.723110339","0.9419241064","","","","","","","","76","L","3","","","143","main_expt",""
"","bandit","223","706286","0.0-184.0-0.0","49684556","wem/bandit_either_3","AXJSZ1BBVYIYL","either","6","1054","","","","","","","0","1","0","","0.9383966058","0.6","0.2","0.8","0.4","0.7806105972","0.5495292383","0.7697142539","0.9383966058","","","","","","","","","","","","76","L","3","","","144","main_expt",""
"","bandit","224","708711","0.0-185.0-0.0","49684556","wem/bandit_either_3","AXJSZ1BBVYIYL","either","6","894","","","","","","","0","1","0","","0.9442204223","0.6","0.2","0.8","0.4","0.7384744451","0.4718854897","0.8279494337","0.9442204223","","","","","","","","","","","","76","L","3","","","145","main_expt",""
"","bandit","225","711197","0.0-186.0-0.0","49684556","wem/bandit_either_3","AXJSZ1BBVYIYL","either","6","952","","","","","","","0","1","0","","0.9461270134","0.6","0.2","0.8","0.4","0.7078417075","0.3790577705","0.747104877","0.9461270134","","","","","","","","","","","","76","L","3","","","146","main_expt",""
"","bandit","226","713870","0.0-187.0-0.0","49684556","wem/bandit_either_3","AXJSZ1BBVYIYL","either","6","1151","","","","","","","0","1","0","","0.9677113618","0.6","0.2","0.8","0.4","0.7671729372","0.3671333747","0.7635883185","0.9677113618","","","","","","","","","","","","76","L","3","","","147","main_expt",""
"","bandit","227","716186","0.0-188.0-0.0","49684556","wem/bandit_either_3","AXJSZ1BBVYIYL","either","6","790","","","","","","","1","0","0","0.9603287673","","0.6","0.2","0.8","0.4","","","","","0.7515071201","0.4462771912","0.6650729927","0.9603287673","","","","","","","","76","L","3","","","148","main_expt",""
"","bandit","228","718175","0.0-189.0-0.0","49684556","wem/bandit_either_3","AXJSZ1BBVYIYL","either","6","465","","","","","","","1","0","0","0.9256305183","","0.6","0.2","0.8","0.4","","","","","0.7582160768","0.3929125452","0.594527628","0.9256305183","","","","","","","","76","L","3","","","149","main_expt",""
"","bandit","229","720087","0.0-190.0-0.0","49684556","wem/bandit_either_3","AXJSZ1BBVYIYL","either","6","400","","","","","","","0","1","0","","0.9222609783","0.6","0.2","0.8","0.4","0.6843302658","0.3825194633","0.5101412162","0.9222609783","","","","","","","","","","","","76","L","3","","","150","main_expt",""
"","bandit","230","722060","0.0-191.0-0.0","49684556","wem/bandit_either_3","AXJSZ1BBVYIYL","either","6","451","","","","","","","1","0","0","0.9522131909","","0.6","0.2","0.8","0.4","","","","","0.4980827124","0.3889652011","0.5755011036","0.9522131909","","","","","","","","76","L","3","","","151","main_expt",""
"","bandit","231","723910","0.0-192.0-0.0","49684556","wem/bandit_either_3","AXJSZ1BBVYIYL","either","6","330","","","","","","","0","1","0","","0.9351777179","0.6","0.2","0.8","0.4","0.5418861514","0.372169082","0.5415628766","0.9351777179","","","","","","","","","","","","76","L","3","","","152","main_expt",""
"","bandit","232","725790","0.0-193.0-0.0","49684556","wem/bandit_either_3","AXJSZ1BBVYIYL","either","6","356","","","","","","","1","0","0","0.9526549669","","0.6","0.2","0.8","0.4","","","","","0.6424708626","0.4275919172","0.6392888902","0.9526549669","","","","","","","","76","L","3","","","153","main_expt",""
"","bandit","233","727748","0.0-194.0-0.0","49684556","wem/bandit_either_3","AXJSZ1BBVYIYL","either","6","429","","","","","","","0","1","0","","0.944677936","0.6","0.2","0.8","0.4","0.6200403258","0.3978897223","0.6798835142","0.944677936","","","","","","","","","","","","76","L","3","","","154","main_expt",""
"","bandit","234","729645","0.0-195.0-0.0","49684556","wem/bandit_either_3","AXJSZ1BBVYIYL","either","6","380","","","","","","","0","1","0","","0.9443948233","0.6","0.2","0.8","0.4","0.5087788092","0.4922143253","0.7376683638","0.9443948233","","","","","","","","","","","","76","L","3","","","155","main_expt",""
"","bandit","235","731649","0.0-196.0-0.0","49684556","wem/bandit_either_3","AXJSZ1BBVYIYL","either","6","481","","","","","","","0","1","0","","0.9312029685","0.6","0.2","0.8","0.4","0.4397360723","0.5060601407","0.7740838489","0.9312029685","","","","","","","","","","","","76","L","3","","","156","main_expt",""
"","bandit","236","733592","0.0-197.0-0.0","49684556","wem/bandit_either_3","AXJSZ1BBVYIYL","either","6","422","","","","","","","0","1","0","","0.9009413449","0.6","0.2","0.8","0.4","0.4529934193","0.56460533","0.7526352547","0.9009413449","","","","","","","","","","","","76","L","3","","","157","main_expt",""
"","bandit","237","735581","0.0-198.0-0.0","49684556","wem/bandit_either_3","AXJSZ1BBVYIYL","either","6","472","","","","","","","1","0","0","0.8799225656","","0.6","0.2","0.8","0.4","","","","","0.522014142","0.5551408743","0.807066173","0.8799225656","","","","","","","","76","L","3","","","158","main_expt",""
"","bandit","238","737586","0.0-199.0-0.0","49684556","wem/bandit_either_3","AXJSZ1BBVYIYL","either","6","475","","","","","","","0","1","0","","0.9103166083","0.6","0.2","0.8","0.4","0.447178695","0.6362487126","0.8348587906","0.9103166083","","","","","","","","","","","","76","L","3","","","159","main_expt",""
"","bandit","239","739560","0.0-200.0-0.0","49684556","wem/bandit_either_3","AXJSZ1BBVYIYL","either","6","453","","","","","","","0","1","0","","0.9575168601","0.6","0.2","0.8","0.4","0.4293784973","0.5818198138","0.8054329593","0.9575168601","","","","","","","","","","","","76","L","3","","","160","main_expt",""
"","bandit","240","741440","0.0-201.0-0.0","49684556","wem/bandit_either_3","AXJSZ1BBVYIYL","either","6","354","","","","","","","0","1","0","","0.9323430526","0.6","0.2","0.8","0.4","0.4263694152","0.5079421761","0.8263011938","0.9323430526","","","","","","","","","","","","76","L","3","","","161","main_expt",""
"","bandit","241","743383","0.0-202.0-0.0","49684556","wem/bandit_either_3","AXJSZ1BBVYIYL","either","6","414","","","","","","","1","0","0","0.8731035433","","0.6","0.2","0.8","0.4","","","","","0.4394756583","0.3944353318","0.8468561623","0.8731035433","","","","","","","","76","L","3","","","162","main_expt",""
"","bandit","242","745279","0.0-203.0-0.0","49684556","wem/bandit_either_3","AXJSZ1BBVYIYL","either","6","369","","","","","","","1","0","0","0.860239847","","0.6","0.2","0.8","0.4","","","","","0.4632532181","0.4560534757","0.866861138","0.860239847","","","","","","","","76","L","3","","","163","main_expt",""
"","bandit","243","747159","0.0-204.0-0.0","49684556","wem/bandit_either_3","AXJSZ1BBVYIYL","either","6","363","","","","","","","0","1","0","","0.8327160304","0.6","0.2","0.8","0.4","0.469091439","0.4338988853","0.8621839131","0.8327160304","","","","","","","","","","","","76","L","3","","","164","main_expt",""
"","bandit","244","749040","0.0-205.0-0.0","49684556","wem/bandit_either_3","AXJSZ1BBVYIYL","either","6","361","","","","","","","0","0","1","","0.8780399083","0.6","0.2","0.8","0.4","0.4691854483","0.3640020004","0.8368369455","0.8780399083","","","","","","","","","","","","76","L","3","","","165","main_expt",""
"","bandit","245","750874","0.0-206.0-0.0","49684556","wem/bandit_either_3","AXJSZ1BBVYIYL","either","6","306","","","","","","","1","0","0","0.8659509199","","0.6","0.2","0.8","0.4","","","","","0.424594696","0.4433911144","0.8543831227","0.8659509199","","","","","","","","76","L","3","","","166","main_expt",""
"","bandit","246","752817","0.0-207.0-0.0","49684556","wem/bandit_either_3","AXJSZ1BBVYIYL","either","6","414","","","","","","","0","0","1","","0.8458676595","0.6","0.2","0.8","0.4","0.4691217736","0.4852122499","0.8444257961","0.8458676595","","","","","","","","","","","","76","L","3","","","167","main_expt",""
"","bandit","247","754635","0.0-208.0-0.0","49684556","wem/bandit_either_3","AXJSZ1BBVYIYL","either","6","290","","","","","","","0","1","0","","0.7368025647","0.6","0.2","0.8","0.4","0.4605946041","0.4829488348","0.8895061166","0.7368025647","","","","","","","","","","","","76","L","3","","","168","main_expt",""
"","bandit","248","756547","0.0-209.0-0.0","49684556","wem/bandit_either_3","AXJSZ1BBVYIYL","either","6","395","","","","","","","1","0","0","0.6811301937","","0.6","0.2","0.8","0.4","","","","","0.4302520818","0.467087579","0.8980662015","0.6811301937","","","","","","","","76","L","3","","","169","main_expt",""
"","bandit","249","758458","0.0-210.0-0.0","49684556","wem/bandit_either_3","AXJSZ1BBVYIYL","either","6","393","","","","","","","0","1","0","","0.6781719117","0.6","0.2","0.8","0.4","0.3846086554","0.3575164989","0.9399190154","0.6781719117","","","","","","","","","","","","76","L","3","","","170","main_expt",""
"","bandit","250","760308","0.0-211.0-0.0","49684556","wem/bandit_either_3","AXJSZ1BBVYIYL","either","6","327","","","","","","","0","1","0","","0.5779776893","0.6","0.2","0.8","0.4","0.4938912128","0.3433755155","0.9199626721","0.5779776893","","","","","","","","","","","","76","L","3","","","171","main_expt",""
"","bandit","251","762204","0.0-212.0-0.0","49684556","wem/bandit_either_3","AXJSZ1BBVYIYL","either","6","371","","","","","","","0","1","0","","0.5461867433","0.6","0.2","0.8","0.4","0.5409242696","0.2921203137","0.8885959212","0.5461867433","","","","","","","","","","","","76","L","3","","","172","main_expt",""
"","bandit","252","764085","0.0-213.0-0.0","49684556","wem/bandit_either_3","AXJSZ1BBVYIYL","either","6","357","","","","","","","0","0","1","","0.5898781272","0.6","0.2","0.8","0.4","0.4899310385","0.3237382503","0.8502068985","0.5898781272","","","","","","","","","","","","76","L","3","","","173","main_expt",""
"","bandit","253","765934","0.0-214.0-0.0","49684556","wem/bandit_either_3","AXJSZ1BBVYIYL","either","6","323","","","","","","","0","0","1","0.5990225055","","0.6","0.2","0.8","0.4","","","","","0.4464532747","0.2935635685","0.9054067092","0.5990225055","","","","","","","","76","L","3","","","174","main_expt",""
"","bandit","254","767845","0.0-215.0-0.0","49684556","wem/bandit_either_3","AXJSZ1BBVYIYL","either","6","395","","","","","","","0","0","1","0.6129624105","","0.6","0.2","0.8","0.4","","","","","0.4363040476","0.2797951809","0.9096893241","0.6129624105","","","","","","","","76","L","3","","","175","main_expt",""
"","bandit","255","769602","0.0-216.0-0.0","49684556","wem/bandit_either_3","AXJSZ1BBVYIYL","either","6","233","","","","","","","0","0","1","","0.5434192492","0.6","0.2","0.8","0.4","0.4198776974","0.2067270565","0.9081003197","0.5434192492","","","","","","","","","","","","76","L","3","","","176","main_expt",""
"","bandit","256","771513","0.0-217.0-0.0","49684556","wem/bandit_either_3","AXJSZ1BBVYIYL","either","6","385","","","","","","","0","1","0","","0.8417535431","0.6","0.2","0.8","0.4","0.4001478854","0.19266164","0.8417535431","0.5893108522","","","","","","","","","","","","75","K","2","","","177","main_expt",""
"","bandit","257","773347","0.0-218.0-0.0","49684556","wem/bandit_either_3","AXJSZ1BBVYIYL","either","6","302","","","","","","","0","0","1","","0.4862463398","0.6","0.2","0.8","0.4","0.3015477047","0.1393448617","0.8045518304","0.4862463398","","","","","","","","","","","","76","L","3","","","178","main_expt",""
"","bandit","258","775166","0.0-219.0-0.0","49684556","wem/bandit_either_3","AXJSZ1BBVYIYL","either","6","298","","","","","","","0","0","1","0.8250115846","","0.6","0.2","0.8","0.4","","","","","0.2700131006","0.1149816072","0.8250115846","0.4227787996","","","","","","","","75","K","2","","","179","main_expt",""
"","bandit","259","777015","0.0-220.0-0.0","49684556","wem/bandit_either_3","AXJSZ1BBVYIYL","either","6","314","","","","","","","1","0","0","0.7418096358","","0.6","0.2","0.8","0.4","","","","","0.3473069","0.1231561222","0.7418096358","0.3583368423","","","","","","","","75","K","2","","","180","main_expt",""
"","bandit","260","778880","0.0-221.0-0.0","49684556","wem/bandit_either_3","AXJSZ1BBVYIYL","either","6","336","","","","","","","1","0","0","0.7180260456","","0.6","0.2","0.8","0.4","","","","","0.3478804011","0.1134989143","0.7180260456","0.3820052134","","","","","","","","75","K","2","","","181","main_expt",""
"","bandit","261","780916","0.0-222.0-0.0","49684556","wem/bandit_either_3","AXJSZ1BBVYIYL","either","6","514","","","","","","","1","0","0","0.6777378447","","0.6","0.2","0.8","0.4","","","","","0.3304981007","0.07317944644","0.6777378447","0.437769555","","","","","","","","75","K","2","","","182","main_expt",""
"","bandit","262","782843","0.0-223.0-0.0","49684556","wem/bandit_either_3","AXJSZ1BBVYIYL","either","6","404","","","","","","","1","0","0","0.6331465848","","0.6","0.2","0.8","0.4","","","","","0.2578466268","0.05085611098","0.6331465848","0.3951330089","","","","","","","","75","K","2","","","183","main_expt",""
"","bandit","263","784770","0.0-224.0-0.0","49684556","wem/bandit_either_3","AXJSZ1BBVYIYL","either","6","407","","","","","","","0","1","0","","0.6578519513","0.6","0.2","0.8","0.4","0.3550464129","0.07152820202","0.6578519513","0.4062376343","","","","","","","","","","","","75","K","2","","","184","main_expt",""
"","bandit","264","786402","0.0-225.0-0.0","49684556","wem/bandit_either_3","AXJSZ1BBVYIYL","either","6","111","","","","","","","1","0","0","0.7160298793","","0.6","0.2","0.8","0.4","","","","","0.2993299556","0.08814522307","0.7160298793","0.4035727276","","","","","","","","75","K","2","","","185","main_expt",""
"","bandit","265","788344","0.0-226.0-0.0","49684556","wem/bandit_either_3","AXJSZ1BBVYIYL","either","6","423","","","","","","","0","1","0","","0.7081703269","0.6","0.2","0.8","0.4","0.3985972224","0.0931487442","0.7081703269","0.4595565904","","","","","","","","","","","","75","K","2","","","186","main_expt",""
"","bandit","266","790365","0.0-227.0-0.0","49684556","wem/bandit_either_3","AXJSZ1BBVYIYL","either","6","494","","","","","","","1","0","0","0.7670757258","","0.6","0.2","0.8","0.4","","","","","0.4563810555","0.05847154344","0.7670757258","0.4956959756","","","","","","","","75","K","2","","","187","main_expt",""
"","bandit","267","792401","0.0-228.0-0.0","49684556","wem/bandit_either_3","AXJSZ1BBVYIYL","either","6","516","","","","","","","0","0","1","0.7986884496","","0.6","0.2","0.8","0.4","","","","","0.4621092719","0.05005107021","0.7986884496","0.4295585103","","","","","","","","75","K","2","","","188","main_expt",""
"","bandit","268","794312","0.0-229.0-0.0","49684556","wem/bandit_either_3","AXJSZ1BBVYIYL","either","6","387","","","","","","","0","0","1","","0.8113194514","0.6","0.2","0.8","0.4","0.4214675273","0.05158958255","0.8113194514","0.4121259827","","","","","","","","","","","","75","K","2","","","189","main_expt",""
"","bandit","269","796364","0.0-230.0-0.0","49684556","wem/bandit_either_3","AXJSZ1BBVYIYL","either","6","526","","","","","","","0","0","1","0.8311477635","","0.6","0.2","0.8","0.4","","","","","0.4445162903","0.0530996007","0.8311477635","0.40505342","","","","","","","","75","K","2","","","190","main_expt",""
"","bandit","270","798275","0.0-231.0-0.0","49684556","wem/bandit_either_3","AXJSZ1BBVYIYL","either","6","390","","","","","","","0","0","1","","0.05342003941","0.6","0.2","0.8","0.4","0.4077799102","0.05342003941","0.7941336253","0.3671493273","","","","","","","","","","","","74","J","1","","","191","main_expt",""
"","bandit","271","800171","0.0-232.0-0.0","49684556","wem/bandit_either_3","AXJSZ1BBVYIYL","either","6","381","","","","","","","0","0","1","","0.05264216412","0.6","0.2","0.8","0.4","0.413117206","0.05264216412","0.841847859","0.3367263454","","","","","","","","","","","","74","J","1","","","192","main_expt",""
"","bandit","272","802099","0.0-233.0-0.0","49684556","wem/bandit_either_3","AXJSZ1BBVYIYL","either","6","397","","","","","","","0","0","1","","0.374663265","0.6","0.2","0.8","0.4","0.374663265","0.07418965368","0.865127625","0.2587514209","","","","","","","","","","","","72","H","0","img/none_selected.jpg","","193","main_expt",""
"","bandit","273","804072","0.0-234.0-0.0","49684556","wem/bandit_either_3","AXJSZ1BBVYIYL","either","6","449","","","","","","","0","0","1","0.2792309937","","0.6","0.2","0.8","0.4","","","","","0.2792309937","0.1148515542","0.8369883383","0.2123696513","","","","","","","","72","H","0","img/none_selected.jpg","","194","main_expt",""
"","bandit","274","805937","0.0-235.0-0.0","49684556","wem/bandit_either_3","AXJSZ1BBVYIYL","either","6","347","","","","","","","0","0","1","0.2551117677","","0.6","0.2","0.8","0.4","","","","","0.3090424304","0.1102075851","0.8226177272","0.2551117677","","","","","","","","76","L","3","","","195","main_expt",""
"","bandit","275","807911","0.0-236.0-0.0","49684556","wem/bandit_either_3","AXJSZ1BBVYIYL","either","6","450","","","","","","","0","0","1","","0.2948177706","0.6","0.2","0.8","0.4","0.2254203465","0.09307195637","0.8759919892","0.2948177706","","","","","","","","","","","","76","L","3","","","196","main_expt",""
"","bandit","276","809903","0.0-237.0-0.0","49684556","wem/bandit_either_3","AXJSZ1BBVYIYL","either","6","459","","","","","","","1","0","0","0.9413038234","","0.6","0.2","0.8","0.4","","","","","0.2104085952","0.08341332984","0.9413038234","0.2864074111","","","","","","","","75","K","2","","","197","main_expt",""
"","bandit","277","811998","0.0-238.0-0.0","49684556","wem/bandit_either_3","AXJSZ1BBVYIYL","either","6","566","","","","","","","1","0","0","0.9384937307","","0.6","0.2","0.8","0.4","","","","","0.1686499416","0.06206278739","0.9384937307","0.3044962429","","","","","","","","75","K","2","","","198","main_expt",""
"","bandit","278","814128","0.0-239.0-0.0","49684556","wem/bandit_either_3","AXJSZ1BBVYIYL","either","6","605","","","","","","","1","0","0","0.927250614","","0.6","0.2","0.8","0.4","","","","","0.1696058054","0.1015706687","0.927250614","0.2804127106","","","","","","","","75","K","2","","","199","main_expt",""
"","bandit","279","816169","0.0-240.0-0.0","49684556","wem/bandit_either_3","AXJSZ1BBVYIYL","either","6","517","","","","","","","0","0","1","0.8840406778","","0.6","0.2","0.8","0.4","","","","","0.1940139532","0.07348353789","0.8840406778","0.3151112274","","","","","","","","75","K","2","","","200","main_expt",""
"","bandit","280","818106","0.0-241.0-0.0","49684556","wem/bandit_either_3","AXJSZ1BBVYIYL","either","6","413","","","","","","","1","0","0","0.8866639954","","0.6","0.2","0.8","0.4","","","","","0.2384341862","0.09218994405","0.8866639954","0.3124471347","","","","","","","","75","K","2","","","201","main_expt",""
"","bandit","281","820189","0.0-242.0-0.0","49684556","wem/bandit_either_3","AXJSZ1BBVYIYL","either","6","567","","","","","","","0","1","0","","0.8188103646","0.6","0.2","0.8","0.4","0.2069173963","0.1662378481","0.8188103646","0.3418115628","","","","","","","","","","","","75","K","2","","","202","main_expt",""
"","bandit","282","821945","0.0-243.0-0.0","49684556","wem/bandit_either_3","AXJSZ1BBVYIYL","either","6","231","","","","","","","1","0","0","0.8026106274","","0.6","0.2","0.8","0.4","","","","","0.2502389624","0.1808123801","0.8026106274","0.2676578736","","","","","","","","75","K","2","","","203","main_expt",""
"","bandit","283","824027","0.0-244.0-0.0","49684556","wem/bandit_either_3","AXJSZ1BBVYIYL","either","6","558","","","","","","","0","0","1","0.6613987003","","0.6","0.2","0.8","0.4","","","","","0.2226806","0.2011980288","0.6613987003","0.2513587973","","","","","","","","75","K","2","","","204","main_expt",""
"","bandit","284","826499","0.0-245.0-0.0","49684556","wem/bandit_either_3","AXJSZ1BBVYIYL","either","6","955","","","","","","","0","1","0","","0.7402115251","0.6","0.2","0.8","0.4","0.2327973494","0.1877492959","0.7402115251","0.2733703365","","","","","","","","","","","","75","K","2","","","205","main_expt",""
"","bandit","285","828954","0.0-246.0-0.0","49684556","wem/bandit_either_3","AXJSZ1BBVYIYL","either","6","929","","","","","","","0","0","1","0.6792505986","","0.6","0.2","0.8","0.4","","","","","0.3134624789","0.1891298069","0.6792505986","0.3212331514","","","","","","","","75","K","2","","","206","main_expt",""
"","bandit","286","830633","0.0-247.0-0.0","49684556","wem/bandit_either_3","AXJSZ1BBVYIYL","either","6","155","","","","","","","1","0","0","0.6510378203","","0.6","0.2","0.8","0.4","","","","","0.3808856429","0.2092890992","0.6510378203","0.3381772831","","","","","","","","75","K","2","","","207","main_expt",""
"","bandit","287","832700","0.0-248.0-0.0","49684556","wem/bandit_either_3","AXJSZ1BBVYIYL","either","6","549","","","","","","","1","0","0","0.5971377862","","0.6","0.2","0.8","0.4","","","","","0.318509643","0.2563161799","0.5971377862","0.2370260631","","","","","","","","75","K","2","","","208","main_expt",""
"","bandit","288","834689","0.0-249.0-0.0","49684556","wem/bandit_either_3","AXJSZ1BBVYIYL","either","6","469","","","","","","","1","0","0","0.6040603887","","0.6","0.2","0.8","0.4","","","","","0.2932847295","0.2643940457","0.6040603887","0.2157004535","","","","","","","","75","K","2","","","209","main_expt",""
"","bandit","289","837176","0.0-250.0-0.0","49684556","wem/bandit_either_3","AXJSZ1BBVYIYL","either","6","959","","","","","","","0","1","0","","0.7794442159","0.6","0.2","0.8","0.4","0.2230023122","0.2710870001","0.7794442159","0.2655169153","","","","","","","","","","","","75","K","2","","","210","main_expt",""
"","bandit","290","839445","0.0-251.0-0.0","49684556","wem/bandit_either_3","AXJSZ1BBVYIYL","either","6","733","","","","","","","0","0","1","0.8397026392","","0.6","0.2","0.8","0.4","","","","","0.1899351836","0.2056380183","0.8397026392","0.2359505063","","","","","","","","75","K","2","","","211","main_expt",""
"","bandit","291","841373","0.0-252.0-0.0","49684556","wem/bandit_either_3","AXJSZ1BBVYIYL","either","6","385","","","","","","","1","0","0","0.7883870126","","0.6","0.2","0.8","0.4","","","","","0.2593929449","0.2487045614","0.7883870126","0.2431981852","","","","","","","","75","K","2","","","212","main_expt",""
"","bandit","292","843082","0.0-253.0-0.0","49684556","wem/bandit_either_3","AXJSZ1BBVYIYL","either","6","175","","","","","","","1","0","0","0.7160446845","","0.6","0.2","0.8","0.4","","","","","0.2304425673","0.3520378668","0.7160446845","0.3385658967","","","","","","","","75","K","2","","","213","main_expt",""
"","bandit","293","845071","0.0-254.0-0.0","49684556","wem/bandit_either_3","AXJSZ1BBVYIYL","either","6","460","","","","","","","0","1","0","","0.7501162241","0.6","0.2","0.8","0.4","0.2849244028","0.3455661114","0.7501162241","0.445002088","","","","","","","","","","","","75","K","2","","","214","main_expt",""
"","bandit","294","846936","0.0-255.0-0.0","49684556","wem/bandit_either_3","AXJSZ1BBVYIYL","either","6","336","","","","","","","0","0","1","0.7574589115","","0.6","0.2","0.8","0.4","","","","","0.3184819088","0.3290646698","0.7574589115","0.4340580748","","","","","","","","75","K","2","","","215","main_expt",""
"","bandit","295","848785","0.0-256.0-0.0","49684556","wem/bandit_either_3","AXJSZ1BBVYIYL","either","6","329","","","","","","","0","1","0","","0.7376674805","0.6","0.2","0.8","0.4","0.2989728513","0.2737258078","0.7376674805","0.3996931216","","","","","","","","","","","","75","K","2","","","216","main_expt",""
"","bandit","296","850821","0.0-257.0-0.0","49684556","wem/bandit_either_3","AXJSZ1BBVYIYL","either","6","515","","","","","","","0","1","0","","0.67262171","0.6","0.2","0.8","0.4","0.5538830624","0.2401291484","0.67262171","0.453570069","","","","","","","","","","","","75","K","2","","","217","main_expt",""
"","bandit","297","852795","0.0-258.0-0.0","49684556","wem/bandit_either_3","AXJSZ1BBVYIYL","either","6","456","","","","","","","1","0","0","0.6309662891","","0.6","0.2","0.8","0.4","","","","","0.5331458927","0.2395298113","0.6309662891","0.3566620654","","","","","","","","75","K","2","","","218","main_expt",""
"","bandit","298","854846","0.0-259.0-0.0","49684556","wem/bandit_either_3","AXJSZ1BBVYIYL","either","6","533","","","","","","","0","0","1","0.610488243","","0.6","0.2","0.8","0.4","","","","","0.409279481","0.2333127667","0.610488243","0.3114207129","","","","","","","","75","K","2","","","219","main_expt",""
"","bandit","299","856665","0.0-260.0-0.0","49684556","wem/bandit_either_3","AXJSZ1BBVYIYL","either","6","288","","","","","","","0","1","0","","0.6741838821","0.6","0.2","0.8","0.4","0.3910907299","0.2097963002","0.6741838821","0.348491043","","","","","","","","","","","","75","K","2","","","220","main_expt",""
"","bandit","300","858530","0.0-261.0-0.0","49684556","wem/bandit_either_3","AXJSZ1BBVYIYL","either","6","344","","","","","","","1","0","0","0.6938787555","","0.6","0.2","0.8","0.4","","","","","0.37386253","0.1761429423","0.6938787555","0.325682353","","","","","","","","75","K","2","","","221","main_expt",""
"","bandit","301","860426","0.0-262.0-0.0","49684556","wem/bandit_either_3","AXJSZ1BBVYIYL","either","6","378","","","","","","","1","0","0","0.622086605","","0.6","0.2","0.8","0.4","","","","","0.5460784034","0.1770547834","0.622086605","0.3582518194","","","","","","","","75","K","2","","","222","main_expt",""
"","bandit","302","862213","0.0-263.0-0.0","49684556","wem/bandit_either_3","AXJSZ1BBVYIYL","either","6","262","","","","","","","0","0","1","0.6190419158","","0.6","0.2","0.8","0.4","","","","","0.5484594206","0.1494166006","0.6190419158","0.3596631187","","","","","","","","75","K","2","","","223","main_expt",""
"","bandit","303","864109","0.0-264.0-0.0","49684556","wem/bandit_either_3","AXJSZ1BBVYIYL","either","6","366","","","","","","","1","0","0","0.6525227655","","0.6","0.2","0.8","0.4","","","","","0.5156266917","0.1444184755","0.6525227655","0.4757784632","","","","","","","","75","K","2","","","224","main_expt",""
"","bandit","304","865881","0.0-265.0-0.0","49684556","wem/bandit_either_3","AXJSZ1BBVYIYL","either","6","241","","","","","","","1","0","0","0.5739960468","","0.6","0.2","0.8","0.4","","","","","0.5120039273","0.2381889698","0.5739960468","0.5384710229","","","","","","","","75","K","2","","","225","main_expt",""
"","bandit","305","868072","0.0-266.0-0.0","49684556","wem/bandit_either_3","AXJSZ1BBVYIYL","either","6","671","","","","","","","0","0","1","0.6038380469","","0.6","0.2","0.8","0.4","","","","","0.5568413113","0.1429230379","0.6038380469","0.5308581489","","","","","","","","75","K","2","","","226","main_expt",""
"","bandit","306","869968","0.0-267.0-0.0","49684556","wem/bandit_either_3","AXJSZ1BBVYIYL","either","6","373","","","","","","","1","0","0","0.5203417309","","0.6","0.2","0.8","0.4","","","","","0.5277183188","0.124100867","0.5203417309","0.488482713","","","","","","","","75","K","2","","","227","main_expt",""
"","bandit","307","872128","0.0-268.0-0.0","49684556","wem/bandit_either_3","AXJSZ1BBVYIYL","either","6","634","","","","","","","0","0","1","0.4263922038","","0.6","0.2","0.8","0.4","","","","","0.5041270258","0.1762219884","0.4263922038","0.4406219513","","","","","","","","75","K","2","","","228","main_expt",""
"","bandit","308","874040","0.0-269.0-0.0","49684556","wem/bandit_either_3","AXJSZ1BBVYIYL","either","6","389","","","","","","","0","0","1","0.3475105047","","0.6","0.2","0.8","0.4","","","","","0.4541369304","0.1910325121","0.3475105047","0.4892119921","","","","","","","","75","K","2","","","229","main_expt",""
"","bandit","309","876153","0.0-270.0-0.0","49684556","wem/bandit_either_3","AXJSZ1BBVYIYL","either","6","591","","","","","","","0","0","1","","0.3353007417","0.6","0.2","0.8","0.4","0.4504381994","0.2571549068","0.3353007417","0.5129573662","","","","","","","","","","","","75","K","2","","","230","main_expt",""
"","bandit","310","877972","0.0-271.0-0.0","49684556","wem/bandit_either_3","AXJSZ1BBVYIYL","either","6","295","","","","","","","0","1","0","","0.1781345747","0.6","0.2","0.8","0.4","0.4698668598","0.1781345747","0.2870546929","0.4382888871","","","","","","","","","","","","74","J","1","","","231","main_expt",""
"","bandit","311","880023","0.0-272.0-0.0","49684556","wem/bandit_either_3","AXJSZ1BBVYIYL","either","6","531","","","","","","","0","1","0","","0.1748933913","0.6","0.2","0.8","0.4","0.5460008395","0.1748933913","0.3092655517","0.42174841","","","","","","","","","","","","74","J","1","","","232","main_expt",""
"","bandit","312","881966","0.0-273.0-0.0","49684556","wem/bandit_either_3","AXJSZ1BBVYIYL","either","6","419","","","","","","","0","0","1","","0.2196371411","0.6","0.2","0.8","0.4","0.5345299581","0.2196371411","0.4231157335","0.4297142637","","","","","","","","","","","","74","J","1","","","233","main_expt",""
"","bandit","313","883893","0.0-274.0-0.0","49684556","wem/bandit_either_3","AXJSZ1BBVYIYL","either","6","411","","","","","","","0","0","1","","0.2052749597","0.6","0.2","0.8","0.4","0.508060833","0.2052749597","0.5525929145","0.3016140143","","","","","","","","","","","","74","J","1","","","234","main_expt",""
"","bandit","314","885758","0.0-275.0-0.0","49684556","wem/bandit_either_3","AXJSZ1BBVYIYL","either","6","337","","","","","","","0","0","1","","0.3158924645","0.6","0.2","0.8","0.4","0.4956589368","0.3158924645","0.7239072418","0.2735586703","","","","","","","","","","","","74","J","1","","","235","main_expt",""
"","bandit","315","887577","0.0-276.0-0.0","49684556","wem/bandit_either_3","AXJSZ1BBVYIYL","either","6","297","","","","","","","0","1","0","","0.5514737959","0.6","0.2","0.8","0.4","0.5514737959","0.3668106878","0.8076920848","0.2536827631","","","","","","","","","","","","72","H","0","img/none_selected.jpg","","236","main_expt",""
"","bandit","316","889721","0.0-277.0-0.0","49684556","wem/bandit_either_3","AXJSZ1BBVYIYL","either","6","625","","","","","","","0","1","0","","0.5183580196","0.6","0.2","0.8","0.4","0.5183580196","0.3866395083","0.7703095863","0.2478783488","","","","","","","","","","","","72","H","0","img/none_selected.jpg","","237","main_expt",""
"","bandit","317","891571","0.0-278.0-0.0","49684556","wem/bandit_either_3","AXJSZ1BBVYIYL","either","6","325","","","","","","","1","0","0","0.5320509842","","0.6","0.2","0.8","0.4","","","","","0.5320509842","0.4108821033","0.6485929649","0.1688186905","","","","","","","","72","H","0","img/none_selected.jpg","","238","main_expt",""
"","bandit","318","893513","0.0-279.0-0.0","49684556","wem/bandit_either_3","AXJSZ1BBVYIYL","either","6","417","","","","","","","1","0","0","0.46832295","","0.6","0.2","0.8","0.4","","","","","0.46832295","0.4384900471","0.7028133827","0.1232648298","","","","","","","","72","H","0","img/none_selected.jpg","","239","main_expt",""
"","bandit","319","895720","0.0-280.0-0.0","49684556","wem/bandit_either_3","AXJSZ1BBVYIYL","either","6","686","","","","","","","0","1","0","","0.5024711131","0.6","0.2","0.8","0.4","0.5024711131","0.4246438665","0.6620055833","0.1720424997","","","","","","","","","","","","72","H","0","img/none_selected.jpg","","240","main_expt",""
"","bandit","320","897958","0.0-281.0-0.0","49684556","wem/bandit_either_3","AXJSZ1BBVYIYL","either","6","712","","","","","","","0","0","1","0.6092933485","","0.6","0.2","0.8","0.4","","","","","0.6092933485","0.3783755671","0.6925250702","0.1045812876","","","","","","","","72","H","0","img/none_selected.jpg","","241","main_expt",""
"","bandit","321","899885","0.0-282.0-0.0","49684556","wem/bandit_either_3","AXJSZ1BBVYIYL","either","6","408","","","","","","","0","0","1","","0.5812412386","0.6","0.2","0.8","0.4","0.5812412386","0.3619864671","0.7076428944","0.08136382084","","","","","","","","","","","","72","H","0","img/none_selected.jpg","","242","main_expt",""
"","bandit","322","901705","0.0-283.0-0.0","49684556","wem/bandit_either_3","AXJSZ1BBVYIYL","either","6","296","","","","","","","1","0","0","0.5582769518","","0.6","0.2","0.8","0.4","","","","","0.5582769518","0.4143237557","0.6671697692","0.08711917736","","","","","","","","72","H","0","img/none_selected.jpg","","243","main_expt",""
"","bandit","323","903818","0.0-284.0-0.0","49684556","wem/bandit_either_3","AXJSZ1BBVYIYL","either","6","586","","","","","","","1","0","0","0.5728611736","","0.6","0.2","0.8","0.4","","","","","0.5728611736","0.3883911391","0.6829807443","0.07033008343","","","","","","","","72","H","0","img/none_selected.jpg","","244","main_expt",""
"","bandit","324","906818","0.0-285.0-0.0","49684556","wem/bandit_either_3","AXJSZ1BBVYIYL","either","6","1466","","","","","","","1","0","0","0.4821733131","","0.6","0.2","0.8","0.4","","","","","0.4821733131","0.3724790504","0.6068076256","0.04273118291","","","","","","","","72","H","0","img/none_selected.jpg","","245","main_expt",""
"","bandit","325","910314","0.0-286.0-0.0","49684556","wem/bandit_either_3","AXJSZ1BBVYIYL","either","6","1974","","","","","","","1","0","0","0.4114560805","","0.6","0.2","0.8","0.4","","","","","0.4114560805","0.4537085426","0.5724816315","0.04042754574","","","","","","","","72","H","0","img/none_selected.jpg","","246","main_expt",""
"","bandit","326","913360","0.0-287.0-0.0","49684556","wem/bandit_either_3","AXJSZ1BBVYIYL","either","6","1522","","","","","","","0","0","1","0.425160092","","0.6","0.2","0.8","0.4","","","","","0.425160092","0.4976516822","0.4878211017","0.03215760721","","","","","","","","72","H","0","img/none_selected.jpg","","247","main_expt",""
