"consent","trial_type","trial_index","time_elapsed","internal_node_id","subjID","study","MID","cond","drift","rt","responses","key_press","expt_phase","like","value","connected","gems","bombs","no_reward","GemPrChosen","BombPrChosen","GainOverPainPr_0","GainOverPainPr_1","GainOverPainPr_2","GainOverPainPr_3","LosePr_0","LosePr_1","LosePr_2","LosePr_3","WinPr_0","WinPr_1","WinPr_2","WinPr_3","Q0","Q1","Q2","gender","age","ethnicity","target","respCharCode","respKey","respChoiceNum","respChoice","practice","trial_counter","trial_label","button_pressed"
"INL_behavioral_consent_30min_online.html","consent","0","24581","0.0-0.0","51723243","wem/bandit_either_3","A132MSWBBVTOES","either","1","","","","","","","","","","","","","","","","","","","","","","","","","","","","","","","","","","","","","","",""
"","survey-text","1","31206","0.0-1.0","51723243","wem/bandit_either_3","A132MSWBBVTOES","either","1","5608","{""Q0"":""A132MSWBBVTOES""}","","","","","","","","","","","","","","","","","","","","","","","","","","","","","","","","","","","","",""
"","text","2","43982","0.0-2.0","51723243","wem/bandit_either_3","A132MSWBBVTOES","either","1","11760","","32","","","","","","","","","","","","","","","","","","","","","","","","","","","","","","","","","","","",""
"","text","3","54213","0.0-3.0","51723243","wem/bandit_either_3","A132MSWBBVTOES","either","1","10229","","32","","","","","","","","","","","","","","","","","","","","","","","","","","","","","","","","","","","",""
"","text","4","73732","0.0-4.0","51723243","wem/bandit_either_3","A132MSWBBVTOES","either","1","19517","","32","","","","","","","","","","","","","","","","","","","","","","","","","","","","","","","","","","","",""
"","text","5","87413","0.0-5.0","51723243","wem/bandit_either_3","A132MSWBBVTOES","either","1","13680","","32","","","","","","","","","","","","","","","","","","","","","","","","","","","","","","","","","","","",""
"","text","6","101804","0.0-6.0","51723243","wem/bandit_either_3","A132MSWBBVTOES","either","1","14389","","32","","","","","","","","","","","","","","","","","","","","","","","","","","","","","","","","","","","",""
"","text","7","108227","0.0-7.0","51723243","wem/bandit_either_3","A132MSWBBVTOES","either","1","6422","","32","","","","","","","","","","","","","","","","","","","","","","","","","","","","","","","","","","","",""
"","text","8","110931","0.0-8.0","51723243","wem/bandit_either_3","A132MSWBBVTOES","either","1","2702","","32","","","","","","","","","","","","","","","","","","","","","","","","","","","","","","","","","","","",""
"","identification","9","120331","0.0-9.0-0.0","51723243","wem/bandit_either_3","A132MSWBBVTOES","either","1","9384","","","","4","6","4","","","","","","","","","","","","","","","","","","","","","","","","the village of Zur","","","","","","","",""
"","identification","10","126867","0.0-9.0-1.0","51723243","wem/bandit_either_3","A132MSWBBVTOES","either","1","5506","","","","2","0","2","","","","","","","","","","","","","","","","","","","","","","","","the village of Nyx","","","","","","","",""
"","text","11","134283","0.0-10.0","51723243","wem/bandit_either_3","A132MSWBBVTOES","either","1","6408","","32","","","","","","","","","","","","","","","","","","","","","","","","","","","","","","","","","","","",""
"","text","12","136515","0.0-11.0","51723243","wem/bandit_either_3","A132MSWBBVTOES","either","1","2231","","32","","","","","","","","","","","","","","","","","","","","","","","","","","","","","","","","","","","",""
"","text","13","138003","0.0-12.0","51723243","wem/bandit_either_3","A132MSWBBVTOES","either","1","1487","","32","","","","","","","","","","","","","","","","","","","","","","","","","","","","","","","","","","","",""
"","text","14","144315","0.0-13.0","51723243","wem/bandit_either_3","A132MSWBBVTOES","either","1","6311","","32","","","","","","","","","","","","","","","","","","","","","","","","","","","","","","","","","","","",""
"","bandit","15","148098","0.0-14.0-0.0","51723243","wem/bandit_either_3","A132MSWBBVTOES","either","1","2259","","","","","","","0","0","1","0","0","","","","","0","","","","0","","","","","","","","","","","74","J","0","img/none_selected_demo.jpg","true","0","",""
"","bandit","16","150312","0.0-15.0-0.0","51723243","wem/bandit_either_3","A132MSWBBVTOES","either","1","703","","","","","","","0","0","1","0","0","","","","","0","","","","0","","","","","","","","","","","75","K","0","img/none_selected_demo.jpg","true","0","",""
"","text","17","155892","0.0-16.0","51723243","wem/bandit_either_3","A132MSWBBVTOES","either","1","5577","","32","","","","","","","","","","","","","","","","","","","","","","","","","","","","","","","","","","","",""
"","text","18","167876","0.0-17.0","51723243","wem/bandit_either_3","A132MSWBBVTOES","either","1","11982","","32","","","","","","","","","","","","","","","","","","","","","","","","","","","","","","","","","","","",""
"","text","19","173138","0.0-18.0","51723243","wem/bandit_either_3","A132MSWBBVTOES","either","1","5260","","32","","","","","","","","","","","","","","","","","","","","","","","","","","","","","","","","","","","",""
"","text","20","175715","0.0-19.0","51723243","wem/bandit_either_3","A132MSWBBVTOES","either","1","2575","","32","","","","","","","","","","","","","","","","","","","","","","","","","","","","","","","","","","","",""
"","bandit","21","177939","0.0-20.0-0.0","51723243","wem/bandit_either_3","A132MSWBBVTOES","either","1","708","","","","","","","0","1","0","","0.8","0.5","0.5","","","0.8","0.2","","","","","","","","","","","","","","74","J","0","img/none_selected_demo.jpg","true","0","80_20_practice",""
"","bandit","22","179777","0.0-20.0-1.0","51723243","wem/bandit_either_3","A132MSWBBVTOES","either","1","333","","","","","","","1","0","0","0.8","","0.5","0.5","","","","","","","0.8","0.2","","","","","","","","","","74","J","0","img/none_selected_demo.jpg","true","0","80_20_practice",""
"","bandit","23","181584","0.0-20.0-2.0","51723243","wem/bandit_either_3","A132MSWBBVTOES","either","1","287","","","","","","","0","0","1","","0.8","0.5","0.5","","","0.8","0.2","","","","","","","","","","","","","","74","J","0","img/none_selected_demo.jpg","true","0","80_20_practice",""
"","bandit","24","183217","0.0-20.0-3.0","51723243","wem/bandit_either_3","A132MSWBBVTOES","either","1","127","","","","","","","0","1","0","","0.8","0.5","0.5","","","0.8","0.2","","","","","","","","","","","","","","74","J","0","img/none_selected_demo.jpg","true","0","80_20_practice",""
"","bandit","25","184942","0.0-20.0-4.0","51723243","wem/bandit_either_3","A132MSWBBVTOES","either","1","207","","","","","","","0","0","1","","0.2","0.5","0.5","","","0.8","0.2","","","","","","","","","","","","","","75","K","1","","true","0","80_20_practice",""
"","bandit","26","186566","0.0-20.0-5.0","51723243","wem/bandit_either_3","A132MSWBBVTOES","either","1","112","","","","","","","1","0","0","0.2","","0.5","0.5","","","","","","","0.8","0.2","","","","","","","","","","75","K","1","","true","0","80_20_practice",""
"","bandit","27","188238","0.0-20.0-6.0","51723243","wem/bandit_either_3","A132MSWBBVTOES","either","1","151","","","","","","","0","0","1","","0.2","0.5","0.5","","","0.8","0.2","","","","","","","","","","","","","","75","K","1","","true","0","80_20_practice",""
"","bandit","28","189834","0.0-20.0-7.0","51723243","wem/bandit_either_3","A132MSWBBVTOES","either","1","90","","","","","","","0","1","0","","0.8","0.5","0.5","","","0.8","0.2","","","","","","","","","","","","","","74","J","0","img/none_selected_demo.jpg","true","0","80_20_practice",""
"","bandit","29","192268","0.0-20.0-8.0","51723243","wem/bandit_either_3","A132MSWBBVTOES","either","1","926","","","","","","","1","0","0","0.8","","0.5","0.5","","","","","","","0.8","0.2","","","","","","","","","","74","J","0","img/none_selected_demo.jpg","true","0","80_20_practice",""
"","bandit","30","193948","0.0-20.0-9.0","51723243","wem/bandit_either_3","A132MSWBBVTOES","either","1","162","","","","","","","0","0","1","0.8","","0.5","0.5","","","","","","","0.8","0.2","","","","","","","","","","74","J","0","img/none_selected_demo.jpg","true","0","80_20_practice",""
"","bandit","31","195699","0.0-20.0-10.0","51723243","wem/bandit_either_3","A132MSWBBVTOES","either","1","220","","","","","","","0","0","1","","0.8","0.5","0.5","","","0.8","0.2","","","","","","","","","","","","","","74","J","0","img/none_selected_demo.jpg","true","0","80_20_practice",""
"","bandit","32","197336","0.0-20.0-11.0","51723243","wem/bandit_either_3","A132MSWBBVTOES","either","1","118","","","","","","","0","1","0","","0.8","0.5","0.5","","","0.8","0.2","","","","","","","","","","","","","","74","J","0","img/none_selected_demo.jpg","true","0","80_20_practice",""
"","bandit","33","199088","0.0-20.0-12.0","51723243","wem/bandit_either_3","A132MSWBBVTOES","either","1","240","","","","","","","0","0","1","","0.8","0.5","0.5","","","0.8","0.2","","","","","","","","","","","","","","74","J","0","img/none_selected_demo.jpg","true","0","80_20_practice",""
"","bandit","34","200807","0.0-20.0-13.0","51723243","wem/bandit_either_3","A132MSWBBVTOES","either","1","199","","","","","","","0","1","0","","0.8","0.5","0.5","","","0.8","0.2","","","","","","","","","","","","","","74","J","0","img/none_selected_demo.jpg","true","0","80_20_practice",""
"","bandit","35","202539","0.0-20.0-14.0","51723243","wem/bandit_either_3","A132MSWBBVTOES","either","1","209","","","","","","","0","0","1","","0.8","0.5","0.5","","","0.8","0.2","","","","","","","","","","","","","","74","J","0","img/none_selected_demo.jpg","true","0","80_20_practice",""
"","bandit","36","204433","0.0-20.0-15.0","51723243","wem/bandit_either_3","A132MSWBBVTOES","either","1","372","","","","","","","0","1","0","","0.8","0.5","0.5","","","0.8","0.2","","","","","","","","","","","","","","74","J","0","img/none_selected_demo.jpg","true","0","80_20_practice",""
"","bandit","37","206213","0.0-20.0-16.0","51723243","wem/bandit_either_3","A132MSWBBVTOES","either","1","269","","","","","","","1","0","0","0.8","","0.5","0.5","","","","","","","0.8","0.2","","","","","","","","","","74","J","0","img/none_selected_demo.jpg","true","0","80_20_practice",""
"","bandit","38","207994","0.0-20.0-17.0","51723243","wem/bandit_either_3","A132MSWBBVTOES","either","1","267","","","","","","","1","0","0","0.8","","0.5","0.5","","","","","","","0.8","0.2","","","","","","","","","","74","J","0","img/none_selected_demo.jpg","true","0","80_20_practice",""
"","bandit","39","211294","0.0-20.0-18.0","51723243","wem/bandit_either_3","A132MSWBBVTOES","either","1","1780","","","","","","","1","0","0","0.8","","0.5","0.5","","","","","","","0.8","0.2","","","","","","","","","","74","J","0","img/none_selected_demo.jpg","true","0","80_20_practice",""
"","bandit","40","213055","0.0-20.0-19.0","51723243","wem/bandit_either_3","A132MSWBBVTOES","either","1","250","","","","","","","1","0","0","0.8","","0.5","0.5","","","","","","","0.8","0.2","","","","","","","","","","74","J","0","img/none_selected_demo.jpg","true","0","80_20_practice",""
"","text","41","216618","0.0-21.0","51723243","wem/bandit_either_3","A132MSWBBVTOES","either","1","3561","","32","","","","","","","","","","","","","","","","","","","","","","","","","","","","","","","","","","","",""
"","bandit","42","218847","0.0-22.0-0.0","51723243","wem/bandit_either_3","A132MSWBBVTOES","either","1","702","","","","","","","1","0","0","1","0","","","","","0","1","","","1","0","","","","","","","","","","74","J","0","img/none_selected_demo.jpg","true","0","",""
"","text","43","223404","0.0-23.0","51723243","wem/bandit_either_3","A132MSWBBVTOES","either","1","4555","","32","","","","","","","","","","","","","","","","","","","","","","","","","","","","","","","","","","","",""
"","text","44","225906","0.0-24.0","51723243","wem/bandit_either_3","A132MSWBBVTOES","either","1","2500","","32","","","","","","","","","","","","","","","","","","","","","","","","","","","","","","","","","","","",""
"","text","45","229282","0.0-25.0","51723243","wem/bandit_either_3","A132MSWBBVTOES","either","1","3375","","32","","","","","","","","","","","","","","","","","","","","","","","","","","","","","","","","","","","",""
"","text","46","231610","0.0-26.0","51723243","wem/bandit_either_3","A132MSWBBVTOES","either","1","2325","","32","","","","","","","","","","","","","","","","","","","","","","","","","","","","","","","","","","","",""
"","text","47","237444","0.0-27.0","51723243","wem/bandit_either_3","A132MSWBBVTOES","either","1","5833","","32","","","","","","","","","","","","","","","","","","","","","","","","","","","","","","","","","","","",""
"","text","48","240826","0.0-28.0","51723243","wem/bandit_either_3","A132MSWBBVTOES","either","1","3380","","32","","","","","","","","","","","","","","","","","","","","","","","","","","","","","","","","","","","",""
"","text","49","243594","0.0-29.0","51723243","wem/bandit_either_3","A132MSWBBVTOES","either","1","2767","","32","","","","","","","","","","","","","","","","","","","","","","","","","","","","","","","","","","","",""
"","text","50","245890","0.0-30.0","51723243","wem/bandit_either_3","A132MSWBBVTOES","either","1","2295","","32","","","","","","","","","","","","","","","","","","","","","","","","","","","","","","","","","","","",""
"","text","51","248674","0.0-31.0","51723243","wem/bandit_either_3","A132MSWBBVTOES","either","1","2784","","32","","","","","","","","","","","","","","","","","","","","","","","","","","","","","","","","","","","",""
"","text","52","250786","0.0-32.0","51723243","wem/bandit_either_3","A132MSWBBVTOES","either","1","2110","","32","","","","","","","","","","","","","","","","","","","","","","","","","","","","","","","","","","","",""
"","text","53","252314","0.0-33.0","51723243","wem/bandit_either_3","A132MSWBBVTOES","either","1","1526","","32","","","","","","","","","","","","","","","","","","","","","","","","","","","","","","","","","","","",""
"","bandit","54","254796","0.0-34.0-0.0","51723243","wem/bandit_either_3","A132MSWBBVTOES","either","1","964","","","","","","","0","1","0","","0.8","0.5","0.5","0.5","0.5","0.8","0.2","0.6","0.2","","","","","","","","","","","","72","H","0","img/none_selected.jpg","true","0","full_practice",""
"","bandit","55","256579","0.0-34.0-1.0","51723243","wem/bandit_either_3","A132MSWBBVTOES","either","1","274","","","","","","","0","0","1","","0.8","0.5","0.5","0.5","0.5","0.8","0.2","0.6","0.2","","","","","","","","","","","","72","H","0","img/none_selected.jpg","true","0","full_practice",""
"","bandit","56","258271","0.0-34.0-2.0","51723243","wem/bandit_either_3","A132MSWBBVTOES","either","1","186","","","","","","","1","0","0","0.8","","0.5","0.5","0.5","0.5","","","","","0.8","0.2","0.6","0.2","","","","","","","","72","H","0","img/none_selected.jpg","true","0","full_practice",""
"","bandit","57","259837","0.0-34.0-3.0","51723243","wem/bandit_either_3","A132MSWBBVTOES","either","1","40","","","","","","","1","0","0","0.8","","0.5","0.5","0.5","0.5","","","","","0.8","0.2","0.6","0.2","","","","","","","","72","H","0","img/none_selected.jpg","true","0","full_practice",""
"","bandit","58","261420","0.0-34.0-4.0","51723243","wem/bandit_either_3","A132MSWBBVTOES","either","1","66","","","","","","","0","1","0","","0.8","0.5","0.5","0.5","0.5","0.8","0.2","0.6","0.2","","","","","","","","","","","","72","H","0","img/none_selected.jpg","true","0","full_practice",""
"","bandit","59","263148","0.0-34.0-5.0","51723243","wem/bandit_either_3","A132MSWBBVTOES","either","1","218","","","","","","","0","0","1","0.2","","0.5","0.5","0.5","0.5","","","","","0.8","0.2","0.6","0.2","","","","","","","","74","J","1","","true","0","full_practice",""
"","bandit","60","264701","0.0-34.0-6.0","51723243","wem/bandit_either_3","A132MSWBBVTOES","either","1","34","","","","","","","0","0","1","0.2","","0.5","0.5","0.5","0.5","","","","","0.8","0.2","0.6","0.2","","","","","","","","74","J","1","","true","0","full_practice",""
"","bandit","61","266294","0.0-34.0-7.0","51723243","wem/bandit_either_3","A132MSWBBVTOES","either","1","82","","","","","","","0","0","1","","0.2","0.5","0.5","0.5","0.5","0.8","0.2","0.6","0.2","","","","","","","","","","","","74","J","1","","true","0","full_practice",""
"","bandit","62","267960","0.0-34.0-8.0","51723243","wem/bandit_either_3","A132MSWBBVTOES","either","1","161","","","","","","","1","0","0","0.6","","0.5","0.5","0.5","0.5","","","","","0.8","0.2","0.6","0.2","","","","","","","","75","K","2","","true","0","full_practice",""
"","bandit","63","269735","0.0-34.0-9.0","51723243","wem/bandit_either_3","A132MSWBBVTOES","either","1","264","","","","","","","0","1","0","","0.6","0.5","0.5","0.5","0.5","0.8","0.2","0.6","0.2","","","","","","","","","","","","75","K","2","","true","0","full_practice",""
"","bandit","64","271373","0.0-34.0-10.0","51723243","wem/bandit_either_3","A132MSWBBVTOES","either","1","118","","","","","","","1","0","0","0.6","","0.5","0.5","0.5","0.5","","","","","0.8","0.2","0.6","0.2","","","","","","","","75","K","2","","true","0","full_practice",""
"","bandit","65","272993","0.0-34.0-11.0","51723243","wem/bandit_either_3","A132MSWBBVTOES","either","1","114","","","","","","","0","0","1","0.6","","0.5","0.5","0.5","0.5","","","","","0.8","0.2","0.6","0.2","","","","","","","","75","K","2","","true","0","full_practice",""
"","bandit","66","274583","0.0-34.0-12.0","51723243","wem/bandit_either_3","A132MSWBBVTOES","either","1","86","","","","","","","1","0","0","0.6","","0.5","0.5","0.5","0.5","","","","","0.8","0.2","0.6","0.2","","","","","","","","75","K","2","","true","0","full_practice",""
"","bandit","67","276256","0.0-34.0-13.0","51723243","wem/bandit_either_3","A132MSWBBVTOES","either","1","168","","","","","","","0","0","1","","0.2","0.5","0.5","0.5","0.5","0.8","0.2","0.6","0.2","","","","","","","","","","","","76","L","3","","true","0","full_practice",""
"","bandit","68","277846","0.0-34.0-14.0","51723243","wem/bandit_either_3","A132MSWBBVTOES","either","1","70","","","","","","","0","0","1","","0.2","0.5","0.5","0.5","0.5","0.8","0.2","0.6","0.2","","","","","","","","","","","","76","L","3","","true","0","full_practice",""
"","bandit","69","279409","0.0-34.0-15.0","51723243","wem/bandit_either_3","A132MSWBBVTOES","either","1","49","","","","","","","1","0","0","0.6","","0.5","0.5","0.5","0.5","","","","","0.8","0.2","0.6","0.2","","","","","","","","75","K","2","","true","0","full_practice",""
"","bandit","70","281072","0.0-34.0-16.0","51723243","wem/bandit_either_3","A132MSWBBVTOES","either","1","158","","","","","","","0","0","1","","0.8","0.5","0.5","0.5","0.5","0.8","0.2","0.6","0.2","","","","","","","","","","","","72","H","0","img/none_selected.jpg","true","0","full_practice",""
"","bandit","71","282960","0.0-34.0-17.0","51723243","wem/bandit_either_3","A132MSWBBVTOES","either","1","383","","","","","","","1","0","0","0.6","","0.5","0.5","0.5","0.5","","","","","0.8","0.2","0.6","0.2","","","","","","","","75","K","2","","true","0","full_practice",""
"","bandit","72","284510","0.0-34.0-18.0","51723243","wem/bandit_either_3","A132MSWBBVTOES","either","1","32","","","","","","","0","1","0","","0.6","0.5","0.5","0.5","0.5","0.8","0.2","0.6","0.2","","","","","","","","","","","","75","K","2","","true","0","full_practice",""
"","bandit","73","286101","0.0-34.0-19.0","51723243","wem/bandit_either_3","A132MSWBBVTOES","either","1","81","","","","","","","0","1","0","","0.6","0.5","0.5","0.5","0.5","0.8","0.2","0.6","0.2","","","","","","","","","","","","75","K","2","","true","0","full_practice",""
"","text","74","288273","0.0-35.0","51723243","wem/bandit_either_3","A132MSWBBVTOES","either","1","2168","","32","","","","","","","","","","","","","","","","","","","","","","","","","","","","","","","","","","","",""
"","text","75","296299","0.0-36.0","51723243","wem/bandit_either_3","A132MSWBBVTOES","either","1","7018","","32","","","","","","","","","","","","","","","","","","","","","","","","","","","","","","","","","","","",""
"","text","76","304321","0.0-37.0","51723243","wem/bandit_either_3","A132MSWBBVTOES","either","1","8019","","32","","","","","","","","","","","","","","","","","","","","","","","","","","","","","","","","","","","",""
"","text","77","308043","0.0-38.0","51723243","wem/bandit_either_3","A132MSWBBVTOES","either","1","3720","","32","","","","","","","","","","","","","","","","","","","","","","","","","","","","","","","","","","","",""
"","text","78","312417","0.0-39.0","51723243","wem/bandit_either_3","A132MSWBBVTOES","either","1","4371","","32","","","","","","","","","","","","","","","","","","","","","","","","","","","","","","","","","","","",""
"","text","79","316153","0.0-40.0","51723243","wem/bandit_either_3","A132MSWBBVTOES","either","1","3733","","32","","","","","","","","","","","","","","","","","","","","","","","","","","","","","","","","","","","",""
"","bandit","80","318918","0.0-41.0-0.0","51723243","wem/bandit_either_3","A132MSWBBVTOES","either","1","1251","","","","","","","0","0","1","","0.5202783506","0.4","0.8","0.6","0.2","0.5202783506","0.7674833066","0.4995060561","0.8101107889","","","","","","","","","","","","72","H","0","img/none_selected.jpg","","1","main_expt",""
"","bandit","81","320600","0.0-42.0-0.0","51723243","wem/bandit_either_3","A132MSWBBVTOES","either","1","169","","","","","","","0","0","1","","0.4559554218","0.4","0.8","0.6","0.2","0.4559554218","0.7786696111","0.4452888422","0.8827976921","","","","","","","","","","","","72","H","0","img/none_selected.jpg","","2","main_expt",""
"","bandit","82","322131","0.0-43.0-0.0","51723243","wem/bandit_either_3","A132MSWBBVTOES","either","1","12","","","","","","","1","0","0","0.7883912796","","0.4","0.8","0.6","0.2","","","","","0.3791335739","0.7883912796","0.4956599627","0.918633781","","","","","","","","74","J","1","","","3","main_expt",""
"","bandit","83","323743","0.0-44.0-0.0","51723243","wem/bandit_either_3","A132MSWBBVTOES","either","1","97","","","","","","","0","0","1","0.8311681014","","0.4","0.8","0.6","0.2","","","","","0.362446662","0.8311681014","0.3939226057","0.8961075186","","","","","","","","74","J","1","","","4","main_expt",""
"","bandit","84","325313","0.0-45.0-0.0","51723243","wem/bandit_either_3","A132MSWBBVTOES","either","1","47","","","","","","","1","0","0","0.706748425","","0.4","0.8","0.6","0.2","","","","","0.4337427147","0.706748425","0.4737796053","0.9065038385","","","","","","","","74","J","1","","","5","main_expt",""
"","bandit","85","326923","0.0-46.0-0.0","51723243","wem/bandit_either_3","A132MSWBBVTOES","either","1","92","","","","","","","0","0","1","0.7246132019","","0.4","0.8","0.6","0.2","","","","","0.4260566605","0.7246132019","0.5798080576","0.9628954729","","","","","","","","74","J","1","","","6","main_expt",""
"","bandit","86","328528","0.0-47.0-0.0","51723243","wem/bandit_either_3","A132MSWBBVTOES","either","1","81","","","","","","","0","0","1","0.6184433593","","0.4","0.8","0.6","0.2","","","","","0.5595739282","0.822103072","0.6184433593","0.9244273404","","","","","","","","75","K","2","","","7","main_expt",""
"","bandit","87","330347","0.0-48.0-0.0","51723243","wem/bandit_either_3","A132MSWBBVTOES","either","1","293","","","","","","","1","0","0","0.5380809204","","0.4","0.8","0.6","0.2","","","","","0.5757792393","0.8176183596","0.5380809204","0.9214665689","","","","","","","","75","K","2","","","8","main_expt",""
"","bandit","88","331883","0.0-49.0-0.0","51723243","wem/bandit_either_3","A132MSWBBVTOES","either","1","27","","","","","","","0","0","1","0.4884558296","","0.4","0.8","0.6","0.2","","","","","0.5508288143","0.7421782695","0.4884558296","0.9604963414","","","","","","","","75","K","2","","","9","main_expt",""
"","bandit","89","333401","0.0-50.0-0.0","51723243","wem/bandit_either_3","A132MSWBBVTOES","either","1","9","","","","","","","0","1","0","","0.973544224","0.4","0.8","0.6","0.2","0.4615344473","0.7112185725","0.6062827564","0.973544224","","","","","","","","","","","","76","L","3","","","10","main_expt",""
"","bandit","90","335944","0.0-51.0-0.0","51723243","wem/bandit_either_3","A132MSWBBVTOES","either","1","1019","","","","","","","0","1","0","","0.9756729976","0.4","0.8","0.6","0.2","0.4731032433","0.6656122322","0.6618996933","0.9756729976","","","","","","","","","","","","76","L","3","","","11","main_expt",""
"","bandit","91","337518","0.0-52.0-0.0","51723243","wem/bandit_either_3","A132MSWBBVTOES","either","1","52","","","","","","","0","1","0","","0.9824084628","0.4","0.8","0.6","0.2","0.5028989732","0.632951522","0.6589688621","0.9824084628","","","","","","","","","","","","76","L","3","","","12","main_expt",""
"","bandit","92","339233","0.0-53.0-0.0","51723243","wem/bandit_either_3","A132MSWBBVTOES","either","1","197","","","","","","","1","0","0","0.9852841122","","0.4","0.8","0.6","0.2","","","","","0.5252386458","0.6428643634","0.7483501345","0.9852841122","","","","","","","","76","L","3","","","13","main_expt",""
"","bandit","93","340924","0.0-54.0-0.0","51723243","wem/bandit_either_3","A132MSWBBVTOES","either","1","163","","","","","","","0","1","0","","0.9844185579","0.4","0.8","0.6","0.2","0.4883642101","0.5693663763","0.7642220585","0.9844185579","","","","","","","","","","","","76","L","3","","","14","main_expt",""
"","bandit","94","342589","0.0-55.0-0.0","51723243","wem/bandit_either_3","A132MSWBBVTOES","either","1","154","","","","","","","0","1","0","","0.9716790186","0.4","0.8","0.6","0.2","0.5125695872","0.6354763258","0.8255663415","0.9716790186","","","","","","","","","","","","76","L","3","","","15","main_expt",""
"","bandit","95","344187","0.0-56.0-0.0","51723243","wem/bandit_either_3","A132MSWBBVTOES","either","1","70","","","","","","","0","1","0","","0.9724226268","0.4","0.8","0.6","0.2","0.483313844","0.6074668868","0.8262734196","0.9724226268","","","","","","","","","","","","76","L","3","","","16","main_expt",""
"","bandit","96","345795","0.0-57.0-0.0","51723243","wem/bandit_either_3","A132MSWBBVTOES","either","1","89","","","","","","","0","1","0","","0.969397438","0.4","0.8","0.6","0.2","0.4764119597","0.634379517","0.8957105494","0.969397438","","","","","","","","","","","","76","L","3","","","17","main_expt",""
"","bandit","97","347427","0.0-58.0-0.0","51723243","wem/bandit_either_3","A132MSWBBVTOES","either","1","115","","","","","","","0","1","0","","0.9487821198","0.4","0.8","0.6","0.2","0.4742144938","0.7399013172","0.8243017832","0.9487821198","","","","","","","","","","","","76","L","3","","","18","main_expt",""
"","bandit","98","349152","0.0-59.0-0.0","51723243","wem/bandit_either_3","A132MSWBBVTOES","either","1","193","","","","","","","0","1","0","","0.8822386923","0.4","0.8","0.6","0.2","0.5445729057","0.6892422428","0.8174393347","0.8822386923","","","","","","","","","","","","76","L","3","","","19","main_expt",""
"","bandit","99","350760","0.0-60.0-0.0","51723243","wem/bandit_either_3","A132MSWBBVTOES","either","1","82","","","","","","","0","1","0","","0.8658452863","0.4","0.8","0.6","0.2","0.5114357523","0.5544472153","0.8457625901","0.8658452863","","","","","","","","","","","","76","L","3","","","20","main_expt",""
"","bandit","100","352472","0.0-61.0-0.0","51723243","wem/bandit_either_3","A132MSWBBVTOES","either","1","189","","","","","","","1","0","0","0.8597265301","","0.4","0.8","0.6","0.2","","","","","0.4948626968","0.4705077418","0.8565453533","0.8597265301","","","","","","","","76","L","3","","","21","main_expt",""
"","bandit","101","354218","0.0-62.0-0.0","51723243","wem/bandit_either_3","A132MSWBBVTOES","either","1","236","","","","","","","0","1","0","","0.929530396","0.4","0.8","0.6","0.2","0.3750889156","0.5364913494","0.8821281293","0.929530396","","","","","","","","","","","","76","L","3","","","22","main_expt",""
"","bandit","102","355852","0.0-63.0-0.0","51723243","wem/bandit_either_3","A132MSWBBVTOES","either","1","99","","","","","","","0","1","0","","0.9149061772","0.4","0.8","0.6","0.2","0.3874093852","0.5450887529","0.8253896901","0.9149061772","","","","","","","","","","","","76","L","3","","","23","main_expt",""
"","bandit","103","357477","0.0-64.0-0.0","51723243","wem/bandit_either_3","A132MSWBBVTOES","either","1","104","","","","","","","0","1","0","","0.9389899916","0.4","0.8","0.6","0.2","0.4126546177","0.6013055931","0.8682133559","0.9389899916","","","","","","","","","","","","76","L","3","","","24","main_expt",""
"","bandit","104","359162","0.0-65.0-0.0","51723243","wem/bandit_either_3","A132MSWBBVTOES","either","1","159","","","","","","","0","1","0","","0.9583062328","0.4","0.8","0.6","0.2","0.3871809826","0.7116226269","0.8186134727","0.9583062328","","","","","","","","","","","","76","L","3","","","25","main_expt",""
"","bandit","105","360763","0.0-66.0-0.0","51723243","wem/bandit_either_3","A132MSWBBVTOES","either","1","82","","","","","","","0","1","0","","0.9349434311","0.4","0.8","0.6","0.2","0.4162773602","0.7284905038","0.841170918","0.9349434311","","","","","","","","","","","","76","L","3","","","26","main_expt",""
"","bandit","106","362391","0.0-67.0-0.0","51723243","wem/bandit_either_3","A132MSWBBVTOES","either","1","113","","","","","","","0","1","0","","0.9147743466","0.4","0.8","0.6","0.2","0.4153433109","0.7007901837","0.8332298301","0.9147743466","","","","","","","","","","","","76","L","3","","","27","main_expt",""
"","bandit","107","363934","0.0-68.0-0.0","51723243","wem/bandit_either_3","A132MSWBBVTOES","either","1","32","","","","","","","0","1","0","","0.8913744663","0.4","0.8","0.6","0.2","0.3083156359","0.7197690037","0.8340804883","0.8913744663","","","","","","","","","","","","76","L","3","","","28","main_expt",""
"","bandit","108","365616","0.0-69.0-0.0","51723243","wem/bandit_either_3","A132MSWBBVTOES","either","1","165","","","","","","","0","1","0","","0.9004815278","0.4","0.8","0.6","0.2","0.4048150761","0.7569205749","0.8800986549","0.9004815278","","","","","","","","","","","","76","L","3","","","29","main_expt",""
"","bandit","109","367123","0.0-70.0-0.0","51723243","wem/bandit_either_3","A132MSWBBVTOES","either","1","0","","","","","","","0","1","0","","0.8335499875","0.4","0.8","0.6","0.2","0.5604470694","0.7007062976","0.800988266","0.8335499875","","","","","","","","","","","","76","L","3","","","30","main_expt",""
"","bandit","110","368894","0.0-71.0-0.0","51723243","wem/bandit_either_3","A132MSWBBVTOES","either","1","241","","","","","","","1","0","0","0.7904098286","","0.4","0.8","0.6","0.2","","","","","0.5114456598","0.6218809145","0.8092707987","0.7904098286","","","","","","","","76","L","3","","","31","main_expt",""
"","bandit","111","370603","0.0-72.0-0.0","51723243","wem/bandit_either_3","A132MSWBBVTOES","either","1","192","","","","","","","0","1","0","","0.8156470634","0.4","0.8","0.6","0.2","0.5195843055","0.5448888872","0.7600689364","0.8156470634","","","","","","","","","","","","76","L","3","","","32","main_expt",""
"","bandit","112","372348","0.0-73.0-0.0","51723243","wem/bandit_either_3","A132MSWBBVTOES","either","1","233","","","","","","","1","0","0","0.7458483223","","0.4","0.8","0.6","0.2","","","","","0.4278216128","0.4396040002","0.7268405739","0.7458483223","","","","","","","","76","L","3","","","33","main_expt",""
"","bandit","113","374104","0.0-74.0-0.0","51723243","wem/bandit_either_3","A132MSWBBVTOES","either","1","241","","","","","","","0","1","0","","0.8745519215","0.4","0.8","0.6","0.2","0.4581725564","0.3418027302","0.7867385379","0.8745519215","","","","","","","","","","","","76","L","3","","","34","main_expt",""
"","bandit","114","376084","0.0-75.0-0.0","51723243","wem/bandit_either_3","A132MSWBBVTOES","either","1","462","","","","","","","0","1","0","","0.8761773117","0.4","0.8","0.6","0.2","0.5170179058","0.3770378826","0.7776722478","0.8761773117","","","","","","","","","","","","76","L","3","","","35","main_expt",""
"","bandit","115","377729","0.0-76.0-0.0","51723243","wem/bandit_either_3","A132MSWBBVTOES","either","1","111","","","","","","","1","0","0","0.8898579413","","0.4","0.8","0.6","0.2","","","","","0.5761285305","0.3264650107","0.8110731924","0.8898579413","","","","","","","","76","L","3","","","36","main_expt",""
"","bandit","116","379502","0.0-77.0-0.0","51723243","wem/bandit_either_3","A132MSWBBVTOES","either","1","253","","","","","","","1","0","0","0.9189960073","","0.4","0.8","0.6","0.2","","","","","0.5824592389","0.1696248696","0.8371501114","0.9189960073","","","","","","","","76","L","3","","","37","main_expt",""
"","bandit","117","381303","0.0-78.0-0.0","51723243","wem/bandit_either_3","A132MSWBBVTOES","either","1","276","","","","","","","0","1","0","","0.9429067042","0.4","0.8","0.6","0.2","0.5039158184","0.3008725236","0.801984358","0.9429067042","","","","","","","","","","","","76","L","3","","","38","main_expt",""
"","bandit","118","383052","0.0-79.0-0.0","51723243","wem/bandit_either_3","A132MSWBBVTOES","either","1","225","","","","","","","0","1","0","","0.8860185862","0.4","0.8","0.6","0.2","0.4906961915","0.3612597963","0.836760671","0.8860185862","","","","","","","","","","","","76","L","3","","","39","main_expt",""
"","bandit","119","384767","0.0-80.0-0.0","51723243","wem/bandit_either_3","A132MSWBBVTOES","either","1","200","","","","","","","0","1","0","","0.8958725565","0.4","0.8","0.6","0.2","0.5118773476","0.3316001813","0.7930168878","0.8958725565","","","","","","","","","","","","76","L","3","","","40","main_expt",""
"","bandit","120","386519","0.0-81.0-0.0","51723243","wem/bandit_either_3","A132MSWBBVTOES","either","1","247","","","","","","","0","0","1","","0.8369757826","0.4","0.8","0.6","0.2","0.5207000815","0.251761063","0.6758505439","0.8369757826","","","","","","","","","","","","76","L","3","","","41","main_expt",""
"","bandit","121","388247","0.0-82.0-0.0","51723243","wem/bandit_either_3","A132MSWBBVTOES","either","1","204","","","","","","","0","1","0","","0.8724413244","0.4","0.8","0.6","0.2","0.6208632684","0.3764367217","0.669091732","0.8724413244","","","","","","","","","","","","76","L","3","","","42","main_expt",""
"","bandit","122","389987","0.0-83.0-0.0","51723243","wem/bandit_either_3","A132MSWBBVTOES","either","1","229","","","","","","","0","1","0","","0.8721156492","0.4","0.8","0.6","0.2","0.6736877605","0.4280411123","0.5774386383","0.8721156492","","","","","","","","","","","","76","L","3","","","43","main_expt",""
"","bandit","123","391750","0.0-84.0-0.0","51723243","wem/bandit_either_3","A132MSWBBVTOES","either","1","234","","","","","","","1","0","0","0.874486911","","0.4","0.8","0.6","0.2","","","","","0.6770598463","0.4250007774","0.5402750746","0.874486911","","","","","","","","76","L","3","","","44","main_expt",""
"","bandit","124","393497","0.0-85.0-0.0","51723243","wem/bandit_either_3","A132MSWBBVTOES","either","1","231","","","","","","","1","0","0","0.7653026016","","0.4","0.8","0.6","0.2","","","","","0.6811336834","0.3964774122","0.4769525635","0.7653026016","","","","","","","","76","L","3","","","45","main_expt",""
"","bandit","125","395335","0.0-86.0-0.0","51723243","wem/bandit_either_3","A132MSWBBVTOES","either","1","323","","","","","","","1","0","0","0.6884850605","","0.4","0.8","0.6","0.2","","","","","0.7409040253","0.3755541509","0.460739512","0.6884850605","","","","","","","","76","L","3","","","46","main_expt",""
"","bandit","126","397092","0.0-87.0-0.0","51723243","wem/bandit_either_3","A132MSWBBVTOES","either","1","237","","","","","","","0","1","0","","0.6869729855","0.4","0.8","0.6","0.2","0.8602274841","0.3698766084","0.3953603582","0.6869729855","","","","","","","","","","","","76","L","3","","","47","main_expt",""
"","bandit","127","398723","0.0-88.0-0.0","51723243","wem/bandit_either_3","A132MSWBBVTOES","either","1","119","","","","","","","0","1","0","","0.624749708","0.4","0.8","0.6","0.2","0.8947369126","0.2924141828","0.5194217752","0.624749708","","","","","","","","","","","","76","L","3","","","48","main_expt",""
"","bandit","128","400318","0.0-89.0-0.0","51723243","wem/bandit_either_3","A132MSWBBVTOES","either","1","80","","","","","","","1","0","0","0.6269608649","","0.4","0.8","0.6","0.2","","","","","0.9071052574","0.2506794134","0.5015721984","0.6269608649","","","","","","","","76","L","3","","","49","main_expt",""
"","bandit","129","402030","0.0-90.0-0.0","51723243","wem/bandit_either_3","A132MSWBBVTOES","either","1","189","","","","","","","0","1","0","","0.5394470416","0.4","0.8","0.6","0.2","0.8569531155","0.2200095001","0.4427204185","0.5394470416","","","","","","","","","","","","76","L","3","","","50","main_expt",""
"","bandit","130","403778","0.0-91.0-0.0","51723243","wem/bandit_either_3","A132MSWBBVTOES","either","1","222","","","","","","","0","0","1","0.4991806479","","0.4","0.8","0.6","0.2","","","","","0.8728609703","0.2703780474","0.5194544998","0.4991806479","","","","","","","","76","L","3","","","51","main_expt",""
"","bandit","131","405393","0.0-92.0-0.0","51723243","wem/bandit_either_3","A132MSWBBVTOES","either","1","93","","","","","","","0","1","0","","0.5431464126","0.4","0.8","0.6","0.2","0.902184381","0.3215640211","0.4420680866","0.5431464126","","","","","","","","","","","","76","L","3","","","52","main_expt",""
"","bandit","132","407098","0.0-93.0-0.0","51723243","wem/bandit_either_3","A132MSWBBVTOES","either","1","171","","","","","","","0","1","0","","0.4799783957","0.4","0.8","0.6","0.2","0.8975054296","0.2918797996","0.5541791803","0.4799783957","","","","","","","","","","","","76","L","3","","","53","main_expt",""
"","bandit","133","408919","0.0-94.0-0.0","51723243","wem/bandit_either_3","A132MSWBBVTOES","either","1","289","","","","","","","0","0","1","","0.3946877269","0.4","0.8","0.6","0.2","0.9436546011","0.2432815539","0.6187664305","0.3946877269","","","","","","","","","","","","76","L","3","","","54","main_expt",""
"","bandit","134","410962","0.0-95.0-0.0","51723243","wem/bandit_either_3","A132MSWBBVTOES","either","1","516","","","","","","","0","1","0","","0.3892466866","0.4","0.8","0.6","0.2","0.9411334538","0.1993500609","0.538030076","0.3892466866","","","","","","","","","","","","76","L","3","","","55","main_expt",""
"","bandit","135","412672","0.0-96.0-0.0","51723243","wem/bandit_either_3","A132MSWBBVTOES","either","1","192","","","","","","","0","0","1","","0.347268188","0.4","0.8","0.6","0.2","0.862285227","0.1832364248","0.5137881872","0.347268188","","","","","","","","","","","","76","L","3","","","56","main_expt",""
"","bandit","136","414498","0.0-97.0-0.0","51723243","wem/bandit_either_3","A132MSWBBVTOES","either","1","302","","","","","","","0","1","0","","0.9034803314","0.4","0.8","0.6","0.2","0.9034803314","0.1703919496","0.6274604021","0.3462231845","","","","","","","","","","","","72","H","0","img/none_selected.jpg","","57","main_expt",""
"","bandit","137","416236","0.0-98.0-0.0","51723243","wem/bandit_either_3","A132MSWBBVTOES","either","1","205","","","","","","","0","1","0","","0.9062052911","0.4","0.8","0.6","0.2","0.9062052911","0.2146973212","0.5636132077","0.3707442777","","","","","","","","","","","","72","H","0","img/none_selected.jpg","","58","main_expt",""
"","bandit","138","418077","0.0-99.0-0.0","51723243","wem/bandit_either_3","A132MSWBBVTOES","either","1","313","","","","","","","0","1","0","","0.9169546289","0.4","0.8","0.6","0.2","0.9169546289","0.2118107272","0.6555757088","0.4530366532","","","","","","","","","","","","72","H","0","img/none_selected.jpg","","59","main_expt",""
"","bandit","139","419898","0.0-100.0-0.0","51723243","wem/bandit_either_3","A132MSWBBVTOES","either","1","297","","","","","","","1","0","0","0.9048679239","","0.4","0.8","0.6","0.2","","","","","0.9048679239","0.2096036334","0.6555481193","0.4335409142","","","","","","","","72","H","0","img/none_selected.jpg","","60","main_expt",""
"","bandit","140","421683","0.0-101.0-0.0","51723243","wem/bandit_either_3","A132MSWBBVTOES","either","1","257","","","","","","","0","0","1","","0.9346572725","0.4","0.8","0.6","0.2","0.9346572725","0.1985607356","0.6988977931","0.3601573371","","","","","","","","","","","","72","H","0","img/none_selected.jpg","","61","main_expt",""
"","bandit","141","423542","0.0-102.0-0.0","51723243","wem/bandit_either_3","A132MSWBBVTOES","either","1","346","","","","","","","1","0","0","0.9332729597","","0.4","0.8","0.6","0.2","","","","","0.9332729597","0.2352246004","0.6124712875","0.3187004912","","","","","","","","72","H","0","img/none_selected.jpg","","62","main_expt",""
"","bandit","142","425293","0.0-103.0-0.0","51723243","wem/bandit_either_3","A132MSWBBVTOES","either","1","220","","","","","","","0","1","0","","0.9300142507","0.4","0.8","0.6","0.2","0.9300142507","0.1989126294","0.4881994696","0.331276396","","","","","","","","","","","","72","H","0","img/none_selected.jpg","","63","main_expt",""
"","bandit","143","427097","0.0-104.0-0.0","51723243","wem/bandit_either_3","A132MSWBBVTOES","either","1","287","","","","","","","0","1","0","","0.8992917639","0.4","0.8","0.6","0.2","0.8992917639","0.2231035509","0.5007509184","0.3984677","","","","","","","","","","","","72","H","0","img/none_selected.jpg","","64","main_expt",""
"","bandit","144","428866","0.0-105.0-0.0","51723243","wem/bandit_either_3","A132MSWBBVTOES","either","1","250","","","","","","","0","1","0","","0.7939475476","0.4","0.8","0.6","0.2","0.7939475476","0.174077904","0.6077525222","0.3012021372","","","","","","","","","","","","72","H","0","img/none_selected.jpg","","65","main_expt",""
"","bandit","145","430651","0.0-106.0-0.0","51723243","wem/bandit_either_3","A132MSWBBVTOES","either","1","275","","","","","","","0","1","0","","0.7848839068","0.4","0.8","0.6","0.2","0.7848839068","0.1505104035","0.4876759876","0.2848395029","","","","","","","","","","","","72","H","0","img/none_selected.jpg","","66","main_expt",""
"","bandit","146","432485","0.0-107.0-0.0","51723243","wem/bandit_either_3","A132MSWBBVTOES","either","1","312","","","","","","","1","0","0","0.7712869283","","0.4","0.8","0.6","0.2","","","","","0.7712869283","0.1706094741","0.4705728971","0.2908363747","","","","","","","","72","H","0","img/none_selected.jpg","","67","main_expt",""
"","bandit","147","434234","0.0-108.0-0.0","51723243","wem/bandit_either_3","A132MSWBBVTOES","either","1","220","","","","","","","0","1","0","","0.7426915226","0.4","0.8","0.6","0.2","0.7426915226","0.193375558","0.5822594153","0.3226378352","","","","","","","","","","","","72","H","0","img/none_selected.jpg","","68","main_expt",""
"","bandit","148","436014","0.0-109.0-0.0","51723243","wem/bandit_either_3","A132MSWBBVTOES","either","1","274","","","","","","","0","1","0","","0.592712881","0.4","0.8","0.6","0.2","0.592712881","0.226811003","0.6189715015","0.4490581071","","","","","","","","","","","","72","H","0","img/none_selected.jpg","","69","main_expt",""
"","bandit","149","437672","0.0-110.0-0.0","51723243","wem/bandit_either_3","A132MSWBBVTOES","either","1","153","","","","","","","0","0","1","0.6587085967","","0.4","0.8","0.6","0.2","","","","","0.6587085967","0.191142909","0.5307799745","0.42365523","","","","","","","","72","H","0","img/none_selected.jpg","","70","main_expt",""
"","bandit","150","439438","0.0-111.0-0.0","51723243","wem/bandit_either_3","A132MSWBBVTOES","either","1","252","","","","","","","1","0","0","0.2371486809","","0.4","0.8","0.6","0.2","","","","","0.7562029562","0.2371486809","0.5205551237","0.427101634","","","","","","","","74","J","1","","","71","main_expt",""
"","bandit","151","441271","0.0-112.0-0.0","51723243","wem/bandit_either_3","A132MSWBBVTOES","either","1","326","","","","","","","1","0","0","0.2602117984","","0.4","0.8","0.6","0.2","","","","","0.670676276","0.2602117984","0.5913901284","0.5387899421","","","","","","","","74","J","1","","","72","main_expt",""
"","bandit","152","443039","0.0-113.0-0.0","51723243","wem/bandit_either_3","A132MSWBBVTOES","either","1","250","","","","","","","0","0","1","","0.1837165363","0.4","0.8","0.6","0.2","0.6870219419","0.1837165363","0.7127465592","0.4931252492","","","","","","","","","","","","74","J","1","","","73","main_expt",""
"","bandit","153","444695","0.0-114.0-0.0","51723243","wem/bandit_either_3","A132MSWBBVTOES","either","1","137","","","","","","","1","0","0","0.7804212289","","0.4","0.8","0.6","0.2","","","","","0.582898469","0.2032334464","0.7804212289","0.3888626504","","","","","","","","75","K","2","","","74","main_expt",""
"","bandit","154","446370","0.0-115.0-0.0","51723243","wem/bandit_either_3","A132MSWBBVTOES","either","1","165","","","","","","","1","0","0","0.7966502287","","0.4","0.8","0.6","0.2","","","","","0.6452442043","0.2782751631","0.7966502287","0.3866429177","","","","","","","","75","K","2","","","75","main_expt",""
"","bandit","155","448039","0.0-116.0-0.0","51723243","wem/bandit_either_3","A132MSWBBVTOES","either","1","160","","","","","","","1","0","0","0.7775959854","","0.4","0.8","0.6","0.2","","","","","0.7031137023","0.3318782676","0.7775959854","0.3948468247","","","","","","","","75","K","2","","","76","main_expt",""
"","bandit","156","449824","0.0-117.0-0.0","51723243","wem/bandit_either_3","A132MSWBBVTOES","either","1","273","","","","","","","0","0","1","","0.8523583745","0.4","0.8","0.6","0.2","0.6096498107","0.312607664","0.8523583745","0.4853082722","","","","","","","","","","","","75","K","2","","","77","main_expt",""
"","bandit","157","451683","0.0-118.0-0.0","51723243","wem/bandit_either_3","A132MSWBBVTOES","either","1","333","","","","","","","0","1","0","","0.3250695504","0.4","0.8","0.6","0.2","0.532302087","0.3250695504","0.7707034136","0.4971609959","","","","","","","","","","","","74","J","1","","","78","main_expt",""
"","bandit","158","453512","0.0-119.0-0.0","51723243","wem/bandit_either_3","A132MSWBBVTOES","either","1","294","","","","","","","1","0","0","0.277144637","","0.4","0.8","0.6","0.2","","","","","0.4448734945","0.277144637","0.7919080975","0.5349041547","","","","","","","","74","J","1","","","79","main_expt",""
"","bandit","159","455336","0.0-120.0-0.0","51723243","wem/bandit_either_3","A132MSWBBVTOES","either","1","300","","","","","","","0","0","1","0.293018971","","0.4","0.8","0.6","0.2","","","","","0.34513516","0.293018971","0.8107458935","0.4713204996","","","","","","","","74","J","1","","","80","main_expt",""
"","bandit","160","457071","0.0-121.0-0.0","51723243","wem/bandit_either_3","A132MSWBBVTOES","either","1","224","","","","","","","0","0","1","0.406584365","","0.4","0.8","0.6","0.2","","","","","0.406584365","0.2730851157","0.7851591746","0.4132476049","","","","","","","","72","H","0","img/none_selected.jpg","","81","main_expt",""
"","bandit","161","458875","0.0-122.0-0.0","51723243","wem/bandit_either_3","A132MSWBBVTOES","either","1","284","","","","","","","0","0","1","0.2436011542","","0.4","0.8","0.6","0.2","","","","","0.5068312928","0.2436011542","0.8067558171","0.4640808921","","","","","","","","74","J","1","","","82","main_expt",""
"","bandit","162","460507","0.0-123.0-0.0","51723243","wem/bandit_either_3","A132MSWBBVTOES","either","1","118","","","","","","","1","0","0","0.7777816444","","0.4","0.8","0.6","0.2","","","","","0.5209063211","0.2009218657","0.7777816444","0.442115463","","","","","","","","75","K","2","","","83","main_expt",""
"","bandit","163","462221","0.0-124.0-0.0","51723243","wem/bandit_either_3","A132MSWBBVTOES","either","1","205","","","","","","","0","1","0","","0.7801041195","0.4","0.8","0.6","0.2","0.6221591745","0.1550904625","0.7801041195","0.5117806844","","","","","","","","","","","","75","K","2","","","84","main_expt",""
"","bandit","164","463927","0.0-125.0-0.0","51723243","wem/bandit_either_3","A132MSWBBVTOES","either","1","187","","","","","","","1","0","0","0.7593249252","","0.4","0.8","0.6","0.2","","","","","0.6939346182","0.1193398435","0.7593249252","0.5309627618","","","","","","","","75","K","2","","","85","main_expt",""
"","bandit","165","465608","0.0-126.0-0.0","51723243","wem/bandit_either_3","A132MSWBBVTOES","either","1","170","","","","","","","1","0","0","0.7911667705","","0.4","0.8","0.6","0.2","","","","","0.7533471596","0.1398572341","0.7911667705","0.5482659382","","","","","","","","75","K","2","","","86","main_expt",""
"","bandit","166","467331","0.0-127.0-0.0","51723243","wem/bandit_either_3","A132MSWBBVTOES","either","1","208","","","","","","","1","0","0","0.8480662183","","0.4","0.8","0.6","0.2","","","","","0.8040573679","0.1941505275","0.8480662183","0.4772076429","","","","","","","","75","K","2","","","87","main_expt",""
"","bandit","167","468915","0.0-128.0-0.0","51723243","wem/bandit_either_3","A132MSWBBVTOES","either","1","62","","","","","","","1","0","0","0.8110462569","","0.4","0.8","0.6","0.2","","","","","0.7800800897","0.09645570925","0.8110462569","0.5202977678","","","","","","","","75","K","2","","","88","main_expt",""
"","bandit","168","470543","0.0-129.0-0.0","51723243","wem/bandit_either_3","A132MSWBBVTOES","either","1","110","","","","","","","0","0","1","","0.7924414871","0.4","0.8","0.6","0.2","0.7329239748","0.1304326216","0.7924414871","0.4970482359","","","","","","","","","","","","75","K","2","","","89","main_expt",""
"","bandit","169","472238","0.0-130.0-0.0","51723243","wem/bandit_either_3","A132MSWBBVTOES","either","1","185","","","","","","","1","0","0","0.8190855249","","0.4","0.8","0.6","0.2","","","","","0.7202813078","0.1410434261","0.8190855249","0.4671205494","","","","","","","","75","K","2","","","90","main_expt",""
"","bandit","170","473831","0.0-131.0-0.0","51723243","wem/bandit_either_3","A132MSWBBVTOES","either","1","74","","","","","","","1","0","0","0.858270253","","0.4","0.8","0.6","0.2","","","","","0.698586111","0.1277095213","0.858270253","0.5518401665","","","","","","","","75","K","2","","","91","main_expt",""
"","bandit","171","475493","0.0-132.0-0.0","51723243","wem/bandit_either_3","A132MSWBBVTOES","either","1","153","","","","","","","1","0","0","0.8583259383","","0.4","0.8","0.6","0.2","","","","","0.6054304462","0.08596821216","0.8583259383","0.620788192","","","","","","","","75","K","2","","","92","main_expt",""
"","bandit","172","477228","0.0-133.0-0.0","51723243","wem/bandit_either_3","A132MSWBBVTOES","either","1","210","","","","","","","1","0","0","0.8335107661","","0.4","0.8","0.6","0.2","","","","","0.6829204303","0.05652587691","0.8335107661","0.679669404","","","","","","","","75","K","2","","","93","main_expt",""
"","bandit","173","478991","0.0-134.0-0.0","51723243","wem/bandit_either_3","A132MSWBBVTOES","either","1","247","","","","","","","1","0","0","0.8849423118","","0.4","0.8","0.6","0.2","","","","","0.6084783934","0.07490457358","0.8849423118","0.6726581754","","","","","","","","75","K","2","","","94","main_expt",""
"","bandit","174","480642","0.0-135.0-0.0","51723243","wem/bandit_either_3","A132MSWBBVTOES","either","1","121","","","","","","","0","0","1","0.9175662658","","0.4","0.8","0.6","0.2","","","","","0.51962455","0.05201682933","0.9175662658","0.5983950962","","","","","","","","75","K","2","","","95","main_expt",""
"","bandit","175","482386","0.0-136.0-0.0","51723243","wem/bandit_either_3","A132MSWBBVTOES","either","1","213","","","","","","","0","1","0","","0.8726153548","0.4","0.8","0.6","0.2","0.453067158","0.0353667714","0.8726153548","0.6316158747","","","","","","","","","","","","75","K","2","","","96","main_expt",""
"","bandit","176","483908","0.0-137.0-0.0","51723243","wem/bandit_either_3","A132MSWBBVTOES","either","1","1","","","","","","","1","0","0","0.7260562137","","0.4","0.8","0.6","0.2","","","","","0.4090095009","0.04301306848","0.7260562137","0.6660601513","","","","","","","","75","K","2","","","97","main_expt",""
"","bandit","177","485600","0.0-138.0-0.0","51723243","wem/bandit_either_3","A132MSWBBVTOES","either","1","179","","","","","","","0","0","1","","0.6506148609","0.4","0.8","0.6","0.2","0.360727585","0.03950067624","0.6506148609","0.6185462561","","","","","","","","","","","","75","K","2","","","98","main_expt",""
"","bandit","178","487311","0.0-139.0-0.0","51723243","wem/bandit_either_3","A132MSWBBVTOES","either","1","203","","","","","","","0","0","1","","0.03156699585","0.4","0.8","0.6","0.2","0.3351327477","0.03156699585","0.5816342488","0.581128502","","","","","","","","","","","","74","J","1","","","99","main_expt",""
"","bandit","179","488946","0.0-140.0-0.0","51723243","wem/bandit_either_3","A132MSWBBVTOES","either","1","114","","","","","","","0","1","0","","0.3491912274","0.4","0.8","0.6","0.2","0.3491912274","0.0248161238","0.5521464449","0.479775063","","","","","","","","","","","","72","H","0","img/none_selected.jpg","","100","main_expt",""
"","bandit","180","490759","0.0-141.0-0.0","51723243","wem/bandit_either_3","A132MSWBBVTOES","either","1","304","","","","","","","0","0","1","0.4105375765","","0.4","0.8","0.6","0.2","","","","","0.4105375765","0.02218075004","0.6063232436","0.5114647241","","","","","","","","72","H","0","img/none_selected.jpg","","101","main_expt",""
"","bandit","181","492916","0.0-142.0-0.0","51723243","wem/bandit_either_3","A132MSWBBVTOES","either","1","644","","","","","","","0","1","0","","0.438632671","0.4","0.8","0.6","0.2","0.438632671","0.01802152149","0.5636213764","0.4718740674","","","","","","","","","","","","72","H","0","img/none_selected.jpg","","102","main_expt",""
"","bandit","182","494690","0.0-143.0-0.0","51723243","wem/bandit_either_3","A132MSWBBVTOES","either","1","252","","","","","","","0","1","0","","0.372838406","0.4","0.8","0.6","0.2","0.372838406","0.01877214671","0.5370473259","0.5245129891","","","","","","","","","","","","72","H","0","img/none_selected.jpg","","103","main_expt",""
"","bandit","183","496426","0.0-144.0-0.0","51723243","wem/bandit_either_3","A132MSWBBVTOES","either","1","217","","","","","","","0","0","1","","0.3057692375","0.4","0.8","0.6","0.2","0.3057692375","0.01556743346","0.549647281","0.5170751474","","","","","","","","","","","","72","H","0","img/none_selected.jpg","","104","main_expt",""
"","bandit","184","498375","0.0-145.0-0.0","51723243","wem/bandit_either_3","A132MSWBBVTOES","either","1","430","","","","","","","0","0","1","","0.37369274","0.4","0.8","0.6","0.2","0.37369274","0.03717147126","0.4225976111","0.472330124","","","","","","","","","","","","72","H","0","img/none_selected.jpg","","105","main_expt",""
"","bandit","185","500135","0.0-146.0-0.0","51723243","wem/bandit_either_3","A132MSWBBVTOES","either","1","249","","","","","","","0","0","1","0.07687033395","","0.4","0.8","0.6","0.2","","","","","0.3179799449","0.07687033395","0.5005163425","0.568133852","","","","","","","","74","J","1","","","106","main_expt",""
"","bandit","186","502301","0.0-147.0-0.0","51723243","wem/bandit_either_3","A132MSWBBVTOES","either","1","647","","","","","","","0","0","1","0.07659049968","","0.4","0.8","0.6","0.2","","","","","0.3053765494","0.07659049968","0.3995396385","0.536018559","","","","","","","","74","J","1","","","107","main_expt",""
"","bandit","187","504051","0.0-148.0-0.0","51723243","wem/bandit_either_3","A132MSWBBVTOES","either","1","235","","","","","","","1","0","0","0.3855926336","","0.4","0.8","0.6","0.2","","","","","0.2732860947","0.07827602418","0.3855926336","0.3880888981","","","","","","","","75","K","2","","","108","main_expt",""
"","bandit","188","505803","0.0-149.0-0.0","51723243","wem/bandit_either_3","A132MSWBBVTOES","either","1","229","","","","","","","0","1","0","","0.3059937163","0.4","0.8","0.6","0.2","0.2624197952","0.1352418701","0.3059937163","0.3675045314","","","","","","","","","","","","75","K","2","","","109","main_expt",""
"","bandit","189","507324","0.0-150.0-0.0","51723243","wem/bandit_either_3","A132MSWBBVTOES","either","1","1","","","","","","","0","0","1","0.2752892785","","0.4","0.8","0.6","0.2","","","","","0.3303210632","0.1705666919","0.2752892785","0.4560700489","","","","","","","","75","K","2","","","110","main_expt",""
"","bandit","190","509314","0.0-151.0-0.0","51723243","wem/bandit_either_3","A132MSWBBVTOES","either","1","468","","","","","","","0","1","0","","0.3038626008","0.4","0.8","0.6","0.2","0.3541452024","0.2202970635","0.3038626008","0.5366389876","","","","","","","","","","","","75","K","2","","","111","main_expt",""
"","bandit","191","511720","0.0-152.0-0.0","51723243","wem/bandit_either_3","A132MSWBBVTOES","either","1","889","","","","","","","0","1","0","","0.2308866464","0.4","0.8","0.6","0.2","0.4468573219","0.2368742277","0.2308866464","0.5742054707","","","","","","","","","","","","75","K","2","","","112","main_expt",""
"","bandit","192","513545","0.0-153.0-0.0","51723243","wem/bandit_either_3","A132MSWBBVTOES","either","1","315","","","","","","","1","0","0","0.2420052043","","0.4","0.8","0.6","0.2","","","","","0.5163231944","0.2487241586","0.2420052043","0.6014260319","","","","","","","","75","K","2","","","113","main_expt",""
"","bandit","193","515239","0.0-154.0-0.0","51723243","wem/bandit_either_3","A132MSWBBVTOES","either","1","169","","","","","","","1","0","0","0.3277817495","","0.4","0.8","0.6","0.2","","","","","0.4064640458","0.238824581","0.3277817495","0.5398035654","","","","","","","","75","K","2","","","114","main_expt",""
"","bandit","194","517081","0.0-155.0-0.0","51723243","wem/bandit_either_3","A132MSWBBVTOES","either","1","325","","","","","","","0","0","1","0.3280884562","","0.4","0.8","0.6","0.2","","","","","0.4085425191","0.1480638281","0.3280884562","0.5008208772","","","","","","","","75","K","2","","","115","main_expt",""
"","bandit","195","518940","0.0-156.0-0.0","51723243","wem/bandit_either_3","A132MSWBBVTOES","either","1","337","","","","","","","0","0","1","","0.4200837231","0.4","0.8","0.6","0.2","0.4412864427","0.1246447603","0.4137256642","0.4200837231","","","","","","","","","","","","76","L","3","","","116","main_expt",""
"","bandit","196","520860","0.0-157.0-0.0","51723243","wem/bandit_either_3","A132MSWBBVTOES","either","1","392","","","","","","","0","0","1","","0.372751341","0.4","0.8","0.6","0.2","0.5188885271","0.1308085784","0.372751341","0.4094987027","","","","","","","","","","","","75","K","2","","","117","main_expt",""
"","bandit","197","522538","0.0-158.0-0.0","51723243","wem/bandit_either_3","A132MSWBBVTOES","either","1","151","","","","","","","0","0","1","0.09076242324","","0.4","0.8","0.6","0.2","","","","","0.5728151575","0.09076242324","0.4225631273","0.3862907493","","","","","","","","74","J","1","","","118","main_expt",""
"","bandit","198","524399","0.0-159.0-0.0","51723243","wem/bandit_either_3","A132MSWBBVTOES","either","1","328","","","","","","","0","0","1","0.5065624602","","0.4","0.8","0.6","0.2","","","","","0.5065624602","0.09057925276","0.4188482812","0.4437318585","","","","","","","","72","H","0","img/none_selected.jpg","","119","main_expt",""
"","bandit","199","526508","0.0-160.0-0.0","51723243","wem/bandit_either_3","A132MSWBBVTOES","either","1","588","","","","","","","1","0","0","0.1288926122","","0.4","0.8","0.6","0.2","","","","","0.4064427813","0.1288926122","0.3729077829","0.293469011","","","","","","","","74","J","1","","","120","main_expt",""
"","bandit","200","528309","0.0-161.0-0.0","51723243","wem/bandit_either_3","A132MSWBBVTOES","either","1","287","","","","","","","0","0","1","","0.1479701512","0.4","0.8","0.6","0.2","0.3948988447","0.1479701512","0.3817262037","0.2141601759","","","","","","","","","","","","74","J","1","","","121","main_expt",""
"","bandit","201","530035","0.0-162.0-0.0","51723243","wem/bandit_either_3","A132MSWBBVTOES","either","1","198","","","","","","","1","0","0","0.3537210734","","0.4","0.8","0.6","0.2","","","","","0.316823658","0.1663524813","0.3537210734","0.2594293103","","","","","","","","75","K","2","","","122","main_expt",""
"","bandit","202","531759","0.0-163.0-0.0","51723243","wem/bandit_either_3","A132MSWBBVTOES","either","1","217","","","","","","","0","0","1","0.3633727708","","0.4","0.8","0.6","0.2","","","","","0.3045978244","0.1993917655","0.3633727708","0.1519240937","","","","","","","","75","K","2","","","123","main_expt",""
"","bandit","203","533661","0.0-164.0-0.0","51723243","wem/bandit_either_3","A132MSWBBVTOES","either","1","372","","","","","","","0","0","1","","0.2311656533","0.4","0.8","0.6","0.2","0.2389028675","0.2948689786","0.4139908316","0.2311656533","","","","","","","","","","","","76","L","3","","","124","main_expt",""
"","bandit","204","535301","0.0-165.0-0.0","51723243","wem/bandit_either_3","A132MSWBBVTOES","either","1","126","","","","","","","0","0","1","0.3619800754","","0.4","0.8","0.6","0.2","","","","","0.2166803268","0.4054398129","0.3619800754","0.1956748967","","","","","","","","75","K","2","","","125","main_expt",""
"","bandit","205","536840","0.0-166.0-0.0","51723243","wem/bandit_either_3","A132MSWBBVTOES","either","1","22","","","","","","","0","1","0","","0.353362548","0.4","0.8","0.6","0.2","0.1613674106","0.5337661481","0.353362548","0.1419383156","","","","","","","","","","","","75","K","2","","","126","main_expt",""
"","bandit","206","538442","0.0-167.0-0.0","51723243","wem/bandit_either_3","A132MSWBBVTOES","either","1","82","","","","","","","0","0","1","","0.2888217425","0.4","0.8","0.6","0.2","0.1682412955","0.5510518781","0.2888217425","0.1768105291","","","","","","","","","","","","75","K","2","","","127","main_expt",""
"","bandit","207","540195","0.0-168.0-0.0","51723243","wem/bandit_either_3","A132MSWBBVTOES","either","1","223","","","","","","","1","0","0","0.4746642732","","0.4","0.8","0.6","0.2","","","","","0.1655910943","0.4746642732","0.3131893798","0.1187699492","","","","","","","","74","J","1","","","128","main_expt",""
"","bandit","208","541980","0.0-169.0-0.0","51723243","wem/bandit_either_3","A132MSWBBVTOES","either","1","263","","","","","","","0","1","0","","0.5345142674","0.4","0.8","0.6","0.2","0.1845506081","0.5345142674","0.2826861836","0.1860330609","","","","","","","","","","","","74","J","1","","","129","main_expt",""
"","bandit","209","543736","0.0-170.0-0.0","51723243","wem/bandit_either_3","A132MSWBBVTOES","either","1","239","","","","","","","1","0","0","0.6617219445","","0.4","0.8","0.6","0.2","","","","","0.1548240476","0.6617219445","0.3434973012","0.09722607165","","","","","","","","74","J","1","","","130","main_expt",""
"","bandit","210","545493","0.0-171.0-0.0","51723243","wem/bandit_either_3","A132MSWBBVTOES","either","1","236","","","","","","","0","0","1","","0.6183560712","0.4","0.8","0.6","0.2","0.1503989","0.6183560712","0.3848082556","0.05626421391","","","","","","","","","","","","74","J","1","","","131","main_expt",""
"","bandit","211","547253","0.0-172.0-0.0","51723243","wem/bandit_either_3","A132MSWBBVTOES","either","1","237","","","","","","","1","0","0","0.7009512511","","0.4","0.8","0.6","0.2","","","","","0.1199593994","0.7009512511","0.4140069858","0.1149854728","","","","","","","","74","J","1","","","132","main_expt",""
"","bandit","212","548926","0.0-173.0-0.0","51723243","wem/bandit_either_3","A132MSWBBVTOES","either","1","141","","","","","","","0","0","1","0.5838974895","","0.4","0.8","0.6","0.2","","","","","0.1518383839","0.5838974895","0.3745017877","0.1698175541","","","","","","","","74","J","1","","","133","main_expt",""
"","bandit","213","550605","0.0-174.0-0.0","51723243","wem/bandit_either_3","A132MSWBBVTOES","either","1","173","","","","","","","0","0","1","0.1855528241","","0.4","0.8","0.6","0.2","","","","","0.1855528241","0.6628563986","0.3918835711","0.1925371395","","","","","","","","72","H","0","img/none_selected.jpg","","134","main_expt",""
"","bandit","214","552136","0.0-175.0-0.0","51723243","wem/bandit_either_3","A132MSWBBVTOES","either","1","13","","","","","","","1","0","0","0.3405764209","","0.4","0.8","0.6","0.2","","","","","0.2187769305","0.5610912218","0.3405764209","0.246136332","","","","","","","","75","K","2","","","135","main_expt",""
"","bandit","215","553868","0.0-176.0-0.0","51723243","wem/bandit_either_3","A132MSWBBVTOES","either","1","219","","","","","","","1","0","0","0.4155430462","","0.4","0.8","0.6","0.2","","","","","0.2001534018","0.4834649218","0.4155430462","0.2277518718","","","","","","","","75","K","2","","","136","main_expt",""
"","bandit","216","555632","0.0-177.0-0.0","51723243","wem/bandit_either_3","A132MSWBBVTOES","either","1","239","","","","","","","0","0","1","","0.3389252929","0.4","0.8","0.6","0.2","0.176995917","0.513072369","0.3389252929","0.252962458","","","","","","","","","","","","75","K","2","","","137","main_expt",""
"","bandit","217","557396","0.0-178.0-0.0","51723243","wem/bandit_either_3","A132MSWBBVTOES","either","1","249","","","","","","","0","1","0","","0.2698753193","0.4","0.8","0.6","0.2","0.1460019238","0.5502636267","0.2698753193","0.3018696236","","","","","","","","","","","","75","K","2","","","138","main_expt",""
"","bandit","218","558968","0.0-179.0-0.0","51723243","wem/bandit_either_3","A132MSWBBVTOES","either","1","47","","","","","","","0","0","1","","0.2821570394","0.4","0.8","0.6","0.2","0.06707115951","0.4564922144","0.2821570394","0.347353107","","","","","","","","","","","","75","K","2","","","139","main_expt",""
"","bandit","219","560694","0.0-180.0-0.0","51723243","wem/bandit_either_3","A132MSWBBVTOES","either","1","220","","","","","","","0","0","1","0.4116013625","","0.4","0.8","0.6","0.2","","","","","0.1071331831","0.4116013625","0.3577533322","0.2477375586","","","","","","","","74","J","1","","","140","main_expt",""
"","bandit","220","562365","0.0-181.0-0.0","51723243","wem/bandit_either_3","A132MSWBBVTOES","either","1","142","","","","","","","0","1","0","","0.4250900652","0.4","0.8","0.6","0.2","0.1224459691","0.4498847811","0.4250900652","0.2880826197","","","","","","","","","","","","75","K","2","","","141","main_expt",""
"","bandit","221","564091","0.0-182.0-0.0","51723243","wem/bandit_either_3","A132MSWBBVTOES","either","1","214","","","","","","","1","0","0","0.3451055681","","0.4","0.8","0.6","0.2","","","","","0.1127900777","0.4822150968","0.3451055681","0.2287108423","","","","","","","","75","K","2","","","142","main_expt",""
"","bandit","222","565749","0.0-183.0-0.0","51723243","wem/bandit_either_3","A132MSWBBVTOES","either","1","144","","","","","","","1","0","0","0.4661026996","","0.4","0.8","0.6","0.2","","","","","0.1736101882","0.513506041","0.4661026996","0.2096850542","","","","","","","","75","K","2","","","143","main_expt",""
"","bandit","223","567492","0.0-184.0-0.0","51723243","wem/bandit_either_3","A132MSWBBVTOES","either","1","222","","","","","","","1","0","0","0.4683168179","","0.4","0.8","0.6","0.2","","","","","0.1231714597","0.556822441","0.4683168179","0.2214165798","","","","","","","","75","K","2","","","144","main_expt",""
"","bandit","224","569142","0.0-185.0-0.0","51723243","wem/bandit_either_3","A132MSWBBVTOES","either","1","127","","","","","","","0","0","1","","0.448697065","0.4","0.8","0.6","0.2","0.10514291","0.5633269006","0.448697065","0.2412424024","","","","","","","","","","","","75","K","2","","","145","main_expt",""
"","bandit","225","570873","0.0-186.0-0.0","51723243","wem/bandit_either_3","A132MSWBBVTOES","either","1","213","","","","","","","0","1","0","","0.4560677512","0.4","0.8","0.6","0.2","0.0972381369","0.6482805244","0.4560677512","0.1841611904","","","","","","","","","","","","75","K","2","","","146","main_expt",""
"","bandit","226","572456","0.0-187.0-0.0","51723243","wem/bandit_either_3","A132MSWBBVTOES","either","1","58","","","","","","","0","1","0","","0.513472809","0.4","0.8","0.6","0.2","0.1897119627","0.6036290043","0.513472809","0.1577922033","","","","","","","","","","","","75","K","2","","","147","main_expt",""
"","bandit","227","574096","0.0-188.0-0.0","51723243","wem/bandit_either_3","A132MSWBBVTOES","either","1","119","","","","","","","0","0","1","0.3820674583","","0.4","0.8","0.6","0.2","","","","","0.1759094881","0.6110248825","0.3820674583","0.1663963597","","","","","","","","75","K","2","","","148","main_expt",""
"","bandit","228","575711","0.0-189.0-0.0","51723243","wem/bandit_either_3","A132MSWBBVTOES","either","1","95","","","","","","","0","0","1","0.2204336569","","0.4","0.8","0.6","0.2","","","","","0.2204336569","0.6453676348","0.3116557105","0.319747154","","","","","","","","72","H","0","img/none_selected.jpg","","149","main_expt",""
"","bandit","229","577391","0.0-190.0-0.0","51723243","wem/bandit_either_3","A132MSWBBVTOES","either","1","162","","","","","","","0","1","0","","0.5410110608","0.4","0.8","0.6","0.2","0.2328853871","0.66235511","0.3039338698","0.5410110608","","","","","","","","","","","","76","L","3","","","150","main_expt",""
"","bandit","230","579173","0.0-191.0-0.0","51723243","wem/bandit_either_3","A132MSWBBVTOES","either","1","256","","","","","","","0","0","1","","0.5584745132","0.4","0.8","0.6","0.2","0.2652525627","0.5547575852","0.3092958796","0.5584745132","","","","","","","","","","","","76","L","3","","","151","main_expt",""
"","bandit","231","580799","0.0-192.0-0.0","51723243","wem/bandit_either_3","A132MSWBBVTOES","either","1","106","","","","","","","0","0","1","","0.5223098228","0.4","0.8","0.6","0.2","0.2654363334","0.5223098228","0.3097370874","0.5709378499","","","","","","","","","","","","74","J","1","","","152","main_expt",""
"","bandit","232","582729","0.0-193.0-0.0","51723243","wem/bandit_either_3","A132MSWBBVTOES","either","1","420","","","","","","","0","0","1","","0.2955649657","0.4","0.8","0.6","0.2","0.3505589273","0.5137303037","0.2955649657","0.6314515046","","","","","","","","","","","","75","K","2","","","153","main_expt",""
"","bandit","233","584353","0.0-194.0-0.0","51723243","wem/bandit_either_3","A132MSWBBVTOES","either","1","86","","","","","","","0","0","1","","0.6734276465","0.4","0.8","0.6","0.2","0.39889796","0.5193194566","0.221553637","0.6734276465","","","","","","","","","","","","76","L","3","","","154","main_expt",""
"","bandit","234","586255","0.0-195.0-0.0","51723243","wem/bandit_either_3","A132MSWBBVTOES","either","1","383","","","","","","","0","0","1","","0.2231547498","0.4","0.8","0.6","0.2","0.4202606707","0.4736812385","0.2231547498","0.7019144477","","","","","","","","","","","","75","K","2","","","155","main_expt",""
"","bandit","235","587987","0.0-196.0-0.0","51723243","wem/bandit_either_3","A132MSWBBVTOES","either","1","218","","","","","","","0","1","0","","0.2750957943","0.4","0.8","0.6","0.2","0.4814159609","0.4616442501","0.2750957943","0.6695455193","","","","","","","","","","","","75","K","2","","","156","main_expt",""
"","bandit","236","589760","0.0-197.0-0.0","51723243","wem/bandit_either_3","A132MSWBBVTOES","either","1","252","","","","","","","0","0","1","0.2005793054","","0.4","0.8","0.6","0.2","","","","","0.5316807058","0.5025740222","0.2005793054","0.6179864128","","","","","","","","75","K","2","","","157","main_expt",""
"","bandit","237","591465","0.0-198.0-0.0","51723243","wem/bandit_either_3","A132MSWBBVTOES","either","1","179","","","","","","","0","0","1","","0.4548105643","0.4","0.8","0.6","0.2","0.5429668589","0.4548105643","0.2502080146","0.7380689997","","","","","","","","","","","","74","J","1","","","158","main_expt",""
"","bandit","238","592997","0.0-199.0-0.0","51723243","wem/bandit_either_3","A132MSWBBVTOES","either","1","22","","","","","","","0","1","0","","0.5991419929","0.4","0.8","0.6","0.2","0.5991419929","0.4622667215","0.2729805177","0.7632184112","","","","","","","","","","","","72","H","0","img/none_selected.jpg","","159","main_expt",""
"","bandit","239","594736","0.0-200.0-0.0","51723243","wem/bandit_either_3","A132MSWBBVTOES","either","1","210","","","","","","","0","0","1","","0.6480894682","0.4","0.8","0.6","0.2","0.6480894682","0.4600517474","0.2801697818","0.6917664031","","","","","","","","","","","","72","H","0","img/none_selected.jpg","","160","main_expt",""
"","bandit","240","596473","0.0-201.0-0.0","51723243","wem/bandit_either_3","A132MSWBBVTOES","either","1","202","","","","","","","0","0","1","","0.2437938608","0.4","0.8","0.6","0.2","0.6776161973","0.481388234","0.2437938608","0.7106531984","","","","","","","","","","","","75","K","2","","","161","main_expt",""
"","bandit","241","598222","0.0-202.0-0.0","51723243","wem/bandit_either_3","A132MSWBBVTOES","either","1","231","","","","","","","0","0","1","","0.7134031715","0.4","0.8","0.6","0.2","0.7134031715","0.3850106192","0.2687553501","0.809310282","","","","","","","","","","","","72","H","0","img/none_selected.jpg","","162","main_expt",""
"","bandit","242","599896","0.0-203.0-0.0","51723243","wem/bandit_either_3","A132MSWBBVTOES","either","1","153","","","","","","","0","0","1","","0.6215635068","0.4","0.8","0.6","0.2","0.6215635068","0.3498723973","0.245991677","0.7492875705","","","","","","","","","","","","72","H","0","img/none_selected.jpg","","163","main_expt",""
"","bandit","243","601480","0.0-204.0-0.0","51723243","wem/bandit_either_3","A132MSWBBVTOES","either","1","55","","","","","","","1","0","0","0.4287417444","","0.4","0.8","0.6","0.2","","","","","0.5219240024","0.4287417444","0.270385563","0.7561394707","","","","","","","","74","J","1","","","164","main_expt",""
"","bandit","244","603545","0.0-205.0-0.0","51723243","wem/bandit_either_3","A132MSWBBVTOES","either","1","551","","","","","","","0","0","1","0.3150145745","","0.4","0.8","0.6","0.2","","","","","0.4727302842","0.3150145745","0.3037855967","0.8111415702","","","","","","","","74","J","1","","","165","main_expt",""
"","bandit","245","605565","0.0-206.0-0.0","51723243","wem/bandit_either_3","A132MSWBBVTOES","either","1","509","","","","","","","0","0","1","0.2927018344","","0.4","0.8","0.6","0.2","","","","","0.5181018645","0.2927018344","0.3395577104","0.7759938205","","","","","","","","74","J","1","","","166","main_expt",""
"","bandit","246","607361","0.0-207.0-0.0","51723243","wem/bandit_either_3","A132MSWBBVTOES","either","1","273","","","","","","","0","1","0","","0.3443901906","0.4","0.8","0.6","0.2","0.5280433419","0.3610256338","0.3443901906","0.8267633335","","","","","","","","","","","","75","K","2","","","167","main_expt",""
"","bandit","247","609010","0.0-208.0-0.0","51723243","wem/bandit_either_3","A132MSWBBVTOES","either","1","120","","","","","","","0","0","1","","0.2552323567","0.4","0.8","0.6","0.2","0.5470010145","0.3137127159","0.2552323567","0.8136073627","","","","","","","","","","","","75","K","2","","","168","main_expt",""
"","bandit","248","610771","0.0-209.0-0.0","51723243","wem/bandit_either_3","A132MSWBBVTOES","either","1","236","","","","","","","0","0","1","","0.289352286","0.4","0.8","0.6","0.2","0.5558845962","0.2292796242","0.289352286","0.7308533614","","","","","","","","","","","","75","K","2","","","169","main_expt",""
"","bandit","249","612459","0.0-210.0-0.0","51723243","wem/bandit_either_3","A132MSWBBVTOES","either","1","176","","","","","","","1","0","0","0.7090730391","","0.4","0.8","0.6","0.2","","","","","0.5799309324","0.221948569","0.2262743404","0.7090730391","","","","","","","","76","L","3","","","170","main_expt",""
"","bandit","250","614095","0.0-211.0-0.0","51723243","wem/bandit_either_3","A132MSWBBVTOES","either","1","112","","","","","","","0","0","1","0.7229684446","","0.4","0.8","0.6","0.2","","","","","0.6643953266","0.159615594","0.2644351609","0.7229684446","","","","","","","","76","L","3","","","171","main_expt",""
"","bandit","251","615841","0.0-212.0-0.0","51723243","wem/bandit_either_3","A132MSWBBVTOES","either","1","228","","","","","","","0","0","1","","0.6612043244","0.4","0.8","0.6","0.2","0.7610666705","0.1303854457","0.4136296373","0.6612043244","","","","","","","","","","","","76","L","3","","","172","main_expt",""
"","bandit","252","617421","0.0-213.0-0.0","51723243","wem/bandit_either_3","A132MSWBBVTOES","either","1","58","","","","","","","1","0","0","0.491318492","","0.4","0.8","0.6","0.2","","","","","0.8006149786","0.07729024622","0.491318492","0.7669021743","","","","","","","","75","K","2","","","173","main_expt",""
"","bandit","253","619176","0.0-214.0-0.0","51723243","wem/bandit_either_3","A132MSWBBVTOES","either","1","239","","","","","","","0","1","0","","0.4966763124","0.4","0.8","0.6","0.2","0.791095403","0.1227026474","0.4966763124","0.8111867287","","","","","","","","","","","","75","K","2","","","174","main_expt",""
"","bandit","254","620861","0.0-215.0-0.0","51723243","wem/bandit_either_3","A132MSWBBVTOES","either","1","169","","","","","","","1","0","0","0.5109350621","","0.4","0.8","0.6","0.2","","","","","0.8572088762","0.09483306355","0.5109350621","0.8192498968","","","","","","","","75","K","2","","","175","main_expt",""
"","bandit","255","622607","0.0-216.0-0.0","51723243","wem/bandit_either_3","A132MSWBBVTOES","either","1","236","","","","","","","0","0","1","0.6321295754","","0.4","0.8","0.6","0.2","","","","","0.8576080684","0.143069758","0.6321295754","0.8371283275","","","","","","","","75","K","2","","","176","main_expt",""
"","bandit","256","624266","0.0-217.0-0.0","51723243","wem/bandit_either_3","A132MSWBBVTOES","either","1","138","","","","","","","0","0","1","","0.5515755996","0.4","0.8","0.6","0.2","0.8678158231","0.1741656422","0.5515755996","0.8545140947","","","","","","","","","","","","75","K","2","","","177","main_expt",""
"","bandit","257","626066","0.0-218.0-0.0","51723243","wem/bandit_either_3","A132MSWBBVTOES","either","1","279","","","","","","","0","0","1","0.1904086474","","0.4","0.8","0.6","0.2","","","","","0.8820542777","0.1904086474","0.5086275016","0.8794893657","","","","","","","","74","J","1","","","178","main_expt",""
"","bandit","258","627697","0.0-219.0-0.0","51723243","wem/bandit_either_3","A132MSWBBVTOES","either","1","112","","","","","","","0","0","1","0.1778905233","","0.4","0.8","0.6","0.2","","","","","0.8907334788","0.1778905233","0.5215192908","0.8939587296","","","","","","","","74","J","1","","","179","main_expt",""
"","bandit","259","629286","0.0-220.0-0.0","51723243","wem/bandit_either_3","A132MSWBBVTOES","either","1","73","","","","","","","1","0","0","0.9161653667","","0.4","0.8","0.6","0.2","","","","","0.9161653667","0.2112817454","0.5193414217","0.868077767","","","","","","","","72","H","0","img/none_selected.jpg","","180","main_expt",""
"","bandit","260","631759","0.0-221.0-0.0","51723243","wem/bandit_either_3","A132MSWBBVTOES","either","1","963","","","","","","","0","1","0","","0.9327112184","0.4","0.8","0.6","0.2","0.9327112184","0.2236312472","0.4613460131","0.9295405476","","","","","","","","","","","","72","H","0","img/none_selected.jpg","","181","main_expt",""
"","bandit","261","633503","0.0-222.0-0.0","51723243","wem/bandit_either_3","A132MSWBBVTOES","either","1","210","","","","","","","1","0","0","0.9284398706","","0.4","0.8","0.6","0.2","","","","","0.9284398706","0.264467441","0.4468633868","0.9213574857","","","","","","","","72","H","0","img/none_selected.jpg","","182","main_expt",""
"","bandit","262","635276","0.0-223.0-0.0","51723243","wem/bandit_either_3","A132MSWBBVTOES","either","1","258","","","","","","","0","1","0","","0.89591471","0.4","0.8","0.6","0.2","0.89591471","0.2240632979","0.4985091709","0.9374560388","","","","","","","","","","","","72","H","0","img/none_selected.jpg","","183","main_expt",""
"","bandit","263","637049","0.0-224.0-0.0","51723243","wem/bandit_either_3","A132MSWBBVTOES","either","1","253","","","","","","","0","1","0","","0.9146434193","0.4","0.8","0.6","0.2","0.9146434193","0.1671404848","0.6057575335","0.9120054929","","","","","","","","","","","","72","H","0","img/none_selected.jpg","","184","main_expt",""
"","bandit","264","638763","0.0-225.0-0.0","51723243","wem/bandit_either_3","A132MSWBBVTOES","either","1","192","","","","","","","0","1","0","","0.8575823977","0.4","0.8","0.6","0.2","0.8575823977","0.1932257563","0.4915456485","0.8428471033","","","","","","","","","","","","72","H","0","img/none_selected.jpg","","185","main_expt",""
"","bandit","265","640369","0.0-226.0-0.0","51723243","wem/bandit_either_3","A132MSWBBVTOES","either","1","95","","","","","","","1","0","0","0.8487952361","","0.4","0.8","0.6","0.2","","","","","0.8487952361","0.155472597","0.5976273718","0.7734335662","","","","","","","","72","H","0","img/none_selected.jpg","","186","main_expt",""
"","bandit","266","641937","0.0-227.0-0.0","51723243","wem/bandit_either_3","A132MSWBBVTOES","either","1","48","","","","","","","0","1","0","","0.8603972339","0.4","0.8","0.6","0.2","0.8603972339","0.1895871356","0.5743595779","0.7667319261","","","","","","","","","","","","72","H","0","img/none_selected.jpg","","187","main_expt",""
"","bandit","267","643626","0.0-228.0-0.0","51723243","wem/bandit_either_3","A132MSWBBVTOES","either","1","168","","","","","","","0","0","1","","0.8834510925","0.4","0.8","0.6","0.2","0.8834510925","0.2119556673","0.6833173747","0.5945875292","","","","","","","","","","","","72","H","0","img/none_selected.jpg","","188","main_expt",""
"","bandit","268","645381","0.0-229.0-0.0","51723243","wem/bandit_either_3","A132MSWBBVTOES","either","1","223","","","","","","","0","1","0","","0.8973947779","0.4","0.8","0.6","0.2","0.8973947779","0.2255007403","0.651089354","0.7406569186","","","","","","","","","","","","72","H","0","img/none_selected.jpg","","189","main_expt",""
"","bandit","269","646971","0.0-230.0-0.0","51723243","wem/bandit_either_3","A132MSWBBVTOES","either","1","76","","","","","","","0","1","0","","0.8824587855","0.4","0.8","0.6","0.2","0.8824587855","0.1754842532","0.6599652607","0.7371931777","","","","","","","","","","","","72","H","0","img/none_selected.jpg","","190","main_expt",""
"","bandit","270","648767","0.0-231.0-0.0","51723243","wem/bandit_either_3","A132MSWBBVTOES","either","1","278","","","","","","","0","1","0","","0.9076431997","0.4","0.8","0.6","0.2","0.9076431997","0.1936311571","0.6960236584","0.7019705866","","","","","","","","","","","","72","H","0","img/none_selected.jpg","","191","main_expt",""
"","bandit","271","650906","0.0-232.0-0.0","51723243","wem/bandit_either_3","A132MSWBBVTOES","either","1","619","","","","","","","0","0","1","0.8673165995","","0.4","0.8","0.6","0.2","","","","","0.8673165995","0.215612591","0.6713911156","0.6198122665","","","","","","","","72","H","0","img/none_selected.jpg","","192","main_expt",""
"","bandit","272","652861","0.0-233.0-0.0","51723243","wem/bandit_either_3","A132MSWBBVTOES","either","1","447","","","","","","","0","0","1","0.8264401474","","0.4","0.8","0.6","0.2","","","","","0.8264401474","0.2818734505","0.7244072205","0.6100930929","","","","","","","","72","H","0","img/none_selected.jpg","","193","main_expt",""
"","bandit","273","654479","0.0-234.0-0.0","51723243","wem/bandit_either_3","A132MSWBBVTOES","either","1","98","","","","","","","1","0","0","0.8546086414","","0.4","0.8","0.6","0.2","","","","","0.8546086414","0.3616108755","0.7397798508","0.6332739585","","","","","","","","72","H","0","img/none_selected.jpg","","194","main_expt",""
"","bandit","274","656205","0.0-235.0-0.0","51723243","wem/bandit_either_3","A132MSWBBVTOES","either","1","209","","","","","","","0","1","0","","0.7914914872","0.4","0.8","0.6","0.2","0.7914914872","0.3979961615","0.7602069811","0.609207161","","","","","","","","","","","","72","H","0","img/none_selected.jpg","","195","main_expt",""
"","bandit","275","657915","0.0-236.0-0.0","51723243","wem/bandit_either_3","A132MSWBBVTOES","either","1","188","","","","","","","0","1","0","","0.7608346536","0.4","0.8","0.6","0.2","0.7608346536","0.4366641927","0.7114092524","0.6560649547","","","","","","","","","","","","72","H","0","img/none_selected.jpg","","196","main_expt",""
"","bandit","276","659670","0.0-237.0-0.0","51723243","wem/bandit_either_3","A132MSWBBVTOES","either","1","245","","","","","","","0","0","1","0.7003784325","","0.4","0.8","0.6","0.2","","","","","0.7003784325","0.560782874","0.6917424169","0.6656533059","","","","","","","","72","H","0","img/none_selected.jpg","","197","main_expt",""
"","bandit","277","661210","0.0-238.0-0.0","51723243","wem/bandit_either_3","A132MSWBBVTOES","either","1","19","","","","","","","0","1","0","","0.6036075577","0.4","0.8","0.6","0.2","0.6036075577","0.5649388288","0.6561069913","0.6841747727","","","","","","","","","","","","72","H","0","img/none_selected.jpg","","198","main_expt",""
"","bandit","278","662841","0.0-239.0-0.0","51723243","wem/bandit_either_3","A132MSWBBVTOES","either","1","103","","","","","","","0","0","1","","0.5843314555","0.4","0.8","0.6","0.2","0.5843314555","0.5375892324","0.6948346643","0.7105065455","","","","","","","","","","","","72","H","0","img/none_selected.jpg","","199","main_expt",""
"","bandit","279","664422","0.0-240.0-0.0","51723243","wem/bandit_either_3","A132MSWBBVTOES","either","1","63","","","","","","","0","0","1","0.5625167851","","0.4","0.8","0.6","0.2","","","","","0.539414212","0.5625167851","0.7369743936","0.7380433654","","","","","","","","74","J","1","","","200","main_expt",""
"","bandit","280","666003","0.0-241.0-0.0","51723243","wem/bandit_either_3","A132MSWBBVTOES","either","1","67","","","","","","","0","1","0","","0.8347268415","0.4","0.8","0.6","0.2","0.3774065742","0.6266810217","0.8347268415","0.6432951689","","","","","","","","","","","","75","K","2","","","201","main_expt",""
"","bandit","281","667632","0.0-242.0-0.0","51723243","wem/bandit_either_3","A132MSWBBVTOES","either","1","110","","","","","","","1","0","0","0.7612264534","","0.4","0.8","0.6","0.2","","","","","0.2824615609","0.6661075828","0.7612264534","0.4995879772","","","","","","","","75","K","2","","","202","main_expt",""
"","bandit","282","669389","0.0-243.0-0.0","51723243","wem/bandit_either_3","A132MSWBBVTOES","either","1","225","","","","","","","1","0","0","0.6904596671","","0.4","0.8","0.6","0.2","","","","","0.210170224","0.7534099026","0.6904596671","0.4767352753","","","","","","","","75","K","2","","","203","main_expt",""
"","bandit","283","671127","0.0-244.0-0.0","51723243","wem/bandit_either_3","A132MSWBBVTOES","either","1","219","","","","","","","0","0","1","0.6855485072","","0.4","0.8","0.6","0.2","","","","","0.2708138581","0.7033522103","0.6855485072","0.3680612217","","","","","","","","75","K","2","","","204","main_expt",""
"","bandit","284","672861","0.0-245.0-0.0","51723243","wem/bandit_either_3","A132MSWBBVTOES","either","1","214","","","","","","","1","0","0","0.7006332368","","0.4","0.8","0.6","0.2","","","","","0.3319820794","0.6105989365","0.7006332368","0.3404512965","","","","","","","","75","K","2","","","205","main_expt",""
"","bandit","285","674459","0.0-246.0-0.0","51723243","wem/bandit_either_3","A132MSWBBVTOES","either","1","92","","","","","","","1","0","0","0.7533130943","","0.4","0.8","0.6","0.2","","","","","0.3517339603","0.725137222","0.7533130943","0.2774568564","","","","","","","","75","K","2","","","206","main_expt",""
"","bandit","286","676230","0.0-247.0-0.0","51723243","wem/bandit_either_3","A132MSWBBVTOES","either","1","244","","","","","","","1","0","0","0.7191760557","","0.4","0.8","0.6","0.2","","","","","0.2871079035","0.5888984072","0.7191760557","0.2228883469","","","","","","","","75","K","2","","","207","main_expt",""
"","bandit","287","677869","0.0-248.0-0.0","51723243","wem/bandit_either_3","A132MSWBBVTOES","either","1","122","","","","","","","0","1","0","","0.6264293856","0.4","0.8","0.6","0.2","0.2642306377","0.4650323514","0.6264293856","0.2829247412","","","","","","","","","","","","75","K","2","","","208","main_expt",""
"","bandit","288","679535","0.0-249.0-0.0","51723243","wem/bandit_either_3","A132MSWBBVTOES","either","1","147","","","","","","","1","0","0","0.6500478562","","0.4","0.8","0.6","0.2","","","","","0.3587725811","0.4100719568","0.6500478562","0.3169104167","","","","","","","","75","K","2","","","209","main_expt",""
"","bandit","289","681298","0.0-250.0-0.0","51723243","wem/bandit_either_3","A132MSWBBVTOES","either","1","233","","","","","","","0","0","1","0.6498865343","","0.4","0.8","0.6","0.2","","","","","0.3103342645","0.5177296744","0.6498865343","0.2090062306","","","","","","","","75","K","2","","","210","main_expt",""
"","bandit","290","682954","0.0-251.0-0.0","51723243","wem/bandit_either_3","A132MSWBBVTOES","either","1","134","","","","","","","1","0","0","0.6056301442","","0.4","0.8","0.6","0.2","","","","","0.3760595068","0.5950812693","0.6056301442","0.1481662818","","","","","","","","75","K","2","","","211","main_expt",""
"","bandit","291","684549","0.0-252.0-0.0","51723243","wem/bandit_either_3","A132MSWBBVTOES","either","1","70","","","","","","","0","0","1","0.5524844402","","0.4","0.8","0.6","0.2","","","","","0.447023013","0.7169745983","0.5524844402","0.2114888193","","","","","","","","75","K","2","","","212","main_expt",""
"","bandit","292","686545","0.0-253.0-0.0","51723243","wem/bandit_either_3","A132MSWBBVTOES","either","1","475","","","","","","","0","0","1","0.6984249358","","0.4","0.8","0.6","0.2","","","","","0.4529182837","0.6766124197","0.6984249358","0.2234642754","","","","","","","","75","K","2","","","213","main_expt",""
"","bandit","293","688200","0.0-254.0-0.0","51723243","wem/bandit_either_3","A132MSWBBVTOES","either","1","130","","","","","","","0","0","1","","0.2315139555","0.4","0.8","0.6","0.2","0.4306534983","0.8005648136","0.5996975418","0.2315139555","","","","","","","","","","","","76","L","3","","","214","main_expt",""
"","bandit","294","689965","0.0-255.0-0.0","51723243","wem/bandit_either_3","A132MSWBBVTOES","either","1","226","","","","","","","1","0","0","0.6067129047","","0.4","0.8","0.6","0.2","","","","","0.4314469479","0.8487964291","0.6067129047","0.1949488974","","","","","","","","75","K","2","","","215","main_expt",""
"","bandit","295","691712","0.0-256.0-0.0","51723243","wem/bandit_either_3","A132MSWBBVTOES","either","1","227","","","","","","","0","1","0","","0.6297976658","0.4","0.8","0.6","0.2","0.45439575","0.8674123454","0.6297976658","0.2333303883","","","","","","","","","","","","75","K","2","","","216","main_expt",""
"","bandit","296","693465","0.0-257.0-0.0","51723243","wem/bandit_either_3","A132MSWBBVTOES","either","1","225","","","","","","","0","1","0","","0.6095272491","0.4","0.8","0.6","0.2","0.5228861726","0.8774404243","0.6095272491","0.2027763819","","","","","","","","","","","","75","K","2","","","217","main_expt",""
"","bandit","297","695423","0.0-258.0-0.0","51723243","wem/bandit_either_3","A132MSWBBVTOES","either","1","426","","","","","","","0","1","0","","0.7058099393","0.4","0.8","0.6","0.2","0.463703458","0.8836448068","0.7058099393","0.1895874514","","","","","","","","","","","","75","K","2","","","218","main_expt",""
"","bandit","298","697277","0.0-259.0-0.0","51723243","wem/bandit_either_3","A132MSWBBVTOES","either","1","339","","","","","","","0","1","0","","0.7396246451","0.4","0.8","0.6","0.2","0.4522864467","0.880498508","0.7396246451","0.1537120117","","","","","","","","","","","","75","K","2","","","219","main_expt",""
"","bandit","299","699108","0.0-260.0-0.0","51723243","wem/bandit_either_3","A132MSWBBVTOES","either","1","310","","","","","","","0","1","0","","0.7091968036","0.4","0.8","0.6","0.2","0.4561576612","0.8740874997","0.7091968036","0.2022747423","","","","","","","","","","","","75","K","2","","","220","main_expt",""
"","bandit","300","700819","0.0-261.0-0.0","51723243","wem/bandit_either_3","A132MSWBBVTOES","either","1","187","","","","","","","0","1","0","","0.7116308873","0.4","0.8","0.6","0.2","0.4264657168","0.8527830905","0.7116308873","0.3174413427","","","","","","","","","","","","75","K","2","","","221","main_expt",""
"","bandit","301","702578","0.0-262.0-0.0","51723243","wem/bandit_either_3","A132MSWBBVTOES","either","1","240","","","","","","","1","0","0","0.769465391","","0.4","0.8","0.6","0.2","","","","","0.3055141729","0.7717907476","0.769465391","0.2315667073","","","","","","","","75","K","2","","","222","main_expt",""
"","bandit","302","704313","0.0-263.0-0.0","51723243","wem/bandit_either_3","A132MSWBBVTOES","either","1","213","","","","","","","0","0","1","","0.7509006974","0.4","0.8","0.6","0.2","0.2868954791","0.8359700354","0.7509006974","0.2261006122","","","","","","","","","","","","75","K","2","","","223","main_expt",""
"","bandit","303","706069","0.0-264.0-0.0","51723243","wem/bandit_either_3","A132MSWBBVTOES","either","1","231","","","","","","","1","0","0","0.7007688409","","0.4","0.8","0.6","0.2","","","","","0.2698185242","0.819670806","0.7007688409","0.2662378096","","","","","","","","75","K","2","","","224","main_expt",""
"","bandit","304","707854","0.0-265.0-0.0","51723243","wem/bandit_either_3","A132MSWBBVTOES","either","1","254","","","","","","","1","0","0","0.7409020096","","0.4","0.8","0.6","0.2","","","","","0.213842325","0.8512382749","0.7409020096","0.2163280173","","","","","","","","75","K","2","","","225","main_expt",""
"","bandit","305","709687","0.0-266.0-0.0","51723243","wem/bandit_either_3","A132MSWBBVTOES","either","1","305","","","","","","","0","0","1","0.7052945704","","0.4","0.8","0.6","0.2","","","","","0.1616408491","0.8342861847","0.7052945704","0.2809353625","","","","","","","","75","K","2","","","226","main_expt",""
"","bandit","306","711416","0.0-267.0-0.0","51723243","wem/bandit_either_3","A132MSWBBVTOES","either","1","216","","","","","","","0","0","1","0.606091252","","0.4","0.8","0.6","0.2","","","","","0.1777599287","0.7736041865","0.606091252","0.2396571279","","","","","","","","75","K","2","","","227","main_expt",""
"","bandit","307","713805","0.0-268.0-0.0","51723243","wem/bandit_either_3","A132MSWBBVTOES","either","1","875","","","","","","","0","1","0","","0.2866543064","0.4","0.8","0.6","0.2","0.2866543064","0.8094350608","0.5834203199","0.3430446928","","","","","","","","","","","","72","H","0","img/none_selected.jpg","","228","main_expt",""
"","bandit","308","715629","0.0-269.0-0.0","51723243","wem/bandit_either_3","A132MSWBBVTOES","either","1","315","","","","","","","0","0","1","0.3948293382","","0.4","0.8","0.6","0.2","","","","","0.3948293382","0.8078722129","0.5466214007","0.2886233194","","","","","","","","72","H","0","img/none_selected.jpg","","229","main_expt",""
"","bandit","309","717442","0.0-270.0-0.0","51723243","wem/bandit_either_3","A132MSWBBVTOES","either","1","290","","","","","","","1","0","0","0.7719043616","","0.4","0.8","0.6","0.2","","","","","0.3291786684","0.7719043616","0.5519014059","0.3213731463","","","","","","","","74","J","1","","","230","main_expt",""
"","bandit","310","719150","0.0-271.0-0.0","51723243","wem/bandit_either_3","A132MSWBBVTOES","either","1","192","","","","","","","0","0","1","","0.8049264475","0.4","0.8","0.6","0.2","0.2378236032","0.8049264475","0.4527164215","0.2771614906","","","","","","","","","","","","74","J","1","","","231","main_expt",""
"","bandit","311","720750","0.0-272.0-0.0","51723243","wem/bandit_either_3","A132MSWBBVTOES","either","1","79","","","","","","","0","0","1","","0.246393804","0.4","0.8","0.6","0.2","0.246393804","0.8850589997","0.5135082398","0.2249105956","","","","","","","","","","","","72","H","0","img/none_selected.jpg","","232","main_expt",""
"","bandit","312","722349","0.0-273.0-0.0","51723243","wem/bandit_either_3","A132MSWBBVTOES","either","1","76","","","","","","","0","0","1","0.2141634692","","0.4","0.8","0.6","0.2","","","","","0.2141634692","0.9183615156","0.5502454751","0.2447973041","","","","","","","","72","H","0","img/none_selected.jpg","","233","main_expt",""
"","bandit","313","723918","0.0-274.0-0.0","51723243","wem/bandit_either_3","A132MSWBBVTOES","either","1","53","","","","","","","0","1","0","","0.9639410842","0.4","0.8","0.6","0.2","0.2876436191","0.9639410842","0.3783923662","0.24601643","","","","","","","","","","","","74","J","1","","","234","main_expt",""
"","bandit","314","725514","0.0-275.0-0.0","51723243","wem/bandit_either_3","A132MSWBBVTOES","either","1","81","","","","","","","0","1","0","","0.9697187448","0.4","0.8","0.6","0.2","0.2769077257","0.9697187448","0.2814299379","0.1629844561","","","","","","","","","","","","74","J","1","","","235","main_expt",""
"","bandit","315","727124","0.0-276.0-0.0","51723243","wem/bandit_either_3","A132MSWBBVTOES","either","1","89","","","","","","","1","0","0","0.9571573523","","0.4","0.8","0.6","0.2","","","","","0.136865198","0.9571573523","0.3106100538","0.1929455839","","","","","","","","74","J","1","","","236","main_expt",""
"","bandit","316","728732","0.0-277.0-0.0","51723243","wem/bandit_either_3","A132MSWBBVTOES","either","1","78","","","","","","","1","0","0","0.9170696074","","0.4","0.8","0.6","0.2","","","","","0.1123790732","0.9170696074","0.3152445528","0.1497712966","","","","","","","","74","J","1","","","237","main_expt",""
"","bandit","317","730419","0.0-278.0-0.0","51723243","wem/bandit_either_3","A132MSWBBVTOES","either","1","171","","","","","","","0","1","0","","0.9207491077","0.4","0.8","0.6","0.2","0.09027024906","0.9207491077","0.2637175197","0.1526491196","","","","","","","","","","","","74","J","1","","","238","main_expt",""
"","bandit","318","732160","0.0-279.0-0.0","51723243","wem/bandit_either_3","A132MSWBBVTOES","either","1","221","","","","","","","1","0","0","0.9211301165","","0.4","0.8","0.6","0.2","","","","","0.08323179304","0.9211301165","0.1889878372","0.1745924244","","","","","","","","74","J","1","","","239","main_expt",""
"","bandit","319","733838","0.0-280.0-0.0","51723243","wem/bandit_either_3","A132MSWBBVTOES","either","1","152","","","","","","","1","0","0","0.8992774771","","0.4","0.8","0.6","0.2","","","","","0.08130265934","0.8992774771","0.1710885746","0.1159399908","","","","","","","","74","J","1","","","240","main_expt",""
"","bandit","320","735569","0.0-281.0-0.0","51723243","wem/bandit_either_3","A132MSWBBVTOES","either","1","209","","","","","","","1","0","0","0.8977441673","","0.4","0.8","0.6","0.2","","","","","0.1424736114","0.8977441673","0.1232632504","0.1682101231","","","","","","","","74","J","1","","","241","main_expt",""
"","bandit","321","737296","0.0-282.0-0.0","51723243","wem/bandit_either_3","A132MSWBBVTOES","either","1","200","","","","","","","1","0","0","0.853076495","","0.4","0.8","0.6","0.2","","","","","0.2433221762","0.853076495","0.210295675","0.1643169396","","","","","","","","74","J","1","","","242","main_expt",""
"","bandit","322","738935","0.0-283.0-0.0","51723243","wem/bandit_either_3","A132MSWBBVTOES","either","1","114","","","","","","","0","1","0","","0.8942427246","0.4","0.8","0.6","0.2","0.3185073654","0.8942427246","0.289349801","0.1355776028","","","","","","","","","","","","74","J","1","","","243","main_expt",""
"","bandit","323","740633","0.0-284.0-0.0","51723243","wem/bandit_either_3","A132MSWBBVTOES","either","1","184","","","","","","","1","0","0","0.8701402288","","0.4","0.8","0.6","0.2","","","","","0.3533170098","0.8701402288","0.4071614743","0.1311829495","","","","","","","","74","J","1","","","244","main_expt",""
"","bandit","324","742245","0.0-285.0-0.0","51723243","wem/bandit_either_3","A132MSWBBVTOES","either","1","74","","","","","","","0","1","0","","0.8552475109","0.4","0.8","0.6","0.2","0.3482220419","0.8552475109","0.453462755","0.1273238","","","","","","","","","","","","74","J","1","","","245","main_expt",""
