"consent","trial_type","trial_index","time_elapsed","internal_node_id","subjID","study","MID","cond","drift","rt","responses","key_press","expt_phase","like","value","connected","gems","bombs","no_reward","GemPrChosen","BombPrChosen","GainOverPainPr_0","GainOverPainPr_1","GainOverPainPr_2","GainOverPainPr_3","LosePr_0","LosePr_1","LosePr_2","LosePr_3","WinPr_0","WinPr_1","WinPr_2","WinPr_3","Q0","Q1","Q2","gender","age","ethnicity","target","respCharCode","respKey","respChoiceNum","respChoice","practice","trial_counter","trial_label","button_pressed"
"INL_behavioral_consent_30min_online.html","consent","0","13729","0.0-0.0","53406900","wem/bandit_either_3","A2S4BU23GT93ZD","either","5","","","","","","","","","","","","","","","","","","","","","","","","","","","","","","","","","","","","","","",""
"","survey-text","1","24977","0.0-1.0","53406900","wem/bandit_either_3","A2S4BU23GT93ZD","either","5","10236","{""Q0"":""A2S4BU23GT93ZD""}","","","","","","","","","","","","","","","","","","","","","","","","","","","","","","","","","","","","",""
"","text","2","61214","0.0-2.0","53406900","wem/bandit_either_3","A2S4BU23GT93ZD","either","5","35227","","32","","","","","","","","","","","","","","","","","","","","","","","","","","","","","","","","","","","",""
"","text","3","69402","0.0-3.0","53406900","wem/bandit_either_3","A2S4BU23GT93ZD","either","5","8185","","32","","","","","","","","","","","","","","","","","","","","","","","","","","","","","","","","","","","",""
"","text","4","79046","0.0-4.0","53406900","wem/bandit_either_3","A2S4BU23GT93ZD","either","5","9641","","32","","","","","","","","","","","","","","","","","","","","","","","","","","","","","","","","","","","",""
"","text","5","94210","0.0-5.0","53406900","wem/bandit_either_3","A2S4BU23GT93ZD","either","5","15162","","32","","","","","","","","","","","","","","","","","","","","","","","","","","","","","","","","","","","",""
"","text","6","98306","0.0-6.0","53406900","wem/bandit_either_3","A2S4BU23GT93ZD","either","5","4090","","32","","","","","","","","","","","","","","","","","","","","","","","","","","","","","","","","","","","",""
"","text","7","108122","0.0-7.0","53406900","wem/bandit_either_3","A2S4BU23GT93ZD","either","5","9811","","32","","","","","","","","","","","","","","","","","","","","","","","","","","","","","","","","","","","",""
"","text","8","113400","0.0-8.0","53406900","wem/bandit_either_3","A2S4BU23GT93ZD","either","5","5276","","32","","","","","","","","","","","","","","","","","","","","","","","","","","","","","","","","","","","",""
"","identification","9","137635","0.0-9.0-0.0","53406900","wem/bandit_either_3","A2S4BU23GT93ZD","either","5","24209","","","","5","6","4","","","","","","","","","","","","","","","","","","","","","","","","the village of Zur","","","","","","","",""
"","identification","10","145091","0.0-9.0-1.0","53406900","wem/bandit_either_3","A2S4BU23GT93ZD","either","5","6421","","","","5","6","4","","","","","","","","","","","","","","","","","","","","","","","","the village of Nyx","","","","","","","",""
"","text","11","164028","0.0-10.0","53406900","wem/bandit_either_3","A2S4BU23GT93ZD","either","5","17934","","32","","","","","","","","","","","","","","","","","","","","","","","","","","","","","","","","","","","",""
"","text","12","166711","0.0-11.0","53406900","wem/bandit_either_3","A2S4BU23GT93ZD","either","5","2680","","32","","","","","","","","","","","","","","","","","","","","","","","","","","","","","","","","","","","",""
"","text","13","168005","0.0-12.0","53406900","wem/bandit_either_3","A2S4BU23GT93ZD","either","5","1289","","32","","","","","","","","","","","","","","","","","","","","","","","","","","","","","","","","","","","",""
"","text","14","170782","0.0-13.0","53406900","wem/bandit_either_3","A2S4BU23GT93ZD","either","5","2773","","32","","","","","","","","","","","","","","","","","","","","","","","","","","","","","","","","","","","",""
"","bandit","15","176540","0.0-14.0-0.0","53406900","wem/bandit_either_3","A2S4BU23GT93ZD","either","5","4235","","","","","","","0","0","1","0","0","","","","","0","","","","0","","","","","","","","","","","74","J","0","img/none_selected_demo.jpg","true","0","",""
"","bandit","16","179920","0.0-15.0-0.0","53406900","wem/bandit_either_3","A2S4BU23GT93ZD","either","5","1867","","","","","","","0","0","1","0","0","","","","","0","","","","0","","","","","","","","","","","75","K","0","img/none_selected_demo.jpg","true","0","",""
"","text","17","198354","0.0-16.0","53406900","wem/bandit_either_3","A2S4BU23GT93ZD","either","5","18431","","32","","","","","","","","","","","","","","","","","","","","","","","","","","","","","","","","","","","",""
"","text","18","205955","0.0-17.0","53406900","wem/bandit_either_3","A2S4BU23GT93ZD","either","5","7596","","32","","","","","","","","","","","","","","","","","","","","","","","","","","","","","","","","","","","",""
"","text","19","210973","0.0-18.0","53406900","wem/bandit_either_3","A2S4BU23GT93ZD","either","5","5013","","32","","","","","","","","","","","","","","","","","","","","","","","","","","","","","","","","","","","",""
"","text","20","229580","0.0-19.0","53406900","wem/bandit_either_3","A2S4BU23GT93ZD","either","5","18602","","32","","","","","","","","","","","","","","","","","","","","","","","","","","","","","","","","","","","",""
"","bandit","21","235623","0.0-20.0-0.0","53406900","wem/bandit_either_3","A2S4BU23GT93ZD","either","5","4531","","","","","","","0","0","1","0.8","","0.5","0.5","","","","","","","0.8","0.2","","","","","","","","","","74","J","0","img/none_selected_demo.jpg","true","0","80_20_practice",""
"","bandit","22","237968","0.0-20.0-1.0","53406900","wem/bandit_either_3","A2S4BU23GT93ZD","either","5","829","","","","","","","0","0","1","","0.2","0.5","0.5","","","0.8","0.2","","","","","","","","","","","","","","75","K","1","","true","0","80_20_practice",""
"","bandit","23","239774","0.0-20.0-2.0","53406900","wem/bandit_either_3","A2S4BU23GT93ZD","either","5","297","","","","","","","1","0","0","0.2","","0.5","0.5","","","","","","","0.8","0.2","","","","","","","","","","75","K","1","","true","0","80_20_practice",""
"","bandit","24","241563","0.0-20.0-3.0","53406900","wem/bandit_either_3","A2S4BU23GT93ZD","either","5","282","","","","","","","0","0","1","0.2","","0.5","0.5","","","","","","","0.8","0.2","","","","","","","","","","75","K","1","","true","0","80_20_practice",""
"","bandit","25","243305","0.0-20.0-4.0","53406900","wem/bandit_either_3","A2S4BU23GT93ZD","either","5","225","","","","","","","0","0","1","","0.2","0.5","0.5","","","0.8","0.2","","","","","","","","","","","","","","75","K","1","","true","0","80_20_practice",""
"","bandit","26","245123","0.0-20.0-5.0","53406900","wem/bandit_either_3","A2S4BU23GT93ZD","either","5","303","","","","","","","1","0","0","0.8","","0.5","0.5","","","","","","","0.8","0.2","","","","","","","","","","74","J","0","img/none_selected_demo.jpg","true","0","80_20_practice",""
"","bandit","27","246839","0.0-20.0-6.0","53406900","wem/bandit_either_3","A2S4BU23GT93ZD","either","5","204","","","","","","","1","0","0","0.8","","0.5","0.5","","","","","","","0.8","0.2","","","","","","","","","","74","J","0","img/none_selected_demo.jpg","true","0","80_20_practice",""
"","bandit","28","248661","0.0-20.0-7.0","53406900","wem/bandit_either_3","A2S4BU23GT93ZD","either","5","308","","","","","","","0","1","0","","0.8","0.5","0.5","","","0.8","0.2","","","","","","","","","","","","","","74","J","0","img/none_selected_demo.jpg","true","0","80_20_practice",""
"","bandit","29","251672","0.0-20.0-8.0","53406900","wem/bandit_either_3","A2S4BU23GT93ZD","either","5","1497","","","","","","","0","1","0","","0.8","0.5","0.5","","","0.8","0.2","","","","","","","","","","","","","","74","J","0","img/none_selected_demo.jpg","true","0","80_20_practice",""
"","bandit","30","254023","0.0-20.0-9.0","53406900","wem/bandit_either_3","A2S4BU23GT93ZD","either","5","837","","","","","","","0","0","1","","0.2","0.5","0.5","","","0.8","0.2","","","","","","","","","","","","","","75","K","1","","true","0","80_20_practice",""
"","bandit","31","255826","0.0-20.0-10.0","53406900","wem/bandit_either_3","A2S4BU23GT93ZD","either","5","288","","","","","","","0","0","1","0.2","","0.5","0.5","","","","","","","0.8","0.2","","","","","","","","","","75","K","1","","true","0","80_20_practice",""
"","bandit","32","257729","0.0-20.0-11.0","53406900","wem/bandit_either_3","A2S4BU23GT93ZD","either","5","390","","","","","","","0","0","1","0.2","","0.5","0.5","","","","","","","0.8","0.2","","","","","","","","","","75","K","1","","true","0","80_20_practice",""
"","bandit","33","259531","0.0-20.0-12.0","53406900","wem/bandit_either_3","A2S4BU23GT93ZD","either","5","285","","","","","","","0","1","0","","0.8","0.5","0.5","","","0.8","0.2","","","","","","","","","","","","","","74","J","0","img/none_selected_demo.jpg","true","0","80_20_practice",""
"","bandit","34","261195","0.0-20.0-13.0","53406900","wem/bandit_either_3","A2S4BU23GT93ZD","either","5","151","","","","","","","0","1","0","","0.8","0.5","0.5","","","0.8","0.2","","","","","","","","","","","","","","74","J","0","img/none_selected_demo.jpg","true","0","80_20_practice",""
"","bandit","35","262943","0.0-20.0-14.0","53406900","wem/bandit_either_3","A2S4BU23GT93ZD","either","5","235","","","","","","","0","0","1","0.8","","0.5","0.5","","","","","","","0.8","0.2","","","","","","","","","","74","J","0","img/none_selected_demo.jpg","true","0","80_20_practice",""
"","bandit","36","264605","0.0-20.0-15.0","53406900","wem/bandit_either_3","A2S4BU23GT93ZD","either","5","143","","","","","","","0","0","1","","0.8","0.5","0.5","","","0.8","0.2","","","","","","","","","","","","","","74","J","0","img/none_selected_demo.jpg","true","0","80_20_practice",""
"","bandit","37","266138","0.0-20.0-16.0","53406900","wem/bandit_either_3","A2S4BU23GT93ZD","either","5","16","","","","","","","0","0","1","0.8","","0.5","0.5","","","","","","","0.8","0.2","","","","","","","","","","74","J","0","img/none_selected_demo.jpg","true","0","80_20_practice",""
"","bandit","38","269333","0.0-20.0-17.0","53406900","wem/bandit_either_3","A2S4BU23GT93ZD","either","5","1681","","","","","","","0","0","1","0.8","","0.5","0.5","","","","","","","0.8","0.2","","","","","","","","","","74","J","0","img/none_selected_demo.jpg","true","0","80_20_practice",""
"","bandit","39","271158","0.0-20.0-18.0","53406900","wem/bandit_either_3","A2S4BU23GT93ZD","either","5","317","","","","","","","0","0","1","","0.2","0.5","0.5","","","0.8","0.2","","","","","","","","","","","","","","75","K","1","","true","0","80_20_practice",""
"","bandit","40","273059","0.0-20.0-19.0","53406900","wem/bandit_either_3","A2S4BU23GT93ZD","either","5","386","","","","","","","0","0","1","0.2","","0.5","0.5","","","","","","","0.8","0.2","","","","","","","","","","75","K","1","","true","0","80_20_practice",""
"","text","41","278754","0.0-21.0","53406900","wem/bandit_either_3","A2S4BU23GT93ZD","either","5","5691","","32","","","","","","","","","","","","","","","","","","","","","","","","","","","","","","","","","","","",""
"","bandit","42","282737","0.0-22.0-0.0","53406900","wem/bandit_either_3","A2S4BU23GT93ZD","either","5","2469","","","","","","","1","0","0","1","0","","","","","0","1","","","1","0","","","","","","","","","","74","J","0","img/none_selected_demo.jpg","true","0","",""
"","text","43","286787","0.0-23.0","53406900","wem/bandit_either_3","A2S4BU23GT93ZD","either","5","4045","","32","","","","","","","","","","","","","","","","","","","","","","","","","","","","","","","","","","","",""
"","text","44","290540","0.0-24.0","53406900","wem/bandit_either_3","A2S4BU23GT93ZD","either","5","3750","","32","","","","","","","","","","","","","","","","","","","","","","","","","","","","","","","","","","","",""
"","text","45","291754","0.0-25.0","53406900","wem/bandit_either_3","A2S4BU23GT93ZD","either","5","1208","","32","","","","","","","","","","","","","","","","","","","","","","","","","","","","","","","","","","","",""
"","text","46","294159","0.0-26.0","53406900","wem/bandit_either_3","A2S4BU23GT93ZD","either","5","2400","","32","","","","","","","","","","","","","","","","","","","","","","","","","","","","","","","","","","","",""
"","text","47","304773","0.0-27.0","53406900","wem/bandit_either_3","A2S4BU23GT93ZD","either","5","10607","","32","","","","","","","","","","","","","","","","","","","","","","","","","","","","","","","","","","","",""
"","text","48","310098","0.0-28.0","53406900","wem/bandit_either_3","A2S4BU23GT93ZD","either","5","5319","","32","","","","","","","","","","","","","","","","","","","","","","","","","","","","","","","","","","","",""
"","text","49","333040","0.0-29.0","53406900","wem/bandit_either_3","A2S4BU23GT93ZD","either","5","22936","","32","","","","","","","","","","","","","","","","","","","","","","","","","","","","","","","","","","","",""
"","text","50","337250","0.0-30.0","53406900","wem/bandit_either_3","A2S4BU23GT93ZD","either","5","4205","","32","","","","","","","","","","","","","","","","","","","","","","","","","","","","","","","","","","","",""
"","text","51","346756","0.0-31.0","53406900","wem/bandit_either_3","A2S4BU23GT93ZD","either","5","9498","","32","","","","","","","","","","","","","","","","","","","","","","","","","","","","","","","","","","","",""
"","text","52","350091","0.0-32.0","53406900","wem/bandit_either_3","A2S4BU23GT93ZD","either","5","3329","","32","","","","","","","","","","","","","","","","","","","","","","","","","","","","","","","","","","","",""
"","text","53","356116","0.0-33.0","53406900","wem/bandit_either_3","A2S4BU23GT93ZD","either","5","6019","","32","","","","","","","","","","","","","","","","","","","","","","","","","","","","","","","","","","","",""
"","bandit","54","358630","0.0-34.0-0.0","53406900","wem/bandit_either_3","A2S4BU23GT93ZD","either","5","993","","","","","","","0","0","1","0.8","","0.5","0.5","0.5","0.5","","","","","0.8","0.2","0.6","0.2","","","","","","","","72","H","0","img/none_selected.jpg","true","0","full_practice",""
"","bandit","55","360560","0.0-34.0-1.0","53406900","wem/bandit_either_3","A2S4BU23GT93ZD","either","5","409","","","","","","","0","0","1","","0.8","0.5","0.5","0.5","0.5","0.8","0.2","0.6","0.2","","","","","","","","","","","","72","H","0","img/none_selected.jpg","true","0","full_practice",""
"","bandit","56","362326","0.0-34.0-2.0","53406900","wem/bandit_either_3","A2S4BU23GT93ZD","either","5","252","","","","","","","0","1","0","","0.2","0.5","0.5","0.5","0.5","0.8","0.2","0.6","0.2","","","","","","","","","","","","74","J","1","","true","0","full_practice",""
"","bandit","57","364032","0.0-34.0-3.0","53406900","wem/bandit_either_3","A2S4BU23GT93ZD","either","5","192","","","","","","","0","0","1","","0.2","0.5","0.5","0.5","0.5","0.8","0.2","0.6","0.2","","","","","","","","","","","","74","J","1","","true","0","full_practice",""
"","bandit","58","365675","0.0-34.0-4.0","53406900","wem/bandit_either_3","A2S4BU23GT93ZD","either","5","128","","","","","","","0","0","1","","0.2","0.5","0.5","0.5","0.5","0.8","0.2","0.6","0.2","","","","","","","","","","","","74","J","1","","true","0","full_practice",""
"","bandit","59","367244","0.0-34.0-5.0","53406900","wem/bandit_either_3","A2S4BU23GT93ZD","either","5","53","","","","","","","0","0","1","0.2","","0.5","0.5","0.5","0.5","","","","","0.8","0.2","0.6","0.2","","","","","","","","74","J","1","","true","0","full_practice",""
"","bandit","60","369107","0.0-34.0-6.0","53406900","wem/bandit_either_3","A2S4BU23GT93ZD","either","5","350","","","","","","","0","1","0","","0.6","0.5","0.5","0.5","0.5","0.8","0.2","0.6","0.2","","","","","","","","","","","","75","K","2","","true","0","full_practice",""
"","bandit","61","370657","0.0-34.0-7.0","53406900","wem/bandit_either_3","A2S4BU23GT93ZD","either","5","37","","","","","","","0","1","0","","0.6","0.5","0.5","0.5","0.5","0.8","0.2","0.6","0.2","","","","","","","","","","","","75","K","2","","true","0","full_practice",""
"","bandit","62","372337","0.0-34.0-8.0","53406900","wem/bandit_either_3","A2S4BU23GT93ZD","either","5","171","","","","","","","0","1","0","","0.6","0.5","0.5","0.5","0.5","0.8","0.2","0.6","0.2","","","","","","","","","","","","75","K","2","","true","0","full_practice",""
"","bandit","63","374035","0.0-34.0-9.0","53406900","wem/bandit_either_3","A2S4BU23GT93ZD","either","5","182","","","","","","","0","0","1","0.6","","0.5","0.5","0.5","0.5","","","","","0.8","0.2","0.6","0.2","","","","","","","","75","K","2","","true","0","full_practice",""
"","bandit","64","375875","0.0-34.0-10.0","53406900","wem/bandit_either_3","A2S4BU23GT93ZD","either","5","324","","","","","","","0","0","1","0.6","","0.5","0.5","0.5","0.5","","","","","0.8","0.2","0.6","0.2","","","","","","","","75","K","2","","true","0","full_practice",""
"","bandit","65","377722","0.0-34.0-11.0","53406900","wem/bandit_either_3","A2S4BU23GT93ZD","either","5","335","","","","","","","0","0","1","0.2","","0.5","0.5","0.5","0.5","","","","","0.8","0.2","0.6","0.2","","","","","","","","76","L","3","","true","0","full_practice",""
"","bandit","66","379367","0.0-34.0-12.0","53406900","wem/bandit_either_3","A2S4BU23GT93ZD","either","5","137","","","","","","","0","0","1","","0.2","0.5","0.5","0.5","0.5","0.8","0.2","0.6","0.2","","","","","","","","","","","","76","L","3","","true","0","full_practice",""
"","bandit","67","381219","0.0-34.0-13.0","53406900","wem/bandit_either_3","A2S4BU23GT93ZD","either","5","335","","","","","","","1","0","0","0.2","","0.5","0.5","0.5","0.5","","","","","0.8","0.2","0.6","0.2","","","","","","","","74","J","1","","true","0","full_practice",""
"","bandit","68","383151","0.0-34.0-14.0","53406900","wem/bandit_either_3","A2S4BU23GT93ZD","either","5","419","","","","","","","1","0","0","0.8","","0.5","0.5","0.5","0.5","","","","","0.8","0.2","0.6","0.2","","","","","","","","72","H","0","img/none_selected.jpg","true","0","full_practice",""
"","bandit","69","385012","0.0-34.0-15.0","53406900","wem/bandit_either_3","A2S4BU23GT93ZD","either","5","345","","","","","","","0","0","1","","0.8","0.5","0.5","0.5","0.5","0.8","0.2","0.6","0.2","","","","","","","","","","","","72","H","0","img/none_selected.jpg","true","0","full_practice",""
"","bandit","70","386912","0.0-34.0-16.0","53406900","wem/bandit_either_3","A2S4BU23GT93ZD","either","5","383","","","","","","","0","1","0","","0.8","0.5","0.5","0.5","0.5","0.8","0.2","0.6","0.2","","","","","","","","","","","","72","H","0","img/none_selected.jpg","true","0","full_practice",""
"","bandit","71","388508","0.0-34.0-17.0","53406900","wem/bandit_either_3","A2S4BU23GT93ZD","either","5","80","","","","","","","1","0","0","0.8","","0.5","0.5","0.5","0.5","","","","","0.8","0.2","0.6","0.2","","","","","","","","72","H","0","img/none_selected.jpg","true","0","full_practice",""
"","bandit","72","390216","0.0-34.0-18.0","53406900","wem/bandit_either_3","A2S4BU23GT93ZD","either","5","198","","","","","","","0","1","0","","0.8","0.5","0.5","0.5","0.5","0.8","0.2","0.6","0.2","","","","","","","","","","","","72","H","0","img/none_selected.jpg","true","0","full_practice",""
"","bandit","73","391854","0.0-34.0-19.0","53406900","wem/bandit_either_3","A2S4BU23GT93ZD","either","5","122","","","","","","","0","0","1","","0.8","0.5","0.5","0.5","0.5","0.8","0.2","0.6","0.2","","","","","","","","","","","","72","H","0","img/none_selected.jpg","true","0","full_practice",""
"","text","74","394199","0.0-35.0","53406900","wem/bandit_either_3","A2S4BU23GT93ZD","either","5","2324","","32","","","","","","","","","","","","","","","","","","","","","","","","","","","","","","","","","","","",""
"","text","75","396461","0.0-36.0","53406900","wem/bandit_either_3","A2S4BU23GT93ZD","either","5","1254","","32","","","","","","","","","","","","","","","","","","","","","","","","","","","","","","","","","","","",""
"","text","76","398150","0.0-37.0","53406900","wem/bandit_either_3","A2S4BU23GT93ZD","either","5","1681","","32","","","","","","","","","","","","","","","","","","","","","","","","","","","","","","","","","","","",""
"","text","77","400729","0.0-38.0","53406900","wem/bandit_either_3","A2S4BU23GT93ZD","either","5","2571","","32","","","","","","","","","","","","","","","","","","","","","","","","","","","","","","","","","","","",""
"","text","78","402086","0.0-39.0","53406900","wem/bandit_either_3","A2S4BU23GT93ZD","either","5","1348","","32","","","","","","","","","","","","","","","","","","","","","","","","","","","","","","","","","","","",""
"","text","79","408525","0.0-40.0","53406900","wem/bandit_either_3","A2S4BU23GT93ZD","either","5","6431","","32","","","","","","","","","","","","","","","","","","","","","","","","","","","","","","","","","","","",""
"","bandit","80","412281","0.0-41.0-0.0","53406900","wem/bandit_either_3","A2S4BU23GT93ZD","either","5","2237","","","","","","","0","0","1","0.6131215568","","0.6","0.8","0.2","0.4","","","","","0.32692793","0.6131215568","0.4909711759","0.4253928501","","","","","","","","74","J","1","","","1","main_expt",""
"","bandit","81","414026","0.0-42.0-0.0","53406900","wem/bandit_either_3","A2S4BU23GT93ZD","either","5","226","","","","","","","1","0","0","0.6783759564","","0.6","0.8","0.2","0.4","","","","","0.3068321923","0.6783759564","0.5514346198","0.5447097682","","","","","","","","74","J","1","","","2","main_expt",""
"","bandit","82","415601","0.0-43.0-0.0","53406900","wem/bandit_either_3","A2S4BU23GT93ZD","either","5","60","","","","","","","0","0","1","0.6535049038","","0.6","0.8","0.2","0.4","","","","","0.2871808385","0.6535049038","0.5966913043","0.5631376832","","","","","","","","74","J","1","","","3","main_expt",""
"","bandit","83","417483","0.0-44.0-0.0","53406900","wem/bandit_either_3","A2S4BU23GT93ZD","either","5","372","","","","","","","0","0","1","","0.3062311279","0.6","0.8","0.2","0.4","0.3062311279","0.5433476707","0.6236804691","0.5889355808","","","","","","","","","","","","72","H","0","img/none_selected.jpg","","4","main_expt",""
"","bandit","84","419204","0.0-45.0-0.0","53406900","wem/bandit_either_3","A2S4BU23GT93ZD","either","5","206","","","","","","","0","0","1","","0.2453374439","0.6","0.8","0.2","0.4","0.2453374439","0.4256320799","0.5844938386","0.6125363118","","","","","","","","","","","","72","H","0","img/none_selected.jpg","","5","main_expt",""
"","bandit","85","420860","0.0-46.0-0.0","53406900","wem/bandit_either_3","A2S4BU23GT93ZD","either","5","141","","","","","","","0","1","0","","0.4929788692","0.6","0.8","0.2","0.4","0.2258644136","0.4097031487","0.4929788692","0.5204159956","","","","","","","","","","","","75","K","2","","","6","main_expt",""
"","bandit","86","422540","0.0-47.0-0.0","53406900","wem/bandit_either_3","A2S4BU23GT93ZD","either","5","164","","","","","","","0","0","1","","0.3978044106","0.6","0.8","0.2","0.4","0.2251512132","0.4614862243","0.3978044106","0.5949894572","","","","","","","","","","","","75","K","2","","","7","main_expt",""
"","bandit","87","424179","0.0-48.0-0.0","53406900","wem/bandit_either_3","A2S4BU23GT93ZD","either","5","123","","","","","","","0","1","0","","0.5080346622","0.6","0.8","0.2","0.4","0.1597376121","0.4305419438","0.5080346622","0.7043393759","","","","","","","","","","","","75","K","2","","","8","main_expt",""
"","bandit","88","425746","0.0-49.0-0.0","53406900","wem/bandit_either_3","A2S4BU23GT93ZD","either","5","54","","","","","","","0","1","0","","0.440708512","0.6","0.8","0.2","0.4","0.1395884133","0.6000641755","0.440708512","0.6866437556","","","","","","","","","","","","75","K","2","","","9","main_expt",""
"","bandit","89","427978","0.0-50.0-0.0","53406900","wem/bandit_either_3","A2S4BU23GT93ZD","either","5","715","","","","","","","0","0","1","0.6743415364","","0.6","0.8","0.2","0.4","","","","","0.1529628815","0.66675231","0.4862198985","0.6743415364","","","","","","","","76","L","3","","","10","main_expt",""
"","bandit","90","429543","0.0-51.0-0.0","53406900","wem/bandit_either_3","A2S4BU23GT93ZD","either","5","53","","","","","","","0","0","1","","0.6907290289","0.6","0.8","0.2","0.4","0.1918890603","0.538431352","0.4942886423","0.6907290289","","","","","","","","","","","","76","L","3","","","11","main_expt",""
"","bandit","91","431446","0.0-52.0-0.0","53406900","wem/bandit_either_3","A2S4BU23GT93ZD","either","5","385","","","","","","","0","0","1","0.7254617755","","0.6","0.8","0.2","0.4","","","","","0.1412308375","0.5683478731","0.4999864232","0.7254617755","","","","","","","","76","L","3","","","12","main_expt",""
"","bandit","92","433115","0.0-53.0-0.0","53406900","wem/bandit_either_3","A2S4BU23GT93ZD","either","5","158","","","","","","","1","0","0","0.7533793381","","0.6","0.8","0.2","0.4","","","","","0.1854965676","0.5870071372","0.3945724157","0.7533793381","","","","","","","","76","L","3","","","13","main_expt",""
"","bandit","93","434886","0.0-54.0-0.0","53406900","wem/bandit_either_3","A2S4BU23GT93ZD","either","5","252","","","","","","","0","0","1","","0.6909187676","0.6","0.8","0.2","0.4","0.2200151947","0.3389967741","0.458684297","0.6909187676","","","","","","","","","","","","76","L","3","","","14","main_expt",""
"","bandit","94","436594","0.0-55.0-0.0","53406900","wem/bandit_either_3","A2S4BU23GT93ZD","either","5","191","","","","","","","0","1","0","","0.5338449271","0.6","0.8","0.2","0.4","0.1497743902","0.2927381815","0.5338449271","0.7916820586","","","","","","","","","","","","75","K","2","","","15","main_expt",""
"","bandit","95","438224","0.0-56.0-0.0","53406900","wem/bandit_either_3","A2S4BU23GT93ZD","either","5","111","","","","","","","0","1","0","","0.6821016448","0.6","0.8","0.2","0.4","0.1767244745","0.2268478953","0.6821016448","0.7991661796","","","","","","","","","","","","75","K","2","","","16","main_expt",""
"","bandit","96","439917","0.0-57.0-0.0","53406900","wem/bandit_either_3","A2S4BU23GT93ZD","either","5","175","","","","","","","0","0","1","0.6963612506","","0.6","0.8","0.2","0.4","","","","","0.1953364786","0.2364877179","0.6963612506","0.7352739439","","","","","","","","75","K","2","","","17","main_expt",""
"","bandit","97","441512","0.0-58.0-0.0","53406900","wem/bandit_either_3","A2S4BU23GT93ZD","either","5","78","","","","","","","0","1","0","","0.7035779666","0.6","0.8","0.2","0.4","0.139355503","0.280777314","0.7035779666","0.6911569498","","","","","","","","","","","","75","K","2","","","18","main_expt",""
"","bandit","98","443384","0.0-59.0-0.0","53406900","wem/bandit_either_3","A2S4BU23GT93ZD","either","5","355","","","","","","","0","0","1","0.677086514","","0.6","0.8","0.2","0.4","","","","","0.129677489","0.3280428268","0.677086514","0.6372159304","","","","","","","","75","K","2","","","19","main_expt",""
"","bandit","99","444930","0.0-60.0-0.0","53406900","wem/bandit_either_3","A2S4BU23GT93ZD","either","5","15","","","","","","","0","0","1","0.213865824","","0.6","0.8","0.2","0.4","","","","","0.1584506979","0.213865824","0.5211019236","0.5917564331","","","","","","","","74","J","1","","","20","main_expt",""
"","bandit","100","446466","0.0-61.0-0.0","53406900","wem/bandit_either_3","A2S4BU23GT93ZD","either","5","7","","","","","","","0","1","0","","0.1934985877","0.6","0.8","0.2","0.4","0.1934985877","0.2755747612","0.6040081297","0.6351733259","","","","","","","","","","","","72","H","0","img/none_selected.jpg","","21","main_expt",""
"","bandit","101","447989","0.0-62.0-0.0","53406900","wem/bandit_either_3","A2S4BU23GT93ZD","either","5","3","","","","","","","0","0","1","","0.1184813826","0.6","0.8","0.2","0.4","0.1184813826","0.3096891892","0.5276460007","0.57448168","","","","","","","","","","","","72","H","0","img/none_selected.jpg","","22","main_expt",""
"","bandit","102","449788","0.0-63.0-0.0","53406900","wem/bandit_either_3","A2S4BU23GT93ZD","either","5","283","","","","","","","0","0","1","","0.1387482349","0.6","0.8","0.2","0.4","0.1387482349","0.1855444332","0.4373756081","0.532235281","","","","","","","","","","","","72","H","0","img/none_selected.jpg","","23","main_expt",""
"","bandit","103","451609","0.0-64.0-0.0","53406900","wem/bandit_either_3","A2S4BU23GT93ZD","either","5","312","","","","","","","0","0","1","0.2026045625","","0.6","0.8","0.2","0.4","","","","","0.1275075135","0.2026045625","0.4051577966","0.4695599312","","","","","","","","74","J","1","","","24","main_expt",""
"","bandit","104","453424","0.0-65.0-0.0","53406900","wem/bandit_either_3","A2S4BU23GT93ZD","either","5","297","","","","","","","0","0","1","0.2610081957","","0.6","0.8","0.2","0.4","","","","","0.1324238285","0.2610081957","0.3583026632","0.3710761786","","","","","","","","74","J","1","","","25","main_expt",""
"","bandit","105","455069","0.0-66.0-0.0","53406900","wem/bandit_either_3","A2S4BU23GT93ZD","either","5","129","","","","","","","0","0","1","","0.3104834237","0.6","0.8","0.2","0.4","0.2222282692","0.2068764453","0.4070676783","0.3104834237","","","","","","","","","","","","76","L","3","","","26","main_expt",""
"","bandit","106","456669","0.0-67.0-0.0","53406900","wem/bandit_either_3","A2S4BU23GT93ZD","either","5","82","","","","","","","0","0","1","","0.3962805628","0.6","0.8","0.2","0.4","0.2367528544","0.1387354037","0.3962805628","0.4250638914","","","","","","","","","","","","75","K","2","","","27","main_expt",""
"","bandit","107","458200","0.0-68.0-0.0","53406900","wem/bandit_either_3","A2S4BU23GT93ZD","either","5","6","","","","","","","0","0","1","","0.3381264529","0.6","0.8","0.2","0.4","0.1581712713","0.2065421522","0.3381264529","0.3738912408","","","","","","","","","","","","75","K","2","","","28","main_expt",""
"","bandit","108","459821","0.0-69.0-0.0","53406900","wem/bandit_either_3","A2S4BU23GT93ZD","either","5","100","","","","","","","0","0","1","0.411092256","","0.6","0.8","0.2","0.4","","","","","0.2361440946","0.2452437498","0.3405446746","0.411092256","","","","","","","","76","L","3","","","29","main_expt",""
"","bandit","109","461439","0.0-70.0-0.0","53406900","wem/bandit_either_3","A2S4BU23GT93ZD","either","5","100","","","","","","","0","1","0","","0.306262239","0.6","0.8","0.2","0.4","0.3051502752","0.3076129501","0.3536414415","0.306262239","","","","","","","","","","","","76","L","3","","","30","main_expt",""
"","bandit","110","463150","0.0-71.0-0.0","53406900","wem/bandit_either_3","A2S4BU23GT93ZD","either","5","196","","","","","","","0","1","0","","0.2846857217","0.6","0.8","0.2","0.4","0.3588845582","0.275744379","0.3201297868","0.2846857217","","","","","","","","","","","","76","L","3","","","31","main_expt",""
"","bandit","111","464914","0.0-72.0-0.0","53406900","wem/bandit_either_3","A2S4BU23GT93ZD","either","5","239","","","","","","","0","0","1","0.260797537","","0.6","0.8","0.2","0.4","","","","","0.3351264969","0.1582224348","0.414050106","0.260797537","","","","","","","","76","L","3","","","32","main_expt",""
"","bandit","112","466686","0.0-73.0-0.0","53406900","wem/bandit_either_3","A2S4BU23GT93ZD","either","5","252","","","","","","","0","0","1","0.3108282978","","0.6","0.8","0.2","0.4","","","","","0.3369799553","0.07234251762","0.4846208784","0.3108282978","","","","","","","","76","L","3","","","33","main_expt",""
"","bandit","113","468312","0.0-74.0-0.0","53406900","wem/bandit_either_3","A2S4BU23GT93ZD","either","5","105","","","","","","","0","0","1","0.3040676539","","0.6","0.8","0.2","0.4","","","","","0.3040676539","0.07244310326","0.4250330595","0.3996464291","","","","","","","","72","H","0","img/none_selected.jpg","","34","main_expt",""
"","bandit","114","470154","0.0-75.0-0.0","53406900","wem/bandit_either_3","A2S4BU23GT93ZD","either","5","322","","","","","","","0","0","1","","0.2974236485","0.6","0.8","0.2","0.4","0.2974236485","0.07140094546","0.499329675","0.4368131495","","","","","","","","","","","","72","H","0","img/none_selected.jpg","","35","main_expt",""
"","bandit","115","471755","0.0-76.0-0.0","53406900","wem/bandit_either_3","A2S4BU23GT93ZD","either","5","80","","","","","","","0","0","1","","0.310238309","0.6","0.8","0.2","0.4","0.310238309","0.08624361683","0.3892953339","0.3396719642","","","","","","","","","","","","72","H","0","img/none_selected.jpg","","36","main_expt",""
"","bandit","116","473393","0.0-77.0-0.0","53406900","wem/bandit_either_3","A2S4BU23GT93ZD","either","5","123","","","","","","","0","1","0","","0.2818719109","0.6","0.8","0.2","0.4","0.2818719109","0.07543251018","0.3680424748","0.4409026667","","","","","","","","","","","","72","H","0","img/none_selected.jpg","","37","main_expt",""
"","bandit","117","474987","0.0-78.0-0.0","53406900","wem/bandit_either_3","A2S4BU23GT93ZD","either","5","72","","","","","","","1","0","0","0.2925765749","","0.6","0.8","0.2","0.4","","","","","0.2925765749","0.1324785543","0.4909804269","0.489392614","","","","","","","","72","H","0","img/none_selected.jpg","","38","main_expt",""
"","bandit","118","476582","0.0-79.0-0.0","53406900","wem/bandit_either_3","A2S4BU23GT93ZD","either","5","70","","","","","","","1","0","0","0.3033582507","","0.6","0.8","0.2","0.4","","","","","0.3033582507","0.1824024676","0.5165168671","0.4403114744","","","","","","","","72","H","0","img/none_selected.jpg","","39","main_expt",""
"","bandit","119","478487","0.0-80.0-0.0","53406900","wem/bandit_either_3","A2S4BU23GT93ZD","either","5","386","","","","","","","0","0","1","0.2371445562","","0.6","0.8","0.2","0.4","","","","","0.2371445562","0.09861269436","0.6036007873","0.343221944","","","","","","","","72","H","0","img/none_selected.jpg","","40","main_expt",""
"","bandit","120","480124","0.0-81.0-0.0","53406900","wem/bandit_either_3","A2S4BU23GT93ZD","either","5","112","","","","","","","1","0","0","0.2072661203","","0.6","0.8","0.2","0.4","","","","","0.2072661203","0.1028082326","0.6078828369","0.450343793","","","","","","","","72","H","0","img/none_selected.jpg","","41","main_expt",""
"","bandit","121","481665","0.0-82.0-0.0","53406900","wem/bandit_either_3","A2S4BU23GT93ZD","either","5","21","","","","","","","0","0","1","","0.1850700716","0.6","0.8","0.2","0.4","0.1850700716","0.1326350751","0.5757077757","0.4422822993","","","","","","","","","","","","72","H","0","img/none_selected.jpg","","42","main_expt",""
"","bandit","122","483236","0.0-83.0-0.0","53406900","wem/bandit_either_3","A2S4BU23GT93ZD","either","5","55","","","","","","","0","0","1","0.1700345657","","0.6","0.8","0.2","0.4","","","","","0.1700345657","0.1591685393","0.504524575","0.4755437476","","","","","","","","72","H","0","img/none_selected.jpg","","43","main_expt",""
"","bandit","123","484810","0.0-84.0-0.0","53406900","wem/bandit_either_3","A2S4BU23GT93ZD","either","5","54","","","","","","","0","0","1","0.150922449","","0.6","0.8","0.2","0.4","","","","","0.150922449","0.1558361793","0.3354744533","0.6211160782","","","","","","","","72","H","0","img/none_selected.jpg","","44","main_expt",""
"","bandit","124","486520","0.0-85.0-0.0","53406900","wem/bandit_either_3","A2S4BU23GT93ZD","either","5","192","","","","","","","0","0","1","0.08224127908","","0.6","0.8","0.2","0.4","","","","","0.08792573626","0.08224127908","0.2259933845","0.5950963145","","","","","","","","74","J","1","","","45","main_expt",""
"","bandit","125","488218","0.0-86.0-0.0","53406900","wem/bandit_either_3","A2S4BU23GT93ZD","either","5","176","","","","","","","0","0","1","0.05681632526","","0.6","0.8","0.2","0.4","","","","","0.05210962111","0.05681632526","0.1991815266","0.600883672","","","","","","","","74","J","1","","","46","main_expt",""
"","bandit","126","490160","0.0-87.0-0.0","53406900","wem/bandit_either_3","A2S4BU23GT93ZD","either","5","419","","","","","","","0","0","1","0.02046531905","","0.6","0.8","0.2","0.4","","","","","0.1658512007","0.02046531905","0.1821259253","0.6018426621","","","","","","","","74","J","1","","","47","main_expt",""
"","bandit","127","492066","0.0-88.0-0.0","53406900","wem/bandit_either_3","A2S4BU23GT93ZD","either","5","371","","","","","","","0","0","1","0.1850219792","","0.6","0.8","0.2","0.4","","","","","0.2171730843","0.02793369594","0.1850219792","0.6719149388","","","","","","","","75","K","2","","","48","main_expt",""
"","bandit","128","493665","0.0-89.0-0.0","53406900","wem/bandit_either_3","A2S4BU23GT93ZD","either","5","77","","","","","","","1","0","0","0.2545874694","","0.6","0.8","0.2","0.4","","","","","0.2545874694","0.01520235592","0.2843491098","0.5824093935","","","","","","","","72","H","0","img/none_selected.jpg","","49","main_expt",""
"","bandit","129","495389","0.0-90.0-0.0","53406900","wem/bandit_either_3","A2S4BU23GT93ZD","either","5","200","","","","","","","0","0","1","","0.1971443839","0.6","0.8","0.2","0.4","0.1971443839","0.008868670712","0.2385085868","0.5697547833","","","","","","","","","","","","72","H","0","img/none_selected.jpg","","50","main_expt",""
"","bandit","130","497307","0.0-91.0-0.0","53406900","wem/bandit_either_3","A2S4BU23GT93ZD","either","5","399","","","","","","","1","0","0","0.5875551098","","0.6","0.8","0.2","0.4","","","","","0.1743954459","0.004668439046","0.2762119933","0.5875551098","","","","","","","","76","L","3","","","51","main_expt",""
"","bandit","131","499067","0.0-92.0-0.0","53406900","wem/bandit_either_3","A2S4BU23GT93ZD","either","5","250","","","","","","","1","0","0","0.691822337","","0.6","0.8","0.2","0.4","","","","","0.1007451992","0.003090075005","0.2350807626","0.691822337","","","","","","","","76","L","3","","","52","main_expt",""
"","bandit","132","500856","0.0-93.0-0.0","53406900","wem/bandit_either_3","A2S4BU23GT93ZD","either","5","271","","","","","","","1","0","0","0.7363191169","","0.6","0.8","0.2","0.4","","","","","0.1648918076","0.003474758773","0.2301492847","0.7363191169","","","","","","","","76","L","3","","","53","main_expt",""
"","bandit","133","502647","0.0-94.0-0.0","53406900","wem/bandit_either_3","A2S4BU23GT93ZD","either","5","271","","","","","","","0","1","0","","0.7639548597","0.6","0.8","0.2","0.4","0.1761014763","0.003279238457","0.2779325162","0.7639548597","","","","","","","","","","","","76","L","3","","","54","main_expt",""
"","bandit","134","504364","0.0-95.0-0.0","53406900","wem/bandit_either_3","A2S4BU23GT93ZD","either","5","195","","","","","","","0","1","0","","0.7264154962","0.6","0.8","0.2","0.4","0.1460392243","0.001847339967","0.2882189161","0.7264154962","","","","","","","","","","","","76","L","3","","","55","main_expt",""
"","bandit","135","505948","0.0-96.0-0.0","53406900","wem/bandit_either_3","A2S4BU23GT93ZD","either","5","75","","","","","","","0","0","1","0.001186331615","","0.6","0.8","0.2","0.4","","","","","0.1882527018","0.001186331615","0.2646822794","0.7511403137","","","","","","","","74","J","1","","","56","main_expt",""
"","bandit","136","507541","0.0-97.0-0.0","53406900","wem/bandit_either_3","A2S4BU23GT93ZD","either","5","70","","","","","","","0","1","0","","0.6292194553","0.6","0.8","0.2","0.4","0.1836596221","0.001917609755","0.3080117871","0.6292194553","","","","","","","","","","","","76","L","3","","","57","main_expt",""
"","bandit","137","509095","0.0-98.0-0.0","53406900","wem/bandit_either_3","A2S4BU23GT93ZD","either","5","38","","","","","","","1","0","0","0.5622591622","","0.6","0.8","0.2","0.4","","","","","0.2259562874","0.004115025419","0.2609020091","0.5622591622","","","","","","","","76","L","3","","","58","main_expt",""
"","bandit","138","510672","0.0-99.0-0.0","53406900","wem/bandit_either_3","A2S4BU23GT93ZD","either","5","65","","","","","","","1","0","0","0.6394190939","","0.6","0.8","0.2","0.4","","","","","0.1673227733","0.007083433589","0.3014652953","0.6394190939","","","","","","","","76","L","3","","","59","main_expt",""
"","bandit","139","512418","0.0-100.0-0.0","53406900","wem/bandit_either_3","A2S4BU23GT93ZD","either","5","224","","","","","","","1","0","0","0.502148976","","0.6","0.8","0.2","0.4","","","","","0.1404143731","0.0100473459","0.2872544729","0.502148976","","","","","","","","76","L","3","","","60","main_expt",""
"","bandit","140","514100","0.0-101.0-0.0","53406900","wem/bandit_either_3","A2S4BU23GT93ZD","either","5","158","","","","","","","1","0","0","0.5541662771","","0.6","0.8","0.2","0.4","","","","","0.1087230511","0.02288810402","0.2347068593","0.5541662771","","","","","","","","76","L","3","","","61","main_expt",""
"","bandit","141","515682","0.0-102.0-0.0","53406900","wem/bandit_either_3","A2S4BU23GT93ZD","either","5","62","","","","","","","1","0","0","0.6016144889","","0.6","0.8","0.2","0.4","","","","","0.1173770395","0.04890713094","0.1786743828","0.6016144889","","","","","","","","76","L","3","","","62","main_expt",""
"","bandit","142","517489","0.0-103.0-0.0","53406900","wem/bandit_either_3","A2S4BU23GT93ZD","either","5","286","","","","","","","0","0","1","","0.6306423252","0.6","0.8","0.2","0.4","0.1173961002","0.06015841579","0.1627017484","0.6306423252","","","","","","","","","","","","76","L","3","","","63","main_expt",""
"","bandit","143","520152","0.0-104.0-0.0","53406900","wem/bandit_either_3","A2S4BU23GT93ZD","either","5","1137","","","","","","","0","1","0","","0.5963496952","0.6","0.8","0.2","0.4","0.1093057248","0.0697324588","0.2220220934","0.5963496952","","","","","","","","","","","","76","L","3","","","64","main_expt",""
"","bandit","144","521832","0.0-105.0-0.0","53406900","wem/bandit_either_3","A2S4BU23GT93ZD","either","5","161","","","","","","","0","0","1","","0.5835424673","0.6","0.8","0.2","0.4","0.1437581537","0.03955641554","0.1387290973","0.5835424673","","","","","","","","","","","","76","L","3","","","65","main_expt",""
"","bandit","145","523447","0.0-106.0-0.0","53406900","wem/bandit_either_3","A2S4BU23GT93ZD","either","5","92","","","","","","","0","1","0","","0.5789137396","0.6","0.8","0.2","0.4","0.1321246006","0.04104317144","0.1481952943","0.5789137396","","","","","","","","","","","","76","L","3","","","66","main_expt",""
"","bandit","146","525128","0.0-107.0-0.0","53406900","wem/bandit_either_3","A2S4BU23GT93ZD","either","5","158","","","","","","","0","0","1","","0.6503196648","0.6","0.8","0.2","0.4","0.1441415222","0.07749417123","0.1354395346","0.6503196648","","","","","","","","","","","","76","L","3","","","67","main_expt",""
"","bandit","147","526776","0.0-108.0-0.0","53406900","wem/bandit_either_3","A2S4BU23GT93ZD","either","5","127","","","","","","","0","0","1","","0.1794787892","0.6","0.8","0.2","0.4","0.1794787892","0.1606162296","0.09431815687","0.7295955131","","","","","","","","","","","","72","H","0","img/none_selected.jpg","","68","main_expt",""
"","bandit","148","528307","0.0-109.0-0.0","53406900","wem/bandit_either_3","A2S4BU23GT93ZD","either","5","16","","","","","","","0","1","0","","0.2467892919","0.6","0.8","0.2","0.4","0.2467892919","0.1458723802","0.09491494314","0.7924649224","","","","","","","","","","","","72","H","0","img/none_selected.jpg","","69","main_expt",""
"","bandit","149","529868","0.0-110.0-0.0","53406900","wem/bandit_either_3","A2S4BU23GT93ZD","either","5","37","","","","","","","0","0","1","0.2683381141","","0.6","0.8","0.2","0.4","","","","","0.2683381141","0.09936082334","0.144379617","0.7104550926","","","","","","","","72","H","0","img/none_selected.jpg","","70","main_expt",""
"","bandit","150","531511","0.0-111.0-0.0","53406900","wem/bandit_either_3","A2S4BU23GT93ZD","either","5","124","","","","","","","0","0","1","0.08487306657","","0.6","0.8","0.2","0.4","","","","","0.3513633517","0.08487306657","0.1522740794","0.6350436987","","","","","","","","74","J","1","","","71","main_expt",""
"","bandit","151","533176","0.0-112.0-0.0","53406900","wem/bandit_either_3","A2S4BU23GT93ZD","either","5","144","","","","","","","0","0","1","0.08819471669","","0.6","0.8","0.2","0.4","","","","","0.2914052368","0.08819471669","0.1668466162","0.5987872161","","","","","","","","74","J","1","","","72","main_expt",""
"","bandit","152","534701","0.0-113.0-0.0","53406900","wem/bandit_either_3","A2S4BU23GT93ZD","either","5","0","","","","","","","0","0","1","0.1283432424","","0.6","0.8","0.2","0.4","","","","","0.2877488323","0.1283432424","0.1896474075","0.5985066563","","","","","","","","74","J","1","","","73","main_expt",""
"","bandit","153","536278","0.0-114.0-0.0","53406900","wem/bandit_either_3","A2S4BU23GT93ZD","either","5","58","","","","","","","0","0","1","0.6384302553","","0.6","0.8","0.2","0.4","","","","","0.2562899571","0.09379917772","0.2374421278","0.6384302553","","","","","","","","76","L","3","","","74","main_expt",""
"","bandit","154","537803","0.0-115.0-0.0","53406900","wem/bandit_either_3","A2S4BU23GT93ZD","either","5","3","","","","","","","0","0","1","","0.2083661751","0.6","0.8","0.2","0.4","0.2733605005","0.09049970266","0.2083661751","0.5658832615","","","","","","","","","","","","75","K","2","","","75","main_expt",""
"","bandit","155","539426","0.0-116.0-0.0","53406900","wem/bandit_either_3","A2S4BU23GT93ZD","either","5","98","","","","","","","0","0","1","","0.2438220339","0.6","0.8","0.2","0.4","0.3937912108","0.08721668036","0.2438220339","0.6242699585","","","","","","","","","","","","75","K","2","","","76","main_expt",""
"","bandit","156","541104","0.0-117.0-0.0","53406900","wem/bandit_either_3","A2S4BU23GT93ZD","either","5","149","","","","","","","0","0","1","","0.2688374605","0.6","0.8","0.2","0.4","0.2317864895","0.06435523183","0.2688374605","0.5744400186","","","","","","","","","","","","75","K","2","","","77","main_expt",""
"","bandit","157","542800","0.0-118.0-0.0","53406900","wem/bandit_either_3","A2S4BU23GT93ZD","either","5","174","","","","","","","0","0","1","0.1809738678","","0.6","0.8","0.2","0.4","","","","","0.1809738678","0.0482567949","0.354885782","0.5888420407","","","","","","","","72","H","0","img/none_selected.jpg","","78","main_expt",""
"","bandit","158","544387","0.0-119.0-0.0","53406900","wem/bandit_either_3","A2S4BU23GT93ZD","either","5","70","","","","","","","0","0","1","0.1139783564","","0.6","0.8","0.2","0.4","","","","","0.1139783564","0.0437210955","0.3618930149","0.6367332082","","","","","","","","72","H","0","img/none_selected.jpg","","79","main_expt",""
"","bandit","159","546352","0.0-120.0-0.0","53406900","wem/bandit_either_3","A2S4BU23GT93ZD","either","5","449","","","","","","","0","1","0","","0.08785846653","0.6","0.8","0.2","0.4","0.08785846653","0.02877808334","0.2656346555","0.6870764151","","","","","","","","","","","","72","H","0","img/none_selected.jpg","","80","main_expt",""
"","bandit","160","547918","0.0-121.0-0.0","53406900","wem/bandit_either_3","A2S4BU23GT93ZD","either","5","44","","","","","","","1","0","0","0.09113866108","","0.6","0.8","0.2","0.4","","","","","0.09113866108","0.01921293631","0.4245431589","0.594282643","","","","","","","","72","H","0","img/none_selected.jpg","","81","main_expt",""
"","bandit","161","549611","0.0-122.0-0.0","53406900","wem/bandit_either_3","A2S4BU23GT93ZD","either","5","172","","","","","","","0","0","1","0.1055231707","","0.6","0.8","0.2","0.4","","","","","0.1055231707","0.04933803159","0.4469352605","0.6134463007","","","","","","","","72","H","0","img/none_selected.jpg","","82","main_expt",""
"","bandit","162","551136","0.0-123.0-0.0","53406900","wem/bandit_either_3","A2S4BU23GT93ZD","either","5","2","","","","","","","0","0","1","0.09865920741","","0.6","0.8","0.2","0.4","","","","","0.09865920741","0.03134335394","0.4492602846","0.573719985","","","","","","","","72","H","0","img/none_selected.jpg","","83","main_expt",""
"","bandit","163","552945","0.0-124.0-0.0","53406900","wem/bandit_either_3","A2S4BU23GT93ZD","either","5","284","","","","","","","0","0","1","0.5666188995","","0.6","0.8","0.2","0.4","","","","","0.06745845416","0.08181594064","0.4800113203","0.5666188995","","","","","","","","76","L","3","","","84","main_expt",""
"","bandit","164","554498","0.0-125.0-0.0","53406900","wem/bandit_either_3","A2S4BU23GT93ZD","either","5","32","","","","","","","0","0","1","","0.5161506384","0.6","0.8","0.2","0.4","0.05723787215","0.09326949564","0.53417275","0.5161506384","","","","","","","","","","","","76","L","3","","","85","main_expt",""
"","bandit","165","556062","0.0-126.0-0.0","53406900","wem/bandit_either_3","A2S4BU23GT93ZD","either","5","43","","","","","","","0","0","1","","0.4408304524","0.6","0.8","0.2","0.4","0.04283717318","0.1365856799","0.4431594274","0.4408304524","","","","","","","","","","","","76","L","3","","","86","main_expt",""
"","bandit","166","557813","0.0-127.0-0.0","53406900","wem/bandit_either_3","A2S4BU23GT93ZD","either","5","227","","","","","","","0","0","1","","0.4135642243","0.6","0.8","0.2","0.4","0.04801612347","0.1845868617","0.4135642243","0.4926691315","","","","","","","","","","","","75","K","2","","","87","main_expt",""
"","bandit","167","559505","0.0-128.0-0.0","53406900","wem/bandit_either_3","A2S4BU23GT93ZD","either","5","171","","","","","","","0","0","1","","0.4785462387","0.6","0.8","0.2","0.4","0.1154775412","0.2304222619","0.4785462387","0.6047228172","","","","","","","","","","","","75","K","2","","","88","main_expt",""
"","bandit","168","561645","0.0-129.0-0.0","53406900","wem/bandit_either_3","A2S4BU23GT93ZD","either","5","619","","","","","","","0","1","0","","0.6395163219","0.6","0.8","0.2","0.4","0.1308375778","0.1408060154","0.6395163219","0.5311406509","","","","","","","","","","","","75","K","2","","","89","main_expt",""
"","bandit","169","563361","0.0-130.0-0.0","53406900","wem/bandit_either_3","A2S4BU23GT93ZD","either","5","192","","","","","","","0","0","1","","0.6143207643","0.6","0.8","0.2","0.4","0.07282967421","0.1870966622","0.6143207643","0.6262376813","","","","","","","","","","","","75","K","2","","","90","main_expt",""
"","bandit","170","564945","0.0-131.0-0.0","53406900","wem/bandit_either_3","A2S4BU23GT93ZD","either","5","61","","","","","","","0","0","1","","0.446485487","0.6","0.8","0.2","0.4","0.07599207753","0.192698437","0.446485487","0.690423555","","","","","","","","","","","","75","K","2","","","91","main_expt",""
"","bandit","171","566656","0.0-132.0-0.0","53406900","wem/bandit_either_3","A2S4BU23GT93ZD","either","5","184","","","","","","","0","1","0","","0.5169677416","0.6","0.8","0.2","0.4","0.04323911508","0.1683480261","0.5169677416","0.6517149298","","","","","","","","","","","","75","K","2","","","92","main_expt",""
"","bandit","172","568294","0.0-133.0-0.0","53406900","wem/bandit_either_3","A2S4BU23GT93ZD","either","5","116","","","","","","","0","0","1","","0.4242737166","0.6","0.8","0.2","0.4","0.04253576945","0.1330499919","0.4242737166","0.5656193004","","","","","","","","","","","","75","K","2","","","93","main_expt",""
"","bandit","173","569913","0.0-134.0-0.0","53406900","wem/bandit_either_3","A2S4BU23GT93ZD","either","5","110","","","","","","","1","0","0","0.4344563295","","0.6","0.8","0.2","0.4","","","","","0.04534385772","0.1880917327","0.3479993201","0.4344563295","","","","","","","","76","L","3","","","94","main_expt",""
"","bandit","174","571604","0.0-135.0-0.0","53406900","wem/bandit_either_3","A2S4BU23GT93ZD","either","5","169","","","","","","","1","0","0","0.5651083109","","0.6","0.8","0.2","0.4","","","","","0.03318992591","0.1867575465","0.3701135783","0.5651083109","","","","","","","","76","L","3","","","95","main_expt",""
"","bandit","175","573616","0.0-136.0-0.0","53406900","wem/bandit_either_3","A2S4BU23GT93ZD","either","5","499","","","","","","","0","1","0","","0.5348041914","0.6","0.8","0.2","0.4","0.03408771876","0.2231999883","0.3430407586","0.5348041914","","","","","","","","","","","","76","L","3","","","96","main_expt",""
"","bandit","176","575371","0.0-137.0-0.0","53406900","wem/bandit_either_3","A2S4BU23GT93ZD","either","5","224","","","","","","","0","0","1","0.5627844697","","0.6","0.8","0.2","0.4","","","","","0.05013144164","0.2149045243","0.2876443713","0.5627844697","","","","","","","","76","L","3","","","97","main_expt",""
"","bandit","177","576929","0.0-138.0-0.0","53406900","wem/bandit_either_3","A2S4BU23GT93ZD","either","5","30","","","","","","","0","0","1","","0.6177525637","0.6","0.8","0.2","0.4","0.03739082544","0.1963416079","0.3310412313","0.6177525637","","","","","","","","","","","","76","L","3","","","98","main_expt",""
"","bandit","178","578890","0.0-139.0-0.0","53406900","wem/bandit_either_3","A2S4BU23GT93ZD","either","5","435","","","","","","","0","1","0","","0.7429557604","0.6","0.8","0.2","0.4","0.1018336486","0.1659387142","0.3893078888","0.7429557604","","","","","","","","","","","","76","L","3","","","99","main_expt",""
"","bandit","179","580469","0.0-140.0-0.0","53406900","wem/bandit_either_3","A2S4BU23GT93ZD","either","5","57","","","","","","","0","0","1","","0.6717563967","0.6","0.8","0.2","0.4","0.1398961818","0.145948344","0.4049224607","0.6717563967","","","","","","","","","","","","76","L","3","","","100","main_expt",""
"","bandit","180","582419","0.0-141.0-0.0","53406900","wem/bandit_either_3","A2S4BU23GT93ZD","either","5","410","","","","","","","1","0","0","0.6929666651","","0.6","0.8","0.2","0.4","","","","","0.1830356504","0.1366695263","0.3259939159","0.6929666651","","","","","","","","76","L","3","","","101","main_expt",""
"","bandit","181","584047","0.0-142.0-0.0","53406900","wem/bandit_either_3","A2S4BU23GT93ZD","either","5","106","","","","","","","1","0","0","0.6827494989","","0.6","0.8","0.2","0.4","","","","","0.1396005595","0.1543059156","0.3598161211","0.6827494989","","","","","","","","76","L","3","","","102","main_expt",""
"","bandit","182","585705","0.0-143.0-0.0","53406900","wem/bandit_either_3","A2S4BU23GT93ZD","either","5","140","","","","","","","0","0","1","","0.7315485361","0.6","0.8","0.2","0.4","0.0853830874","0.1484193465","0.3385951472","0.7315485361","","","","","","","","","","","","76","L","3","","","103","main_expt",""
"","bandit","183","587688","0.0-144.0-0.0","53406900","wem/bandit_either_3","A2S4BU23GT93ZD","either","5","461","","","","","","","0","1","0","","0.6852971926","0.6","0.8","0.2","0.4","0.09317924201","0.1516288854","0.4881545817","0.6852971926","","","","","","","","","","","","76","L","3","","","104","main_expt",""
"","bandit","184","589579","0.0-145.0-0.0","53406900","wem/bandit_either_3","A2S4BU23GT93ZD","either","5","363","","","","","","","0","0","1","","0.693594393","0.6","0.8","0.2","0.4","0.08203708102","0.1283123627","0.4790883063","0.693594393","","","","","","","","","","","","76","L","3","","","105","main_expt",""
"","bandit","185","591786","0.0-146.0-0.0","53406900","wem/bandit_either_3","A2S4BU23GT93ZD","either","5","681","","","","","","","0","1","0","","0.6101065231","0.6","0.8","0.2","0.4","0.07160056992","0.2016068708","0.4354998123","0.6101065231","","","","","","","","","","","","76","L","3","","","106","main_expt",""
"","bandit","186","593770","0.0-147.0-0.0","53406900","wem/bandit_either_3","A2S4BU23GT93ZD","either","5","451","","","","","","","0","1","0","","0.5549317608","0.6","0.8","0.2","0.4","0.09799112372","0.2344181992","0.4789065637","0.5549317608","","","","","","","","","","","","76","L","3","","","107","main_expt",""
"","bandit","187","595795","0.0-148.0-0.0","53406900","wem/bandit_either_3","A2S4BU23GT93ZD","either","5","502","","","","","","","0","0","1","0.5753690117","","0.6","0.8","0.2","0.4","","","","","0.1101799882","0.2234564856","0.2921896665","0.5753690117","","","","","","","","76","L","3","","","108","main_expt",""
"","bandit","188","597460","0.0-149.0-0.0","53406900","wem/bandit_either_3","A2S4BU23GT93ZD","either","5","141","","","","","","","0","0","1","0.07189968831","","0.6","0.8","0.2","0.4","","","","","0.07189968831","0.2494485671","0.3545905428","0.5748544728","","","","","","","","72","H","0","img/none_selected.jpg","","109","main_expt",""
"","bandit","189","599019","0.0-150.0-0.0","53406900","wem/bandit_either_3","A2S4BU23GT93ZD","either","5","35","","","","","","","0","0","1","","0.06101418375","0.6","0.8","0.2","0.4","0.06101418375","0.2804015825","0.3110769573","0.6473038793","","","","","","","","","","","","72","H","0","img/none_selected.jpg","","110","main_expt",""
"","bandit","190","600591","0.0-151.0-0.0","53406900","wem/bandit_either_3","A2S4BU23GT93ZD","either","5","50","","","","","","","0","0","1","0.254644275","","0.6","0.8","0.2","0.4","","","","","0.1032726654","0.254644275","0.3673577619","0.6296147118","","","","","","","","74","J","1","","","111","main_expt",""
"","bandit","191","602315","0.0-152.0-0.0","53406900","wem/bandit_either_3","A2S4BU23GT93ZD","either","5","195","","","","","","","0","0","1","0.2686709136","","0.6","0.8","0.2","0.4","","","","","0.1061240248","0.2686709136","0.3439961468","0.6174722021","","","","","","","","74","J","1","","","112","main_expt",""
"","bandit","192","603888","0.0-153.0-0.0","53406900","wem/bandit_either_3","A2S4BU23GT93ZD","either","5","53","","","","","","","0","0","1","0.3211503982","","0.6","0.8","0.2","0.4","","","","","0.1150632514","0.3211503982","0.3389202036","0.7467975424","","","","","","","","74","J","1","","","113","main_expt",""
"","bandit","193","605444","0.0-154.0-0.0","53406900","wem/bandit_either_3","A2S4BU23GT93ZD","either","5","31","","","","","","","0","0","1","0.3067152309","","0.6","0.8","0.2","0.4","","","","","0.1491479201","0.3067152309","0.3122185675","0.7797220863","","","","","","","","74","J","1","","","114","main_expt",""
"","bandit","194","607251","0.0-155.0-0.0","53406900","wem/bandit_either_3","A2S4BU23GT93ZD","either","5","281","","","","","","","0","0","1","","0.2431064996","0.6","0.8","0.2","0.4","0.08304421353","0.3274584286","0.2431064996","0.8152411921","","","","","","","","","","","","75","K","2","","","115","main_expt",""
"","bandit","195","609202","0.0-156.0-0.0","53406900","wem/bandit_either_3","A2S4BU23GT93ZD","either","5","426","","","","","","","0","0","1","","0.2225404561","0.6","0.8","0.2","0.4","0.1391191417","0.2491959293","0.2225404561","0.7362727539","","","","","","","","","","","","75","K","2","","","116","main_expt",""
"","bandit","196","610893","0.0-157.0-0.0","53406900","wem/bandit_either_3","A2S4BU23GT93ZD","either","5","169","","","","","","","1","0","0","0.1689833708","","0.6","0.8","0.2","0.4","","","","","0.1689833708","0.1425156065","0.2891792411","0.7051771602","","","","","","","","72","H","0","img/none_selected.jpg","","117","main_expt",""
"","bandit","197","612584","0.0-158.0-0.0","53406900","wem/bandit_either_3","A2S4BU23GT93ZD","either","5","168","","","","","","","0","0","1","0.1341186766","","0.6","0.8","0.2","0.4","","","","","0.1341186766","0.1550025764","0.3147139712","0.7099604309","","","","","","","","72","H","0","img/none_selected.jpg","","118","main_expt",""
"","bandit","198","614165","0.0-159.0-0.0","53406900","wem/bandit_either_3","A2S4BU23GT93ZD","either","5","55","","","","","","","0","0","1","0.1211065448","","0.6","0.8","0.2","0.4","","","","","0.1211065448","0.1733664784","0.4890071061","0.6633752461","","","","","","","","72","H","0","img/none_selected.jpg","","119","main_expt",""
"","bandit","199","615861","0.0-160.0-0.0","53406900","wem/bandit_either_3","A2S4BU23GT93ZD","either","5","175","","","","","","","0","0","1","","0.1317257861","0.6","0.8","0.2","0.4","0.1317257861","0.2091577514","0.5238994176","0.6748815414","","","","","","","","","","","","72","H","0","img/none_selected.jpg","","120","main_expt",""
"","bandit","200","617486","0.0-161.0-0.0","53406900","wem/bandit_either_3","A2S4BU23GT93ZD","either","5","98","","","","","","","1","0","0","0.694041989","","0.6","0.8","0.2","0.4","","","","","0.08851148741","0.2038206067","0.4821854017","0.694041989","","","","","","","","76","L","3","","","121","main_expt",""
"","bandit","201","619090","0.0-162.0-0.0","53406900","wem/bandit_either_3","A2S4BU23GT93ZD","either","5","78","","","","","","","0","0","1","0.7808088803","","0.6","0.8","0.2","0.4","","","","","0.1313095228","0.1646827865","0.5695824443","0.7808088803","","","","","","","","76","L","3","","","122","main_expt",""
"","bandit","202","620957","0.0-163.0-0.0","53406900","wem/bandit_either_3","A2S4BU23GT93ZD","either","5","352","","","","","","","1","0","0","0.7513243775","","0.6","0.8","0.2","0.4","","","","","0.1990721176","0.08951947698","0.5884468641","0.7513243775","","","","","","","","76","L","3","","","123","main_expt",""
"","bandit","203","622613","0.0-164.0-0.0","53406900","wem/bandit_either_3","A2S4BU23GT93ZD","either","5","131","","","","","","","1","0","0","0.7095593687","","0.6","0.8","0.2","0.4","","","","","0.3510587203","0.09676311751","0.6578864121","0.7095593687","","","","","","","","76","L","3","","","124","main_expt",""
"","bandit","204","624162","0.0-165.0-0.0","53406900","wem/bandit_either_3","A2S4BU23GT93ZD","either","5","26","","","","","","","1","0","0","0.6464373278","","0.6","0.8","0.2","0.4","","","","","0.2829787335","0.08914634913","0.6610648035","0.6464373278","","","","","","","","76","L","3","","","125","main_expt",""
"","bandit","205","625708","0.0-166.0-0.0","53406900","wem/bandit_either_3","A2S4BU23GT93ZD","either","5","15","","","","","","","0","1","0","","0.69855693","0.6","0.8","0.2","0.4","0.3253732313","0.1104844084","0.6745370829","0.69855693","","","","","","","","","","","","76","L","3","","","126","main_expt",""
"","bandit","206","627238","0.0-167.0-0.0","53406900","wem/bandit_either_3","A2S4BU23GT93ZD","either","5","4","","","","","","","0","0","1","0.6394960802","","0.6","0.8","0.2","0.4","","","","","0.2969307539","0.1302598269","0.6357656308","0.6394960802","","","","","","","","76","L","3","","","127","main_expt",""
"","bandit","207","628774","0.0-168.0-0.0","53406900","wem/bandit_either_3","A2S4BU23GT93ZD","either","5","11","","","","","","","0","0","1","","0.5912569563","0.6","0.8","0.2","0.4","0.3862322559","0.1739983423","0.6746479632","0.5912569563","","","","","","","","","","","","76","L","3","","","128","main_expt",""
"","bandit","208","630664","0.0-169.0-0.0","53406900","wem/bandit_either_3","A2S4BU23GT93ZD","either","5","379","","","","","","","1","0","0","0.6408154383","","0.6","0.8","0.2","0.4","","","","","0.3399993615","0.2144078185","0.609360971","0.6408154383","","","","","","","","76","L","3","","","129","main_expt",""
"","bandit","209","632384","0.0-170.0-0.0","53406900","wem/bandit_either_3","A2S4BU23GT93ZD","either","5","197","","","","","","","0","0","1","","0.6160079471","0.6","0.8","0.2","0.4","0.4343217783","0.2133227205","0.5791775941","0.6160079471","","","","","","","","","","","","76","L","3","","","130","main_expt",""
"","bandit","210","634020","0.0-171.0-0.0","53406900","wem/bandit_either_3","A2S4BU23GT93ZD","either","5","109","","","","","","","0","0","1","0.6639311205","","0.6","0.8","0.2","0.4","","","","","0.4116870082","0.3009586135","0.6039133906","0.6639311205","","","","","","","","76","L","3","","","131","main_expt",""
"","bandit","211","636986","0.0-172.0-0.0","53406900","wem/bandit_either_3","A2S4BU23GT93ZD","either","5","1439","","","","","","","0","1","0","","0.7314418876","0.6","0.8","0.2","0.4","0.3235444519","0.3257006372","0.5564977279","0.7314418876","","","","","","","","","","","","76","L","3","","","132","main_expt",""
"","bandit","212","638789","0.0-173.0-0.0","53406900","wem/bandit_either_3","A2S4BU23GT93ZD","either","5","280","","","","","","","0","0","1","","0.7343064015","0.6","0.8","0.2","0.4","0.4204005917","0.3286432436","0.5453182718","0.7343064015","","","","","","","","","","","","76","L","3","","","133","main_expt",""
"","bandit","213","640349","0.0-174.0-0.0","53406900","wem/bandit_either_3","A2S4BU23GT93ZD","either","5","36","","","","","","","0","0","1","","0.6345074403","0.6","0.8","0.2","0.4","0.5326734174","0.3343575241","0.5557967555","0.6345074403","","","","","","","","","","","","76","L","3","","","134","main_expt",""
"","bandit","214","642065","0.0-175.0-0.0","53406900","wem/bandit_either_3","A2S4BU23GT93ZD","either","5","188","","","","","","","0","0","1","","0.2917270645","0.6","0.8","0.2","0.4","0.6096825818","0.2917270645","0.5719827955","0.752921597","","","","","","","","","","","","74","J","1","","","135","main_expt",""
"","bandit","215","643666","0.0-176.0-0.0","53406900","wem/bandit_either_3","A2S4BU23GT93ZD","either","5","77","","","","","","","0","0","1","","0.3972485531","0.6","0.8","0.2","0.4","0.6827328332","0.3972485531","0.4756276611","0.7642539739","","","","","","","","","","","","74","J","1","","","136","main_expt",""
"","bandit","216","645337","0.0-177.0-0.0","53406900","wem/bandit_either_3","A2S4BU23GT93ZD","either","5","144","","","","","","","0","0","1","0.4294090248","","0.6","0.8","0.2","0.4","","","","","0.6604068036","0.4294090248","0.5078949877","0.7166238274","","","","","","","","74","J","1","","","137","main_expt",""
"","bandit","217","647318","0.0-178.0-0.0","53406900","wem/bandit_either_3","A2S4BU23GT93ZD","either","5","459","","","","","","","0","0","1","","0.4938131475","0.6","0.8","0.2","0.4","0.653661868","0.5009988565","0.4938131475","0.713549589","","","","","","","","","","","","75","K","2","","","138","main_expt",""
"","bandit","218","650041","0.0-179.0-0.0","53406900","wem/bandit_either_3","A2S4BU23GT93ZD","either","5","1198","","","","","","","0","0","1","","0.6169918179","0.6","0.8","0.2","0.4","0.6169918179","0.4993746949","0.654612375","0.6905374229","","","","","","","","","","","","72","H","0","img/none_selected.jpg","","139","main_expt",""
"","bandit","219","651705","0.0-180.0-0.0","53406900","wem/bandit_either_3","A2S4BU23GT93ZD","either","5","140","","","","","","","1","0","0","0.6657435074","","0.6","0.8","0.2","0.4","","","","","0.6657435074","0.5448973659","0.52663091","0.6614813372","","","","","","","","72","H","0","img/none_selected.jpg","","140","main_expt",""
"","bandit","220","653292","0.0-181.0-0.0","53406900","wem/bandit_either_3","A2S4BU23GT93ZD","either","5","58","","","","","","","1","0","0","0.6349341703","","0.6","0.8","0.2","0.4","","","","","0.6349341703","0.4829720837","0.5976356642","0.7024355817","","","","","","","","72","H","0","img/none_selected.jpg","","141","main_expt",""
"","bandit","221","654964","0.0-182.0-0.0","53406900","wem/bandit_either_3","A2S4BU23GT93ZD","either","5","147","","","","","","","0","0","1","0.6379356982","","0.6","0.8","0.2","0.4","","","","","0.6379356982","0.5402580016","0.5956183516","0.7185929435","","","","","","","","72","H","0","img/none_selected.jpg","","142","main_expt",""
"","bandit","222","656506","0.0-183.0-0.0","53406900","wem/bandit_either_3","A2S4BU23GT93ZD","either","5","14","","","","","","","1","0","0","0.6022688156","","0.6","0.8","0.2","0.4","","","","","0.6022688156","0.5478015274","0.6432894639","0.6240660549","","","","","","","","72","H","0","img/none_selected.jpg","","143","main_expt",""
"","bandit","223","658124","0.0-184.0-0.0","53406900","wem/bandit_either_3","A2S4BU23GT93ZD","either","5","90","","","","","","","1","0","0","0.5806731621","","0.6","0.8","0.2","0.4","","","","","0.5806731621","0.5189832842","0.6691106198","0.5797935966","","","","","","","","72","H","0","img/none_selected.jpg","","144","main_expt",""
"","bandit","224","659757","0.0-185.0-0.0","53406900","wem/bandit_either_3","A2S4BU23GT93ZD","either","5","109","","","","","","","0","0","1","0.5512406412","","0.6","0.8","0.2","0.4","","","","","0.5512406412","0.4556604905","0.677031803","0.520403766","","","","","","","","72","H","0","img/none_selected.jpg","","145","main_expt",""
"","bandit","225","661400","0.0-186.0-0.0","53406900","wem/bandit_either_3","A2S4BU23GT93ZD","either","5","120","","","","","","","0","0","1","0.6055708535","","0.6","0.8","0.2","0.4","","","","","0.6055708535","0.48011385","0.6697886415","0.5330345992","","","","","","","","72","H","0","img/none_selected.jpg","","146","main_expt",""
"","bandit","226","663082","0.0-187.0-0.0","53406900","wem/bandit_either_3","A2S4BU23GT93ZD","either","5","150","","","","","","","1","0","0","0.5711328773","","0.6","0.8","0.2","0.4","","","","","0.5711328773","0.5363471167","0.7101623398","0.5692896821","","","","","","","","72","H","0","img/none_selected.jpg","","147","main_expt",""
"","bandit","227","666386","0.0-188.0-0.0","53406900","wem/bandit_either_3","A2S4BU23GT93ZD","either","5","1779","","","","","","","0","0","1","0.4258462921","","0.6","0.8","0.2","0.4","","","","","0.4258462921","0.4929714004","0.733230793","0.4877368026","","","","","","","","72","H","0","img/none_selected.jpg","","148","main_expt",""
"","bandit","228","668271","0.0-189.0-0.0","53406900","wem/bandit_either_3","A2S4BU23GT93ZD","either","5","359","","","","","","","0","0","1","0.327967402","","0.6","0.8","0.2","0.4","","","","","0.327967402","0.4356177925","0.7010449773","0.5936336812","","","","","","","","72","H","0","img/none_selected.jpg","","149","main_expt",""
"","bandit","229","670916","0.0-190.0-0.0","53406900","wem/bandit_either_3","A2S4BU23GT93ZD","either","5","1114","","","","","","","0","1","0","","0.4343474627","0.6","0.8","0.2","0.4","0.4343474627","0.4054894896","0.6668672445","0.7027445866","","","","","","","","","","","","72","H","0","img/none_selected.jpg","","150","main_expt",""
"","bandit","230","672778","0.0-191.0-0.0","53406900","wem/bandit_either_3","A2S4BU23GT93ZD","either","5","336","","","","","","","0","0","1","0.5382828223","","0.6","0.8","0.2","0.4","","","","","0.5382828223","0.5283130311","0.5612636021","0.7690633033","","","","","","","","72","H","0","img/none_selected.jpg","","151","main_expt",""
"","bandit","231","674569","0.0-192.0-0.0","53406900","wem/bandit_either_3","A2S4BU23GT93ZD","either","5","264","","","","","","","0","0","1","0.6572277468","","0.6","0.8","0.2","0.4","","","","","0.6572277468","0.6323123958","0.7032448324","0.5989969619","","","","","","","","72","H","0","img/none_selected.jpg","","152","main_expt",""
"","bandit","232","676140","0.0-193.0-0.0","53406900","wem/bandit_either_3","A2S4BU23GT93ZD","either","5","38","","","","","","","1","0","0","0.668560183","","0.6","0.8","0.2","0.4","","","","","0.668560183","0.5847243132","0.6918543646","0.6126787421","","","","","","","","72","H","0","img/none_selected.jpg","","153","main_expt",""
"","bandit","233","677758","0.0-194.0-0.0","53406900","wem/bandit_either_3","A2S4BU23GT93ZD","either","5","103","","","","","","","0","1","0","","0.6954524596","0.6","0.8","0.2","0.4","0.6954524596","0.4285456013","0.647195156","0.5461115941","","","","","","","","","","","","72","H","0","img/none_selected.jpg","","154","main_expt",""
"","bandit","234","679510","0.0-195.0-0.0","53406900","wem/bandit_either_3","A2S4BU23GT93ZD","either","5","224","","","","","","","1","0","0","0.5684527538","","0.6","0.8","0.2","0.4","","","","","0.5684527538","0.4772645207","0.6135998722","0.5456348337","","","","","","","","72","H","0","img/none_selected.jpg","","155","main_expt",""
"","bandit","235","681164","0.0-196.0-0.0","53406900","wem/bandit_either_3","A2S4BU23GT93ZD","either","5","140","","","","","","","1","0","0","0.6034375159","","0.6","0.8","0.2","0.4","","","","","0.6034375159","0.4982711843","0.5591033916","0.4782917504","","","","","","","","72","H","0","img/none_selected.jpg","","156","main_expt",""
"","bandit","236","682701","0.0-197.0-0.0","53406900","wem/bandit_either_3","A2S4BU23GT93ZD","either","5","1","","","","","","","0","0","1","","0.5835723018","0.6","0.8","0.2","0.4","0.5835723018","0.5275183668","0.5090787948","0.4868537485","","","","","","","","","","","","72","H","0","img/none_selected.jpg","","157","main_expt",""
"","bandit","237","684341","0.0-198.0-0.0","53406900","wem/bandit_either_3","A2S4BU23GT93ZD","either","5","117","","","","","","","1","0","0","0.5234712835","","0.6","0.8","0.2","0.4","","","","","0.5234712835","0.4489423754","0.6087372924","0.5361642224","","","","","","","","72","H","0","img/none_selected.jpg","","158","main_expt",""
"","bandit","238","685944","0.0-199.0-0.0","53406900","wem/bandit_either_3","A2S4BU23GT93ZD","either","5","77","","","","","","","1","0","0","0.5636881177","","0.6","0.8","0.2","0.4","","","","","0.5636881177","0.4933275403","0.6064578463","0.4947944436","","","","","","","","72","H","0","img/none_selected.jpg","","159","main_expt",""
"","bandit","239","687477","0.0-200.0-0.0","53406900","wem/bandit_either_3","A2S4BU23GT93ZD","either","5","8","","","","","","","0","0","1","","0.4785340868","0.6","0.8","0.2","0.4","0.4785340868","0.4521998099","0.6951258233","0.5106889885","","","","","","","","","","","","72","H","0","img/none_selected.jpg","","160","main_expt",""
"","bandit","240","689079","0.0-201.0-0.0","53406900","wem/bandit_either_3","A2S4BU23GT93ZD","either","5","75","","","","","","","0","0","1","0.5038962889","","0.6","0.8","0.2","0.4","","","","","0.5038962889","0.5114636712","0.7129510734","0.4566704777","","","","","","","","72","H","0","img/none_selected.jpg","","161","main_expt",""
"","bandit","241","690656","0.0-202.0-0.0","53406900","wem/bandit_either_3","A2S4BU23GT93ZD","either","5","61","","","","","","","0","0","1","","0.4448395692","0.6","0.8","0.2","0.4","0.4448395692","0.5242674757","0.7028034005","0.3259271754","","","","","","","","","","","","72","H","0","img/none_selected.jpg","","162","main_expt",""
"","bandit","242","692246","0.0-203.0-0.0","53406900","wem/bandit_either_3","A2S4BU23GT93ZD","either","5","59","","","","","","","1","0","0","0.6293758899","","0.6","0.8","0.2","0.4","","","","","0.471982621","0.5687322637","0.6293758899","0.2806734392","","","","","","","","75","K","2","","","163","main_expt",""
"","bandit","243","693891","0.0-204.0-0.0","53406900","wem/bandit_either_3","A2S4BU23GT93ZD","either","5","119","","","","","","","0","1","0","","0.6813427096","0.6","0.8","0.2","0.4","0.6517066897","0.5635146256","0.6813427096","0.2973163189","","","","","","","","","","","","75","K","2","","","164","main_expt",""
"","bandit","244","695424","0.0-205.0-0.0","53406900","wem/bandit_either_3","A2S4BU23GT93ZD","either","5","2","","","","","","","1","0","0","0.7231406025","","0.6","0.8","0.2","0.4","","","","","0.6339143586","0.6588968294","0.7231406025","0.2872552927","","","","","","","","75","K","2","","","165","main_expt",""
"","bandit","245","697025","0.0-206.0-0.0","53406900","wem/bandit_either_3","A2S4BU23GT93ZD","either","5","72","","","","","","","0","0","1","","0.6274448994","0.6","0.8","0.2","0.4","0.6507743373","0.74872254","0.6274448994","0.325395791","","","","","","","","","","","","75","K","2","","","166","main_expt",""
"","bandit","246","698662","0.0-207.0-0.0","53406900","wem/bandit_either_3","A2S4BU23GT93ZD","either","5","118","","","","","","","0","1","0","","0.6778384319","0.6","0.8","0.2","0.4","0.6753437353","0.7741304825","0.6778384319","0.3307719744","","","","","","","","","","","","75","K","2","","","167","main_expt",""
"","bandit","247","700356","0.0-208.0-0.0","53406900","wem/bandit_either_3","A2S4BU23GT93ZD","either","5","167","","","","","","","0","1","0","","0.6928942004","0.6","0.8","0.2","0.4","0.6308788189","0.8873722237","0.6928942004","0.4033689778","","","","","","","","","","","","75","K","2","","","168","main_expt",""
"","bandit","248","702060","0.0-209.0-0.0","53406900","wem/bandit_either_3","A2S4BU23GT93ZD","either","5","178","","","","","","","0","1","0","","0.6181376835","0.6","0.8","0.2","0.4","0.6289357746","0.8649989169","0.6181376835","0.4089274666","","","","","","","","","","","","75","K","2","","","169","main_expt",""
"","bandit","249","703625","0.0-210.0-0.0","53406900","wem/bandit_either_3","A2S4BU23GT93ZD","either","5","38","","","","","","","0","1","0","","0.6539136718","0.6","0.8","0.2","0.4","0.6308829817","0.8634323334","0.6539136718","0.4033631647","","","","","","","","","","","","75","K","2","","","170","main_expt",""
"","bandit","250","705302","0.0-211.0-0.0","53406900","wem/bandit_either_3","A2S4BU23GT93ZD","either","5","149","","","","","","","0","1","0","","0.7935188527","0.6","0.8","0.2","0.4","0.6008061885","0.8050812792","0.7935188527","0.3743415885","","","","","","","","","","","","75","K","2","","","171","main_expt",""
"","bandit","251","706836","0.0-212.0-0.0","53406900","wem/bandit_either_3","A2S4BU23GT93ZD","either","5","2","","","","","","","0","0","1","","0.7959482017","0.6","0.8","0.2","0.4","0.6498855282","0.7635000848","0.7959482017","0.4145867416","","","","","","","","","","","","75","K","2","","","172","main_expt",""
"","bandit","252","709128","0.0-213.0-0.0","53406900","wem/bandit_either_3","A2S4BU23GT93ZD","either","5","761","","","","","","","0","1","0","","0.7720377381","0.6","0.8","0.2","0.4","0.6361658802","0.7793560846","0.7720377381","0.4421490518","","","","","","","","","","","","75","K","2","","","173","main_expt",""
"","bandit","253","710810","0.0-214.0-0.0","53406900","wem/bandit_either_3","A2S4BU23GT93ZD","either","5","155","","","","","","","0","1","0","","0.7751150559","0.6","0.8","0.2","0.4","0.5494915933","0.7290013271","0.7751150559","0.373112653","","","","","","","","","","","","75","K","2","","","174","main_expt",""
"","bandit","254","712340","0.0-215.0-0.0","53406900","wem/bandit_either_3","A2S4BU23GT93ZD","either","5","1","","","","","","","1","0","0","0.7699246652","","0.6","0.8","0.2","0.4","","","","","0.6292002022","0.8353873757","0.7699246652","0.372221374","","","","","","","","75","K","2","","","175","main_expt",""
"","bandit","255","714014","0.0-216.0-0.0","53406900","wem/bandit_either_3","A2S4BU23GT93ZD","either","5","143","","","","","","","0","1","0","","0.8092821718","0.6","0.8","0.2","0.4","0.4999600136","0.8589437223","0.8092821718","0.3594456443","","","","","","","","","","","","75","K","2","","","176","main_expt",""
"","bandit","256","715614","0.0-217.0-0.0","53406900","wem/bandit_either_3","A2S4BU23GT93ZD","either","5","65","","","","","","","0","1","0","","0.7728258073","0.6","0.8","0.2","0.4","0.4500304274","0.8824379228","0.7728258073","0.3705823864","","","","","","","","","","","","75","K","2","","","177","main_expt",""
"","bandit","257","717278","0.0-218.0-0.0","53406900","wem/bandit_either_3","A2S4BU23GT93ZD","either","5","133","","","","","","","0","1","0","","0.8128952128","0.6","0.8","0.2","0.4","0.4626099748","0.8862787626","0.8128952128","0.3042584581","","","","","","","","","","","","75","K","2","","","178","main_expt",""
"","bandit","258","718824","0.0-219.0-0.0","53406900","wem/bandit_either_3","A2S4BU23GT93ZD","either","5","16","","","","","","","0","1","0","","0.7878088044","0.6","0.8","0.2","0.4","0.3074659707","0.8851661012","0.7878088044","0.3056645996","","","","","","","","","","","","75","K","2","","","179","main_expt",""
"","bandit","259","720801","0.0-220.0-0.0","53406900","wem/bandit_either_3","A2S4BU23GT93ZD","either","5","451","","","","","","","0","1","0","","0.7626215198","0.6","0.8","0.2","0.4","0.2445312817","0.8623840347","0.7626215198","0.3124458775","","","","","","","","","","","","75","K","2","","","180","main_expt",""
"","bandit","260","722588","0.0-221.0-0.0","53406900","wem/bandit_either_3","A2S4BU23GT93ZD","either","5","255","","","","","","","0","0","1","","0.7059637017","0.6","0.8","0.2","0.4","0.2284870313","0.8815853427","0.7059637017","0.2597333415","","","","","","","","","","","","75","K","2","","","181","main_expt",""
"","bandit","261","724304","0.0-222.0-0.0","53406900","wem/bandit_either_3","A2S4BU23GT93ZD","either","5","198","","","","","","","1","0","0","0.6691747745","","0.6","0.8","0.2","0.4","","","","","0.2195648065","0.8955826305","0.6691747745","0.2117009826","","","","","","","","75","K","2","","","182","main_expt",""
"","bandit","262","725956","0.0-223.0-0.0","53406900","wem/bandit_either_3","A2S4BU23GT93ZD","either","5","143","","","","","","","0","0","1","","0.5523838876","0.6","0.8","0.2","0.4","0.2327716204","0.9362873759","0.5523838876","0.2327762041","","","","","","","","","","","","75","K","2","","","183","main_expt",""
"","bandit","263","727552","0.0-224.0-0.0","53406900","wem/bandit_either_3","A2S4BU23GT93ZD","either","5","64","","","","","","","0","1","0","","0.5451875246","0.6","0.8","0.2","0.4","0.3207903029","0.9484326647","0.5451875246","0.2750618684","","","","","","","","","","","","75","K","2","","","184","main_expt",""
"","bandit","264","729181","0.0-225.0-0.0","53406900","wem/bandit_either_3","A2S4BU23GT93ZD","either","5","99","","","","","","","0","1","0","","0.6090771744","0.6","0.8","0.2","0.4","0.3609723674","0.9660783121","0.6090771744","0.2305846964","","","","","","","","","","","","75","K","2","","","185","main_expt",""
"","bandit","265","730846","0.0-226.0-0.0","53406900","wem/bandit_either_3","A2S4BU23GT93ZD","either","5","150","","","","","","","0","0","1","","0.5810996076","0.6","0.8","0.2","0.4","0.4442397518","0.9665376101","0.5810996076","0.2597669424","","","","","","","","","","","","75","K","2","","","186","main_expt",""
"","bandit","266","732596","0.0-227.0-0.0","53406900","wem/bandit_either_3","A2S4BU23GT93ZD","either","5","237","","","","","","","0","1","0","","0.4445572548","0.6","0.8","0.2","0.4","0.4478442549","0.9644184371","0.4445572548","0.2143742246","","","","","","","","","","","","75","K","2","","","187","main_expt",""
"","bandit","267","734236","0.0-228.0-0.0","53406900","wem/bandit_either_3","A2S4BU23GT93ZD","either","5","97","","","","","","","0","0","1","","0.4113554433","0.6","0.8","0.2","0.4","0.4026396634","0.9731237162","0.4113554433","0.2294707647","","","","","","","","","","","","75","K","2","","","188","main_expt",""
"","bandit","268","735874","0.0-229.0-0.0","53406900","wem/bandit_either_3","A2S4BU23GT93ZD","either","5","121","","","","","","","0","1","0","","0.4053553249","0.6","0.8","0.2","0.4","0.5072589837","0.9787475226","0.4053553249","0.2469430613","","","","","","","","","","","","75","K","2","","","189","main_expt",""
"","bandit","269","737573","0.0-230.0-0.0","53406900","wem/bandit_either_3","A2S4BU23GT93ZD","either","5","169","","","","","","","0","1","0","","0.4927633492","0.6","0.8","0.2","0.4","0.5234843415","0.9847816181","0.4927633492","0.2437728268","","","","","","","","","","","","75","K","2","","","190","main_expt",""
"","bandit","270","739337","0.0-231.0-0.0","53406900","wem/bandit_either_3","A2S4BU23GT93ZD","either","5","232","","","","","","","0","1","0","","0.428678546","0.6","0.8","0.2","0.4","0.5054414672","0.9713064587","0.428678546","0.1655579887","","","","","","","","","","","","75","K","2","","","191","main_expt",""
"","bandit","271","741206","0.0-232.0-0.0","53406900","wem/bandit_either_3","A2S4BU23GT93ZD","either","5","338","","","","","","","0","0","1","","0.3358015867","0.6","0.8","0.2","0.4","0.7037613703","0.9558555722","0.3358015867","0.1501427492","","","","","","","","","","","","75","K","2","","","192","main_expt",""
"","bandit","272","742818","0.0-233.0-0.0","53406900","wem/bandit_either_3","A2S4BU23GT93ZD","either","5","83","","","","","","","0","0","1","","0.2816430679","0.6","0.8","0.2","0.4","0.5980286963","0.9443800135","0.2816430679","0.2062706367","","","","","","","","","","","","75","K","2","","","193","main_expt",""
"","bandit","273","745041","0.0-234.0-0.0","53406900","wem/bandit_either_3","A2S4BU23GT93ZD","either","5","691","","","","","","","1","0","0","0.947825408","","0.6","0.8","0.2","0.4","","","","","0.5607231578","0.947825408","0.2951519504","0.2782937815","","","","","","","","74","J","1","","","194","main_expt",""
"","bandit","274","746573","0.0-235.0-0.0","53406900","wem/bandit_either_3","A2S4BU23GT93ZD","either","5","0","","","","","","","1","0","0","0.9531013361","","0.6","0.8","0.2","0.4","","","","","0.6222063369","0.9531013361","0.2482291913","0.2393938873","","","","","","","","74","J","1","","","195","main_expt",""
"","bandit","275","748101","0.0-236.0-0.0","53406900","wem/bandit_either_3","A2S4BU23GT93ZD","either","5","1","","","","","","","1","0","0","0.9653581558","","0.6","0.8","0.2","0.4","","","","","0.7092042058","0.9653581558","0.2548661126","0.3385483064","","","","","","","","74","J","1","","","196","main_expt",""
"","bandit","276","749715","0.0-237.0-0.0","53406900","wem/bandit_either_3","A2S4BU23GT93ZD","either","5","98","","","","","","","1","0","0","0.9774234012","","0.6","0.8","0.2","0.4","","","","","0.7397780251","0.9774234012","0.2789697966","0.3474357388","","","","","","","","74","J","1","","","197","main_expt",""
"","bandit","277","751235","0.0-238.0-0.0","53406900","wem/bandit_either_3","A2S4BU23GT93ZD","either","5","7","","","","","","","1","0","0","0.9866112083","","0.6","0.8","0.2","0.4","","","","","0.6977166648","0.9866112083","0.2893473624","0.4511600961","","","","","","","","74","J","1","","","198","main_expt",""
"","bandit","278","752815","0.0-239.0-0.0","53406900","wem/bandit_either_3","A2S4BU23GT93ZD","either","5","49","","","","","","","0","1","0","","0.9889390623","0.6","0.8","0.2","0.4","0.591703898","0.9889390623","0.2499124536","0.4387406867","","","","","","","","","","","","74","J","1","","","199","main_expt",""
"","bandit","279","754459","0.0-240.0-0.0","53406900","wem/bandit_either_3","A2S4BU23GT93ZD","either","5","111","","","","","","","1","0","0","0.9894921125","","0.6","0.8","0.2","0.4","","","","","0.5107967375","0.9894921125","0.2643429758","0.4368135332","","","","","","","","74","J","1","","","200","main_expt",""
"","bandit","280","755990","0.0-241.0-0.0","53406900","wem/bandit_either_3","A2S4BU23GT93ZD","either","5","1","","","","","","","1","0","0","0.989248002","","0.6","0.8","0.2","0.4","","","","","0.6528148869","0.989248002","0.2382870841","0.3070084091","","","","","","","","74","J","1","","","201","main_expt",""
"","bandit","281","757534","0.0-242.0-0.0","53406900","wem/bandit_either_3","A2S4BU23GT93ZD","either","5","14","","","","","","","1","0","0","0.9957983392","","0.6","0.8","0.2","0.4","","","","","0.6892998309","0.9957983392","0.1604624283","0.3603585946","","","","","","","","74","J","1","","","202","main_expt",""
"","bandit","282","759231","0.0-243.0-0.0","53406900","wem/bandit_either_3","A2S4BU23GT93ZD","either","5","163","","","","","","","1","0","0","0.9958893","","0.6","0.8","0.2","0.4","","","","","0.6989476798","0.9958893","0.1407610566","0.260320329","","","","","","","","74","J","1","","","203","main_expt",""
"","bandit","283","760975","0.0-244.0-0.0","53406900","wem/bandit_either_3","A2S4BU23GT93ZD","either","5","214","","","","","","","1","0","0","0.9955962674","","0.6","0.8","0.2","0.4","","","","","0.772264117","0.9955962674","0.1343245238","0.2003029851","","","","","","","","74","J","1","","","204","main_expt",""
"","bandit","284","762671","0.0-245.0-0.0","53406900","wem/bandit_either_3","A2S4BU23GT93ZD","either","5","161","","","","","","","1","0","0","0.9943432705","","0.6","0.8","0.2","0.4","","","","","0.7366863645","0.9943432705","0.1715400642","0.1922312923","","","","","","","","74","J","1","","","205","main_expt",""
"","bandit","285","764391","0.0-246.0-0.0","53406900","wem/bandit_either_3","A2S4BU23GT93ZD","either","5","184","","","","","","","1","0","0","0.9982320458","","0.6","0.8","0.2","0.4","","","","","0.7477287432","0.9982320458","0.117617648","0.1936085521","","","","","","","","74","J","1","","","206","main_expt",""
"","bandit","286","766340","0.0-247.0-0.0","53406900","wem/bandit_either_3","A2S4BU23GT93ZD","either","5","415","","","","","","","0","1","0","","0.9976530308","0.6","0.8","0.2","0.4","0.8185776196","0.9976530308","0.1182717864","0.1821705986","","","","","","","","","","","","74","J","1","","","207","main_expt",""
"","bandit","287","767981","0.0-248.0-0.0","53406900","wem/bandit_either_3","A2S4BU23GT93ZD","either","5","109","","","","","","","1","0","0","0.9961811318","","0.6","0.8","0.2","0.4","","","","","0.8161769506","0.9961811318","0.1445047472","0.1145050302","","","","","","","","74","J","1","","","208","main_expt",""
"","bandit","288","769532","0.0-249.0-0.0","53406900","wem/bandit_either_3","A2S4BU23GT93ZD","either","5","33","","","","","","","1","0","0","0.9977639941","","0.6","0.8","0.2","0.4","","","","","0.8224464957","0.9977639941","0.1264159314","0.1206637037","","","","","","","","74","J","1","","","209","main_expt",""
"","bandit","289","771253","0.0-250.0-0.0","53406900","wem/bandit_either_3","A2S4BU23GT93ZD","either","5","191","","","","","","","1","0","0","0.9953783407","","0.6","0.8","0.2","0.4","","","","","0.7392866018","0.9953783407","0.1208777168","0.1422927172","","","","","","","","74","J","1","","","210","main_expt",""
"","bandit","290","773091","0.0-251.0-0.0","53406900","wem/bandit_either_3","A2S4BU23GT93ZD","either","5","301","","","","","","","1","0","0","0.9976351195","","0.6","0.8","0.2","0.4","","","","","0.7125411919","0.9976351195","0.1733448518","0.1811219169","","","","","","","","74","J","1","","","211","main_expt",""
"","bandit","291","774624","0.0-252.0-0.0","53406900","wem/bandit_either_3","A2S4BU23GT93ZD","either","5","2","","","","","","","0","1","0","","0.9983589292","0.6","0.8","0.2","0.4","0.7191881067","0.9983589292","0.1085262221","0.1982527665","","","","","","","","","","","","74","J","1","","","212","main_expt",""
"","bandit","292","776358","0.0-253.0-0.0","53406900","wem/bandit_either_3","A2S4BU23GT93ZD","either","5","204","","","","","","","1","0","0","0.9960427138","","0.6","0.8","0.2","0.4","","","","","0.7523845147","0.9960427138","0.08145678985","0.124448309","","","","","","","","74","J","1","","","213","main_expt",""
"","bandit","293","777912","0.0-254.0-0.0","53406900","wem/bandit_either_3","A2S4BU23GT93ZD","either","5","19","","","","","","","0","1","0","","0.9924650588","0.6","0.8","0.2","0.4","0.7193420906","0.9924650588","0.05725631888","0.1036015692","","","","","","","","","","","","74","J","1","","","214","main_expt",""
"","bandit","294","779449","0.0-255.0-0.0","53406900","wem/bandit_either_3","A2S4BU23GT93ZD","either","5","2","","","","","","","1","0","0","0.9858211903","","0.6","0.8","0.2","0.4","","","","","0.6784461291","0.9858211903","0.04356988172","0.14458031","","","","","","","","74","J","1","","","215","main_expt",""
"","bandit","295","781013","0.0-256.0-0.0","53406900","wem/bandit_either_3","A2S4BU23GT93ZD","either","5","33","","","","","","","1","0","0","0.9915289077","","0.6","0.8","0.2","0.4","","","","","0.5658185063","0.9915289077","0.04316154837","0.2094876981","","","","","","","","74","J","1","","","216","main_expt",""
"","bandit","296","782541","0.0-257.0-0.0","53406900","wem/bandit_either_3","A2S4BU23GT93ZD","either","5","1","","","","","","","1","0","0","0.9929544916","","0.6","0.8","0.2","0.4","","","","","0.4886301847","0.9929544916","0.03453558383","0.24936904","","","","","","","","74","J","1","","","217","main_expt",""
"","bandit","297","784071","0.0-258.0-0.0","53406900","wem/bandit_either_3","A2S4BU23GT93ZD","either","5","1","","","","","","","0","1","0","","0.9741721496","0.6","0.8","0.2","0.4","0.5674985979","0.9741721496","0.03800932399","0.2006789107","","","","","","","","","","","","74","J","1","","","218","main_expt",""
"","bandit","298","787520","0.0-259.0-0.0","53406900","wem/bandit_either_3","A2S4BU23GT93ZD","either","5","1918","","","","","","","1","0","0","0.9413517393","","0.6","0.8","0.2","0.4","","","","","0.6088772151","0.9413517393","0.07914639327","0.2118480588","","","","","","","","74","J","1","","","219","main_expt",""
"","bandit","299","789222","0.0-260.0-0.0","53406900","wem/bandit_either_3","A2S4BU23GT93ZD","either","5","162","","","","","","","0","1","0","","0.9230346446","0.6","0.8","0.2","0.4","0.5856238885","0.9230346446","0.07044987786","0.2159213458","","","","","","","","","","","","74","J","1","","","220","main_expt",""
"","bandit","300","790759","0.0-261.0-0.0","53406900","wem/bandit_either_3","A2S4BU23GT93ZD","either","5","1","","","","","","","1","0","0","0.9216350241","","0.6","0.8","0.2","0.4","","","","","0.6601978635","0.9216350241","0.1351506501","0.2097338805","","","","","","","","74","J","1","","","221","main_expt",""
"","bandit","301","792294","0.0-262.0-0.0","53406900","wem/bandit_either_3","A2S4BU23GT93ZD","either","5","3","","","","","","","1","0","0","0.9093406134","","0.6","0.8","0.2","0.4","","","","","0.6540659739","0.9093406134","0.2099108548","0.1468233299","","","","","","","","74","J","1","","","222","main_expt",""
"","bandit","302","794158","0.0-263.0-0.0","53406900","wem/bandit_either_3","A2S4BU23GT93ZD","either","5","328","","","","","","","1","0","0","0.8361447498","","0.6","0.8","0.2","0.4","","","","","0.7010542315","0.8361447498","0.2971693323","0.1379540926","","","","","","","","74","J","1","","","223","main_expt",""
"","bandit","303","795850","0.0-264.0-0.0","53406900","wem/bandit_either_3","A2S4BU23GT93ZD","either","5","157","","","","","","","1","0","0","0.8626161161","","0.6","0.8","0.2","0.4","","","","","0.7972730751","0.8626161161","0.2754671199","0.1943723139","","","","","","","","74","J","1","","","224","main_expt",""
"","bandit","304","797673","0.0-265.0-0.0","53406900","wem/bandit_either_3","A2S4BU23GT93ZD","either","5","288","","","","","","","0","1","0","","0.9176165053","0.6","0.8","0.2","0.4","0.8726314772","0.9176165053","0.2483133052","0.2949344278","","","","","","","","","","","","74","J","1","","","225","main_expt",""
"","bandit","305","799215","0.0-266.0-0.0","53406900","wem/bandit_either_3","A2S4BU23GT93ZD","either","5","2","","","","","","","1","0","0","0.9516545376","","0.6","0.8","0.2","0.4","","","","","0.8569150835","0.9516545376","0.2945032007","0.4040967375","","","","","","","","74","J","1","","","226","main_expt",""
"","bandit","306","800732","0.0-267.0-0.0","53406900","wem/bandit_either_3","A2S4BU23GT93ZD","either","5","1","","","","","","","1","0","0","0.9448551655","","0.6","0.8","0.2","0.4","","","","","0.8773762417","0.9448551655","0.2544933329","0.4369809926","","","","","","","","74","J","1","","","227","main_expt",""
"","bandit","307","802267","0.0-268.0-0.0","53406900","wem/bandit_either_3","A2S4BU23GT93ZD","either","5","2","","","","","","","1","0","0","0.9298030406","","0.6","0.8","0.2","0.4","","","","","0.8514828757","0.9298030406","0.22227057","0.4228749262","","","","","","","","74","J","1","","","228","main_expt",""
"","bandit","308","804256","0.0-269.0-0.0","53406900","wem/bandit_either_3","A2S4BU23GT93ZD","either","5","454","","","","","","","1","0","0","0.9022116856","","0.6","0.8","0.2","0.4","","","","","0.893786405","0.9022116856","0.2319557967","0.4953143479","","","","","","","","74","J","1","","","229","main_expt",""
"","bandit","309","805801","0.0-270.0-0.0","53406900","wem/bandit_either_3","A2S4BU23GT93ZD","either","5","9","","","","","","","1","0","0","0.8934587516","","0.6","0.8","0.2","0.4","","","","","0.9350514117","0.8934587516","0.3107577299","0.4752889979","","","","","","","","74","J","1","","","230","main_expt",""
"","bandit","310","807797","0.0-271.0-0.0","53406900","wem/bandit_either_3","A2S4BU23GT93ZD","either","5","458","","","","","","","0","1","0","","0.8403693225","0.6","0.8","0.2","0.4","0.9139197991","0.8403693225","0.3046703461","0.4887049862","","","","","","","","","","","","74","J","1","","","231","main_expt",""
"","bandit","311","809425","0.0-272.0-0.0","53406900","wem/bandit_either_3","A2S4BU23GT93ZD","either","5","83","","","","","","","1","0","0","0.7373772703","","0.6","0.8","0.2","0.4","","","","","0.8753904063","0.7373772703","0.4259459217","0.6065944358","","","","","","","","74","J","1","","","232","main_expt",""
"","bandit","312","811126","0.0-273.0-0.0","53406900","wem/bandit_either_3","A2S4BU23GT93ZD","either","5","183","","","","","","","1","0","0","0.7275490615","","0.6","0.8","0.2","0.4","","","","","0.807664976","0.7275490615","0.3391655585","0.5320380184","","","","","","","","74","J","1","","","233","main_expt",""
"","bandit","313","812661","0.0-274.0-0.0","53406900","wem/bandit_either_3","A2S4BU23GT93ZD","either","5","1","","","","","","","0","1","0","","0.6910989812","0.6","0.8","0.2","0.4","0.817303243","0.6910989812","0.3380141995","0.5845689413","","","","","","","","","","","","74","J","1","","","234","main_expt",""
"","bandit","314","814194","0.0-275.0-0.0","53406900","wem/bandit_either_3","A2S4BU23GT93ZD","either","5","1","","","","","","","1","0","0","0.6506848601","","0.6","0.8","0.2","0.4","","","","","0.8320050337","0.6506848601","0.2949514339","0.4424117598","","","","","","","","74","J","1","","","235","main_expt",""
"","bandit","315","818075","0.0-276.0-0.0","53406900","wem/bandit_either_3","A2S4BU23GT93ZD","either","5","2352","","","","","","","0","0","1","0.589166471","","0.6","0.8","0.2","0.4","","","","","0.8539654836","0.589166471","0.2575094814","0.4411324282","","","","","","","","74","J","1","","","236","main_expt",""
"","bandit","316","819597","0.0-277.0-0.0","53406900","wem/bandit_either_3","A2S4BU23GT93ZD","either","5","1","","","","","","","0","0","1","0.5475273787","","0.6","0.8","0.2","0.4","","","","","0.8151920012","0.5475273787","0.3298960346","0.5792865955","","","","","","","","74","J","1","","","237","main_expt",""
"","bandit","317","821619","0.0-278.0-0.0","53406900","wem/bandit_either_3","A2S4BU23GT93ZD","either","5","484","","","","","","","0","0","1","0.6435093149","","0.6","0.8","0.2","0.4","","","","","0.8724257749","0.5644141111","0.3922637729","0.6435093149","","","","","","","","76","L","3","","","238","main_expt",""
"","bandit","318","823226","0.0-279.0-0.0","53406900","wem/bandit_either_3","A2S4BU23GT93ZD","either","5","74","","","","","","","0","0","1","","0.571754567","0.6","0.8","0.2","0.4","0.8232187668","0.557522906","0.3200188668","0.571754567","","","","","","","","","","","","76","L","3","","","239","main_expt",""
"","bandit","319","824765","0.0-280.0-0.0","53406900","wem/bandit_either_3","A2S4BU23GT93ZD","either","5","23","","","","","","","0","0","1","","0.6642130709","0.6","0.8","0.2","0.4","0.8306623225","0.603497511","0.3427015143","0.6642130709","","","","","","","","","","","","76","L","3","","","240","main_expt",""
"","bandit","320","826561","0.0-281.0-0.0","53406900","wem/bandit_either_3","A2S4BU23GT93ZD","either","5","261","","","","","","","1","0","0","0.7592816599","","0.6","0.8","0.2","0.4","","","","","0.7592816599","0.5998739494","0.3027961335","0.702894688","","","","","","","","72","H","0","img/none_selected.jpg","","241","main_expt",""
"","bandit","321","828159","0.0-282.0-0.0","53406900","wem/bandit_either_3","A2S4BU23GT93ZD","either","5","65","","","","","","","1","0","0","0.8354326854","","0.6","0.8","0.2","0.4","","","","","0.8354326854","0.5674661637","0.2916945226","0.6468691102","","","","","","","","72","H","0","img/none_selected.jpg","","242","main_expt",""
"","bandit","322","829932","0.0-283.0-0.0","53406900","wem/bandit_either_3","A2S4BU23GT93ZD","either","5","238","","","","","","","0","1","0","","0.8387573723","0.6","0.8","0.2","0.4","0.8387573723","0.620083209","0.2703759756","0.7073159297","","","","","","","","","","","","72","H","0","img/none_selected.jpg","","243","main_expt",""
"","bandit","323","831469","0.0-284.0-0.0","53406900","wem/bandit_either_3","A2S4BU23GT93ZD","either","5","2","","","","","","","1","0","0","0.8683205951","","0.6","0.8","0.2","0.4","","","","","0.8683205951","0.7089992968","0.2055036404","0.6719420595","","","","","","","","72","H","0","img/none_selected.jpg","","244","main_expt",""
"","bandit","324","833939","0.0-285.0-0.0","53406900","wem/bandit_either_3","A2S4BU23GT93ZD","either","5","947","","","","","","","0","0","1","0.7825192054","","0.6","0.8","0.2","0.4","","","","","0.7825192054","0.6816226354","0.2458168489","0.7396289485","","","","","","","","72","H","0","img/none_selected.jpg","","245","main_expt",""
