"consent","trial_type","trial_index","time_elapsed","internal_node_id","subjID","study","MID","cond","drift","rt","responses","key_press","expt_phase","like","value","connected","gems","bombs","no_reward","GemPrChosen","BombPrChosen","GainOverPainPr_0","GainOverPainPr_1","GainOverPainPr_2","GainOverPainPr_3","LosePr_0","LosePr_1","LosePr_2","LosePr_3","WinPr_0","WinPr_1","WinPr_2","WinPr_3","Q0","Q1","Q2","gender","age","ethnicity","target","respCharCode","respKey","respChoiceNum","respChoice","practice","trial_counter","trial_label","button_pressed"
"INL_behavioral_consent_30min_online.html","consent","0","27682","0.0-0.0","53484526","wem/bandit_either_3","A3DKYNYN50FYFY","either","1","","","","","","","","","","","","","","","","","","","","","","","","","","","","","","","","","","","","","","",""
"","survey-text","1","52139","0.0-1.0","53484526","wem/bandit_either_3","A3DKYNYN50FYFY","either","1","23446","{""Q0"":""A3DKYNYN50FYFY""}","","","","","","","","","","","","","","","","","","","","","","","","","","","","","","","","","","","","",""
"","text","2","580840","0.0-2.0","53484526","wem/bandit_either_3","A3DKYNYN50FYFY","either","1","527697","","32","","","","","","","","","","","","","","","","","","","","","","","","","","","","","","","","","","","",""
"","text","3","610345","0.0-3.0","53484526","wem/bandit_either_3","A3DKYNYN50FYFY","either","1","29502","","32","","","","","","","","","","","","","","","","","","","","","","","","","","","","","","","","","","","",""
"","text","4","647208","0.0-4.0","53484526","wem/bandit_either_3","A3DKYNYN50FYFY","either","1","36861","","32","","","","","","","","","","","","","","","","","","","","","","","","","","","","","","","","","","","",""
"","text","5","675182","0.0-5.0","53484526","wem/bandit_either_3","A3DKYNYN50FYFY","either","1","27972","","32","","","","","","","","","","","","","","","","","","","","","","","","","","","","","","","","","","","",""
"","text","6","710441","0.0-6.0","53484526","wem/bandit_either_3","A3DKYNYN50FYFY","either","1","35257","","32","","","","","","","","","","","","","","","","","","","","","","","","","","","","","","","","","","","",""
"","text","7","725529","0.0-7.0","53484526","wem/bandit_either_3","A3DKYNYN50FYFY","either","1","15086","","32","","","","","","","","","","","","","","","","","","","","","","","","","","","","","","","","","","","",""
"","text","8","730419","0.0-8.0","53484526","wem/bandit_either_3","A3DKYNYN50FYFY","either","1","4888","","32","","","","","","","","","","","","","","","","","","","","","","","","","","","","","","","","","","","",""
"","identification","9","743149","0.0-9.0-0.0","53484526","wem/bandit_either_3","A3DKYNYN50FYFY","either","1","12716","","","","5","5","5","","","","","","","","","","","","","","","","","","","","","","","","the village of Zur","","","","","","","",""
"","identification","10","769883","0.0-9.0-1.0","53484526","wem/bandit_either_3","A3DKYNYN50FYFY","either","1","25719","","","","1","2","0","","","","","","","","","","","","","","","","","","","","","","","","the village of Nyx","","","","","","","",""
"","text","11","777172","0.0-10.0","53484526","wem/bandit_either_3","A3DKYNYN50FYFY","either","1","6285","","32","","","","","","","","","","","","","","","","","","","","","","","","","","","","","","","","","","","",""
"","text","12","783326","0.0-11.0","53484526","wem/bandit_either_3","A3DKYNYN50FYFY","either","1","6152","","32","","","","","","","","","","","","","","","","","","","","","","","","","","","","","","","","","","","",""
"","text","13","787726","0.0-12.0","53484526","wem/bandit_either_3","A3DKYNYN50FYFY","either","1","4398","","32","","","","","","","","","","","","","","","","","","","","","","","","","","","","","","","","","","","",""
"","text","14","795837","0.0-13.0","53484526","wem/bandit_either_3","A3DKYNYN50FYFY","either","1","8109","","32","","","","","","","","","","","","","","","","","","","","","","","","","","","","","","","","","","","",""
"","bandit","15","802709","0.0-14.0-0.0","53484526","wem/bandit_either_3","A3DKYNYN50FYFY","either","1","5363","","","","","","","0","0","1","0","0","","","","","0","","","","0","","","","","","","","","","","74","J","0","img/none_selected_demo.jpg","true","0","",""
"","bandit","16","806409","0.0-15.0-0.0","53484526","wem/bandit_either_3","A3DKYNYN50FYFY","either","1","2192","","","","","","","0","0","1","0","0","","","","","0","","","","0","","","","","","","","","","","75","K","0","img/none_selected_demo.jpg","true","0","",""
"","text","17","818764","0.0-16.0","53484526","wem/bandit_either_3","A3DKYNYN50FYFY","either","1","12352","","32","","","","","","","","","","","","","","","","","","","","","","","","","","","","","","","","","","","",""
"","text","18","830237","0.0-17.0","53484526","wem/bandit_either_3","A3DKYNYN50FYFY","either","1","11470","","32","","","","","","","","","","","","","","","","","","","","","","","","","","","","","","","","","","","",""
"","text","19","845184","0.0-18.0","53484526","wem/bandit_either_3","A3DKYNYN50FYFY","either","1","14945","","32","","","","","","","","","","","","","","","","","","","","","","","","","","","","","","","","","","","",""
"","text","20","856169","0.0-19.0","53484526","wem/bandit_either_3","A3DKYNYN50FYFY","either","1","10983","","32","","","","","","","","","","","","","","","","","","","","","","","","","","","","","","","","","","","",""
"","bandit","21","858976","0.0-20.0-0.0","53484526","wem/bandit_either_3","A3DKYNYN50FYFY","either","1","1301","","","","","","","0","0","1","","0.2","0.5","0.5","","","0.8","0.2","","","","","","","","","","","","","","75","K","1","","true","0","80_20_practice",""
"","bandit","22","861328","0.0-20.0-1.0","53484526","wem/bandit_either_3","A3DKYNYN50FYFY","either","1","846","","","","","","","1","0","0","0.8","","0.5","0.5","","","","","","","0.8","0.2","","","","","","","","","","74","J","0","img/none_selected_demo.jpg","true","0","80_20_practice",""
"","bandit","23","863453","0.0-20.0-2.0","53484526","wem/bandit_either_3","A3DKYNYN50FYFY","either","1","618","","","","","","","0","1","0","","0.8","0.5","0.5","","","0.8","0.2","","","","","","","","","","","","","","74","J","0","img/none_selected_demo.jpg","true","0","80_20_practice",""
"","bandit","24","865363","0.0-20.0-3.0","53484526","wem/bandit_either_3","A3DKYNYN50FYFY","either","1","404","","","","","","","0","1","0","","0.8","0.5","0.5","","","0.8","0.2","","","","","","","","","","","","","","74","J","0","img/none_selected_demo.jpg","true","0","80_20_practice",""
"","bandit","25","867340","0.0-20.0-4.0","53484526","wem/bandit_either_3","A3DKYNYN50FYFY","either","1","470","","","","","","","0","1","0","","0.8","0.5","0.5","","","0.8","0.2","","","","","","","","","","","","","","74","J","0","img/none_selected_demo.jpg","true","0","80_20_practice",""
"","bandit","26","869194","0.0-20.0-5.0","53484526","wem/bandit_either_3","A3DKYNYN50FYFY","either","1","345","","","","","","","1","0","0","0.8","","0.5","0.5","","","","","","","0.8","0.2","","","","","","","","","","74","J","0","img/none_selected_demo.jpg","true","0","80_20_practice",""
"","bandit","27","871252","0.0-20.0-6.0","53484526","wem/bandit_either_3","A3DKYNYN50FYFY","either","1","550","","","","","","","0","1","0","","0.8","0.5","0.5","","","0.8","0.2","","","","","","","","","","","","","","74","J","0","img/none_selected_demo.jpg","true","0","80_20_practice",""
"","bandit","28","873182","0.0-20.0-7.0","53484526","wem/bandit_either_3","A3DKYNYN50FYFY","either","1","423","","","","","","","0","1","0","","0.8","0.5","0.5","","","0.8","0.2","","","","","","","","","","","","","","74","J","0","img/none_selected_demo.jpg","true","0","80_20_practice",""
"","bandit","29","875253","0.0-20.0-8.0","53484526","wem/bandit_either_3","A3DKYNYN50FYFY","either","1","564","","","","","","","0","0","1","0.8","","0.5","0.5","","","","","","","0.8","0.2","","","","","","","","","","74","J","0","img/none_selected_demo.jpg","true","0","80_20_practice",""
"","bandit","30","877130","0.0-20.0-9.0","53484526","wem/bandit_either_3","A3DKYNYN50FYFY","either","1","366","","","","","","","1","0","0","0.8","","0.5","0.5","","","","","","","0.8","0.2","","","","","","","","","","74","J","0","img/none_selected_demo.jpg","true","0","80_20_practice",""
"","bandit","31","879076","0.0-20.0-10.0","53484526","wem/bandit_either_3","A3DKYNYN50FYFY","either","1","442","","","","","","","0","1","0","","0.8","0.5","0.5","","","0.8","0.2","","","","","","","","","","","","","","74","J","0","img/none_selected_demo.jpg","true","0","80_20_practice",""
"","bandit","32","880961","0.0-20.0-11.0","53484526","wem/bandit_either_3","A3DKYNYN50FYFY","either","1","377","","","","","","","0","1","0","","0.8","0.5","0.5","","","0.8","0.2","","","","","","","","","","","","","","74","J","0","img/none_selected_demo.jpg","true","0","80_20_practice",""
"","bandit","33","882781","0.0-20.0-12.0","53484526","wem/bandit_either_3","A3DKYNYN50FYFY","either","1","315","","","","","","","1","0","0","0.8","","0.5","0.5","","","","","","","0.8","0.2","","","","","","","","","","74","J","0","img/none_selected_demo.jpg","true","0","80_20_practice",""
"","bandit","34","884716","0.0-20.0-13.0","53484526","wem/bandit_either_3","A3DKYNYN50FYFY","either","1","425","","","","","","","1","0","0","0.8","","0.5","0.5","","","","","","","0.8","0.2","","","","","","","","","","74","J","0","img/none_selected_demo.jpg","true","0","80_20_practice",""
"","bandit","35","886677","0.0-20.0-14.0","53484526","wem/bandit_either_3","A3DKYNYN50FYFY","either","1","455","","","","","","","1","0","0","0.8","","0.5","0.5","","","","","","","0.8","0.2","","","","","","","","","","74","J","0","img/none_selected_demo.jpg","true","0","80_20_practice",""
"","bandit","36","888538","0.0-20.0-15.0","53484526","wem/bandit_either_3","A3DKYNYN50FYFY","either","1","356","","","","","","","0","1","0","","0.8","0.5","0.5","","","0.8","0.2","","","","","","","","","","","","","","74","J","0","img/none_selected_demo.jpg","true","0","80_20_practice",""
"","bandit","37","890365","0.0-20.0-16.0","53484526","wem/bandit_either_3","A3DKYNYN50FYFY","either","1","321","","","","","","","0","0","1","","0.8","0.5","0.5","","","0.8","0.2","","","","","","","","","","","","","","74","J","0","img/none_selected_demo.jpg","true","0","80_20_practice",""
"","bandit","38","892213","0.0-20.0-17.0","53484526","wem/bandit_either_3","A3DKYNYN50FYFY","either","1","340","","","","","","","1","0","0","0.8","","0.5","0.5","","","","","","","0.8","0.2","","","","","","","","","","74","J","0","img/none_selected_demo.jpg","true","0","80_20_practice",""
"","bandit","39","894090","0.0-20.0-18.0","53484526","wem/bandit_either_3","A3DKYNYN50FYFY","either","1","371","","","","","","","1","0","0","0.8","","0.5","0.5","","","","","","","0.8","0.2","","","","","","","","","","74","J","0","img/none_selected_demo.jpg","true","0","80_20_practice",""
"","bandit","40","895895","0.0-20.0-19.0","53484526","wem/bandit_either_3","A3DKYNYN50FYFY","either","1","299","","","","","","","0","0","1","0.8","","0.5","0.5","","","","","","","0.8","0.2","","","","","","","","","","74","J","0","img/none_selected_demo.jpg","true","0","80_20_practice",""
"","text","41","904342","0.0-21.0","53484526","wem/bandit_either_3","A3DKYNYN50FYFY","either","1","8443","","32","","","","","","","","","","","","","","","","","","","","","","","","","","","","","","","","","","","",""
"","bandit","42","906627","0.0-22.0-0.0","53484526","wem/bandit_either_3","A3DKYNYN50FYFY","either","1","778","","","","","","","1","0","0","1","0","","","","","0","1","","","1","0","","","","","","","","","","74","J","0","img/none_selected_demo.jpg","true","0","",""
"","text","43","913858","0.0-23.0","53484526","wem/bandit_either_3","A3DKYNYN50FYFY","either","1","7228","","32","","","","","","","","","","","","","","","","","","","","","","","","","","","","","","","","","","","",""
"","text","44","920091","0.0-24.0","53484526","wem/bandit_either_3","A3DKYNYN50FYFY","either","1","6231","","32","","","","","","","","","","","","","","","","","","","","","","","","","","","","","","","","","","","",""
"","text","45","923440","0.0-25.0","53484526","wem/bandit_either_3","A3DKYNYN50FYFY","either","1","3346","","32","","","","","","","","","","","","","","","","","","","","","","","","","","","","","","","","","","","",""
"","text","46","927960","0.0-26.0","53484526","wem/bandit_either_3","A3DKYNYN50FYFY","either","1","4516","","32","","","","","","","","","","","","","","","","","","","","","","","","","","","","","","","","","","","",""
"","text","47","938391","0.0-27.0","53484526","wem/bandit_either_3","A3DKYNYN50FYFY","either","1","10428","","32","","","","","","","","","","","","","","","","","","","","","","","","","","","","","","","","","","","",""
"","text","48","942870","0.0-28.0","53484526","wem/bandit_either_3","A3DKYNYN50FYFY","either","1","4477","","32","","","","","","","","","","","","","","","","","","","","","","","","","","","","","","","","","","","",""
"","text","49","951276","0.0-29.0","53484526","wem/bandit_either_3","A3DKYNYN50FYFY","either","1","8403","","32","","","","","","","","","","","","","","","","","","","","","","","","","","","","","","","","","","","",""
"","text","50","956273","0.0-30.0","53484526","wem/bandit_either_3","A3DKYNYN50FYFY","either","1","4994","","32","","","","","","","","","","","","","","","","","","","","","","","","","","","","","","","","","","","",""
"","text","51","966094","0.0-31.0","53484526","wem/bandit_either_3","A3DKYNYN50FYFY","either","1","9818","","32","","","","","","","","","","","","","","","","","","","","","","","","","","","","","","","","","","","",""
"","text","52","967484","0.0-32.0","53484526","wem/bandit_either_3","A3DKYNYN50FYFY","either","1","1387","","32","","","","","","","","","","","","","","","","","","","","","","","","","","","","","","","","","","","",""
"","text","53","970667","0.0-33.0","53484526","wem/bandit_either_3","A3DKYNYN50FYFY","either","1","3179","","32","","","","","","","","","","","","","","","","","","","","","","","","","","","","","","","","","","","",""
"","bandit","54","974982","0.0-34.0-0.0","53484526","wem/bandit_either_3","A3DKYNYN50FYFY","either","1","2808","","","","","","","0","0","1","","0.2","0.5","0.5","0.5","0.5","0.8","0.2","0.6","0.2","","","","","","","","","","","","76","L","3","","true","0","full_practice",""
"","bandit","55","977166","0.0-34.0-1.0","53484526","wem/bandit_either_3","A3DKYNYN50FYFY","either","1","677","","","","","","","1","0","0","0.6","","0.5","0.5","0.5","0.5","","","","","0.8","0.2","0.6","0.2","","","","","","","","75","K","2","","true","0","full_practice",""
"","bandit","56","979055","0.0-34.0-2.0","53484526","wem/bandit_either_3","A3DKYNYN50FYFY","either","1","381","","","","","","","1","0","0","0.6","","0.5","0.5","0.5","0.5","","","","","0.8","0.2","0.6","0.2","","","","","","","","75","K","2","","true","0","full_practice",""
"","bandit","57","980883","0.0-34.0-3.0","53484526","wem/bandit_either_3","A3DKYNYN50FYFY","either","1","321","","","","","","","0","1","0","","0.6","0.5","0.5","0.5","0.5","0.8","0.2","0.6","0.2","","","","","","","","","","","","75","K","2","","true","0","full_practice",""
"","bandit","58","982883","0.0-34.0-4.0","53484526","wem/bandit_either_3","A3DKYNYN50FYFY","either","1","491","","","","","","","0","0","1","0.6","","0.5","0.5","0.5","0.5","","","","","0.8","0.2","0.6","0.2","","","","","","","","75","K","2","","true","0","full_practice",""
"","bandit","59","984789","0.0-34.0-5.0","53484526","wem/bandit_either_3","A3DKYNYN50FYFY","either","1","398","","","","","","","0","0","1","0.2","","0.5","0.5","0.5","0.5","","","","","0.8","0.2","0.6","0.2","","","","","","","","74","J","1","","true","0","full_practice",""
"","bandit","60","986669","0.0-34.0-6.0","53484526","wem/bandit_either_3","A3DKYNYN50FYFY","either","1","370","","","","","","","1","0","0","0.8","","0.5","0.5","0.5","0.5","","","","","0.8","0.2","0.6","0.2","","","","","","","","72","H","0","img/none_selected.jpg","true","0","full_practice",""
"","bandit","61","988557","0.0-34.0-7.0","53484526","wem/bandit_either_3","A3DKYNYN50FYFY","either","1","380","","","","","","","0","1","0","","0.8","0.5","0.5","0.5","0.5","0.8","0.2","0.6","0.2","","","","","","","","","","","","72","H","0","img/none_selected.jpg","true","0","full_practice",""
"","bandit","62","990635","0.0-34.0-8.0","53484526","wem/bandit_either_3","A3DKYNYN50FYFY","either","1","569","","","","","","","1","0","0","0.8","","0.5","0.5","0.5","0.5","","","","","0.8","0.2","0.6","0.2","","","","","","","","72","H","0","img/none_selected.jpg","true","0","full_practice",""
"","bandit","63","992692","0.0-34.0-9.0","53484526","wem/bandit_either_3","A3DKYNYN50FYFY","either","1","547","","","","","","","0","1","0","","0.8","0.5","0.5","0.5","0.5","0.8","0.2","0.6","0.2","","","","","","","","","","","","72","H","0","img/none_selected.jpg","true","0","full_practice",""
"","bandit","64","994601","0.0-34.0-10.0","53484526","wem/bandit_either_3","A3DKYNYN50FYFY","either","1","402","","","","","","","1","0","0","0.8","","0.5","0.5","0.5","0.5","","","","","0.8","0.2","0.6","0.2","","","","","","","","72","H","0","img/none_selected.jpg","true","0","full_practice",""
"","bandit","65","996463","0.0-34.0-11.0","53484526","wem/bandit_either_3","A3DKYNYN50FYFY","either","1","353","","","","","","","1","0","0","0.8","","0.5","0.5","0.5","0.5","","","","","0.8","0.2","0.6","0.2","","","","","","","","72","H","0","img/none_selected.jpg","true","0","full_practice",""
"","bandit","66","998359","0.0-34.0-12.0","53484526","wem/bandit_either_3","A3DKYNYN50FYFY","either","1","386","","","","","","","0","1","0","","0.8","0.5","0.5","0.5","0.5","0.8","0.2","0.6","0.2","","","","","","","","","","","","72","H","0","img/none_selected.jpg","true","0","full_practice",""
"","bandit","67","1000223","0.0-34.0-13.0","53484526","wem/bandit_either_3","A3DKYNYN50FYFY","either","1","353","","","","","","","1","0","0","0.8","","0.5","0.5","0.5","0.5","","","","","0.8","0.2","0.6","0.2","","","","","","","","72","H","0","img/none_selected.jpg","true","0","full_practice",""
"","bandit","68","1002065","0.0-34.0-14.0","53484526","wem/bandit_either_3","A3DKYNYN50FYFY","either","1","335","","","","","","","0","1","0","","0.8","0.5","0.5","0.5","0.5","0.8","0.2","0.6","0.2","","","","","","","","","","","","72","H","0","img/none_selected.jpg","true","0","full_practice",""
"","bandit","69","1004112","0.0-34.0-15.0","53484526","wem/bandit_either_3","A3DKYNYN50FYFY","either","1","539","","","","","","","0","1","0","","0.8","0.5","0.5","0.5","0.5","0.8","0.2","0.6","0.2","","","","","","","","","","","","72","H","0","img/none_selected.jpg","true","0","full_practice",""
"","bandit","70","1006000","0.0-34.0-16.0","53484526","wem/bandit_either_3","A3DKYNYN50FYFY","either","1","378","","","","","","","0","1","0","","0.8","0.5","0.5","0.5","0.5","0.8","0.2","0.6","0.2","","","","","","","","","","","","72","H","0","img/none_selected.jpg","true","0","full_practice",""
"","bandit","71","1007869","0.0-34.0-17.0","53484526","wem/bandit_either_3","A3DKYNYN50FYFY","either","1","358","","","","","","","0","1","0","","0.8","0.5","0.5","0.5","0.5","0.8","0.2","0.6","0.2","","","","","","","","","","","","72","H","0","img/none_selected.jpg","true","0","full_practice",""
"","bandit","72","1009688","0.0-34.0-18.0","53484526","wem/bandit_either_3","A3DKYNYN50FYFY","either","1","311","","","","","","","0","1","0","","0.8","0.5","0.5","0.5","0.5","0.8","0.2","0.6","0.2","","","","","","","","","","","","72","H","0","img/none_selected.jpg","true","0","full_practice",""
"","bandit","73","1011533","0.0-34.0-19.0","53484526","wem/bandit_either_3","A3DKYNYN50FYFY","either","1","336","","","","","","","1","0","0","0.8","","0.5","0.5","0.5","0.5","","","","","0.8","0.2","0.6","0.2","","","","","","","","72","H","0","img/none_selected.jpg","true","0","full_practice",""
"","text","74","1016723","0.0-35.0","53484526","wem/bandit_either_3","A3DKYNYN50FYFY","either","1","5181","","32","","","","","","","","","","","","","","","","","","","","","","","","","","","","","","","","","","","",""
"","text","75","1044630","0.0-36.0","53484526","wem/bandit_either_3","A3DKYNYN50FYFY","either","1","26903","","32","","","","","","","","","","","","","","","","","","","","","","","","","","","","","","","","","","","",""
"","text","76","1058620","0.0-37.0","53484526","wem/bandit_either_3","A3DKYNYN50FYFY","either","1","13986","","32","","","","","","","","","","","","","","","","","","","","","","","","","","","","","","","","","","","",""
"","text","77","1064481","0.0-38.0","53484526","wem/bandit_either_3","A3DKYNYN50FYFY","either","1","5858","","32","","","","","","","","","","","","","","","","","","","","","","","","","","","","","","","","","","","",""
"","text","78","1070945","0.0-39.0","53484526","wem/bandit_either_3","A3DKYNYN50FYFY","either","1","6461","","32","","","","","","","","","","","","","","","","","","","","","","","","","","","","","","","","","","","",""
"","text","79","1079481","0.0-40.0","53484526","wem/bandit_either_3","A3DKYNYN50FYFY","either","1","8533","","32","","","","","","","","","","","","","","","","","","","","","","","","","","","","","","","","","","","",""
"","bandit","80","1082342","0.0-41.0-0.0","53484526","wem/bandit_either_3","A3DKYNYN50FYFY","either","1","1354","","","","","","","0","1","0","","0.7674833066","0.4","0.8","0.6","0.2","0.7674833066","0.5202783506","0.4995060561","0.8101107889","","","","","","","","","","","","72","H","0","img/none_selected.jpg","","1","main_expt",""
"","bandit","81","1084475","0.0-42.0-0.0","53484526","wem/bandit_either_3","A3DKYNYN50FYFY","either","1","625","","","","","","","0","1","0","","0.7786696111","0.4","0.8","0.6","0.2","0.7786696111","0.4559554218","0.4452888422","0.8827976921","","","","","","","","","","","","72","H","0","img/none_selected.jpg","","2","main_expt",""
"","bandit","82","1086556","0.0-43.0-0.0","53484526","wem/bandit_either_3","A3DKYNYN50FYFY","either","1","573","","","","","","","0","1","0","","0.7883912796","0.4","0.8","0.6","0.2","0.7883912796","0.3791335739","0.4956599627","0.918633781","","","","","","","","","","","","72","H","0","img/none_selected.jpg","","3","main_expt",""
"","bandit","83","1088843","0.0-44.0-0.0","53484526","wem/bandit_either_3","A3DKYNYN50FYFY","either","1","778","","","","","","","1","0","0","0.8311681014","","0.4","0.8","0.6","0.2","","","","","0.8311681014","0.362446662","0.3939226057","0.8961075186","","","","","","","","72","H","0","img/none_selected.jpg","","4","main_expt",""
"","bandit","84","1090892","0.0-45.0-0.0","53484526","wem/bandit_either_3","A3DKYNYN50FYFY","either","1","539","","","","","","","1","0","0","0.706748425","","0.4","0.8","0.6","0.2","","","","","0.706748425","0.4337427147","0.4737796053","0.9065038385","","","","","","","","72","H","0","img/none_selected.jpg","","5","main_expt",""
"","bandit","85","1092988","0.0-46.0-0.0","53484526","wem/bandit_either_3","A3DKYNYN50FYFY","either","1","587","","","","","","","0","1","0","","0.7246132019","0.4","0.8","0.6","0.2","0.7246132019","0.4260566605","0.5798080576","0.9628954729","","","","","","","","","","","","72","H","0","img/none_selected.jpg","","6","main_expt",""
"","bandit","86","1094990","0.0-47.0-0.0","53484526","wem/bandit_either_3","A3DKYNYN50FYFY","either","1","494","","","","","","","0","1","0","","0.822103072","0.4","0.8","0.6","0.2","0.822103072","0.5595739282","0.6184433593","0.9244273404","","","","","","","","","","","","72","H","0","img/none_selected.jpg","","7","main_expt",""
"","bandit","87","1097008","0.0-48.0-0.0","53484526","wem/bandit_either_3","A3DKYNYN50FYFY","either","1","510","","","","","","","0","0","1","0.8176183596","","0.4","0.8","0.6","0.2","","","","","0.8176183596","0.5757792393","0.5380809204","0.9214665689","","","","","","","","72","H","0","img/none_selected.jpg","","8","main_expt",""
"","bandit","88","1098866","0.0-49.0-0.0","53484526","wem/bandit_either_3","A3DKYNYN50FYFY","either","1","348","","","","","","","0","1","0","","0.7421782695","0.4","0.8","0.6","0.2","0.7421782695","0.5508288143","0.4884558296","0.9604963414","","","","","","","","","","","","72","H","0","img/none_selected.jpg","","9","main_expt",""
"","bandit","89","1100860","0.0-50.0-0.0","53484526","wem/bandit_either_3","A3DKYNYN50FYFY","either","1","485","","","","","","","0","1","0","","0.7112185725","0.4","0.8","0.6","0.2","0.7112185725","0.4615344473","0.6062827564","0.973544224","","","","","","","","","","","","72","H","0","img/none_selected.jpg","","10","main_expt",""
"","bandit","90","1102815","0.0-51.0-0.0","53484526","wem/bandit_either_3","A3DKYNYN50FYFY","either","1","446","","","","","","","0","1","0","","0.6656122322","0.4","0.8","0.6","0.2","0.6656122322","0.4731032433","0.6618996933","0.9756729976","","","","","","","","","","","","72","H","0","img/none_selected.jpg","","11","main_expt",""
"","bandit","91","1104992","0.0-52.0-0.0","53484526","wem/bandit_either_3","A3DKYNYN50FYFY","either","1","669","","","","","","","1","0","0","0.632951522","","0.4","0.8","0.6","0.2","","","","","0.632951522","0.5028989732","0.6589688621","0.9824084628","","","","","","","","72","H","0","img/none_selected.jpg","","12","main_expt",""
"","bandit","92","1107050","0.0-53.0-0.0","53484526","wem/bandit_either_3","A3DKYNYN50FYFY","either","1","550","","","","","","","0","1","0","","0.6428643634","0.4","0.8","0.6","0.2","0.6428643634","0.5252386458","0.7483501345","0.9852841122","","","","","","","","","","","","72","H","0","img/none_selected.jpg","","13","main_expt",""
"","bandit","93","1109002","0.0-54.0-0.0","53484526","wem/bandit_either_3","A3DKYNYN50FYFY","either","1","444","","","","","","","0","0","1","0.5693663763","","0.4","0.8","0.6","0.2","","","","","0.5693663763","0.4883642101","0.7642220585","0.9844185579","","","","","","","","72","H","0","img/none_selected.jpg","","14","main_expt",""
"","bandit","94","1110900","0.0-55.0-0.0","53484526","wem/bandit_either_3","A3DKYNYN50FYFY","either","1","388","","","","","","","0","0","1","","0.6354763258","0.4","0.8","0.6","0.2","0.6354763258","0.5125695872","0.8255663415","0.9716790186","","","","","","","","","","","","72","H","0","img/none_selected.jpg","","15","main_expt",""
"","bandit","95","1112738","0.0-56.0-0.0","53484526","wem/bandit_either_3","A3DKYNYN50FYFY","either","1","330","","","","","","","0","1","0","","0.6074668868","0.4","0.8","0.6","0.2","0.6074668868","0.483313844","0.8262734196","0.9724226268","","","","","","","","","","","","72","H","0","img/none_selected.jpg","","16","main_expt",""
"","bandit","96","1114739","0.0-57.0-0.0","53484526","wem/bandit_either_3","A3DKYNYN50FYFY","either","1","493","","","","","","","0","0","1","0.634379517","","0.4","0.8","0.6","0.2","","","","","0.634379517","0.4764119597","0.8957105494","0.969397438","","","","","","","","72","H","0","img/none_selected.jpg","","17","main_expt",""
"","bandit","97","1116660","0.0-58.0-0.0","53484526","wem/bandit_either_3","A3DKYNYN50FYFY","either","1","413","","","","","","","0","0","1","0.4742144938","","0.4","0.8","0.6","0.2","","","","","0.7399013172","0.4742144938","0.8243017832","0.9487821198","","","","","","","","74","J","1","","","18","main_expt",""
"","bandit","98","1118567","0.0-59.0-0.0","53484526","wem/bandit_either_3","A3DKYNYN50FYFY","either","1","397","","","","","","","0","1","0","","0.8174393347","0.4","0.8","0.6","0.2","0.6892422428","0.5445729057","0.8174393347","0.8822386923","","","","","","","","","","","","75","K","2","","","19","main_expt",""
"","bandit","99","1120442","0.0-60.0-0.0","53484526","wem/bandit_either_3","A3DKYNYN50FYFY","either","1","362","","","","","","","1","0","0","0.8457625901","","0.4","0.8","0.6","0.2","","","","","0.5544472153","0.5114357523","0.8457625901","0.8658452863","","","","","","","","75","K","2","","","20","main_expt",""
"","bandit","100","1122375","0.0-61.0-0.0","53484526","wem/bandit_either_3","A3DKYNYN50FYFY","either","1","422","","","","","","","1","0","0","0.8565453533","","0.4","0.8","0.6","0.2","","","","","0.4705077418","0.4948626968","0.8565453533","0.8597265301","","","","","","","","75","K","2","","","21","main_expt",""
"","bandit","101","1124459","0.0-62.0-0.0","53484526","wem/bandit_either_3","A3DKYNYN50FYFY","either","1","575","","","","","","","1","0","0","0.8821281293","","0.4","0.8","0.6","0.2","","","","","0.5364913494","0.3750889156","0.8821281293","0.929530396","","","","","","","","75","K","2","","","22","main_expt",""
"","bandit","102","1126362","0.0-63.0-0.0","53484526","wem/bandit_either_3","A3DKYNYN50FYFY","either","1","394","","","","","","","0","0","1","0.8253896901","","0.4","0.8","0.6","0.2","","","","","0.5450887529","0.3874093852","0.8253896901","0.9149061772","","","","","","","","75","K","2","","","23","main_expt",""
"","bandit","103","1128254","0.0-64.0-0.0","53484526","wem/bandit_either_3","A3DKYNYN50FYFY","either","1","382","","","","","","","1","0","0","0.8682133559","","0.4","0.8","0.6","0.2","","","","","0.6013055931","0.4126546177","0.8682133559","0.9389899916","","","","","","","","75","K","2","","","24","main_expt",""
"","bandit","104","1130049","0.0-65.0-0.0","53484526","wem/bandit_either_3","A3DKYNYN50FYFY","either","1","286","","","","","","","1","0","0","0.8186134727","","0.4","0.8","0.6","0.2","","","","","0.7116226269","0.3871809826","0.8186134727","0.9583062328","","","","","","","","75","K","2","","","25","main_expt",""
"","bandit","105","1131955","0.0-66.0-0.0","53484526","wem/bandit_either_3","A3DKYNYN50FYFY","either","1","397","","","","","","","0","1","0","","0.841170918","0.4","0.8","0.6","0.2","0.7284905038","0.4162773602","0.841170918","0.9349434311","","","","","","","","","","","","75","K","2","","","26","main_expt",""
"","bandit","106","1133838","0.0-67.0-0.0","53484526","wem/bandit_either_3","A3DKYNYN50FYFY","either","1","374","","","","","","","1","0","0","0.8332298301","","0.4","0.8","0.6","0.2","","","","","0.7007901837","0.4153433109","0.8332298301","0.9147743466","","","","","","","","75","K","2","","","27","main_expt",""
"","bandit","107","1135736","0.0-68.0-0.0","53484526","wem/bandit_either_3","A3DKYNYN50FYFY","either","1","387","","","","","","","1","0","0","0.8340804883","","0.4","0.8","0.6","0.2","","","","","0.7197690037","0.3083156359","0.8340804883","0.8913744663","","","","","","","","75","K","2","","","28","main_expt",""
"","bandit","108","1137544","0.0-69.0-0.0","53484526","wem/bandit_either_3","A3DKYNYN50FYFY","either","1","300","","","","","","","1","0","0","0.8800986549","","0.4","0.8","0.6","0.2","","","","","0.7569205749","0.4048150761","0.8800986549","0.9004815278","","","","","","","","75","K","2","","","29","main_expt",""
"","bandit","109","1139391","0.0-70.0-0.0","53484526","wem/bandit_either_3","A3DKYNYN50FYFY","either","1","337","","","","","","","1","0","0","0.800988266","","0.4","0.8","0.6","0.2","","","","","0.7007062976","0.5604470694","0.800988266","0.8335499875","","","","","","","","75","K","2","","","30","main_expt",""
"","bandit","110","1141227","0.0-71.0-0.0","53484526","wem/bandit_either_3","A3DKYNYN50FYFY","either","1","326","","","","","","","0","1","0","","0.8092707987","0.4","0.8","0.6","0.2","0.6218809145","0.5114456598","0.8092707987","0.7904098286","","","","","","","","","","","","75","K","2","","","31","main_expt",""
"","bandit","111","1143181","0.0-72.0-0.0","53484526","wem/bandit_either_3","A3DKYNYN50FYFY","either","1","445","","","","","","","0","1","0","","0.7600689364","0.4","0.8","0.6","0.2","0.5448888872","0.5195843055","0.7600689364","0.8156470634","","","","","","","","","","","","75","K","2","","","32","main_expt",""
"","bandit","112","1145032","0.0-73.0-0.0","53484526","wem/bandit_either_3","A3DKYNYN50FYFY","either","1","341","","","","","","","0","0","1","","0.7268405739","0.4","0.8","0.6","0.2","0.4396040002","0.4278216128","0.7268405739","0.7458483223","","","","","","","","","","","","75","K","2","","","33","main_expt",""
"","bandit","113","1146962","0.0-74.0-0.0","53484526","wem/bandit_either_3","A3DKYNYN50FYFY","either","1","422","","","","","","","1","0","0","0.7867385379","","0.4","0.8","0.6","0.2","","","","","0.3418027302","0.4581725564","0.7867385379","0.8745519215","","","","","","","","75","K","2","","","34","main_expt",""
"","bandit","114","1148838","0.0-75.0-0.0","53484526","wem/bandit_either_3","A3DKYNYN50FYFY","either","1","364","","","","","","","0","1","0","","0.7776722478","0.4","0.8","0.6","0.2","0.3770378826","0.5170179058","0.7776722478","0.8761773117","","","","","","","","","","","","75","K","2","","","35","main_expt",""
"","bandit","115","1150735","0.0-76.0-0.0","53484526","wem/bandit_either_3","A3DKYNYN50FYFY","either","1","390","","","","","","","1","0","0","0.8110731924","","0.4","0.8","0.6","0.2","","","","","0.3264650107","0.5761285305","0.8110731924","0.8898579413","","","","","","","","75","K","2","","","36","main_expt",""
"","bandit","116","1152726","0.0-77.0-0.0","53484526","wem/bandit_either_3","A3DKYNYN50FYFY","either","1","481","","","","","","","1","0","0","0.8371501114","","0.4","0.8","0.6","0.2","","","","","0.1696248696","0.5824592389","0.8371501114","0.9189960073","","","","","","","","75","K","2","","","37","main_expt",""
"","bandit","117","1154555","0.0-78.0-0.0","53484526","wem/bandit_either_3","A3DKYNYN50FYFY","either","1","320","","","","","","","1","0","0","0.801984358","","0.4","0.8","0.6","0.2","","","","","0.3008725236","0.5039158184","0.801984358","0.9429067042","","","","","","","","75","K","2","","","38","main_expt",""
"","bandit","118","1156450","0.0-79.0-0.0","53484526","wem/bandit_either_3","A3DKYNYN50FYFY","either","1","383","","","","","","","0","1","0","","0.836760671","0.4","0.8","0.6","0.2","0.3612597963","0.4906961915","0.836760671","0.8860185862","","","","","","","","","","","","75","K","2","","","39","main_expt",""
"","bandit","119","1158326","0.0-80.0-0.0","53484526","wem/bandit_either_3","A3DKYNYN50FYFY","either","1","364","","","","","","","1","0","0","0.7930168878","","0.4","0.8","0.6","0.2","","","","","0.3316001813","0.5118773476","0.7930168878","0.8958725565","","","","","","","","75","K","2","","","40","main_expt",""
"","bandit","120","1160201","0.0-81.0-0.0","53484526","wem/bandit_either_3","A3DKYNYN50FYFY","either","1","364","","","","","","","0","0","1","","0.6758505439","0.4","0.8","0.6","0.2","0.251761063","0.5207000815","0.6758505439","0.8369757826","","","","","","","","","","","","75","K","2","","","41","main_expt",""
"","bandit","121","1162103","0.0-82.0-0.0","53484526","wem/bandit_either_3","A3DKYNYN50FYFY","either","1","393","","","","","","","0","0","1","0.669091732","","0.4","0.8","0.6","0.2","","","","","0.3764367217","0.6208632684","0.669091732","0.8724413244","","","","","","","","75","K","2","","","42","main_expt",""
"","bandit","122","1163925","0.0-83.0-0.0","53484526","wem/bandit_either_3","A3DKYNYN50FYFY","either","1","313","","","","","","","0","1","0","","0.8721156492","0.4","0.8","0.6","0.2","0.4280411123","0.6736877605","0.5774386383","0.8721156492","","","","","","","","","","","","76","L","3","","","43","main_expt",""
"","bandit","123","1165747","0.0-84.0-0.0","53484526","wem/bandit_either_3","A3DKYNYN50FYFY","either","1","315","","","","","","","0","1","0","","0.874486911","0.4","0.8","0.6","0.2","0.4250007774","0.6770598463","0.5402750746","0.874486911","","","","","","","","","","","","76","L","3","","","44","main_expt",""
"","bandit","124","1167601","0.0-85.0-0.0","53484526","wem/bandit_either_3","A3DKYNYN50FYFY","either","1","342","","","","","","","0","1","0","","0.7653026016","0.4","0.8","0.6","0.2","0.3964774122","0.6811336834","0.4769525635","0.7653026016","","","","","","","","","","","","76","L","3","","","45","main_expt",""
"","bandit","125","1169334","0.0-86.0-0.0","53484526","wem/bandit_either_3","A3DKYNYN50FYFY","either","1","224","","","","","","","1","0","0","0.6884850605","","0.4","0.8","0.6","0.2","","","","","0.3755541509","0.7409040253","0.460739512","0.6884850605","","","","","","","","76","L","3","","","46","main_expt",""
"","bandit","126","1171127","0.0-87.0-0.0","53484526","wem/bandit_either_3","A3DKYNYN50FYFY","either","1","283","","","","","","","0","0","1","","0.6869729855","0.4","0.8","0.6","0.2","0.3698766084","0.8602274841","0.3953603582","0.6869729855","","","","","","","","","","","","76","L","3","","","47","main_expt",""
"","bandit","127","1172948","0.0-88.0-0.0","53484526","wem/bandit_either_3","A3DKYNYN50FYFY","either","1","311","","","","","","","0","0","1","","0.624749708","0.4","0.8","0.6","0.2","0.2924141828","0.8947369126","0.5194217752","0.624749708","","","","","","","","","","","","76","L","3","","","48","main_expt",""
"","bandit","128","1174835","0.0-89.0-0.0","53484526","wem/bandit_either_3","A3DKYNYN50FYFY","either","1","377","","","","","","","1","0","0","0.5015721984","","0.4","0.8","0.6","0.2","","","","","0.2506794134","0.9071052574","0.5015721984","0.6269608649","","","","","","","","75","K","2","","","49","main_expt",""
"","bandit","129","1176669","0.0-90.0-0.0","53484526","wem/bandit_either_3","A3DKYNYN50FYFY","either","1","323","","","","","","","0","1","0","","0.4427204185","0.4","0.8","0.6","0.2","0.2200095001","0.8569531155","0.4427204185","0.5394470416","","","","","","","","","","","","75","K","2","","","50","main_expt",""
"","bandit","130","1178583","0.0-91.0-0.0","53484526","wem/bandit_either_3","A3DKYNYN50FYFY","either","1","404","","","","","","","0","0","1","","0.5194544998","0.4","0.8","0.6","0.2","0.2703780474","0.8728609703","0.5194544998","0.4991806479","","","","","","","","","","","","75","K","2","","","51","main_expt",""
"","bandit","131","1180587","0.0-92.0-0.0","53484526","wem/bandit_either_3","A3DKYNYN50FYFY","either","1","493","","","","","","","1","0","0","0.3215640211","","0.4","0.8","0.6","0.2","","","","","0.3215640211","0.902184381","0.4420680866","0.5431464126","","","","","","","","72","H","0","img/none_selected.jpg","","52","main_expt",""
"","bandit","132","1182460","0.0-93.0-0.0","53484526","wem/bandit_either_3","A3DKYNYN50FYFY","either","1","363","","","","","","","0","0","1","","0.2918797996","0.4","0.8","0.6","0.2","0.2918797996","0.8975054296","0.5541791803","0.4799783957","","","","","","","","","","","","72","H","0","img/none_selected.jpg","","53","main_expt",""
"","bandit","133","1184289","0.0-94.0-0.0","53484526","wem/bandit_either_3","A3DKYNYN50FYFY","either","1","321","","","","","","","1","0","0","0.9436546011","","0.4","0.8","0.6","0.2","","","","","0.2432815539","0.9436546011","0.6187664305","0.3946877269","","","","","","","","74","J","1","","","54","main_expt",""
"","bandit","134","1186090","0.0-95.0-0.0","53484526","wem/bandit_either_3","A3DKYNYN50FYFY","either","1","290","","","","","","","1","0","0","0.9411334538","","0.4","0.8","0.6","0.2","","","","","0.1993500609","0.9411334538","0.538030076","0.3892466866","","","","","","","","74","J","1","","","55","main_expt",""
"","bandit","135","1187987","0.0-96.0-0.0","53484526","wem/bandit_either_3","A3DKYNYN50FYFY","either","1","386","","","","","","","0","1","0","","0.862285227","0.4","0.8","0.6","0.2","0.1832364248","0.862285227","0.5137881872","0.347268188","","","","","","","","","","","","74","J","1","","","56","main_expt",""
"","bandit","136","1189828","0.0-97.0-0.0","53484526","wem/bandit_either_3","A3DKYNYN50FYFY","either","1","331","","","","","","","1","0","0","0.9034803314","","0.4","0.8","0.6","0.2","","","","","0.1703919496","0.9034803314","0.6274604021","0.3462231845","","","","","","","","74","J","1","","","57","main_expt",""
"","bandit","137","1191647","0.0-98.0-0.0","53484526","wem/bandit_either_3","A3DKYNYN50FYFY","either","1","308","","","","","","","1","0","0","0.9062052911","","0.4","0.8","0.6","0.2","","","","","0.2146973212","0.9062052911","0.5636132077","0.3707442777","","","","","","","","74","J","1","","","58","main_expt",""
"","bandit","138","1193543","0.0-99.0-0.0","53484526","wem/bandit_either_3","A3DKYNYN50FYFY","either","1","382","","","","","","","1","0","0","0.9169546289","","0.4","0.8","0.6","0.2","","","","","0.2118107272","0.9169546289","0.6555757088","0.4530366532","","","","","","","","74","J","1","","","59","main_expt",""
"","bandit","139","1195354","0.0-100.0-0.0","53484526","wem/bandit_either_3","A3DKYNYN50FYFY","either","1","300","","","","","","","1","0","0","0.9048679239","","0.4","0.8","0.6","0.2","","","","","0.2096036334","0.9048679239","0.6555481193","0.4335409142","","","","","","","","74","J","1","","","60","main_expt",""
"","bandit","140","1197519","0.0-101.0-0.0","53484526","wem/bandit_either_3","A3DKYNYN50FYFY","either","1","656","","","","","","","1","0","0","0.9346572725","","0.4","0.8","0.6","0.2","","","","","0.1985607356","0.9346572725","0.6988977931","0.3601573371","","","","","","","","74","J","1","","","61","main_expt",""
"","bandit","141","1199801","0.0-102.0-0.0","53484526","wem/bandit_either_3","A3DKYNYN50FYFY","either","1","770","","","","","","","0","1","0","","0.9332729597","0.4","0.8","0.6","0.2","0.2352246004","0.9332729597","0.6124712875","0.3187004912","","","","","","","","","","","","74","J","1","","","62","main_expt",""
"","bandit","142","1201922","0.0-103.0-0.0","53484526","wem/bandit_either_3","A3DKYNYN50FYFY","either","1","612","","","","","","","1","0","0","0.9300142507","","0.4","0.8","0.6","0.2","","","","","0.1989126294","0.9300142507","0.4881994696","0.331276396","","","","","","","","74","J","1","","","63","main_expt",""
"","bandit","143","1204051","0.0-104.0-0.0","53484526","wem/bandit_either_3","A3DKYNYN50FYFY","either","1","617","","","","","","","0","1","0","","0.8992917639","0.4","0.8","0.6","0.2","0.2231035509","0.8992917639","0.5007509184","0.3984677","","","","","","","","","","","","74","J","1","","","64","main_expt",""
"","bandit","144","1206275","0.0-105.0-0.0","53484526","wem/bandit_either_3","A3DKYNYN50FYFY","either","1","713","","","","","","","1","0","0","0.7939475476","","0.4","0.8","0.6","0.2","","","","","0.174077904","0.7939475476","0.6077525222","0.3012021372","","","","","","","","74","J","1","","","65","main_expt",""
"","bandit","145","1208329","0.0-106.0-0.0","53484526","wem/bandit_either_3","A3DKYNYN50FYFY","either","1","543","","","","","","","1","0","0","0.7848839068","","0.4","0.8","0.6","0.2","","","","","0.1505104035","0.7848839068","0.4876759876","0.2848395029","","","","","","","","74","J","1","","","66","main_expt",""
"","bandit","146","1210449","0.0-107.0-0.0","53484526","wem/bandit_either_3","A3DKYNYN50FYFY","either","1","609","","","","","","","0","1","0","","0.7712869283","0.4","0.8","0.6","0.2","0.1706094741","0.7712869283","0.4705728971","0.2908363747","","","","","","","","","","","","74","J","1","","","67","main_expt",""
"","bandit","147","1212615","0.0-108.0-0.0","53484526","wem/bandit_either_3","A3DKYNYN50FYFY","either","1","657","","","","","","","1","0","0","0.7426915226","","0.4","0.8","0.6","0.2","","","","","0.193375558","0.7426915226","0.5822594153","0.3226378352","","","","","","","","74","J","1","","","68","main_expt",""
"","bandit","148","1214797","0.0-109.0-0.0","53484526","wem/bandit_either_3","A3DKYNYN50FYFY","either","1","674","","","","","","","0","0","1","","0.592712881","0.4","0.8","0.6","0.2","0.226811003","0.592712881","0.6189715015","0.4490581071","","","","","","","","","","","","74","J","1","","","69","main_expt",""
"","bandit","149","1216683","0.0-110.0-0.0","53484526","wem/bandit_either_3","A3DKYNYN50FYFY","either","1","373","","","","","","","1","0","0","0.6587085967","","0.4","0.8","0.6","0.2","","","","","0.191142909","0.6587085967","0.5307799745","0.42365523","","","","","","","","74","J","1","","","70","main_expt",""
"","bandit","150","1218795","0.0-111.0-0.0","53484526","wem/bandit_either_3","A3DKYNYN50FYFY","either","1","603","","","","","","","1","0","0","0.7562029562","","0.4","0.8","0.6","0.2","","","","","0.2371486809","0.7562029562","0.5205551237","0.427101634","","","","","","","","74","J","1","","","71","main_expt",""
"","bandit","151","1220852","0.0-112.0-0.0","53484526","wem/bandit_either_3","A3DKYNYN50FYFY","either","1","547","","","","","","","1","0","0","0.670676276","","0.4","0.8","0.6","0.2","","","","","0.2602117984","0.670676276","0.5913901284","0.5387899421","","","","","","","","74","J","1","","","72","main_expt",""
"","bandit","152","1222947","0.0-113.0-0.0","53484526","wem/bandit_either_3","A3DKYNYN50FYFY","either","1","584","","","","","","","1","0","0","0.6870219419","","0.4","0.8","0.6","0.2","","","","","0.1837165363","0.6870219419","0.7127465592","0.4931252492","","","","","","","","74","J","1","","","73","main_expt",""
"","bandit","153","1226411","0.0-114.0-0.0","53484526","wem/bandit_either_3","A3DKYNYN50FYFY","either","1","1949","","","","","","","1","0","0","0.582898469","","0.4","0.8","0.6","0.2","","","","","0.2032334464","0.582898469","0.7804212289","0.3888626504","","","","","","","","74","J","1","","","74","main_expt",""
"","bandit","154","1228382","0.0-115.0-0.0","53484526","wem/bandit_either_3","A3DKYNYN50FYFY","either","1","457","","","","","","","0","0","1","0.6452442043","","0.4","0.8","0.6","0.2","","","","","0.2782751631","0.6452442043","0.7966502287","0.3866429177","","","","","","","","74","J","1","","","75","main_expt",""
"","bandit","155","1230332","0.0-116.0-0.0","53484526","wem/bandit_either_3","A3DKYNYN50FYFY","either","1","441","","","","","","","0","1","0","","0.7031137023","0.4","0.8","0.6","0.2","0.3318782676","0.7031137023","0.7775959854","0.3948468247","","","","","","","","","","","","74","J","1","","","76","main_expt",""
"","bandit","156","1232403","0.0-117.0-0.0","53484526","wem/bandit_either_3","A3DKYNYN50FYFY","either","1","561","","","","","","","0","0","1","0.6096498107","","0.4","0.8","0.6","0.2","","","","","0.312607664","0.6096498107","0.8523583745","0.4853082722","","","","","","","","74","J","1","","","77","main_expt",""
"","bandit","157","1234241","0.0-118.0-0.0","53484526","wem/bandit_either_3","A3DKYNYN50FYFY","either","1","327","","","","","","","0","0","1","0.3250695504","","0.4","0.8","0.6","0.2","","","","","0.3250695504","0.532302087","0.7707034136","0.4971609959","","","","","","","","72","H","0","img/none_selected.jpg","","78","main_expt",""
"","bandit","158","1236018","0.0-119.0-0.0","53484526","wem/bandit_either_3","A3DKYNYN50FYFY","either","1","269","","","","","","","0","1","0","","0.7919080975","0.4","0.8","0.6","0.2","0.277144637","0.4448734945","0.7919080975","0.5349041547","","","","","","","","","","","","75","K","2","","","79","main_expt",""
"","bandit","159","1237907","0.0-120.0-0.0","53484526","wem/bandit_either_3","A3DKYNYN50FYFY","either","1","375","","","","","","","0","1","0","","0.8107458935","0.4","0.8","0.6","0.2","0.293018971","0.34513516","0.8107458935","0.4713204996","","","","","","","","","","","","75","K","2","","","80","main_expt",""
"","bandit","160","1239797","0.0-121.0-0.0","53484526","wem/bandit_either_3","A3DKYNYN50FYFY","either","1","380","","","","","","","0","1","0","","0.7851591746","0.4","0.8","0.6","0.2","0.2730851157","0.406584365","0.7851591746","0.4132476049","","","","","","","","","","","","75","K","2","","","81","main_expt",""
"","bandit","161","1241740","0.0-122.0-0.0","53484526","wem/bandit_either_3","A3DKYNYN50FYFY","either","1","432","","","","","","","1","0","0","0.8067558171","","0.4","0.8","0.6","0.2","","","","","0.2436011542","0.5068312928","0.8067558171","0.4640808921","","","","","","","","75","K","2","","","82","main_expt",""
"","bandit","162","1243633","0.0-123.0-0.0","53484526","wem/bandit_either_3","A3DKYNYN50FYFY","either","1","380","","","","","","","1","0","0","0.7777816444","","0.4","0.8","0.6","0.2","","","","","0.2009218657","0.5209063211","0.7777816444","0.442115463","","","","","","","","75","K","2","","","83","main_expt",""
"","bandit","163","1245576","0.0-124.0-0.0","53484526","wem/bandit_either_3","A3DKYNYN50FYFY","either","1","433","","","","","","","0","1","0","","0.7801041195","0.4","0.8","0.6","0.2","0.1550904625","0.6221591745","0.7801041195","0.5117806844","","","","","","","","","","","","75","K","2","","","84","main_expt",""
"","bandit","164","1247392","0.0-125.0-0.0","53484526","wem/bandit_either_3","A3DKYNYN50FYFY","either","1","304","","","","","","","1","0","0","0.7593249252","","0.4","0.8","0.6","0.2","","","","","0.1193398435","0.6939346182","0.7593249252","0.5309627618","","","","","","","","75","K","2","","","85","main_expt",""
"","bandit","165","1249215","0.0-126.0-0.0","53484526","wem/bandit_either_3","A3DKYNYN50FYFY","either","1","312","","","","","","","0","1","0","","0.7911667705","0.4","0.8","0.6","0.2","0.1398572341","0.7533471596","0.7911667705","0.5482659382","","","","","","","","","","","","75","K","2","","","86","main_expt",""
"","bandit","166","1251073","0.0-127.0-0.0","53484526","wem/bandit_either_3","A3DKYNYN50FYFY","either","1","349","","","","","","","1","0","0","0.8480662183","","0.4","0.8","0.6","0.2","","","","","0.1941505275","0.8040573679","0.8480662183","0.4772076429","","","","","","","","75","K","2","","","87","main_expt",""
"","bandit","167","1252899","0.0-128.0-0.0","53484526","wem/bandit_either_3","A3DKYNYN50FYFY","either","1","316","","","","","","","0","0","1","0.8110462569","","0.4","0.8","0.6","0.2","","","","","0.09645570925","0.7800800897","0.8110462569","0.5202977678","","","","","","","","75","K","2","","","88","main_expt",""
"","bandit","168","1254742","0.0-129.0-0.0","53484526","wem/bandit_either_3","A3DKYNYN50FYFY","either","1","330","","","","","","","1","0","0","0.7924414871","","0.4","0.8","0.6","0.2","","","","","0.1304326216","0.7329239748","0.7924414871","0.4970482359","","","","","","","","75","K","2","","","89","main_expt",""
"","bandit","169","1256590","0.0-130.0-0.0","53484526","wem/bandit_either_3","A3DKYNYN50FYFY","either","1","340","","","","","","","0","0","1","","0.8190855249","0.4","0.8","0.6","0.2","0.1410434261","0.7202813078","0.8190855249","0.4671205494","","","","","","","","","","","","75","K","2","","","90","main_expt",""
"","bandit","170","1258318","0.0-131.0-0.0","53484526","wem/bandit_either_3","A3DKYNYN50FYFY","either","1","217","","","","","","","0","1","0","","0.858270253","0.4","0.8","0.6","0.2","0.1277095213","0.698586111","0.858270253","0.5518401665","","","","","","","","","","","","75","K","2","","","91","main_expt",""
"","bandit","171","1260165","0.0-132.0-0.0","53484526","wem/bandit_either_3","A3DKYNYN50FYFY","either","1","335","","","","","","","0","1","0","","0.8583259383","0.4","0.8","0.6","0.2","0.08596821216","0.6054304462","0.8583259383","0.620788192","","","","","","","","","","","","75","K","2","","","92","main_expt",""
"","bandit","172","1262074","0.0-133.0-0.0","53484526","wem/bandit_either_3","A3DKYNYN50FYFY","either","1","398","","","","","","","0","1","0","","0.8335107661","0.4","0.8","0.6","0.2","0.05652587691","0.6829204303","0.8335107661","0.679669404","","","","","","","","","","","","75","K","2","","","93","main_expt",""
"","bandit","173","1264017","0.0-134.0-0.0","53484526","wem/bandit_either_3","A3DKYNYN50FYFY","either","1","430","","","","","","","0","1","0","","0.8849423118","0.4","0.8","0.6","0.2","0.07490457358","0.6084783934","0.8849423118","0.6726581754","","","","","","","","","","","","75","K","2","","","94","main_expt",""
"","bandit","174","1265859","0.0-135.0-0.0","53484526","wem/bandit_either_3","A3DKYNYN50FYFY","either","1","332","","","","","","","1","0","0","0.9175662658","","0.4","0.8","0.6","0.2","","","","","0.05201682933","0.51962455","0.9175662658","0.5983950962","","","","","","","","75","K","2","","","95","main_expt",""
"","bandit","175","1267966","0.0-136.0-0.0","53484526","wem/bandit_either_3","A3DKYNYN50FYFY","either","1","595","","","","","","","1","0","0","0.8726153548","","0.4","0.8","0.6","0.2","","","","","0.0353667714","0.453067158","0.8726153548","0.6316158747","","","","","","","","75","K","2","","","96","main_expt",""
"","bandit","176","1269733","0.0-137.0-0.0","53484526","wem/bandit_either_3","A3DKYNYN50FYFY","either","1","255","","","","","","","1","0","0","0.7260562137","","0.4","0.8","0.6","0.2","","","","","0.04301306848","0.4090095009","0.7260562137","0.6660601513","","","","","","","","75","K","2","","","97","main_expt",""
"","bandit","177","1271686","0.0-138.0-0.0","53484526","wem/bandit_either_3","A3DKYNYN50FYFY","either","1","441","","","","","","","0","0","1","","0.6506148609","0.4","0.8","0.6","0.2","0.03950067624","0.360727585","0.6506148609","0.6185462561","","","","","","","","","","","","75","K","2","","","98","main_expt",""
"","bandit","178","1273563","0.0-139.0-0.0","53484526","wem/bandit_either_3","A3DKYNYN50FYFY","either","1","365","","","","","","","0","0","1","0.5816342488","","0.4","0.8","0.6","0.2","","","","","0.03156699585","0.3351327477","0.5816342488","0.581128502","","","","","","","","75","K","2","","","99","main_expt",""
"","bandit","179","1275466","0.0-140.0-0.0","53484526","wem/bandit_either_3","A3DKYNYN50FYFY","either","1","393","","","","","","","0","1","0","","0.479775063","0.4","0.8","0.6","0.2","0.0248161238","0.3491912274","0.5521464449","0.479775063","","","","","","","","","","","","76","L","3","","","100","main_expt",""
"","bandit","180","1277466","0.0-141.0-0.0","53484526","wem/bandit_either_3","A3DKYNYN50FYFY","either","1","487","","","","","","","0","1","0","","0.5114647241","0.4","0.8","0.6","0.2","0.02218075004","0.4105375765","0.6063232436","0.5114647241","","","","","","","","","","","","76","L","3","","","101","main_expt",""
"","bandit","181","1279338","0.0-142.0-0.0","53484526","wem/bandit_either_3","A3DKYNYN50FYFY","either","1","362","","","","","","","0","0","1","","0.4718740674","0.4","0.8","0.6","0.2","0.01802152149","0.438632671","0.5636213764","0.4718740674","","","","","","","","","","","","76","L","3","","","102","main_expt",""
"","bandit","182","1281070","0.0-143.0-0.0","53484526","wem/bandit_either_3","A3DKYNYN50FYFY","either","1","220","","","","","","","0","0","1","","0.01877214671","0.4","0.8","0.6","0.2","0.01877214671","0.372838406","0.5370473259","0.5245129891","","","","","","","","","","","","72","H","0","img/none_selected.jpg","","103","main_expt",""
"","bandit","183","1282819","0.0-144.0-0.0","53484526","wem/bandit_either_3","A3DKYNYN50FYFY","either","1","236","","","","","","","0","0","1","0.3057692375","","0.4","0.8","0.6","0.2","","","","","0.01556743346","0.3057692375","0.549647281","0.5170751474","","","","","","","","74","J","1","","","104","main_expt",""
"","bandit","184","1284512","0.0-145.0-0.0","53484526","wem/bandit_either_3","A3DKYNYN50FYFY","either","1","181","","","","","","","0","0","1","","0.4225976111","0.4","0.8","0.6","0.2","0.03717147126","0.37369274","0.4225976111","0.472330124","","","","","","","","","","","","75","K","2","","","105","main_expt",""
"","bandit","185","1286341","0.0-146.0-0.0","53484526","wem/bandit_either_3","A3DKYNYN50FYFY","either","1","319","","","","","","","0","1","0","","0.568133852","0.4","0.8","0.6","0.2","0.07687033395","0.3179799449","0.5005163425","0.568133852","","","","","","","","","","","","76","L","3","","","106","main_expt",""
"","bandit","186","1288286","0.0-147.0-0.0","53484526","wem/bandit_either_3","A3DKYNYN50FYFY","either","1","435","","","","","","","0","1","0","","0.536018559","0.4","0.8","0.6","0.2","0.07659049968","0.3053765494","0.3995396385","0.536018559","","","","","","","","","","","","76","L","3","","","107","main_expt",""
"","bandit","187","1290346","0.0-148.0-0.0","53484526","wem/bandit_either_3","A3DKYNYN50FYFY","either","1","545","","","","","","","0","0","1","","0.3880888981","0.4","0.8","0.6","0.2","0.07827602418","0.2732860947","0.3855926336","0.3880888981","","","","","","","","","","","","76","L","3","","","108","main_expt",""
"","bandit","188","1292390","0.0-149.0-0.0","53484526","wem/bandit_either_3","A3DKYNYN50FYFY","either","1","530","","","","","","","0","1","0","","0.3675045314","0.4","0.8","0.6","0.2","0.1352418701","0.2624197952","0.3059937163","0.3675045314","","","","","","","","","","","","76","L","3","","","109","main_expt",""
"","bandit","189","1294458","0.0-150.0-0.0","53484526","wem/bandit_either_3","A3DKYNYN50FYFY","either","1","560","","","","","","","0","0","1","","0.4560700489","0.4","0.8","0.6","0.2","0.1705666919","0.3303210632","0.2752892785","0.4560700489","","","","","","","","","","","","76","L","3","","","110","main_expt",""
"","bandit","190","1296469","0.0-151.0-0.0","53484526","wem/bandit_either_3","A3DKYNYN50FYFY","either","1","498","","","","","","","0","1","0","","0.5366389876","0.4","0.8","0.6","0.2","0.2202970635","0.3541452024","0.3038626008","0.5366389876","","","","","","","","","","","","76","L","3","","","111","main_expt",""
"","bandit","191","1298827","0.0-152.0-0.0","53484526","wem/bandit_either_3","A3DKYNYN50FYFY","either","1","845","","","","","","","0","1","0","","0.5742054707","0.4","0.8","0.6","0.2","0.2368742277","0.4468573219","0.2308866464","0.5742054707","","","","","","","","","","","","76","L","3","","","112","main_expt",""
"","bandit","192","1301115","0.0-153.0-0.0","53484526","wem/bandit_either_3","A3DKYNYN50FYFY","either","1","779","","","","","","","1","0","0","0.6014260319","","0.4","0.8","0.6","0.2","","","","","0.2487241586","0.5163231944","0.2420052043","0.6014260319","","","","","","","","76","L","3","","","113","main_expt",""
"","bandit","193","1303470","0.0-154.0-0.0","53484526","wem/bandit_either_3","A3DKYNYN50FYFY","either","1","842","","","","","","","0","1","0","","0.5398035654","0.4","0.8","0.6","0.2","0.238824581","0.4064640458","0.3277817495","0.5398035654","","","","","","","","","","","","76","L","3","","","114","main_expt",""
"","bandit","194","1305595","0.0-155.0-0.0","53484526","wem/bandit_either_3","A3DKYNYN50FYFY","either","1","614","","","","","","","0","1","0","","0.5008208772","0.4","0.8","0.6","0.2","0.1480638281","0.4085425191","0.3280884562","0.5008208772","","","","","","","","","","","","76","L","3","","","115","main_expt",""
"","bandit","195","1307658","0.0-156.0-0.0","53484526","wem/bandit_either_3","A3DKYNYN50FYFY","either","1","552","","","","","","","0","0","1","0.4200837231","","0.4","0.8","0.6","0.2","","","","","0.1246447603","0.4412864427","0.4137256642","0.4200837231","","","","","","","","76","L","3","","","116","main_expt",""
"","bandit","196","1309528","0.0-157.0-0.0","53484526","wem/bandit_either_3","A3DKYNYN50FYFY","either","1","357","","","","","","","0","0","1","0.4094987027","","0.4","0.8","0.6","0.2","","","","","0.1308085784","0.5188885271","0.372751341","0.4094987027","","","","","","","","76","L","3","","","117","main_expt",""
"","bandit","197","1311601","0.0-158.0-0.0","53484526","wem/bandit_either_3","A3DKYNYN50FYFY","either","1","563","","","","","","","0","0","1","0.09076242324","","0.4","0.8","0.6","0.2","","","","","0.09076242324","0.5728151575","0.4225631273","0.3862907493","","","","","","","","72","H","0","img/none_selected.jpg","","118","main_expt",""
"","bandit","198","1313701","0.0-159.0-0.0","53484526","wem/bandit_either_3","A3DKYNYN50FYFY","either","1","588","","","","","","","1","0","0","0.5065624602","","0.4","0.8","0.6","0.2","","","","","0.09057925276","0.5065624602","0.4188482812","0.4437318585","","","","","","","","74","J","1","","","119","main_expt",""
"","bandit","199","1315809","0.0-160.0-0.0","53484526","wem/bandit_either_3","A3DKYNYN50FYFY","either","1","594","","","","","","","0","0","1","0.4064427813","","0.4","0.8","0.6","0.2","","","","","0.1288926122","0.4064427813","0.3729077829","0.293469011","","","","","","","","74","J","1","","","120","main_expt",""
"","bandit","200","1317772","0.0-161.0-0.0","53484526","wem/bandit_either_3","A3DKYNYN50FYFY","either","1","452","","","","","","","0","0","1","","0.3817262037","0.4","0.8","0.6","0.2","0.1479701512","0.3948988447","0.3817262037","0.2141601759","","","","","","","","","","","","75","K","2","","","121","main_expt",""
"","bandit","201","1319708","0.0-162.0-0.0","53484526","wem/bandit_either_3","A3DKYNYN50FYFY","either","1","428","","","","","","","1","0","0","0.316823658","","0.4","0.8","0.6","0.2","","","","","0.1663524813","0.316823658","0.3537210734","0.2594293103","","","","","","","","74","J","1","","","122","main_expt",""
"","bandit","202","1321730","0.0-163.0-0.0","53484526","wem/bandit_either_3","A3DKYNYN50FYFY","either","1","504","","","","","","","1","0","0","0.3045978244","","0.4","0.8","0.6","0.2","","","","","0.1993917655","0.3045978244","0.3633727708","0.1519240937","","","","","","","","74","J","1","","","123","main_expt",""
"","bandit","203","1323828","0.0-164.0-0.0","53484526","wem/bandit_either_3","A3DKYNYN50FYFY","either","1","588","","","","","","","0","1","0","","0.2389028675","0.4","0.8","0.6","0.2","0.2948689786","0.2389028675","0.4139908316","0.2311656533","","","","","","","","","","","","74","J","1","","","124","main_expt",""
"","bandit","204","1325814","0.0-165.0-0.0","53484526","wem/bandit_either_3","A3DKYNYN50FYFY","either","1","476","","","","","","","0","0","1","0.2166803268","","0.4","0.8","0.6","0.2","","","","","0.4054398129","0.2166803268","0.3619800754","0.1956748967","","","","","","","","74","J","1","","","125","main_expt",""
"","bandit","205","1327785","0.0-166.0-0.0","53484526","wem/bandit_either_3","A3DKYNYN50FYFY","either","1","459","","","","","","","0","0","1","0.1613674106","","0.4","0.8","0.6","0.2","","","","","0.5337661481","0.1613674106","0.353362548","0.1419383156","","","","","","","","74","J","1","","","126","main_expt",""
"","bandit","206","1329704","0.0-167.0-0.0","53484526","wem/bandit_either_3","A3DKYNYN50FYFY","either","1","406","","","","","","","0","0","1","","0.1768105291","0.4","0.8","0.6","0.2","0.5510518781","0.1682412955","0.2888217425","0.1768105291","","","","","","","","","","","","76","L","3","","","127","main_expt",""
"","bandit","207","1331722","0.0-168.0-0.0","53484526","wem/bandit_either_3","A3DKYNYN50FYFY","either","1","506","","","","","","","0","0","1","","0.3131893798","0.4","0.8","0.6","0.2","0.4746642732","0.1655910943","0.3131893798","0.1187699492","","","","","","","","","","","","75","K","2","","","128","main_expt",""
"","bandit","208","1333715","0.0-169.0-0.0","53484526","wem/bandit_either_3","A3DKYNYN50FYFY","either","1","482","","","","","","","1","0","0","0.5345142674","","0.4","0.8","0.6","0.2","","","","","0.5345142674","0.1845506081","0.2826861836","0.1860330609","","","","","","","","72","H","0","img/none_selected.jpg","","129","main_expt",""
"","bandit","209","1335790","0.0-170.0-0.0","53484526","wem/bandit_either_3","A3DKYNYN50FYFY","either","1","564","","","","","","","0","1","0","","0.6617219445","0.4","0.8","0.6","0.2","0.6617219445","0.1548240476","0.3434973012","0.09722607165","","","","","","","","","","","","72","H","0","img/none_selected.jpg","","130","main_expt",""
"","bandit","210","1337832","0.0-171.0-0.0","53484526","wem/bandit_either_3","A3DKYNYN50FYFY","either","1","528","","","","","","","1","0","0","0.6183560712","","0.4","0.8","0.6","0.2","","","","","0.6183560712","0.1503989","0.3848082556","0.05626421391","","","","","","","","72","H","0","img/none_selected.jpg","","131","main_expt",""
"","bandit","211","1339871","0.0-172.0-0.0","53484526","wem/bandit_either_3","A3DKYNYN50FYFY","either","1","526","","","","","","","1","0","0","0.7009512511","","0.4","0.8","0.6","0.2","","","","","0.7009512511","0.1199593994","0.4140069858","0.1149854728","","","","","","","","72","H","0","img/none_selected.jpg","","132","main_expt",""
"","bandit","212","1341813","0.0-173.0-0.0","53484526","wem/bandit_either_3","A3DKYNYN50FYFY","either","1","432","","","","","","","0","1","0","","0.5838974895","0.4","0.8","0.6","0.2","0.5838974895","0.1518383839","0.3745017877","0.1698175541","","","","","","","","","","","","72","H","0","img/none_selected.jpg","","133","main_expt",""
"","bandit","213","1343681","0.0-174.0-0.0","53484526","wem/bandit_either_3","A3DKYNYN50FYFY","either","1","359","","","","","","","0","1","0","","0.6628563986","0.4","0.8","0.6","0.2","0.6628563986","0.1855528241","0.3918835711","0.1925371395","","","","","","","","","","","","72","H","0","img/none_selected.jpg","","134","main_expt",""
"","bandit","214","1345607","0.0-175.0-0.0","53484526","wem/bandit_either_3","A3DKYNYN50FYFY","either","1","414","","","","","","","1","0","0","0.5610912218","","0.4","0.8","0.6","0.2","","","","","0.5610912218","0.2187769305","0.3405764209","0.246136332","","","","","","","","72","H","0","img/none_selected.jpg","","135","main_expt",""
"","bandit","215","1347559","0.0-176.0-0.0","53484526","wem/bandit_either_3","A3DKYNYN50FYFY","either","1","438","","","","","","","0","0","1","","0.4834649218","0.4","0.8","0.6","0.2","0.4834649218","0.2001534018","0.4155430462","0.2277518718","","","","","","","","","","","","72","H","0","img/none_selected.jpg","","136","main_expt",""
"","bandit","216","1349398","0.0-177.0-0.0","53484526","wem/bandit_either_3","A3DKYNYN50FYFY","either","1","326","","","","","","","0","1","0","","0.513072369","0.4","0.8","0.6","0.2","0.513072369","0.176995917","0.3389252929","0.252962458","","","","","","","","","","","","72","H","0","img/none_selected.jpg","","137","main_expt",""
"","bandit","217","1352013","0.0-178.0-0.0","53484526","wem/bandit_either_3","A3DKYNYN50FYFY","either","1","1103","","","","","","","1","0","0","0.5502636267","","0.4","0.8","0.6","0.2","","","","","0.5502636267","0.1460019238","0.2698753193","0.3018696236","","","","","","","","72","H","0","img/none_selected.jpg","","138","main_expt",""
"","bandit","218","1354269","0.0-179.0-0.0","53484526","wem/bandit_either_3","A3DKYNYN50FYFY","either","1","744","","","","","","","1","0","0","0.4564922144","","0.4","0.8","0.6","0.2","","","","","0.4564922144","0.06707115951","0.2821570394","0.347353107","","","","","","","","72","H","0","img/none_selected.jpg","","139","main_expt",""
"","bandit","219","1356193","0.0-180.0-0.0","53484526","wem/bandit_either_3","A3DKYNYN50FYFY","either","1","412","","","","","","","0","1","0","","0.4116013625","0.4","0.8","0.6","0.2","0.4116013625","0.1071331831","0.3577533322","0.2477375586","","","","","","","","","","","","72","H","0","img/none_selected.jpg","","140","main_expt",""
"","bandit","220","1358525","0.0-181.0-0.0","53484526","wem/bandit_either_3","A3DKYNYN50FYFY","either","1","820","","","","","","","0","1","0","","0.4498847811","0.4","0.8","0.6","0.2","0.4498847811","0.1224459691","0.4250900652","0.2880826197","","","","","","","","","","","","72","H","0","img/none_selected.jpg","","141","main_expt",""
"","bandit","221","1360707","0.0-182.0-0.0","53484526","wem/bandit_either_3","A3DKYNYN50FYFY","either","1","672","","","","","","","0","0","1","0.4822150968","","0.4","0.8","0.6","0.2","","","","","0.4822150968","0.1127900777","0.3451055681","0.2287108423","","","","","","","","72","H","0","img/none_selected.jpg","","142","main_expt",""
"","bandit","222","1362679","0.0-183.0-0.0","53484526","wem/bandit_either_3","A3DKYNYN50FYFY","either","1","461","","","","","","","0","1","0","","0.513506041","0.4","0.8","0.6","0.2","0.513506041","0.1736101882","0.4661026996","0.2096850542","","","","","","","","","","","","72","H","0","img/none_selected.jpg","","143","main_expt",""
"","bandit","223","1364793","0.0-184.0-0.0","53484526","wem/bandit_either_3","A3DKYNYN50FYFY","either","1","602","","","","","","","0","0","1","0.556822441","","0.4","0.8","0.6","0.2","","","","","0.556822441","0.1231714597","0.4683168179","0.2214165798","","","","","","","","72","H","0","img/none_selected.jpg","","144","main_expt",""
"","bandit","224","1366675","0.0-185.0-0.0","53484526","wem/bandit_either_3","A3DKYNYN50FYFY","either","1","370","","","","","","","0","0","1","0.5633269006","","0.4","0.8","0.6","0.2","","","","","0.5633269006","0.10514291","0.448697065","0.2412424024","","","","","","","","72","H","0","img/none_selected.jpg","","145","main_expt",""
"","bandit","225","1368608","0.0-186.0-0.0","53484526","wem/bandit_either_3","A3DKYNYN50FYFY","either","1","424","","","","","","","0","0","1","0.0972381369","","0.4","0.8","0.6","0.2","","","","","0.6482805244","0.0972381369","0.4560677512","0.1841611904","","","","","","","","74","J","1","","","146","main_expt",""
"","bandit","226","1370350","0.0-187.0-0.0","53484526","wem/bandit_either_3","A3DKYNYN50FYFY","either","1","227","","","","","","","0","0","1","0.513472809","","0.4","0.8","0.6","0.2","","","","","0.6036290043","0.1897119627","0.513472809","0.1577922033","","","","","","","","75","K","2","","","147","main_expt",""
"","bandit","227","1372430","0.0-188.0-0.0","53484526","wem/bandit_either_3","A3DKYNYN50FYFY","either","1","569","","","","","","","0","0","1","","0.1663963597","0.4","0.8","0.6","0.2","0.6110248825","0.1759094881","0.3820674583","0.1663963597","","","","","","","","","","","","76","L","3","","","148","main_expt",""
"","bandit","228","1374391","0.0-189.0-0.0","53484526","wem/bandit_either_3","A3DKYNYN50FYFY","either","1","449","","","","","","","0","0","1","0.2204336569","","0.4","0.8","0.6","0.2","","","","","0.6453676348","0.2204336569","0.3116557105","0.319747154","","","","","","","","74","J","1","","","149","main_expt",""
"","bandit","229","1376256","0.0-190.0-0.0","53484526","wem/bandit_either_3","A3DKYNYN50FYFY","either","1","353","","","","","","","0","1","0","","0.66235511","0.4","0.8","0.6","0.2","0.66235511","0.2328853871","0.3039338698","0.5410110608","","","","","","","","","","","","72","H","0","img/none_selected.jpg","","150","main_expt",""
"","bandit","230","1378162","0.0-191.0-0.0","53484526","wem/bandit_either_3","A3DKYNYN50FYFY","either","1","393","","","","","","","0","0","1","0.5547575852","","0.4","0.8","0.6","0.2","","","","","0.5547575852","0.2652525627","0.3092958796","0.5584745132","","","","","","","","72","H","0","img/none_selected.jpg","","151","main_expt",""
"","bandit","231","1380237","0.0-192.0-0.0","53484526","wem/bandit_either_3","A3DKYNYN50FYFY","either","1","564","","","","","","","0","0","1","0.5223098228","","0.4","0.8","0.6","0.2","","","","","0.5223098228","0.2654363334","0.3097370874","0.5709378499","","","","","","","","72","H","0","img/none_selected.jpg","","152","main_expt",""
"","bandit","232","1382219","0.0-193.0-0.0","53484526","wem/bandit_either_3","A3DKYNYN50FYFY","either","1","467","","","","","","","0","0","1","0.2955649657","","0.4","0.8","0.6","0.2","","","","","0.5137303037","0.3505589273","0.2955649657","0.6314515046","","","","","","","","75","K","2","","","153","main_expt",""
"","bandit","233","1384122","0.0-194.0-0.0","53484526","wem/bandit_either_3","A3DKYNYN50FYFY","either","1","390","","","","","","","0","1","0","","0.221553637","0.4","0.8","0.6","0.2","0.5193194566","0.39889796","0.221553637","0.6734276465","","","","","","","","","","","","75","K","2","","","154","main_expt",""
"","bandit","234","1386085","0.0-195.0-0.0","53484526","wem/bandit_either_3","A3DKYNYN50FYFY","either","1","451","","","","","","","0","0","1","","0.2231547498","0.4","0.8","0.6","0.2","0.4736812385","0.4202606707","0.2231547498","0.7019144477","","","","","","","","","","","","75","K","2","","","155","main_expt",""
"","bandit","235","1387919","0.0-196.0-0.0","53484526","wem/bandit_either_3","A3DKYNYN50FYFY","either","1","322","","","","","","","0","0","1","0.4814159609","","0.4","0.8","0.6","0.2","","","","","0.4616442501","0.4814159609","0.2750957943","0.6695455193","","","","","","","","74","J","1","","","156","main_expt",""
"","bandit","236","1389793","0.0-197.0-0.0","53484526","wem/bandit_either_3","A3DKYNYN50FYFY","either","1","359","","","","","","","0","0","1","0.6179864128","","0.4","0.8","0.6","0.2","","","","","0.5025740222","0.5316807058","0.2005793054","0.6179864128","","","","","","","","76","L","3","","","157","main_expt",""
"","bandit","237","1391504","0.0-198.0-0.0","53484526","wem/bandit_either_3","A3DKYNYN50FYFY","either","1","202","","","","","","","0","1","0","","0.7380689997","0.4","0.8","0.6","0.2","0.4548105643","0.5429668589","0.2502080146","0.7380689997","","","","","","","","","","","","76","L","3","","","158","main_expt",""
"","bandit","238","1393404","0.0-199.0-0.0","53484526","wem/bandit_either_3","A3DKYNYN50FYFY","either","1","386","","","","","","","0","1","0","","0.7632184112","0.4","0.8","0.6","0.2","0.4622667215","0.5991419929","0.2729805177","0.7632184112","","","","","","","","","","","","76","L","3","","","159","main_expt",""
"","bandit","239","1395380","0.0-200.0-0.0","53484526","wem/bandit_either_3","A3DKYNYN50FYFY","either","1","465","","","","","","","1","0","0","0.6917664031","","0.4","0.8","0.6","0.2","","","","","0.4600517474","0.6480894682","0.2801697818","0.6917664031","","","","","","","","76","L","3","","","160","main_expt",""
"","bandit","240","1397352","0.0-201.0-0.0","53484526","wem/bandit_either_3","A3DKYNYN50FYFY","either","1","462","","","","","","","0","0","1","0.7106531984","","0.4","0.8","0.6","0.2","","","","","0.481388234","0.6776161973","0.2437938608","0.7106531984","","","","","","","","76","L","3","","","161","main_expt",""
"","bandit","241","1399403","0.0-202.0-0.0","53484526","wem/bandit_either_3","A3DKYNYN50FYFY","either","1","537","","","","","","","0","1","0","","0.809310282","0.4","0.8","0.6","0.2","0.3850106192","0.7134031715","0.2687553501","0.809310282","","","","","","","","","","","","76","L","3","","","162","main_expt",""
"","bandit","242","1401379","0.0-203.0-0.0","53484526","wem/bandit_either_3","A3DKYNYN50FYFY","either","1","464","","","","","","","0","1","0","","0.7492875705","0.4","0.8","0.6","0.2","0.3498723973","0.6215635068","0.245991677","0.7492875705","","","","","","","","","","","","76","L","3","","","163","main_expt",""
"","bandit","243","1403440","0.0-204.0-0.0","53484526","wem/bandit_either_3","A3DKYNYN50FYFY","either","1","547","","","","","","","0","1","0","","0.7561394707","0.4","0.8","0.6","0.2","0.4287417444","0.5219240024","0.270385563","0.7561394707","","","","","","","","","","","","76","L","3","","","164","main_expt",""
"","bandit","244","1405668","0.0-205.0-0.0","53484526","wem/bandit_either_3","A3DKYNYN50FYFY","either","1","716","","","","","","","0","1","0","","0.8111415702","0.4","0.8","0.6","0.2","0.3150145745","0.4727302842","0.3037855967","0.8111415702","","","","","","","","","","","","76","L","3","","","165","main_expt",""
"","bandit","245","1407936","0.0-206.0-0.0","53484526","wem/bandit_either_3","A3DKYNYN50FYFY","either","1","757","","","","","","","0","1","0","","0.7759938205","0.4","0.8","0.6","0.2","0.2927018344","0.5181018645","0.3395577104","0.7759938205","","","","","","","","","","","","76","L","3","","","166","main_expt",""
"","bandit","246","1410347","0.0-207.0-0.0","53484526","wem/bandit_either_3","A3DKYNYN50FYFY","either","1","898","","","","","","","0","1","0","","0.8267633335","0.4","0.8","0.6","0.2","0.3610256338","0.5280433419","0.3443901906","0.8267633335","","","","","","","","","","","","76","L","3","","","167","main_expt",""
"","bandit","247","1412594","0.0-208.0-0.0","53484526","wem/bandit_either_3","A3DKYNYN50FYFY","either","1","737","","","","","","","0","1","0","","0.8136073627","0.4","0.8","0.6","0.2","0.3137127159","0.5470010145","0.2552323567","0.8136073627","","","","","","","","","","","","76","L","3","","","168","main_expt",""
"","bandit","248","1414992","0.0-209.0-0.0","53484526","wem/bandit_either_3","A3DKYNYN50FYFY","either","1","886","","","","","","","0","1","0","","0.7308533614","0.4","0.8","0.6","0.2","0.2292796242","0.5558845962","0.289352286","0.7308533614","","","","","","","","","","","","76","L","3","","","169","main_expt",""
"","bandit","249","1417007","0.0-210.0-0.0","53484526","wem/bandit_either_3","A3DKYNYN50FYFY","either","1","502","","","","","","","0","1","0","","0.7090730391","0.4","0.8","0.6","0.2","0.221948569","0.5799309324","0.2262743404","0.7090730391","","","","","","","","","","","","76","L","3","","","170","main_expt",""
"","bandit","250","1419133","0.0-211.0-0.0","53484526","wem/bandit_either_3","A3DKYNYN50FYFY","either","1","613","","","","","","","0","1","0","","0.7229684446","0.4","0.8","0.6","0.2","0.159615594","0.6643953266","0.2644351609","0.7229684446","","","","","","","","","","","","76","L","3","","","171","main_expt",""
"","bandit","251","1421140","0.0-212.0-0.0","53484526","wem/bandit_either_3","A3DKYNYN50FYFY","either","1","493","","","","","","","0","1","0","","0.6612043244","0.4","0.8","0.6","0.2","0.1303854457","0.7610666705","0.4136296373","0.6612043244","","","","","","","","","","","","76","L","3","","","172","main_expt",""
"","bandit","252","1423278","0.0-213.0-0.0","53484526","wem/bandit_either_3","A3DKYNYN50FYFY","either","1","625","","","","","","","0","1","0","","0.7669021743","0.4","0.8","0.6","0.2","0.07729024622","0.8006149786","0.491318492","0.7669021743","","","","","","","","","","","","76","L","3","","","173","main_expt",""
"","bandit","253","1425512","0.0-214.0-0.0","53484526","wem/bandit_either_3","A3DKYNYN50FYFY","either","1","723","","","","","","","0","1","0","","0.8111867287","0.4","0.8","0.6","0.2","0.1227026474","0.791095403","0.4966763124","0.8111867287","","","","","","","","","","","","76","L","3","","","174","main_expt",""
"","bandit","254","1427988","0.0-215.0-0.0","53484526","wem/bandit_either_3","A3DKYNYN50FYFY","either","1","964","","","","","","","1","0","0","0.8192498968","","0.4","0.8","0.6","0.2","","","","","0.09483306355","0.8572088762","0.5109350621","0.8192498968","","","","","","","","76","L","3","","","175","main_expt",""
"","bandit","255","1430377","0.0-216.0-0.0","53484526","wem/bandit_either_3","A3DKYNYN50FYFY","either","1","875","","","","","","","0","1","0","","0.8371283275","0.4","0.8","0.6","0.2","0.143069758","0.8576080684","0.6321295754","0.8371283275","","","","","","","","","","","","76","L","3","","","176","main_expt",""
"","bandit","256","1432466","0.0-217.0-0.0","53484526","wem/bandit_either_3","A3DKYNYN50FYFY","either","1","577","","","","","","","0","0","1","","0.8545140947","0.4","0.8","0.6","0.2","0.1741656422","0.8678158231","0.5515755996","0.8545140947","","","","","","","","","","","","76","L","3","","","177","main_expt",""
"","bandit","257","1434375","0.0-218.0-0.0","53484526","wem/bandit_either_3","A3DKYNYN50FYFY","either","1","398","","","","","","","1","0","0","0.8794893657","","0.4","0.8","0.6","0.2","","","","","0.1904086474","0.8820542777","0.5086275016","0.8794893657","","","","","","","","76","L","3","","","178","main_expt",""
"","bandit","258","1436510","0.0-219.0-0.0","53484526","wem/bandit_either_3","A3DKYNYN50FYFY","either","1","621","","","","","","","0","1","0","","0.8939587296","0.4","0.8","0.6","0.2","0.1778905233","0.8907334788","0.5215192908","0.8939587296","","","","","","","","","","","","76","L","3","","","179","main_expt",""
"","bandit","259","1438533","0.0-220.0-0.0","53484526","wem/bandit_either_3","A3DKYNYN50FYFY","either","1","507","","","","","","","0","0","1","","0.868077767","0.4","0.8","0.6","0.2","0.2112817454","0.9161653667","0.5193414217","0.868077767","","","","","","","","","","","","76","L","3","","","180","main_expt",""
"","bandit","260","1440484","0.0-221.0-0.0","53484526","wem/bandit_either_3","A3DKYNYN50FYFY","either","1","442","","","","","","","0","1","0","","0.9295405476","0.4","0.8","0.6","0.2","0.2236312472","0.9327112184","0.4613460131","0.9295405476","","","","","","","","","","","","76","L","3","","","181","main_expt",""
"","bandit","261","1442544","0.0-222.0-0.0","53484526","wem/bandit_either_3","A3DKYNYN50FYFY","either","1","546","","","","","","","0","1","0","","0.9213574857","0.4","0.8","0.6","0.2","0.264467441","0.9284398706","0.4468633868","0.9213574857","","","","","","","","","","","","76","L","3","","","182","main_expt",""
"","bandit","262","1444549","0.0-223.0-0.0","53484526","wem/bandit_either_3","A3DKYNYN50FYFY","either","1","492","","","","","","","0","1","0","","0.9374560388","0.4","0.8","0.6","0.2","0.2240632979","0.89591471","0.4985091709","0.9374560388","","","","","","","","","","","","76","L","3","","","183","main_expt",""
"","bandit","263","1446601","0.0-224.0-0.0","53484526","wem/bandit_either_3","A3DKYNYN50FYFY","either","1","540","","","","","","","0","1","0","","0.9120054929","0.4","0.8","0.6","0.2","0.1671404848","0.9146434193","0.6057575335","0.9120054929","","","","","","","","","","","","76","L","3","","","184","main_expt",""
"","bandit","264","1448760","0.0-225.0-0.0","53484526","wem/bandit_either_3","A3DKYNYN50FYFY","either","1","644","","","","","","","0","1","0","","0.8428471033","0.4","0.8","0.6","0.2","0.1932257563","0.8575823977","0.4915456485","0.8428471033","","","","","","","","","","","","76","L","3","","","185","main_expt",""
"","bandit","265","1451443","0.0-226.0-0.0","53484526","wem/bandit_either_3","A3DKYNYN50FYFY","either","1","1172","","","","","","","0","1","0","","0.7734335662","0.4","0.8","0.6","0.2","0.155472597","0.8487952361","0.5976273718","0.7734335662","","","","","","","","","","","","76","L","3","","","186","main_expt",""
"","bandit","266","1453419","0.0-227.0-0.0","53484526","wem/bandit_either_3","A3DKYNYN50FYFY","either","1","461","","","","","","","0","1","0","","0.7667319261","0.4","0.8","0.6","0.2","0.1895871356","0.8603972339","0.5743595779","0.7667319261","","","","","","","","","","","","76","L","3","","","187","main_expt",""
"","bandit","267","1455383","0.0-228.0-0.0","53484526","wem/bandit_either_3","A3DKYNYN50FYFY","either","1","451","","","","","","","1","0","0","0.5945875292","","0.4","0.8","0.6","0.2","","","","","0.2119556673","0.8834510925","0.6833173747","0.5945875292","","","","","","","","76","L","3","","","188","main_expt",""
"","bandit","268","1457266","0.0-229.0-0.0","53484526","wem/bandit_either_3","A3DKYNYN50FYFY","either","1","369","","","","","","","0","0","1","","0.7406569186","0.4","0.8","0.6","0.2","0.2255007403","0.8973947779","0.651089354","0.7406569186","","","","","","","","","","","","76","L","3","","","189","main_expt",""
"","bandit","269","1459188","0.0-230.0-0.0","53484526","wem/bandit_either_3","A3DKYNYN50FYFY","either","1","408","","","","","","","0","1","0","","0.7371931777","0.4","0.8","0.6","0.2","0.1754842532","0.8824587855","0.6599652607","0.7371931777","","","","","","","","","","","","76","L","3","","","190","main_expt",""
"","bandit","270","1461238","0.0-231.0-0.0","53484526","wem/bandit_either_3","A3DKYNYN50FYFY","either","1","536","","","","","","","0","0","1","0.7019705866","","0.4","0.8","0.6","0.2","","","","","0.1936311571","0.9076431997","0.6960236584","0.7019705866","","","","","","","","76","L","3","","","191","main_expt",""
"","bandit","271","1463122","0.0-232.0-0.0","53484526","wem/bandit_either_3","A3DKYNYN50FYFY","either","1","369","","","","","","","0","0","1","","0.6198122665","0.4","0.8","0.6","0.2","0.215612591","0.8673165995","0.6713911156","0.6198122665","","","","","","","","","","","","76","L","3","","","192","main_expt",""
"","bandit","272","1465425","0.0-233.0-0.0","53484526","wem/bandit_either_3","A3DKYNYN50FYFY","either","1","790","","","","","","","0","1","0","","0.7244072205","0.4","0.8","0.6","0.2","0.2818734505","0.8264401474","0.7244072205","0.6100930929","","","","","","","","","","","","75","K","2","","","193","main_expt",""
"","bandit","273","1467392","0.0-234.0-0.0","53484526","wem/bandit_either_3","A3DKYNYN50FYFY","either","1","454","","","","","","","0","1","0","","0.7397798508","0.4","0.8","0.6","0.2","0.3616108755","0.8546086414","0.7397798508","0.6332739585","","","","","","","","","","","","75","K","2","","","194","main_expt",""
"","bandit","274","1469226","0.0-235.0-0.0","53484526","wem/bandit_either_3","A3DKYNYN50FYFY","either","1","321","","","","","","","1","0","0","0.7602069811","","0.4","0.8","0.6","0.2","","","","","0.3979961615","0.7914914872","0.7602069811","0.609207161","","","","","","","","75","K","2","","","195","main_expt",""
"","bandit","275","1471151","0.0-236.0-0.0","53484526","wem/bandit_either_3","A3DKYNYN50FYFY","either","1","409","","","","","","","0","1","0","","0.7114092524","0.4","0.8","0.6","0.2","0.4366641927","0.7608346536","0.7114092524","0.6560649547","","","","","","","","","","","","75","K","2","","","196","main_expt",""
"","bandit","276","1472970","0.0-237.0-0.0","53484526","wem/bandit_either_3","A3DKYNYN50FYFY","either","1","307","","","","","","","0","0","1","0.6917424169","","0.4","0.8","0.6","0.2","","","","","0.560782874","0.7003784325","0.6917424169","0.6656533059","","","","","","","","75","K","2","","","197","main_expt",""
"","bandit","277","1474941","0.0-238.0-0.0","53484526","wem/bandit_either_3","A3DKYNYN50FYFY","either","1","457","","","","","","","1","0","0","0.6561069913","","0.4","0.8","0.6","0.2","","","","","0.5649388288","0.6036075577","0.6561069913","0.6841747727","","","","","","","","75","K","2","","","198","main_expt",""
"","bandit","278","1476839","0.0-239.0-0.0","53484526","wem/bandit_either_3","A3DKYNYN50FYFY","either","1","384","","","","","","","0","0","1","","0.6948346643","0.4","0.8","0.6","0.2","0.5375892324","0.5843314555","0.6948346643","0.7105065455","","","","","","","","","","","","75","K","2","","","199","main_expt",""
"","bandit","279","1478547","0.0-240.0-0.0","53484526","wem/bandit_either_3","A3DKYNYN50FYFY","either","1","194","","","","","","","0","0","1","0.7369743936","","0.4","0.8","0.6","0.2","","","","","0.5625167851","0.539414212","0.7369743936","0.7380433654","","","","","","","","75","K","2","","","200","main_expt",""
"","bandit","280","1480550","0.0-241.0-0.0","53484526","wem/bandit_either_3","A3DKYNYN50FYFY","either","1","487","","","","","","","0","0","1","0.3774065742","","0.4","0.8","0.6","0.2","","","","","0.6266810217","0.3774065742","0.8347268415","0.6432951689","","","","","","","","74","J","1","","","201","main_expt",""
"","bandit","281","1482524","0.0-242.0-0.0","53484526","wem/bandit_either_3","A3DKYNYN50FYFY","either","1","461","","","","","","","0","0","1","0.2824615609","","0.4","0.8","0.6","0.2","","","","","0.6661075828","0.2824615609","0.7612264534","0.4995879772","","","","","","","","74","J","1","","","202","main_expt",""
"","bandit","282","1484470","0.0-243.0-0.0","53484526","wem/bandit_either_3","A3DKYNYN50FYFY","either","1","433","","","","","","","0","0","1","0.7534099026","","0.4","0.8","0.6","0.2","","","","","0.7534099026","0.210170224","0.6904596671","0.4767352753","","","","","","","","72","H","0","img/none_selected.jpg","","203","main_expt",""
"","bandit","283","1486460","0.0-244.0-0.0","53484526","wem/bandit_either_3","A3DKYNYN50FYFY","either","1","475","","","","","","","0","0","1","","0.3680612217","0.4","0.8","0.6","0.2","0.7033522103","0.2708138581","0.6855485072","0.3680612217","","","","","","","","","","","","76","L","3","","","204","main_expt",""
"","bandit","284","1488564","0.0-245.0-0.0","53484526","wem/bandit_either_3","A3DKYNYN50FYFY","either","1","588","","","","","","","0","1","0","","0.7006332368","0.4","0.8","0.6","0.2","0.6105989365","0.3319820794","0.7006332368","0.3404512965","","","","","","","","","","","","75","K","2","","","205","main_expt",""
"","bandit","285","1490538","0.0-246.0-0.0","53484526","wem/bandit_either_3","A3DKYNYN50FYFY","either","1","460","","","","","","","1","0","0","0.7533130943","","0.4","0.8","0.6","0.2","","","","","0.725137222","0.3517339603","0.7533130943","0.2774568564","","","","","","","","75","K","2","","","206","main_expt",""
"","bandit","286","1492644","0.0-247.0-0.0","53484526","wem/bandit_either_3","A3DKYNYN50FYFY","either","1","593","","","","","","","0","0","1","0.7191760557","","0.4","0.8","0.6","0.2","","","","","0.5888984072","0.2871079035","0.7191760557","0.2228883469","","","","","","","","75","K","2","","","207","main_expt",""
"","bandit","287","1494986","0.0-248.0-0.0","53484526","wem/bandit_either_3","A3DKYNYN50FYFY","either","1","821","","","","","","","0","0","1","0.6264293856","","0.4","0.8","0.6","0.2","","","","","0.4650323514","0.2642306377","0.6264293856","0.2829247412","","","","","","","","75","K","2","","","208","main_expt",""
"","bandit","288","1496964","0.0-249.0-0.0","53484526","wem/bandit_either_3","A3DKYNYN50FYFY","either","1","464","","","","","","","0","0","1","0.6500478562","","0.4","0.8","0.6","0.2","","","","","0.4100719568","0.3587725811","0.6500478562","0.3169104167","","","","","","","","75","K","2","","","209","main_expt",""
"","bandit","289","1498955","0.0-250.0-0.0","53484526","wem/bandit_either_3","A3DKYNYN50FYFY","either","1","474","","","","","","","1","0","0","0.3103342645","","0.4","0.8","0.6","0.2","","","","","0.5177296744","0.3103342645","0.6498865343","0.2090062306","","","","","","","","74","J","1","","","210","main_expt",""
"","bandit","290","1501060","0.0-251.0-0.0","53484526","wem/bandit_either_3","A3DKYNYN50FYFY","either","1","592","","","","","","","1","0","0","0.3760595068","","0.4","0.8","0.6","0.2","","","","","0.5950812693","0.3760595068","0.6056301442","0.1481662818","","","","","","","","74","J","1","","","211","main_expt",""
"","bandit","291","1503199","0.0-252.0-0.0","53484526","wem/bandit_either_3","A3DKYNYN50FYFY","either","1","626","","","","","","","1","0","0","0.447023013","","0.4","0.8","0.6","0.2","","","","","0.7169745983","0.447023013","0.5524844402","0.2114888193","","","","","","","","74","J","1","","","212","main_expt",""
"","bandit","292","1505219","0.0-253.0-0.0","53484526","wem/bandit_either_3","A3DKYNYN50FYFY","either","1","506","","","","","","","0","0","1","0.4529182837","","0.4","0.8","0.6","0.2","","","","","0.6766124197","0.4529182837","0.6984249358","0.2234642754","","","","","","","","74","J","1","","","213","main_expt",""
"","bandit","293","1507278","0.0-254.0-0.0","53484526","wem/bandit_either_3","A3DKYNYN50FYFY","either","1","547","","","","","","","0","0","1","","0.4306534983","0.4","0.8","0.6","0.2","0.8005648136","0.4306534983","0.5996975418","0.2315139555","","","","","","","","","","","","74","J","1","","","214","main_expt",""
"","bandit","294","1509219","0.0-255.0-0.0","53484526","wem/bandit_either_3","A3DKYNYN50FYFY","either","1","425","","","","","","","1","0","0","0.4314469479","","0.4","0.8","0.6","0.2","","","","","0.8487964291","0.4314469479","0.6067129047","0.1949488974","","","","","","","","74","J","1","","","215","main_expt",""
"","bandit","295","1511228","0.0-256.0-0.0","53484526","wem/bandit_either_3","A3DKYNYN50FYFY","either","1","493","","","","","","","0","0","1","0.45439575","","0.4","0.8","0.6","0.2","","","","","0.8674123454","0.45439575","0.6297976658","0.2333303883","","","","","","","","74","J","1","","","216","main_expt",""
"","bandit","296","1513480","0.0-257.0-0.0","53484526","wem/bandit_either_3","A3DKYNYN50FYFY","either","1","737","","","","","","","0","0","1","0.5228861726","","0.4","0.8","0.6","0.2","","","","","0.8774404243","0.5228861726","0.6095272491","0.2027763819","","","","","","","","74","J","1","","","217","main_expt",""
"","bandit","297","1515434","0.0-258.0-0.0","53484526","wem/bandit_either_3","A3DKYNYN50FYFY","either","1","440","","","","","","","0","0","1","","0.1895874514","0.4","0.8","0.6","0.2","0.8836448068","0.463703458","0.7058099393","0.1895874514","","","","","","","","","","","","76","L","3","","","218","main_expt",""
"","bandit","298","1517589","0.0-259.0-0.0","53484526","wem/bandit_either_3","A3DKYNYN50FYFY","either","1","644","","","","","","","1","0","0","0.880498508","","0.4","0.8","0.6","0.2","","","","","0.880498508","0.4522864467","0.7396246451","0.1537120117","","","","","","","","72","H","0","img/none_selected.jpg","","219","main_expt",""
"","bandit","299","1519712","0.0-260.0-0.0","53484526","wem/bandit_either_3","A3DKYNYN50FYFY","either","1","609","","","","","","","0","1","0","","0.8740874997","0.4","0.8","0.6","0.2","0.8740874997","0.4561576612","0.7091968036","0.2022747423","","","","","","","","","","","","72","H","0","img/none_selected.jpg","","220","main_expt",""
"","bandit","300","1521938","0.0-261.0-0.0","53484526","wem/bandit_either_3","A3DKYNYN50FYFY","either","1","710","","","","","","","1","0","0","0.8527830905","","0.4","0.8","0.6","0.2","","","","","0.8527830905","0.4264657168","0.7116308873","0.3174413427","","","","","","","","72","H","0","img/none_selected.jpg","","221","main_expt",""
"","bandit","301","1524152","0.0-262.0-0.0","53484526","wem/bandit_either_3","A3DKYNYN50FYFY","either","1","701","","","","","","","0","1","0","","0.7717907476","0.4","0.8","0.6","0.2","0.7717907476","0.3055141729","0.769465391","0.2315667073","","","","","","","","","","","","72","H","0","img/none_selected.jpg","","222","main_expt",""
"","bandit","302","1526019","0.0-263.0-0.0","53484526","wem/bandit_either_3","A3DKYNYN50FYFY","either","1","352","","","","","","","1","0","0","0.8359700354","","0.4","0.8","0.6","0.2","","","","","0.8359700354","0.2868954791","0.7509006974","0.2261006122","","","","","","","","72","H","0","img/none_selected.jpg","","223","main_expt",""
"","bandit","303","1528133","0.0-264.0-0.0","53484526","wem/bandit_either_3","A3DKYNYN50FYFY","either","1","600","","","","","","","0","1","0","","0.819670806","0.4","0.8","0.6","0.2","0.819670806","0.2698185242","0.7007688409","0.2662378096","","","","","","","","","","","","72","H","0","img/none_selected.jpg","","224","main_expt",""
"","bandit","304","1530106","0.0-265.0-0.0","53484526","wem/bandit_either_3","A3DKYNYN50FYFY","either","1","459","","","","","","","0","1","0","","0.8512382749","0.4","0.8","0.6","0.2","0.8512382749","0.213842325","0.7409020096","0.2163280173","","","","","","","","","","","","72","H","0","img/none_selected.jpg","","225","main_expt",""
"","bandit","305","1532154","0.0-266.0-0.0","53484526","wem/bandit_either_3","A3DKYNYN50FYFY","either","1","533","","","","","","","0","0","1","0.8342861847","","0.4","0.8","0.6","0.2","","","","","0.8342861847","0.1616408491","0.7052945704","0.2809353625","","","","","","","","72","H","0","img/none_selected.jpg","","226","main_expt",""
"","bandit","306","1534581","0.0-267.0-0.0","53484526","wem/bandit_either_3","A3DKYNYN50FYFY","either","1","910","","","","","","","0","1","0","","0.7736041865","0.4","0.8","0.6","0.2","0.7736041865","0.1777599287","0.606091252","0.2396571279","","","","","","","","","","","","72","H","0","img/none_selected.jpg","","227","main_expt",""
"","bandit","307","1536915","0.0-268.0-0.0","53484526","wem/bandit_either_3","A3DKYNYN50FYFY","either","1","819","","","","","","","1","0","0","0.8094350608","","0.4","0.8","0.6","0.2","","","","","0.8094350608","0.2866543064","0.5834203199","0.3430446928","","","","","","","","72","H","0","img/none_selected.jpg","","228","main_expt",""
"","bandit","308","1539220","0.0-269.0-0.0","53484526","wem/bandit_either_3","A3DKYNYN50FYFY","either","1","791","","","","","","","1","0","0","0.8078722129","","0.4","0.8","0.6","0.2","","","","","0.8078722129","0.3948293382","0.5466214007","0.2886233194","","","","","","","","72","H","0","img/none_selected.jpg","","229","main_expt",""
"","bandit","309","1541690","0.0-270.0-0.0","53484526","wem/bandit_either_3","A3DKYNYN50FYFY","either","1","953","","","","","","","0","1","0","","0.7719043616","0.4","0.8","0.6","0.2","0.7719043616","0.3291786684","0.5519014059","0.3213731463","","","","","","","","","","","","72","H","0","img/none_selected.jpg","","230","main_expt",""
"","bandit","310","1544036","0.0-271.0-0.0","53484526","wem/bandit_either_3","A3DKYNYN50FYFY","either","1","833","","","","","","","1","0","0","0.8049264475","","0.4","0.8","0.6","0.2","","","","","0.8049264475","0.2378236032","0.4527164215","0.2771614906","","","","","","","","72","H","0","img/none_selected.jpg","","231","main_expt",""
"","bandit","311","1546515","0.0-272.0-0.0","53484526","wem/bandit_either_3","A3DKYNYN50FYFY","either","1","965","","","","","","","1","0","0","0.8850589997","","0.4","0.8","0.6","0.2","","","","","0.8850589997","0.246393804","0.5135082398","0.2249105956","","","","","","","","72","H","0","img/none_selected.jpg","","232","main_expt",""
"","bandit","312","1548509","0.0-273.0-0.0","53484526","wem/bandit_either_3","A3DKYNYN50FYFY","either","1","480","","","","","","","0","1","0","","0.9183615156","0.4","0.8","0.6","0.2","0.9183615156","0.2141634692","0.5502454751","0.2447973041","","","","","","","","","","","","72","H","0","img/none_selected.jpg","","233","main_expt",""
"","bandit","313","1550352","0.0-274.0-0.0","53484526","wem/bandit_either_3","A3DKYNYN50FYFY","either","1","329","","","","","","","1","0","0","0.9639410842","","0.4","0.8","0.6","0.2","","","","","0.9639410842","0.2876436191","0.3783923662","0.24601643","","","","","","","","72","H","0","img/none_selected.jpg","","234","main_expt",""
"","bandit","314","1552281","0.0-275.0-0.0","53484526","wem/bandit_either_3","A3DKYNYN50FYFY","either","1","412","","","","","","","1","0","0","0.9697187448","","0.4","0.8","0.6","0.2","","","","","0.9697187448","0.2769077257","0.2814299379","0.1629844561","","","","","","","","72","H","0","img/none_selected.jpg","","235","main_expt",""
"","bandit","315","1554273","0.0-276.0-0.0","53484526","wem/bandit_either_3","A3DKYNYN50FYFY","either","1","479","","","","","","","0","1","0","","0.9571573523","0.4","0.8","0.6","0.2","0.9571573523","0.136865198","0.3106100538","0.1929455839","","","","","","","","","","","","72","H","0","img/none_selected.jpg","","236","main_expt",""
"","bandit","316","1556294","0.0-277.0-0.0","53484526","wem/bandit_either_3","A3DKYNYN50FYFY","either","1","505","","","","","","","0","1","0","","0.9170696074","0.4","0.8","0.6","0.2","0.9170696074","0.1123790732","0.3152445528","0.1497712966","","","","","","","","","","","","72","H","0","img/none_selected.jpg","","237","main_expt",""
"","bandit","317","1558146","0.0-278.0-0.0","53484526","wem/bandit_either_3","A3DKYNYN50FYFY","either","1","338","","","","","","","0","1","0","","0.9207491077","0.4","0.8","0.6","0.2","0.9207491077","0.09027024906","0.2637175197","0.1526491196","","","","","","","","","","","","72","H","0","img/none_selected.jpg","","238","main_expt",""
"","bandit","318","1560033","0.0-279.0-0.0","53484526","wem/bandit_either_3","A3DKYNYN50FYFY","either","1","372","","","","","","","0","1","0","","0.9211301165","0.4","0.8","0.6","0.2","0.9211301165","0.08323179304","0.1889878372","0.1745924244","","","","","","","","","","","","72","H","0","img/none_selected.jpg","","239","main_expt",""
"","bandit","319","1562006","0.0-280.0-0.0","53484526","wem/bandit_either_3","A3DKYNYN50FYFY","either","1","457","","","","","","","0","1","0","","0.8992774771","0.4","0.8","0.6","0.2","0.8992774771","0.08130265934","0.1710885746","0.1159399908","","","","","","","","","","","","72","H","0","img/none_selected.jpg","","240","main_expt",""
"","bandit","320","1563943","0.0-281.0-0.0","53484526","wem/bandit_either_3","A3DKYNYN50FYFY","either","1","424","","","","","","","0","1","0","","0.8977441673","0.4","0.8","0.6","0.2","0.8977441673","0.1424736114","0.1232632504","0.1682101231","","","","","","","","","","","","72","H","0","img/none_selected.jpg","","241","main_expt",""
"","bandit","321","1565857","0.0-282.0-0.0","53484526","wem/bandit_either_3","A3DKYNYN50FYFY","either","1","400","","","","","","","0","1","0","","0.853076495","0.4","0.8","0.6","0.2","0.853076495","0.2433221762","0.210295675","0.1643169396","","","","","","","","","","","","72","H","0","img/none_selected.jpg","","242","main_expt",""
