"consent","trial_type","trial_index","time_elapsed","internal_node_id","subjID","study","MID","cond","drift","rt","responses","key_press","expt_phase","like","value","connected","gems","bombs","no_reward","GemPrChosen","BombPrChosen","GainOverPainPr_0","GainOverPainPr_1","GainOverPainPr_2","GainOverPainPr_3","LosePr_0","LosePr_1","LosePr_2","LosePr_3","WinPr_0","WinPr_1","WinPr_2","WinPr_3","Q0","Q1","Q2","gender","age","ethnicity","target","respCharCode","respKey","respChoiceNum","respChoice","practice","trial_counter","trial_label","button_pressed"
"INL_behavioral_consent_30min_online.html","consent","0","9953","0.0-0.0","54879446","wem/bandit_either_3","A1IXH2QLUU5BKZ","either","8","","","","","","","","","","","","","","","","","","","","","","","","","","","","","","","","","","","","","","",""
"","survey-text","1","17806","0.0-1.0","54879446","wem/bandit_either_3","A1IXH2QLUU5BKZ","either","8","6843","{""Q0"":""A1IXH2QLUU5BKZ""}","","","","","","","","","","","","","","","","","","","","","","","","","","","","","","","","","","","","",""
"","text","2","29156","0.0-2.0","54879446","wem/bandit_either_3","A1IXH2QLUU5BKZ","either","8","10343","","32","","","","","","","","","","","","","","","","","","","","","","","","","","","","","","","","","","","",""
"","text","3","35287","0.0-3.0","54879446","wem/bandit_either_3","A1IXH2QLUU5BKZ","either","8","6129","","32","","","","","","","","","","","","","","","","","","","","","","","","","","","","","","","","","","","",""
"","text","4","75312","0.0-4.0","54879446","wem/bandit_either_3","A1IXH2QLUU5BKZ","either","8","40024","","32","","","","","","","","","","","","","","","","","","","","","","","","","","","","","","","","","","","",""
"","text","5","86786","0.0-5.0","54879446","wem/bandit_either_3","A1IXH2QLUU5BKZ","either","8","11473","","32","","","","","","","","","","","","","","","","","","","","","","","","","","","","","","","","","","","",""
"","text","6","108062","0.0-6.0","54879446","wem/bandit_either_3","A1IXH2QLUU5BKZ","either","8","21274","","32","","","","","","","","","","","","","","","","","","","","","","","","","","","","","","","","","","","",""
"","text","7","114014","0.0-7.0","54879446","wem/bandit_either_3","A1IXH2QLUU5BKZ","either","8","5950","","32","","","","","","","","","","","","","","","","","","","","","","","","","","","","","","","","","","","",""
"","text","8","117770","0.0-8.0","54879446","wem/bandit_either_3","A1IXH2QLUU5BKZ","either","8","3755","","32","","","","","","","","","","","","","","","","","","","","","","","","","","","","","","","","","","","",""
"","identification","9","131256","0.0-9.0-0.0","54879446","wem/bandit_either_3","A1IXH2QLUU5BKZ","either","8","13472","","","","2","3","2","","","","","","","","","","","","","","","","","","","","","","","","the village of Zur","","","","","","","",""
"","identification","10","136847","0.0-9.0-1.0","54879446","wem/bandit_either_3","A1IXH2QLUU5BKZ","either","8","4577","","","","2","2","2","","","","","","","","","","","","","","","","","","","","","","","","the village of Nyx","","","","","","","",""
"","text","11","144366","0.0-10.0","54879446","wem/bandit_either_3","A1IXH2QLUU5BKZ","either","8","6513","","32","","","","","","","","","","","","","","","","","","","","","","","","","","","","","","","","","","","",""
"","text","12","147832","0.0-11.0","54879446","wem/bandit_either_3","A1IXH2QLUU5BKZ","either","8","3464","","32","","","","","","","","","","","","","","","","","","","","","","","","","","","","","","","","","","","",""
"","text","13","149299","0.0-12.0","54879446","wem/bandit_either_3","A1IXH2QLUU5BKZ","either","8","1464","","32","","","","","","","","","","","","","","","","","","","","","","","","","","","","","","","","","","","",""
"","text","14","155621","0.0-13.0","54879446","wem/bandit_either_3","A1IXH2QLUU5BKZ","either","8","6320","","32","","","","","","","","","","","","","","","","","","","","","","","","","","","","","","","","","","","",""
"","bandit","15","158941","0.0-14.0-0.0","54879446","wem/bandit_either_3","A1IXH2QLUU5BKZ","either","8","1809","","","","","","","0","0","1","0","0","","","","","0","","","","0","","","","","","","","","","","74","J","0","img/none_selected_demo.jpg","true","0","",""
"","bandit","16","162986","0.0-15.0-0.0","54879446","wem/bandit_either_3","A1IXH2QLUU5BKZ","either","8","2533","","","","","","","0","0","1","0","0","","","","","0","","","","0","","","","","","","","","","","75","K","0","img/none_selected_demo.jpg","true","0","",""
"","text","17","168446","0.0-16.0","54879446","wem/bandit_either_3","A1IXH2QLUU5BKZ","either","8","5458","","32","","","","","","","","","","","","","","","","","","","","","","","","","","","","","","","","","","","",""
"","text","18","175878","0.0-17.0","54879446","wem/bandit_either_3","A1IXH2QLUU5BKZ","either","8","7430","","32","","","","","","","","","","","","","","","","","","","","","","","","","","","","","","","","","","","",""
"","text","19","182506","0.0-18.0","54879446","wem/bandit_either_3","A1IXH2QLUU5BKZ","either","8","6627","","32","","","","","","","","","","","","","","","","","","","","","","","","","","","","","","","","","","","",""
"","text","20","184952","0.0-19.0","54879446","wem/bandit_either_3","A1IXH2QLUU5BKZ","either","8","2444","","32","","","","","","","","","","","","","","","","","","","","","","","","","","","","","","","","","","","",""
"","bandit","21","187457","0.0-20.0-0.0","54879446","wem/bandit_either_3","A1IXH2QLUU5BKZ","either","8","996","","","","","","","0","1","0","","0.8","0.5","0.5","","","0.8","0.2","","","","","","","","","","","","","","74","J","0","img/none_selected_demo.jpg","true","0","80_20_practice",""
"","bandit","22","189385","0.0-20.0-1.0","54879446","wem/bandit_either_3","A1IXH2QLUU5BKZ","either","8","415","","","","","","","0","1","0","","0.8","0.5","0.5","","","0.8","0.2","","","","","","","","","","","","","","74","J","0","img/none_selected_demo.jpg","true","0","80_20_practice",""
"","bandit","23","191375","0.0-20.0-2.0","54879446","wem/bandit_either_3","A1IXH2QLUU5BKZ","either","8","479","","","","","","","1","0","0","0.8","","0.5","0.5","","","","","","","0.8","0.2","","","","","","","","","","74","J","0","img/none_selected_demo.jpg","true","0","80_20_practice",""
"","bandit","24","193273","0.0-20.0-3.0","54879446","wem/bandit_either_3","A1IXH2QLUU5BKZ","either","8","387","","","","","","","0","1","0","","0.8","0.5","0.5","","","0.8","0.2","","","","","","","","","","","","","","74","J","0","img/none_selected_demo.jpg","true","0","80_20_practice",""
"","bandit","25","195241","0.0-20.0-4.0","54879446","wem/bandit_either_3","A1IXH2QLUU5BKZ","either","8","454","","","","","","","1","0","0","0.8","","0.5","0.5","","","","","","","0.8","0.2","","","","","","","","","","74","J","0","img/none_selected_demo.jpg","true","0","80_20_practice",""
"","bandit","26","197069","0.0-20.0-5.0","54879446","wem/bandit_either_3","A1IXH2QLUU5BKZ","either","8","317","","","","","","","1","0","0","0.8","","0.5","0.5","","","","","","","0.8","0.2","","","","","","","","","","74","J","0","img/none_selected_demo.jpg","true","0","80_20_practice",""
"","bandit","27","198869","0.0-20.0-6.0","54879446","wem/bandit_either_3","A1IXH2QLUU5BKZ","either","8","289","","","","","","","1","0","0","0.8","","0.5","0.5","","","","","","","0.8","0.2","","","","","","","","","","74","J","0","img/none_selected_demo.jpg","true","0","80_20_practice",""
"","bandit","28","200732","0.0-20.0-7.0","54879446","wem/bandit_either_3","A1IXH2QLUU5BKZ","either","8","353","","","","","","","1","0","0","0.8","","0.5","0.5","","","","","","","0.8","0.2","","","","","","","","","","74","J","0","img/none_selected_demo.jpg","true","0","80_20_practice",""
"","bandit","29","202566","0.0-20.0-8.0","54879446","wem/bandit_either_3","A1IXH2QLUU5BKZ","either","8","325","","","","","","","0","1","0","","0.8","0.5","0.5","","","0.8","0.2","","","","","","","","","","","","","","74","J","0","img/none_selected_demo.jpg","true","0","80_20_practice",""
"","bandit","30","204400","0.0-20.0-9.0","54879446","wem/bandit_either_3","A1IXH2QLUU5BKZ","either","8","321","","","","","","","1","0","0","0.8","","0.5","0.5","","","","","","","0.8","0.2","","","","","","","","","","74","J","0","img/none_selected_demo.jpg","true","0","80_20_practice",""
"","bandit","31","206130","0.0-20.0-10.0","54879446","wem/bandit_either_3","A1IXH2QLUU5BKZ","either","8","219","","","","","","","0","0","1","","0.2","0.5","0.5","","","0.8","0.2","","","","","","","","","","","","","","75","K","1","","true","0","80_20_practice",""
"","bandit","32","208068","0.0-20.0-11.0","54879446","wem/bandit_either_3","A1IXH2QLUU5BKZ","either","8","430","","","","","","","1","0","0","0.8","","0.5","0.5","","","","","","","0.8","0.2","","","","","","","","","","74","J","0","img/none_selected_demo.jpg","true","0","80_20_practice",""
"","bandit","33","209833","0.0-20.0-12.0","54879446","wem/bandit_either_3","A1IXH2QLUU5BKZ","either","8","255","","","","","","","0","1","0","","0.8","0.5","0.5","","","0.8","0.2","","","","","","","","","","","","","","74","J","0","img/none_selected_demo.jpg","true","0","80_20_practice",""
"","bandit","34","211475","0.0-20.0-13.0","54879446","wem/bandit_either_3","A1IXH2QLUU5BKZ","either","8","129","","","","","","","0","0","1","0.8","","0.5","0.5","","","","","","","0.8","0.2","","","","","","","","","","74","J","0","img/none_selected_demo.jpg","true","0","80_20_practice",""
"","bandit","35","213077","0.0-20.0-14.0","54879446","wem/bandit_either_3","A1IXH2QLUU5BKZ","either","8","96","","","","","","","0","0","1","0.8","","0.5","0.5","","","","","","","0.8","0.2","","","","","","","","","","74","J","0","img/none_selected_demo.jpg","true","0","80_20_practice",""
"","bandit","36","214783","0.0-20.0-15.0","54879446","wem/bandit_either_3","A1IXH2QLUU5BKZ","either","8","193","","","","","","","1","0","0","0.8","","0.5","0.5","","","","","","","0.8","0.2","","","","","","","","","","74","J","0","img/none_selected_demo.jpg","true","0","80_20_practice",""
"","bandit","37","216473","0.0-20.0-16.0","54879446","wem/bandit_either_3","A1IXH2QLUU5BKZ","either","8","178","","","","","","","1","0","0","0.8","","0.5","0.5","","","","","","","0.8","0.2","","","","","","","","","","74","J","0","img/none_selected_demo.jpg","true","0","80_20_practice",""
"","bandit","38","218051","0.0-20.0-17.0","54879446","wem/bandit_either_3","A1IXH2QLUU5BKZ","either","8","64","","","","","","","1","0","0","0.8","","0.5","0.5","","","","","","","0.8","0.2","","","","","","","","","","74","J","0","img/none_selected_demo.jpg","true","0","80_20_practice",""
"","bandit","39","219698","0.0-20.0-18.0","54879446","wem/bandit_either_3","A1IXH2QLUU5BKZ","either","8","139","","","","","","","0","1","0","","0.8","0.5","0.5","","","0.8","0.2","","","","","","","","","","","","","","74","J","0","img/none_selected_demo.jpg","true","0","80_20_practice",""
"","bandit","40","221311","0.0-20.0-19.0","54879446","wem/bandit_either_3","A1IXH2QLUU5BKZ","either","8","100","","","","","","","0","1","0","","0.8","0.5","0.5","","","0.8","0.2","","","","","","","","","","","","","","74","J","0","img/none_selected_demo.jpg","true","0","80_20_practice",""
"","text","41","223497","0.0-21.0","54879446","wem/bandit_either_3","A1IXH2QLUU5BKZ","either","8","2183","","32","","","","","","","","","","","","","","","","","","","","","","","","","","","","","","","","","","","",""
"","bandit","42","225864","0.0-22.0-0.0","54879446","wem/bandit_either_3","A1IXH2QLUU5BKZ","either","8","857","","","","","","","1","0","0","1","0","","","","","0","1","","","1","0","","","","","","","","","","74","J","0","img/none_selected_demo.jpg","true","0","",""
"","text","43","228913","0.0-23.0","54879446","wem/bandit_either_3","A1IXH2QLUU5BKZ","either","8","3046","","32","","","","","","","","","","","","","","","","","","","","","","","","","","","","","","","","","","","",""
"","text","44","233398","0.0-24.0","54879446","wem/bandit_either_3","A1IXH2QLUU5BKZ","either","8","4483","","32","","","","","","","","","","","","","","","","","","","","","","","","","","","","","","","","","","","",""
"","text","45","235599","0.0-25.0","54879446","wem/bandit_either_3","A1IXH2QLUU5BKZ","either","8","2199","","32","","","","","","","","","","","","","","","","","","","","","","","","","","","","","","","","","","","",""
"","text","46","238736","0.0-26.0","54879446","wem/bandit_either_3","A1IXH2QLUU5BKZ","either","8","3135","","32","","","","","","","","","","","","","","","","","","","","","","","","","","","","","","","","","","","",""
"","text","47","243809","0.0-27.0","54879446","wem/bandit_either_3","A1IXH2QLUU5BKZ","either","8","5071","","32","","","","","","","","","","","","","","","","","","","","","","","","","","","","","","","","","","","",""
"","text","48","247508","0.0-28.0","54879446","wem/bandit_either_3","A1IXH2QLUU5BKZ","either","8","3695","","32","","","","","","","","","","","","","","","","","","","","","","","","","","","","","","","","","","","",""
"","text","49","252014","0.0-29.0","54879446","wem/bandit_either_3","A1IXH2QLUU5BKZ","either","8","4503","","32","","","","","","","","","","","","","","","","","","","","","","","","","","","","","","","","","","","",""
"","text","50","256206","0.0-30.0","54879446","wem/bandit_either_3","A1IXH2QLUU5BKZ","either","8","4190","","32","","","","","","","","","","","","","","","","","","","","","","","","","","","","","","","","","","","",""
"","text","51","264067","0.0-31.0","54879446","wem/bandit_either_3","A1IXH2QLUU5BKZ","either","8","7858","","32","","","","","","","","","","","","","","","","","","","","","","","","","","","","","","","","","","","",""
"","text","52","266085","0.0-32.0","54879446","wem/bandit_either_3","A1IXH2QLUU5BKZ","either","8","2016","","32","","","","","","","","","","","","","","","","","","","","","","","","","","","","","","","","","","","",""
"","text","53","270844","0.0-33.0","54879446","wem/bandit_either_3","A1IXH2QLUU5BKZ","either","8","4756","","32","","","","","","","","","","","","","","","","","","","","","","","","","","","","","","","","","","","",""
"","bandit","54","273075","0.0-34.0-0.0","54879446","wem/bandit_either_3","A1IXH2QLUU5BKZ","either","8","704","","","","","","","0","0","1","0.8","","0.5","0.5","0.5","0.5","","","","","0.8","0.2","0.6","0.2","","","","","","","","72","H","0","img/none_selected.jpg","true","0","full_practice",""
"","bandit","55","274921","0.0-34.0-1.0","54879446","wem/bandit_either_3","A1IXH2QLUU5BKZ","either","8","331","","","","","","","1","0","0","0.8","","0.5","0.5","0.5","0.5","","","","","0.8","0.2","0.6","0.2","","","","","","","","72","H","0","img/none_selected.jpg","true","0","full_practice",""
"","bandit","56","276790","0.0-34.0-2.0","54879446","wem/bandit_either_3","A1IXH2QLUU5BKZ","either","8","357","","","","","","","0","1","0","","0.8","0.5","0.5","0.5","0.5","0.8","0.2","0.6","0.2","","","","","","","","","","","","72","H","0","img/none_selected.jpg","true","0","full_practice",""
"","bandit","57","278397","0.0-34.0-3.0","54879446","wem/bandit_either_3","A1IXH2QLUU5BKZ","either","8","93","","","","","","","0","1","0","","0.8","0.5","0.5","0.5","0.5","0.8","0.2","0.6","0.2","","","","","","","","","","","","72","H","0","img/none_selected.jpg","true","0","full_practice",""
"","bandit","58","279918","0.0-34.0-4.0","54879446","wem/bandit_either_3","A1IXH2QLUU5BKZ","either","8","11","","","","","","","1","0","0","0.8","","0.5","0.5","0.5","0.5","","","","","0.8","0.2","0.6","0.2","","","","","","","","72","H","0","img/none_selected.jpg","true","0","full_practice",""
"","bandit","59","281631","0.0-34.0-5.0","54879446","wem/bandit_either_3","A1IXH2QLUU5BKZ","either","8","202","","","","","","","1","0","0","0.8","","0.5","0.5","0.5","0.5","","","","","0.8","0.2","0.6","0.2","","","","","","","","72","H","0","img/none_selected.jpg","true","0","full_practice",""
"","bandit","60","283284","0.0-34.0-6.0","54879446","wem/bandit_either_3","A1IXH2QLUU5BKZ","either","8","139","","","","","","","0","1","0","","0.8","0.5","0.5","0.5","0.5","0.8","0.2","0.6","0.2","","","","","","","","","","","","72","H","0","img/none_selected.jpg","true","0","full_practice",""
"","bandit","61","284880","0.0-34.0-7.0","54879446","wem/bandit_either_3","A1IXH2QLUU5BKZ","either","8","78","","","","","","","1","0","0","0.8","","0.5","0.5","0.5","0.5","","","","","0.8","0.2","0.6","0.2","","","","","","","","72","H","0","img/none_selected.jpg","true","0","full_practice",""
"","bandit","62","286463","0.0-34.0-8.0","54879446","wem/bandit_either_3","A1IXH2QLUU5BKZ","either","8","71","","","","","","","1","0","0","0.8","","0.5","0.5","0.5","0.5","","","","","0.8","0.2","0.6","0.2","","","","","","","","72","H","0","img/none_selected.jpg","true","0","full_practice",""
"","bandit","63","288143","0.0-34.0-9.0","54879446","wem/bandit_either_3","A1IXH2QLUU5BKZ","either","8","173","","","","","","","1","0","0","0.8","","0.5","0.5","0.5","0.5","","","","","0.8","0.2","0.6","0.2","","","","","","","","72","H","0","img/none_selected.jpg","true","0","full_practice",""
"","bandit","64","289750","0.0-34.0-10.0","54879446","wem/bandit_either_3","A1IXH2QLUU5BKZ","either","8","98","","","","","","","0","0","1","0.8","","0.5","0.5","0.5","0.5","","","","","0.8","0.2","0.6","0.2","","","","","","","","72","H","0","img/none_selected.jpg","true","0","full_practice",""
"","bandit","65","291416","0.0-34.0-11.0","54879446","wem/bandit_either_3","A1IXH2QLUU5BKZ","either","8","154","","","","","","","0","0","1","","0.2","0.5","0.5","0.5","0.5","0.8","0.2","0.6","0.2","","","","","","","","","","","","74","J","1","","true","0","full_practice",""
"","bandit","66","293007","0.0-34.0-12.0","54879446","wem/bandit_either_3","A1IXH2QLUU5BKZ","either","8","78","","","","","","","0","0","1","","0.6","0.5","0.5","0.5","0.5","0.8","0.2","0.6","0.2","","","","","","","","","","","","75","K","2","","true","0","full_practice",""
"","bandit","67","294648","0.0-34.0-13.0","54879446","wem/bandit_either_3","A1IXH2QLUU5BKZ","either","8","129","","","","","","","0","0","1","","0.2","0.5","0.5","0.5","0.5","0.8","0.2","0.6","0.2","","","","","","","","","","","","76","L","3","","true","0","full_practice",""
"","bandit","68","296367","0.0-34.0-14.0","54879446","wem/bandit_either_3","A1IXH2QLUU5BKZ","either","8","209","","","","","","","0","1","0","","0.8","0.5","0.5","0.5","0.5","0.8","0.2","0.6","0.2","","","","","","","","","","","","72","H","0","img/none_selected.jpg","true","0","full_practice",""
"","bandit","69","297957","0.0-34.0-15.0","54879446","wem/bandit_either_3","A1IXH2QLUU5BKZ","either","8","82","","","","","","","1","0","0","0.8","","0.5","0.5","0.5","0.5","","","","","0.8","0.2","0.6","0.2","","","","","","","","72","H","0","img/none_selected.jpg","true","0","full_practice",""
"","bandit","70","299711","0.0-34.0-16.0","54879446","wem/bandit_either_3","A1IXH2QLUU5BKZ","either","8","241","","","","","","","0","0","1","","0.8","0.5","0.5","0.5","0.5","0.8","0.2","0.6","0.2","","","","","","","","","","","","72","H","0","img/none_selected.jpg","true","0","full_practice",""
"","bandit","71","301347","0.0-34.0-17.0","54879446","wem/bandit_either_3","A1IXH2QLUU5BKZ","either","8","121","","","","","","","1","0","0","0.8","","0.5","0.5","0.5","0.5","","","","","0.8","0.2","0.6","0.2","","","","","","","","72","H","0","img/none_selected.jpg","true","0","full_practice",""
"","bandit","72","302868","0.0-34.0-18.0","54879446","wem/bandit_either_3","A1IXH2QLUU5BKZ","either","8","11","","","","","","","0","0","1","","0.8","0.5","0.5","0.5","0.5","0.8","0.2","0.6","0.2","","","","","","","","","","","","72","H","0","img/none_selected.jpg","true","0","full_practice",""
"","bandit","73","304377","0.0-34.0-19.0","54879446","wem/bandit_either_3","A1IXH2QLUU5BKZ","either","8","1","","","","","","","0","0","1","","0.8","0.5","0.5","0.5","0.5","0.8","0.2","0.6","0.2","","","","","","","","","","","","72","H","0","img/none_selected.jpg","true","0","full_practice",""
"","text","74","306967","0.0-35.0","54879446","wem/bandit_either_3","A1IXH2QLUU5BKZ","either","8","2585","","32","","","","","","","","","","","","","","","","","","","","","","","","","","","","","","","","","","","",""
"","text","75","317679","0.0-36.0","54879446","wem/bandit_either_3","A1IXH2QLUU5BKZ","either","8","9705","","32","","","","","","","","","","","","","","","","","","","","","","","","","","","","","","","","","","","",""
"","text","76","329237","0.0-37.0","54879446","wem/bandit_either_3","A1IXH2QLUU5BKZ","either","8","11556","","32","","","","","","","","","","","","","","","","","","","","","","","","","","","","","","","","","","","",""
"","text","77","334669","0.0-38.0","54879446","wem/bandit_either_3","A1IXH2QLUU5BKZ","either","8","5429","","32","","","","","","","","","","","","","","","","","","","","","","","","","","","","","","","","","","","",""
"","text","78","340884","0.0-39.0","54879446","wem/bandit_either_3","A1IXH2QLUU5BKZ","either","8","6212","","32","","","","","","","","","","","","","","","","","","","","","","","","","","","","","","","","","","","",""
"","text","79","347068","0.0-40.0","54879446","wem/bandit_either_3","A1IXH2QLUU5BKZ","either","8","6183","","32","","","","","","","","","","","","","","","","","","","","","","","","","","","","","","","","","","","",""
"","bandit","80","349345","0.0-41.0-0.0","54879446","wem/bandit_either_3","A1IXH2QLUU5BKZ","either","8","765","","","","","","","0","1","0","","0.4468950172","0.6","0.2","0.4","0.8","0.4468950172","0.2428949588","0.6337563202","0.3040937467","","","","","","","","","","","","72","H","0","img/none_selected.jpg","","1","main_expt",""
"","bandit","81","351240","0.0-42.0-0.0","54879446","wem/bandit_either_3","A1IXH2QLUU5BKZ","either","8","385","","","","","","","0","0","1","","0.248961424","0.6","0.2","0.4","0.8","0.3846124694","0.248961424","0.7380673114","0.2687625136","","","","","","","","","","","","74","J","1","","","2","main_expt",""
"","bandit","82","353004","0.0-43.0-0.0","54879446","wem/bandit_either_3","A1IXH2QLUU5BKZ","either","8","254","","","","","","","1","0","0","0.7715549737","","0.6","0.2","0.4","0.8","","","","","0.3885967974","0.1878604038","0.7715549737","0.3017919557","","","","","","","","75","K","2","","","3","main_expt",""
"","bandit","83","354796","0.0-44.0-0.0","54879446","wem/bandit_either_3","A1IXH2QLUU5BKZ","either","8","280","","","","","","","1","0","0","0.8257013646","","0.6","0.2","0.4","0.8","","","","","0.2891644394","0.1194049449","0.8257013646","0.3388517529","","","","","","","","75","K","2","","","4","main_expt",""
"","bandit","84","356567","0.0-45.0-0.0","54879446","wem/bandit_either_3","A1IXH2QLUU5BKZ","either","8","258","","","","","","","0","0","1","0.389096829","","0.6","0.2","0.4","0.8","","","","","0.2654579937","0.197046458","0.8617886559","0.389096829","","","","","","","","76","L","3","","","5","main_expt",""
"","bandit","85","358259","0.0-46.0-0.0","54879446","wem/bandit_either_3","A1IXH2QLUU5BKZ","either","8","178","","","","","","","0","1","0","","0.8452125903","0.6","0.2","0.4","0.8","0.355160999","0.2312720201","0.8452125903","0.4799636182","","","","","","","","","","","","75","K","2","","","6","main_expt",""
"","bandit","86","360108","0.0-47.0-0.0","54879446","wem/bandit_either_3","A1IXH2QLUU5BKZ","either","8","338","","","","","","","1","0","0","0.8765288384","","0.6","0.2","0.4","0.8","","","","","0.4733904832","0.3255591742","0.8765288384","0.5316557606","","","","","","","","75","K","2","","","7","main_expt",""
"","bandit","87","361827","0.0-48.0-0.0","54879446","wem/bandit_either_3","A1IXH2QLUU5BKZ","either","8","205","","","","","","","0","1","0","","0.8625068071","0.6","0.2","0.4","0.8","0.4900136729","0.163151729","0.8625068071","0.4935712437","","","","","","","","","","","","75","K","2","","","8","main_expt",""
"","bandit","88","363463","0.0-49.0-0.0","54879446","wem/bandit_either_3","A1IXH2QLUU5BKZ","either","8","126","","","","","","","0","1","0","","0.8385781597","0.6","0.2","0.4","0.8","0.4543552171","0.1671639775","0.8385781597","0.5400450001","","","","","","","","","","","","75","K","2","","","9","main_expt",""
"","bandit","89","365226","0.0-50.0-0.0","54879446","wem/bandit_either_3","A1IXH2QLUU5BKZ","either","8","253","","","","","","","0","1","0","","0.833356221","0.6","0.2","0.4","0.8","0.4523920981","0.1315225434","0.833356221","0.6510952772","","","","","","","","","","","","75","K","2","","","10","main_expt",""
"","bandit","90","366818","0.0-51.0-0.0","54879446","wem/bandit_either_3","A1IXH2QLUU5BKZ","either","8","77","","","","","","","1","0","0","0.9030756702","","0.6","0.2","0.4","0.8","","","","","0.4053083118","0.1287002637","0.9030756702","0.6117649901","","","","","","","","75","K","2","","","11","main_expt",""
"","bandit","91","368398","0.0-52.0-0.0","54879446","wem/bandit_either_3","A1IXH2QLUU5BKZ","either","8","68","","","","","","","0","1","0","","0.9129290363","0.6","0.2","0.4","0.8","0.4059907931","0.1026596936","0.9129290363","0.6360746298","","","","","","","","","","","","75","K","2","","","12","main_expt",""
"","bandit","92","370040","0.0-53.0-0.0","54879446","wem/bandit_either_3","A1IXH2QLUU5BKZ","either","8","129","","","","","","","0","0","1","0.8638417716","","0.6","0.2","0.4","0.8","","","","","0.2934167972","0.1287514256","0.8638417716","0.5673960652","","","","","","","","75","K","2","","","13","main_expt",""
"","bandit","93","371671","0.0-54.0-0.0","54879446","wem/bandit_either_3","A1IXH2QLUU5BKZ","either","8","119","","","","","","","1","0","0","0.787806988","","0.6","0.2","0.4","0.8","","","","","0.3260927596","0.1786171179","0.787806988","0.6747725803","","","","","","","","75","K","2","","","14","main_expt",""
"","bandit","94","373334","0.0-55.0-0.0","54879446","wem/bandit_either_3","A1IXH2QLUU5BKZ","either","8","152","","","","","","","0","1","0","","0.7254212376","0.6","0.2","0.4","0.8","0.3355382734","0.1459410532","0.7254212376","0.6277188345","","","","","","","","","","","","75","K","2","","","15","main_expt",""
"","bandit","95","374851","0.0-56.0-0.0","54879446","wem/bandit_either_3","A1IXH2QLUU5BKZ","either","8","1","","","","","","","1","0","0","0.7238415528","","0.6","0.2","0.4","0.8","","","","","0.3040928121","0.2255600906","0.7238415528","0.5435568235","","","","","","","","75","K","2","","","16","main_expt",""
"","bandit","96","376482","0.0-57.0-0.0","54879446","wem/bandit_either_3","A1IXH2QLUU5BKZ","either","8","114","","","","","","","1","0","0","0.7796243455","","0.6","0.2","0.4","0.8","","","","","0.2730366263","0.2052013943","0.7796243455","0.4180161478","","","","","","","","75","K","2","","","17","main_expt",""
"","bandit","97","378373","0.0-58.0-0.0","54879446","wem/bandit_either_3","A1IXH2QLUU5BKZ","either","8","378","","","","","","","0","1","0","","0.6928902724","0.6","0.2","0.4","0.8","0.4105298721","0.1780354615","0.6928902724","0.4961111773","","","","","","","","","","","","75","K","2","","","18","main_expt",""
"","bandit","98","380133","0.0-59.0-0.0","54879446","wem/bandit_either_3","A1IXH2QLUU5BKZ","either","8","250","","","","","","","0","0","1","","0.7658630901","0.6","0.2","0.4","0.8","0.3586923344","0.1576496117","0.7658630901","0.445530788","","","","","","","","","","","","75","K","2","","","19","main_expt",""
"","bandit","99","381948","0.0-60.0-0.0","54879446","wem/bandit_either_3","A1IXH2QLUU5BKZ","either","8","297","","","","","","","1","0","0","0.7584200513","","0.6","0.2","0.4","0.8","","","","","0.3220075653","0.1618752313","0.7584200513","0.3443163705","","","","","","","","75","K","2","","","20","main_expt",""
"","bandit","100","383795","0.0-61.0-0.0","54879446","wem/bandit_either_3","A1IXH2QLUU5BKZ","either","8","332","","","","","","","0","1","0","","0.7727038765","0.6","0.2","0.4","0.8","0.2729660799","0.2152187387","0.7727038765","0.3012808647","","","","","","","","","","","","75","K","2","","","21","main_expt",""
"","bandit","101","385659","0.0-62.0-0.0","54879446","wem/bandit_either_3","A1IXH2QLUU5BKZ","either","8","348","","","","","","","1","0","0","0.8152565923","","0.6","0.2","0.4","0.8","","","","","0.2712352107","0.3547982299","0.8152565923","0.2882062485","","","","","","","","75","K","2","","","22","main_expt",""
"","bandit","102","387469","0.0-63.0-0.0","54879446","wem/bandit_either_3","A1IXH2QLUU5BKZ","either","8","297","","","","","","","1","0","0","0.7537075358","","0.6","0.2","0.4","0.8","","","","","0.3390855774","0.323805638","0.7537075358","0.2113421372","","","","","","","","75","K","2","","","23","main_expt",""
"","bandit","103","389310","0.0-64.0-0.0","54879446","wem/bandit_either_3","A1IXH2QLUU5BKZ","either","8","327","","","","","","","0","0","1","","0.7108822858","0.6","0.2","0.4","0.8","0.3483259141","0.3588909826","0.7108822858","0.2201805416","","","","","","","","","","","","75","K","2","","","24","main_expt",""
"","bandit","104","391189","0.0-65.0-0.0","54879446","wem/bandit_either_3","A1IXH2QLUU5BKZ","either","8","364","","","","","","","0","1","0","","0.6930515954","0.6","0.2","0.4","0.8","0.3416976173","0.3885553436","0.6930515954","0.2580956466","","","","","","","","","","","","75","K","2","","","25","main_expt",""
"","bandit","105","393042","0.0-66.0-0.0","54879446","wem/bandit_either_3","A1IXH2QLUU5BKZ","either","8","341","","","","","","","0","1","0","","0.6905393417","0.6","0.2","0.4","0.8","0.4243476322","0.4871556374","0.6905393417","0.2153432854","","","","","","","","","","","","75","K","2","","","26","main_expt",""
"","bandit","106","394934","0.0-67.0-0.0","54879446","wem/bandit_either_3","A1IXH2QLUU5BKZ","either","8","378","","","","","","","0","0","1","","0.7531652131","0.6","0.2","0.4","0.8","0.5257754898","0.4934119911","0.7531652131","0.1727955236","","","","","","","","","","","","75","K","2","","","27","main_expt",""
"","bandit","107","396744","0.0-68.0-0.0","54879446","wem/bandit_either_3","A1IXH2QLUU5BKZ","either","8","297","","","","","","","0","1","0","","0.8001777041","0.6","0.2","0.4","0.8","0.5246232361","0.4322092846","0.8001777041","0.1894296703","","","","","","","","","","","","75","K","2","","","28","main_expt",""
"","bandit","108","398579","0.0-69.0-0.0","54879446","wem/bandit_either_3","A1IXH2QLUU5BKZ","either","8","323","","","","","","","1","0","0","0.8118404327","","0.6","0.2","0.4","0.8","","","","","0.375994784","0.3459113699","0.8118404327","0.2128919211","","","","","","","","75","K","2","","","29","main_expt",""
"","bandit","109","400342","0.0-70.0-0.0","54879446","wem/bandit_either_3","A1IXH2QLUU5BKZ","either","8","251","","","","","","","0","1","0","","0.7839534503","0.6","0.2","0.4","0.8","0.2936890161","0.280789843","0.7839534503","0.206056468","","","","","","","","","","","","75","K","2","","","30","main_expt",""
"","bandit","110","402148","0.0-71.0-0.0","54879446","wem/bandit_either_3","A1IXH2QLUU5BKZ","either","8","291","","","","","","","1","0","0","0.8066372971","","0.6","0.2","0.4","0.8","","","","","0.2878812258","0.2613810438","0.8066372971","0.1725623241","","","","","","","","75","K","2","","","31","main_expt",""
"","bandit","111","403988","0.0-72.0-0.0","54879446","wem/bandit_either_3","A1IXH2QLUU5BKZ","either","8","326","","","","","","","0","1","0","","0.8049259064","0.6","0.2","0.4","0.8","0.2451492808","0.3821585683","0.8049259064","0.1629883914","","","","","","","","","","","","75","K","2","","","32","main_expt",""
"","bandit","112","405574","0.0-73.0-0.0","54879446","wem/bandit_either_3","A1IXH2QLUU5BKZ","either","8","79","","","","","","","1","0","0","0.7891664673","","0.6","0.2","0.4","0.8","","","","","0.2802113289","0.2714925976","0.7891664673","0.2107911223","","","","","","","","75","K","2","","","33","main_expt",""
"","bandit","113","407198","0.0-74.0-0.0","54879446","wem/bandit_either_3","A1IXH2QLUU5BKZ","either","8","110","","","","","","","0","1","0","","0.7854278051","0.6","0.2","0.4","0.8","0.2892342718","0.2755575364","0.7854278051","0.1025901997","","","","","","","","","","","","75","K","2","","","34","main_expt",""
"","bandit","114","409049","0.0-75.0-0.0","54879446","wem/bandit_either_3","A1IXH2QLUU5BKZ","either","8","337","","","","","","","1","0","0","0.7260182018","","0.6","0.2","0.4","0.8","","","","","0.2486893666","0.2697856654","0.7260182018","0.1289879153","","","","","","","","75","K","2","","","35","main_expt",""
"","bandit","115","410854","0.0-76.0-0.0","54879446","wem/bandit_either_3","A1IXH2QLUU5BKZ","either","8","291","","","","","","","0","0","1","0.7910957192","","0.6","0.2","0.4","0.8","","","","","0.3536408983","0.2483646443","0.7910957192","0.1645491317","","","","","","","","75","K","2","","","36","main_expt",""
"","bandit","116","412584","0.0-77.0-0.0","54879446","wem/bandit_either_3","A1IXH2QLUU5BKZ","either","8","220","","","","","","","1","0","0","0.7996551039","","0.6","0.2","0.4","0.8","","","","","0.2493566902","0.2103950957","0.7996551039","0.1698046746","","","","","","","","75","K","2","","","37","main_expt",""
"","bandit","117","414424","0.0-78.0-0.0","54879446","wem/bandit_either_3","A1IXH2QLUU5BKZ","either","8","328","","","","","","","1","0","0","0.6717479894","","0.6","0.2","0.4","0.8","","","","","0.2948354516","0.2128944509","0.6717479894","0.2281502886","","","","","","","","75","K","2","","","38","main_expt",""
"","bandit","118","416095","0.0-79.0-0.0","54879446","wem/bandit_either_3","A1IXH2QLUU5BKZ","either","8","156","","","","","","","0","0","1","","0.7121128808","0.6","0.2","0.4","0.8","0.3373274679","0.2965153327","0.7121128808","0.1561271762","","","","","","","","","","","","75","K","2","","","39","main_expt",""
"","bandit","119","417866","0.0-80.0-0.0","54879446","wem/bandit_either_3","A1IXH2QLUU5BKZ","either","8","258","","","","","","","0","1","0","","0.7157410044","0.6","0.2","0.4","0.8","0.4138768052","0.4447532253","0.7157410044","0.1543620621","","","","","","","","","","","","75","K","2","","","40","main_expt",""
"","bandit","120","419683","0.0-81.0-0.0","54879446","wem/bandit_either_3","A1IXH2QLUU5BKZ","either","8","302","","","","","","","0","0","1","","0.681196038","0.6","0.2","0.4","0.8","0.438096834","0.5330008696","0.681196038","0.2271499981","","","","","","","","","","","","75","K","2","","","41","main_expt",""
"","bandit","121","421662","0.0-82.0-0.0","54879446","wem/bandit_either_3","A1IXH2QLUU5BKZ","either","8","463","","","","","","","0","0","1","0.4185173612","","0.6","0.2","0.4","0.8","","","","","0.4185173612","0.573861049","0.6504320647","0.2882452936","","","","","","","","72","H","0","img/none_selected.jpg","","42","main_expt",""
"","bandit","122","423241","0.0-83.0-0.0","54879446","wem/bandit_either_3","A1IXH2QLUU5BKZ","either","8","66","","","","","","","0","1","0","","0.6654349765","0.6","0.2","0.4","0.8","0.3796335567","0.6654349765","0.7369830744","0.298522686","","","","","","","","","","","","74","J","1","","","43","main_expt",""
"","bandit","123","425039","0.0-84.0-0.0","54879446","wem/bandit_either_3","A1IXH2QLUU5BKZ","either","8","282","","","","","","","0","1","0","","0.691198465","0.6","0.2","0.4","0.8","0.31766129","0.691198465","0.6797935378","0.3188886026","","","","","","","","","","","","74","J","1","","","44","main_expt",""
"","bandit","124","426885","0.0-85.0-0.0","54879446","wem/bandit_either_3","A1IXH2QLUU5BKZ","either","8","336","","","","","","","0","1","0","","0.7652674903","0.6","0.2","0.4","0.8","0.4047397141","0.7652674903","0.6507473666","0.2705760174","","","","","","","","","","","","74","J","1","","","45","main_expt",""
"","bandit","125","428603","0.0-86.0-0.0","54879446","wem/bandit_either_3","A1IXH2QLUU5BKZ","either","8","204","","","","","","","0","1","0","","0.8065230058","0.6","0.2","0.4","0.8","0.4961613307","0.8065230058","0.6334510787","0.2506880939","","","","","","","","","","","","74","J","1","","","46","main_expt",""
"","bandit","126","430502","0.0-87.0-0.0","54879446","wem/bandit_either_3","A1IXH2QLUU5BKZ","either","8","387","","","","","","","0","0","1","","0.7774474893","0.6","0.2","0.4","0.8","0.4624468315","0.7774474893","0.6143175143","0.2491585872","","","","","","","","","","","","74","J","1","","","47","main_expt",""
"","bandit","127","432121","0.0-88.0-0.0","54879446","wem/bandit_either_3","A1IXH2QLUU5BKZ","either","8","107","","","","","","","0","1","0","","0.7693176975","0.6","0.2","0.4","0.8","0.4886537242","0.7693176975","0.6404512611","0.1997021219","","","","","","","","","","","","74","J","1","","","48","main_expt",""
"","bandit","128","433994","0.0-89.0-0.0","54879446","wem/bandit_either_3","A1IXH2QLUU5BKZ","either","8","359","","","","","","","0","1","0","","0.807419373","0.6","0.2","0.4","0.8","0.4270302022","0.807419373","0.6758621215","0.2119577724","","","","","","","","","","","","74","J","1","","","49","main_expt",""
"","bandit","129","435777","0.0-90.0-0.0","54879446","wem/bandit_either_3","A1IXH2QLUU5BKZ","either","8","271","","","","","","","0","0","1","","0.8562769227","0.6","0.2","0.4","0.8","0.5151345658","0.8562769227","0.6873234502","0.2615271711","","","","","","","","","","","","74","J","1","","","50","main_expt",""
"","bandit","130","437652","0.0-91.0-0.0","54879446","wem/bandit_either_3","A1IXH2QLUU5BKZ","either","8","361","","","","","","","1","0","0","0.2764427577","","0.6","0.2","0.4","0.8","","","","","0.5134524181","0.8705114925","0.7776044395","0.2764427577","","","","","","","","76","L","3","","","51","main_expt",""
"","bandit","131","439399","0.0-92.0-0.0","54879446","wem/bandit_either_3","A1IXH2QLUU5BKZ","either","8","234","","","","","","","0","0","1","0.3833776697","","0.6","0.2","0.4","0.8","","","","","0.4842684999","0.9310361031","0.8403410939","0.3833776697","","","","","","","","76","L","3","","","52","main_expt",""
"","bandit","132","441066","0.0-93.0-0.0","54879446","wem/bandit_either_3","A1IXH2QLUU5BKZ","either","8","153","","","","","","","1","0","0","0.4356502318","","0.6","0.2","0.4","0.8","","","","","0.4412850773","0.905794742","0.8151983534","0.4356502318","","","","","","","","76","L","3","","","53","main_expt",""
"","bandit","133","442828","0.0-94.0-0.0","54879446","wem/bandit_either_3","A1IXH2QLUU5BKZ","either","8","247","","","","","","","1","0","0","0.4120588364","","0.6","0.2","0.4","0.8","","","","","0.4397693946","0.9391541593","0.8081222638","0.4120588364","","","","","","","","76","L","3","","","54","main_expt",""
"","bandit","134","444681","0.0-95.0-0.0","54879446","wem/bandit_either_3","A1IXH2QLUU5BKZ","either","8","341","","","","","","","0","0","1","0.2714296105","","0.6","0.2","0.4","0.8","","","","","0.3928202278","0.9596285882","0.742009976","0.2714296105","","","","","","","","76","L","3","","","55","main_expt",""
"","bandit","135","446467","0.0-96.0-0.0","54879446","wem/bandit_either_3","A1IXH2QLUU5BKZ","either","8","277","","","","","","","1","0","0","0.2122311877","","0.6","0.2","0.4","0.8","","","","","0.4593665993","0.9565658233","0.7065076074","0.2122311877","","","","","","","","76","L","3","","","56","main_expt",""
"","bandit","136","448076","0.0-97.0-0.0","54879446","wem/bandit_either_3","A1IXH2QLUU5BKZ","either","8","94","","","","","","","1","0","0","0.2282278588","","0.6","0.2","0.4","0.8","","","","","0.4006145211","0.9681540372","0.6860695476","0.2282278588","","","","","","","","76","L","3","","","57","main_expt",""
"","bandit","137","449708","0.0-98.0-0.0","54879446","wem/bandit_either_3","A1IXH2QLUU5BKZ","either","8","119","","","","","","","1","0","0","0.1392076118","","0.6","0.2","0.4","0.8","","","","","0.4597890412","0.9207083952","0.742301155","0.1392076118","","","","","","","","76","L","3","","","58","main_expt",""
"","bandit","138","451542","0.0-99.0-0.0","54879446","wem/bandit_either_3","A1IXH2QLUU5BKZ","either","8","320","","","","","","","0","0","1","","0.1706239206","0.6","0.2","0.4","0.8","0.4232266093","0.9178227258","0.5291004622","0.1706239206","","","","","","","","","","","","76","L","3","","","59","main_expt",""
"","bandit","139","453765","0.0-100.0-0.0","54879446","wem/bandit_either_3","A1IXH2QLUU5BKZ","either","8","712","","","","","","","0","0","1","0.3565880291","","0.6","0.2","0.4","0.8","","","","","0.3565880291","0.8951285427","0.6348838793","0.1674269281","","","","","","","","72","H","0","img/none_selected.jpg","","60","main_expt",""
"","bandit","140","455510","0.0-101.0-0.0","54879446","wem/bandit_either_3","A1IXH2QLUU5BKZ","either","8","234","","","","","","","0","1","0","","0.8506814954","0.6","0.2","0.4","0.8","0.3663276413","0.8506814954","0.6796423313","0.2182313474","","","","","","","","","","","","74","J","1","","","61","main_expt",""
"","bandit","141","457367","0.0-102.0-0.0","54879446","wem/bandit_either_3","A1IXH2QLUU5BKZ","either","8","342","","","","","","","0","1","0","","0.8513854559","0.6","0.2","0.4","0.8","0.3193005293","0.8513854559","0.6928172916","0.2949218256","","","","","","","","","","","","74","J","1","","","62","main_expt",""
"","bandit","142","459087","0.0-103.0-0.0","54879446","wem/bandit_either_3","A1IXH2QLUU5BKZ","either","8","207","","","","","","","0","1","0","","0.8927579502","0.6","0.2","0.4","0.8","0.1562068481","0.8927579502","0.6996506825","0.3170222383","","","","","","","","","","","","74","J","1","","","63","main_expt",""
"","bandit","143","460851","0.0-104.0-0.0","54879446","wem/bandit_either_3","A1IXH2QLUU5BKZ","either","8","250","","","","","","","0","1","0","","0.9217936765","0.6","0.2","0.4","0.8","0.2300477965","0.9217936765","0.7294442249","0.3033511374","","","","","","","","","","","","74","J","1","","","64","main_expt",""
"","bandit","144","462459","0.0-105.0-0.0","54879446","wem/bandit_either_3","A1IXH2QLUU5BKZ","either","8","91","","","","","","","1","0","0","0.9357047413","","0.6","0.2","0.4","0.8","","","","","0.2869838185","0.9357047413","0.6605354899","0.3973690147","","","","","","","","74","J","1","","","65","main_expt",""
"","bandit","145","464206","0.0-106.0-0.0","54879446","wem/bandit_either_3","A1IXH2QLUU5BKZ","either","8","236","","","","","","","0","1","0","","0.910343843","0.6","0.2","0.4","0.8","0.3287476356","0.910343843","0.6959621059","0.4320294497","","","","","","","","","","","","74","J","1","","","66","main_expt",""
"","bandit","146","465989","0.0-107.0-0.0","54879446","wem/bandit_either_3","A1IXH2QLUU5BKZ","either","8","269","","","","","","","0","1","0","","0.9022080512","0.6","0.2","0.4","0.8","0.3018365728","0.9022080512","0.653899752","0.3208465419","","","","","","","","","","","","74","J","1","","","67","main_expt",""
"","bandit","147","467661","0.0-108.0-0.0","54879446","wem/bandit_either_3","A1IXH2QLUU5BKZ","either","8","159","","","","","","","0","1","0","","0.8492414063","0.6","0.2","0.4","0.8","0.3208616414","0.8492414063","0.6517851336","0.3570730799","","","","","","","","","","","","74","J","1","","","68","main_expt",""
"","bandit","148","469431","0.0-109.0-0.0","54879446","wem/bandit_either_3","A1IXH2QLUU5BKZ","either","8","254","","","","","","","0","1","0","","0.768219052","0.6","0.2","0.4","0.8","0.386863802","0.768219052","0.7011615004","0.3451514791","","","","","","","","","","","","74","J","1","","","69","main_expt",""
"","bandit","149","471090","0.0-110.0-0.0","54879446","wem/bandit_either_3","A1IXH2QLUU5BKZ","either","8","145","","","","","","","0","1","0","","0.7996218848","0.6","0.2","0.4","0.8","0.3628244161","0.7996218848","0.6278947594","0.3127714871","","","","","","","","","","","","74","J","1","","","70","main_expt",""
"","bandit","150","472808","0.0-111.0-0.0","54879446","wem/bandit_either_3","A1IXH2QLUU5BKZ","either","8","205","","","","","","","0","1","0","","0.9130189757","0.6","0.2","0.4","0.8","0.2969295023","0.9130189757","0.688517509","0.3855297895","","","","","","","","","","","","74","J","1","","","71","main_expt",""
"","bandit","151","474422","0.0-112.0-0.0","54879446","wem/bandit_either_3","A1IXH2QLUU5BKZ","either","8","99","","","","","","","1","0","0","0.9016843832","","0.6","0.2","0.4","0.8","","","","","0.3512325323","0.9016843832","0.6125440106","0.3555010044","","","","","","","","74","J","1","","","72","main_expt",""
"","bandit","152","476070","0.0-113.0-0.0","54879446","wem/bandit_either_3","A1IXH2QLUU5BKZ","either","8","135","","","","","","","1","0","0","0.9166584401","","0.6","0.2","0.4","0.8","","","","","0.3845321254","0.9166584401","0.4884410468","0.3278360739","","","","","","","","74","J","1","","","73","main_expt",""
"","bandit","153","477827","0.0-114.0-0.0","54879446","wem/bandit_either_3","A1IXH2QLUU5BKZ","either","8","243","","","","","","","0","1","0","","0.8699410266","0.6","0.2","0.4","0.8","0.3760614253","0.8699410266","0.5800760741","0.3275161349","","","","","","","","","","","","74","J","1","","","74","main_expt",""
"","bandit","154","479436","0.0-115.0-0.0","54879446","wem/bandit_either_3","A1IXH2QLUU5BKZ","either","8","92","","","","","","","0","1","0","","0.8192171788","0.6","0.2","0.4","0.8","0.370831352","0.8192171788","0.6614390465","0.3454333807","","","","","","","","","","","","74","J","1","","","75","main_expt",""
"","bandit","155","481120","0.0-116.0-0.0","54879446","wem/bandit_either_3","A1IXH2QLUU5BKZ","either","8","169","","","","","","","0","1","0","","0.8990587115","0.6","0.2","0.4","0.8","0.4008199491","0.8990587115","0.6861570843","0.4213924804","","","","","","","","","","","","74","J","1","","","76","main_expt",""
"","bandit","156","482901","0.0-117.0-0.0","54879446","wem/bandit_either_3","A1IXH2QLUU5BKZ","either","8","264","","","","","","","0","1","0","","0.9062137116","0.6","0.2","0.4","0.8","0.3928984844","0.9062137116","0.5980737028","0.439510692","","","","","","","","","","","","74","J","1","","","77","main_expt",""
"","bandit","157","484632","0.0-118.0-0.0","54879446","wem/bandit_either_3","A1IXH2QLUU5BKZ","either","8","220","","","","","","","0","1","0","","0.9215914722","0.6","0.2","0.4","0.8","0.4709058574","0.9215914722","0.6754083514","0.4419424199","","","","","","","","","","","","74","J","1","","","78","main_expt",""
"","bandit","158","486342","0.0-119.0-0.0","54879446","wem/bandit_either_3","A1IXH2QLUU5BKZ","either","8","194","","","","","","","0","1","0","","0.895443078","0.6","0.2","0.4","0.8","0.4971614577","0.895443078","0.7012934339","0.5056762283","","","","","","","","","","","","74","J","1","","","79","main_expt",""
"","bandit","159","487922","0.0-120.0-0.0","54879446","wem/bandit_either_3","A1IXH2QLUU5BKZ","either","8","67","","","","","","","0","0","1","","0.7789772955","0.6","0.2","0.4","0.8","0.4828267768","0.7789772955","0.7067798052","0.4558190996","","","","","","","","","","","","74","J","1","","","80","main_expt",""
"","bandit","160","489611","0.0-121.0-0.0","54879446","wem/bandit_either_3","A1IXH2QLUU5BKZ","either","8","173","","","","","","","0","1","0","","0.7259433061","0.6","0.2","0.4","0.8","0.4280570329","0.755426824","0.7259433061","0.4774921548","","","","","","","","","","","","75","K","2","","","81","main_expt",""
"","bandit","161","491633","0.0-122.0-0.0","54879446","wem/bandit_either_3","A1IXH2QLUU5BKZ","either","8","512","","","","","","","0","1","0","","0.8356426425","0.6","0.2","0.4","0.8","0.486136241","0.8356426425","0.7022130872","0.3611036613","","","","","","","","","","","","74","J","1","","","82","main_expt",""
"","bandit","162","493279","0.0-123.0-0.0","54879446","wem/bandit_either_3","A1IXH2QLUU5BKZ","either","8","130","","","","","","","0","0","1","","0.8783145762","0.6","0.2","0.4","0.8","0.3539143083","0.8783145762","0.75927227","0.3341354767","","","","","","","","","","","","74","J","1","","","83","main_expt",""
"","bandit","163","495485","0.0-124.0-0.0","54879446","wem/bandit_either_3","A1IXH2QLUU5BKZ","either","8","693","","","","","","","0","1","0","","0.8556046088","0.6","0.2","0.4","0.8","0.374811954","0.9087743635","0.8556046088","0.288479151","","","","","","","","","","","","75","K","2","","","84","main_expt",""
"","bandit","164","497099","0.0-125.0-0.0","54879446","wem/bandit_either_3","A1IXH2QLUU5BKZ","either","8","99","","","","","","","0","0","1","0.7835234447","","0.6","0.2","0.4","0.8","","","","","0.4518264681","0.8632011641","0.7835234447","0.3061923995","","","","","","","","75","K","2","","","85","main_expt",""
"","bandit","165","498873","0.0-126.0-0.0","54879446","wem/bandit_either_3","A1IXH2QLUU5BKZ","either","8","261","","","","","","","0","0","1","0.3370204437","","0.6","0.2","0.4","0.8","","","","","0.461936863","0.8341253046","0.7037548709","0.3370204437","","","","","","","","76","L","3","","","86","main_expt",""
"","bandit","166","500506","0.0-127.0-0.0","54879446","wem/bandit_either_3","A1IXH2QLUU5BKZ","either","8","121","","","","","","","0","0","1","","0.3681660755","0.6","0.2","0.4","0.8","0.3681660755","0.8728746981","0.6903674631","0.3900809043","","","","","","","","","","","","72","H","0","img/none_selected.jpg","","87","main_expt",""
"","bandit","167","502086","0.0-128.0-0.0","54879446","wem/bandit_either_3","A1IXH2QLUU5BKZ","either","8","66","","","","","","","1","0","0","0.5883284312","","0.6","0.2","0.4","0.8","","","","","0.3788462328","0.8408980459","0.5883284312","0.4296615172","","","","","","","","75","K","2","","","88","main_expt",""
"","bandit","168","503750","0.0-129.0-0.0","54879446","wem/bandit_either_3","A1IXH2QLUU5BKZ","either","8","152","","","","","","","0","0","1","","0.5258490985","0.6","0.2","0.4","0.8","0.3316952272","0.8585781628","0.5258490985","0.4636560077","","","","","","","","","","","","75","K","2","","","89","main_expt",""
"","bandit","169","505370","0.0-130.0-0.0","54879446","wem/bandit_either_3","A1IXH2QLUU5BKZ","either","8","107","","","","","","","1","0","0","0.6395041767","","0.6","0.2","0.4","0.8","","","","","0.438068917","0.925840658","0.6395041767","0.4463585346","","","","","","","","75","K","2","","","90","main_expt",""
"","bandit","170","507041","0.0-131.0-0.0","54879446","wem/bandit_either_3","A1IXH2QLUU5BKZ","either","8","158","","","","","","","1","0","0","0.6931091445","","0.6","0.2","0.4","0.8","","","","","0.5158843935","0.9201841885","0.6931091445","0.4734463503","","","","","","","","75","K","2","","","91","main_expt",""
"","bandit","171","508637","0.0-132.0-0.0","54879446","wem/bandit_either_3","A1IXH2QLUU5BKZ","either","8","82","","","","","","","0","1","0","","0.6725373887","0.6","0.2","0.4","0.8","0.5182757575","0.8508076908","0.6725373887","0.5248255385","","","","","","","","","","","","75","K","2","","","92","main_expt",""
"","bandit","172","510431","0.0-133.0-0.0","54879446","wem/bandit_either_3","A1IXH2QLUU5BKZ","either","8","278","","","","","","","0","1","0","","0.7388835399","0.6","0.2","0.4","0.8","0.5498130742","0.8106711147","0.7388835399","0.3386726181","","","","","","","","","","","","75","K","2","","","93","main_expt",""
"","bandit","173","512027","0.0-134.0-0.0","54879446","wem/bandit_either_3","A1IXH2QLUU5BKZ","either","8","80","","","","","","","0","1","0","","0.697373586","0.6","0.2","0.4","0.8","0.6049407638","0.8543263914","0.697373586","0.3718894848","","","","","","","","","","","","75","K","2","","","94","main_expt",""
"","bandit","174","513698","0.0-135.0-0.0","54879446","wem/bandit_either_3","A1IXH2QLUU5BKZ","either","8","156","","","","","","","1","0","0","0.7550322224","","0.6","0.2","0.4","0.8","","","","","0.6604115927","0.8387782901","0.7550322224","0.4005278521","","","","","","","","75","K","2","","","95","main_expt",""
"","bandit","175","515289","0.0-136.0-0.0","54879446","wem/bandit_either_3","A1IXH2QLUU5BKZ","either","8","78","","","","","","","0","1","0","","0.6576962358","0.6","0.2","0.4","0.8","0.7003847986","0.8208071174","0.6576962358","0.3694595514","","","","","","","","","","","","75","K","2","","","96","main_expt",""
"","bandit","176","517024","0.0-137.0-0.0","54879446","wem/bandit_either_3","A1IXH2QLUU5BKZ","either","8","222","","","","","","","1","0","0","0.6802484638","","0.6","0.2","0.4","0.8","","","","","0.6793148949","0.765358829","0.6802484638","0.3186037095","","","","","","","","75","K","2","","","97","main_expt",""
"","bandit","177","518743","0.0-138.0-0.0","54879446","wem/bandit_either_3","A1IXH2QLUU5BKZ","either","8","204","","","","","","","0","0","1","","0.7042077447","0.6","0.2","0.4","0.8","0.6204607354","0.7823463211","0.7042077447","0.2786717818","","","","","","","","","","","","75","K","2","","","98","main_expt",""
"","bandit","178","520325","0.0-139.0-0.0","54879446","wem/bandit_either_3","A1IXH2QLUU5BKZ","either","8","69","","","","","","","0","1","0","","0.7355617892","0.6","0.2","0.4","0.8","0.6166262367","0.7523003034","0.7355617892","0.32929866","","","","","","","","","","","","75","K","2","","","99","main_expt",""
"","bandit","179","522626","0.0-140.0-0.0","54879446","wem/bandit_either_3","A1IXH2QLUU5BKZ","either","8","787","","","","","","","0","1","0","","0.7117411671","0.6","0.2","0.4","0.8","0.5347115766","0.7174790615","0.7117411671","0.3115323478","","","","","","","","","","","","75","K","2","","","100","main_expt",""
"","bandit","180","524326","0.0-141.0-0.0","54879446","wem/bandit_either_3","A1IXH2QLUU5BKZ","either","8","182","","","","","","","0","1","0","","0.7263903312","0.6","0.2","0.4","0.8","0.3418016043","0.7660578318","0.7263903312","0.4221749579","","","","","","","","","","","","75","K","2","","","101","main_expt",""
"","bandit","181","526021","0.0-142.0-0.0","54879446","wem/bandit_either_3","A1IXH2QLUU5BKZ","either","8","188","","","","","","","0","0","1","0.7357346189","","0.6","0.2","0.4","0.8","","","","","0.2550922237","0.7201180075","0.7357346189","0.2718078598","","","","","","","","75","K","2","","","102","main_expt",""
"","bandit","182","527542","0.0-143.0-0.0","54879446","wem/bandit_either_3","A1IXH2QLUU5BKZ","either","8","1","","","","","","","0","0","1","","0.7026134783","0.6","0.2","0.4","0.8","0.3181696353","0.8452780714","0.7026134783","0.3011307106","","","","","","","","","","","","75","K","2","","","103","main_expt",""
"","bandit","183","529138","0.0-144.0-0.0","54879446","wem/bandit_either_3","A1IXH2QLUU5BKZ","either","8","78","","","","","","","0","0","1","0.3659291838","","0.6","0.2","0.4","0.8","","","","","0.3383579412","0.7236924273","0.8073666152","0.3659291838","","","","","","","","76","L","3","","","104","main_expt",""
"","bandit","184","530810","0.0-145.0-0.0","54879446","wem/bandit_either_3","A1IXH2QLUU5BKZ","either","8","157","","","","","","","0","0","1","","0.2354673658","0.6","0.2","0.4","0.8","0.2354673658","0.743719778","0.824483439","0.3499435223","","","","","","","","","","","","72","H","0","img/none_selected.jpg","","105","main_expt",""
"","bandit","185","532510","0.0-146.0-0.0","54879446","wem/bandit_either_3","A1IXH2QLUU5BKZ","either","8","187","","","","","","","0","0","1","","0.7985687284","0.6","0.2","0.4","0.8","0.159398249","0.7985687284","0.9208810438","0.3602262465","","","","","","","","","","","","74","J","1","","","106","main_expt",""
"","bandit","186","534309","0.0-147.0-0.0","54879446","wem/bandit_either_3","A1IXH2QLUU5BKZ","either","8","289","","","","","","","0","1","0","","0.799345197","0.6","0.2","0.4","0.8","0.1295169146","0.799345197","0.8911910097","0.3252215163","","","","","","","","","","","","74","J","1","","","107","main_expt",""
"","bandit","187","535934","0.0-148.0-0.0","54879446","wem/bandit_either_3","A1IXH2QLUU5BKZ","either","8","110","","","","","","","0","1","0","","0.8681690713","0.6","0.2","0.4","0.8","0.07754053308","0.8681690713","0.8450149587","0.2812406992","","","","","","","","","","","","74","J","1","","","108","main_expt",""
"","bandit","188","537618","0.0-149.0-0.0","54879446","wem/bandit_either_3","A1IXH2QLUU5BKZ","either","8","171","","","","","","","0","0","1","0.8556732204","","0.6","0.2","0.4","0.8","","","","","0.06591215473","0.8556732204","0.868327257","0.2559497519","","","","","","","","74","J","1","","","109","main_expt",""
"","bandit","189","539440","0.0-150.0-0.0","54879446","wem/bandit_either_3","A1IXH2QLUU5BKZ","either","8","309","","","","","","","0","0","1","","0.1189546392","0.6","0.2","0.4","0.8","0.1189546392","0.8669893864","0.8868335222","0.2817400418","","","","","","","","","","","","72","H","0","img/none_selected.jpg","","110","main_expt",""
"","bandit","190","540961","0.0-151.0-0.0","54879446","wem/bandit_either_3","A1IXH2QLUU5BKZ","either","8","5","","","","","","","0","0","1","0.09523351692","","0.6","0.2","0.4","0.8","","","","","0.09523351692","0.799383849","0.8770728171","0.2773620367","","","","","","","","72","H","0","img/none_selected.jpg","","111","main_expt",""
"","bandit","191","542545","0.0-152.0-0.0","54879446","wem/bandit_either_3","A1IXH2QLUU5BKZ","either","8","68","","","","","","","0","0","1","0.2833316415","","0.6","0.2","0.4","0.8","","","","","0.107489667","0.859799476","0.8481710002","0.2833316415","","","","","","","","76","L","3","","","112","main_expt",""
"","bandit","192","544269","0.0-153.0-0.0","54879446","wem/bandit_either_3","A1IXH2QLUU5BKZ","either","8","213","","","","","","","0","1","0","","0.8573528835","0.6","0.2","0.4","0.8","0.1026187258","0.7932436089","0.8573528835","0.3433702059","","","","","","","","","","","","75","K","2","","","113","main_expt",""
"","bandit","193","545860","0.0-154.0-0.0","54879446","wem/bandit_either_3","A1IXH2QLUU5BKZ","either","8","78","","","","","","","0","0","1","","0.8291807482","0.6","0.2","0.4","0.8","0.1044839951","0.849407262","0.8291807482","0.4828882278","","","","","","","","","","","","75","K","2","","","114","main_expt",""
"","bandit","194","547525","0.0-155.0-0.0","54879446","wem/bandit_either_3","A1IXH2QLUU5BKZ","either","8","151","","","","","","","0","1","0","","0.8882716547","0.6","0.2","0.4","0.8","0.1213931844","0.8882716547","0.761972944","0.54932579","","","","","","","","","","","","74","J","1","","","115","main_expt",""
"","bandit","195","549113","0.0-156.0-0.0","54879446","wem/bandit_either_3","A1IXH2QLUU5BKZ","either","8","79","","","","","","","0","1","0","","0.786197192","0.6","0.2","0.4","0.8","0.1184144227","0.8741354715","0.786197192","0.6971345968","","","","","","","","","","","","75","K","2","","","116","main_expt",""
"","bandit","196","551146","0.0-157.0-0.0","54879446","wem/bandit_either_3","A1IXH2QLUU5BKZ","either","8","521","","","","","","","0","1","0","","0.8083823922","0.6","0.2","0.4","0.8","0.1983931569","0.8083823922","0.7834453561","0.5396272374","","","","","","","","","","","","74","J","1","","","117","main_expt",""
"","bandit","197","552848","0.0-158.0-0.0","54879446","wem/bandit_either_3","A1IXH2QLUU5BKZ","either","8","188","","","","","","","0","0","1","","0.6742380839","0.6","0.2","0.4","0.8","0.2840039584","0.868525306","0.6742380839","0.5544567993","","","","","","","","","","","","75","K","2","","","118","main_expt",""
"","bandit","198","554874","0.0-159.0-0.0","54879446","wem/bandit_either_3","A1IXH2QLUU5BKZ","either","8","513","","","","","","","1","0","0","0.8386471998","","0.6","0.2","0.4","0.8","","","","","0.3563325119","0.8386471998","0.7350700153","0.5504896642","","","","","","","","74","J","1","","","119","main_expt",""
"","bandit","199","557037","0.0-160.0-0.0","54879446","wem/bandit_either_3","A1IXH2QLUU5BKZ","either","8","648","","","","","","","1","0","0","0.8103559508","","0.6","0.2","0.4","0.8","","","","","0.5682387565","0.8103559508","0.70601835","0.5812137135","","","","","","","","74","J","1","","","120","main_expt",""
"","bandit","200","558837","0.0-161.0-0.0","54879446","wem/bandit_either_3","A1IXH2QLUU5BKZ","either","8","283","","","","","","","1","0","0","0.8193015173","","0.6","0.2","0.4","0.8","","","","","0.5189107771","0.8193015173","0.7347719752","0.6033058466","","","","","","","","74","J","1","","","121","main_expt",""
"","bandit","201","560608","0.0-162.0-0.0","54879446","wem/bandit_either_3","A1IXH2QLUU5BKZ","either","8","254","","","","","","","0","1","0","","0.8025146027","0.6","0.2","0.4","0.8","0.4428493372","0.8025146027","0.8270923978","0.6102220397","","","","","","","","","","","","74","J","1","","","122","main_expt",""
"","bandit","202","562123","0.0-163.0-0.0","54879446","wem/bandit_either_3","A1IXH2QLUU5BKZ","either","8","3","","","","","","","0","0","1","","0.8121847492","0.6","0.2","0.4","0.8","0.472724465","0.8121847492","0.7980631313","0.6108151959","","","","","","","","","","","","74","J","1","","","123","main_expt",""
"","bandit","203","563974","0.0-164.0-0.0","54879446","wem/bandit_either_3","A1IXH2QLUU5BKZ","either","8","337","","","","","","","0","1","0","","0.8299418439","0.6","0.2","0.4","0.8","0.4799585558","0.8299418439","0.7369852887","0.7117385939","","","","","","","","","","","","74","J","1","","","124","main_expt",""
"","bandit","204","565605","0.0-165.0-0.0","54879446","wem/bandit_either_3","A1IXH2QLUU5BKZ","either","8","118","","","","","","","0","1","0","","0.825688343","0.6","0.2","0.4","0.8","0.5080184993","0.825688343","0.7465944313","0.7554186078","","","","","","","","","","","","74","J","1","","","125","main_expt",""
"","bandit","205","567177","0.0-166.0-0.0","54879446","wem/bandit_either_3","A1IXH2QLUU5BKZ","either","8","64","","","","","","","0","0","1","","0.8372054396","0.6","0.2","0.4","0.8","0.4555098289","0.8372054396","0.7596834852","0.8855751833","","","","","","","","","","","","74","J","1","","","126","main_expt",""
"","bandit","206","569164","0.0-167.0-0.0","54879446","wem/bandit_either_3","A1IXH2QLUU5BKZ","either","8","472","","","","","","","0","1","0","","0.7906689898","0.6","0.2","0.4","0.8","0.5475411796","0.7906689898","0.7398299979","0.8003015049","","","","","","","","","","","","74","J","1","","","127","main_expt",""
"","bandit","207","570929","0.0-168.0-0.0","54879446","wem/bandit_either_3","A1IXH2QLUU5BKZ","either","8","249","","","","","","","1","0","0","0.7764866849","","0.6","0.2","0.4","0.8","","","","","0.612647382","0.8008571507","0.7764866849","0.8403113951","","","","","","","","75","K","2","","","128","main_expt",""
"","bandit","208","572617","0.0-169.0-0.0","54879446","wem/bandit_either_3","A1IXH2QLUU5BKZ","either","8","170","","","","","","","0","1","0","","0.6435675963","0.6","0.2","0.4","0.8","0.7128970287","0.7829297973","0.6435675963","0.8826872071","","","","","","","","","","","","75","K","2","","","129","main_expt",""
"","bandit","209","574200","0.0-170.0-0.0","54879446","wem/bandit_either_3","A1IXH2QLUU5BKZ","either","8","72","","","","","","","0","0","1","","0.7030252038","0.6","0.2","0.4","0.8","0.7309911721","0.6898445721","0.7030252038","0.8641000085","","","","","","","","","","","","75","K","2","","","130","main_expt",""
"","bandit","210","575792","0.0-171.0-0.0","54879446","wem/bandit_either_3","A1IXH2QLUU5BKZ","either","8","76","","","","","","","1","0","0","0.8752037592","","0.6","0.2","0.4","0.8","","","","","0.73180147","0.5864867529","0.6829232191","0.8752037592","","","","","","","","76","L","3","","","131","main_expt",""
"","bandit","211","577479","0.0-172.0-0.0","54879446","wem/bandit_either_3","A1IXH2QLUU5BKZ","either","8","175","","","","","","","0","1","0","","0.8279556795","0.6","0.2","0.4","0.8","0.8467134838","0.560122833","0.7406452387","0.8279556795","","","","","","","","","","","","76","L","3","","","132","main_expt",""
"","bandit","212","579373","0.0-173.0-0.0","54879446","wem/bandit_either_3","A1IXH2QLUU5BKZ","either","8","374","","","","","","","1","0","0","0.8194722428","","0.6","0.2","0.4","0.8","","","","","0.8481264083","0.48439517","0.6666234363","0.8194722428","","","","","","","","76","L","3","","","133","main_expt",""
"","bandit","213","580901","0.0-174.0-0.0","54879446","wem/bandit_either_3","A1IXH2QLUU5BKZ","either","8","16","","","","","","","1","0","0","0.8037084922","","0.6","0.2","0.4","0.8","","","","","0.8771050955","0.3919863126","0.680542061","0.8037084922","","","","","","","","76","L","3","","","134","main_expt",""
"","bandit","214","582678","0.0-175.0-0.0","54879446","wem/bandit_either_3","A1IXH2QLUU5BKZ","either","8","263","","","","","","","1","0","0","0.8155916457","","0.6","0.2","0.4","0.8","","","","","0.9103241533","0.5174750093","0.7006187635","0.8155916457","","","","","","","","76","L","3","","","135","main_expt",""
"","bandit","215","584412","0.0-176.0-0.0","54879446","wem/bandit_either_3","A1IXH2QLUU5BKZ","either","8","221","","","","","","","1","0","0","0.8281957705","","0.6","0.2","0.4","0.8","","","","","0.9126032517","0.4264762493","0.6936815578","0.8281957705","","","","","","","","76","L","3","","","136","main_expt",""
"","bandit","216","586071","0.0-177.0-0.0","54879446","wem/bandit_either_3","A1IXH2QLUU5BKZ","either","8","147","","","","","","","1","0","0","0.7055403129","","0.6","0.2","0.4","0.8","","","","","0.8983360858","0.5351999402","0.6531428085","0.7055403129","","","","","","","","76","L","3","","","137","main_expt",""
"","bandit","217","587696","0.0-178.0-0.0","54879446","wem/bandit_either_3","A1IXH2QLUU5BKZ","either","8","108","","","","","","","0","0","1","0.6884351598","","0.6","0.2","0.4","0.8","","","","","0.8851370462","0.4758748922","0.6769758131","0.6884351598","","","","","","","","76","L","3","","","138","main_expt",""
"","bandit","218","589287","0.0-179.0-0.0","54879446","wem/bandit_either_3","A1IXH2QLUU5BKZ","either","8","74","","","","","","","0","0","1","0.6090423031","","0.6","0.2","0.4","0.8","","","","","0.8662270416","0.4039793023","0.7649589049","0.6090423031","","","","","","","","76","L","3","","","139","main_expt",""
"","bandit","219","590889","0.0-180.0-0.0","54879446","wem/bandit_either_3","A1IXH2QLUU5BKZ","either","8","81","","","","","","","1","0","0","0.7000077187","","0.6","0.2","0.4","0.8","","","","","0.8345767194","0.384774136","0.7674202191","0.7000077187","","","","","","","","76","L","3","","","140","main_expt",""
"","bandit","220","592415","0.0-181.0-0.0","54879446","wem/bandit_either_3","A1IXH2QLUU5BKZ","either","8","12","","","","","","","0","0","1","0.6643185619","","0.6","0.2","0.4","0.8","","","","","0.8783670964","0.327254859","0.8575114448","0.6643185619","","","","","","","","76","L","3","","","141","main_expt",""
"","bandit","221","594059","0.0-182.0-0.0","54879446","wem/bandit_either_3","A1IXH2QLUU5BKZ","either","8","127","","","","","","","0","0","1","","0.4536641492","0.6","0.2","0.4","0.8","0.8895828315","0.4536641492","0.8134430427","0.7079845674","","","","","","","","","","","","74","J","1","","","142","main_expt",""
"","bandit","222","595793","0.0-183.0-0.0","54879446","wem/bandit_either_3","A1IXH2QLUU5BKZ","either","8","222","","","","","","","1","0","0","0.6624187643","","0.6","0.2","0.4","0.8","","","","","0.9053928798","0.4348486293","0.8345505038","0.6624187643","","","","","","","","76","L","3","","","143","main_expt",""
"","bandit","223","597488","0.0-184.0-0.0","54879446","wem/bandit_either_3","A1IXH2QLUU5BKZ","either","8","175","","","","","","","1","0","0","0.6779247185","","0.6","0.2","0.4","0.8","","","","","0.9033088386","0.4086594597","0.7482817554","0.6779247185","","","","","","","","76","L","3","","","144","main_expt",""
"","bandit","224","599062","0.0-185.0-0.0","54879446","wem/bandit_either_3","A1IXH2QLUU5BKZ","either","8","58","","","","","","","1","0","0","0.7216102374","","0.6","0.2","0.4","0.8","","","","","0.8572864227","0.4420772456","0.7400387939","0.7216102374","","","","","","","","76","L","3","","","145","main_expt",""
"","bandit","225","601127","0.0-186.0-0.0","54879446","wem/bandit_either_3","A1IXH2QLUU5BKZ","either","8","550","","","","","","","1","0","0","0.7837267619","","0.6","0.2","0.4","0.8","","","","","0.8687508917","0.508741462","0.795971973","0.7837267619","","","","","","","","76","L","3","","","146","main_expt",""
"","bandit","226","602711","0.0-187.0-0.0","54879446","wem/bandit_either_3","A1IXH2QLUU5BKZ","either","8","73","","","","","","","0","0","1","0.7652264833","","0.6","0.2","0.4","0.8","","","","","0.8657621525","0.4624398998","0.7503502301","0.7652264833","","","","","","","","76","L","3","","","147","main_expt",""
"","bandit","227","604749","0.0-188.0-0.0","54879446","wem/bandit_either_3","A1IXH2QLUU5BKZ","either","8","524","","","","","","","0","1","0","","0.7358716413","0.6","0.2","0.4","0.8","0.8362891365","0.4062589849","0.8200474043","0.7358716413","","","","","","","","","","","","76","L","3","","","148","main_expt",""
"","bandit","228","606501","0.0-189.0-0.0","54879446","wem/bandit_either_3","A1IXH2QLUU5BKZ","either","8","235","","","","","","","0","0","1","0.7129200786","","0.6","0.2","0.4","0.8","","","","","0.8144386017","0.4895331913","0.8509010271","0.7129200786","","","","","","","","76","L","3","","","149","main_expt",""
"","bandit","229","608208","0.0-190.0-0.0","54879446","wem/bandit_either_3","A1IXH2QLUU5BKZ","either","8","191","","","","","","","1","0","0","0.705531668","","0.6","0.2","0.4","0.8","","","","","0.6948055455","0.4704746919","0.8298908313","0.705531668","","","","","","","","76","L","3","","","150","main_expt",""
"","bandit","230","609902","0.0-191.0-0.0","54879446","wem/bandit_either_3","A1IXH2QLUU5BKZ","either","8","183","","","","","","","1","0","0","0.5744604188","","0.6","0.2","0.4","0.8","","","","","0.6231991314","0.4725745774","0.7362749002","0.5744604188","","","","","","","","76","L","3","","","151","main_expt",""
"","bandit","231","611587","0.0-192.0-0.0","54879446","wem/bandit_either_3","A1IXH2QLUU5BKZ","either","8","172","","","","","","","1","0","0","0.5372669321","","0.6","0.2","0.4","0.8","","","","","0.7045057733","0.4943906398","0.7601791643","0.5372669321","","","","","","","","76","L","3","","","152","main_expt",""
"","bandit","232","613250","0.0-193.0-0.0","54879446","wem/bandit_either_3","A1IXH2QLUU5BKZ","either","8","151","","","","","","","1","0","0","0.5447545218","","0.6","0.2","0.4","0.8","","","","","0.5331338622","0.4639524782","0.7590648118","0.5447545218","","","","","","","","76","L","3","","","153","main_expt",""
"","bandit","233","615150","0.0-194.0-0.0","54879446","wem/bandit_either_3","A1IXH2QLUU5BKZ","either","8","383","","","","","","","0","0","1","0.4191749193","","0.6","0.2","0.4","0.8","","","","","0.5096720896","0.3935792086","0.7805387907","0.4191749193","","","","","","","","76","L","3","","","154","main_expt",""
"","bandit","234","616680","0.0-195.0-0.0","54879446","wem/bandit_either_3","A1IXH2QLUU5BKZ","either","8","15","","","","","","","0","0","1","0.4719011365","","0.6","0.2","0.4","0.8","","","","","0.4719011365","0.4127348605","0.8450805748","0.4269770229","","","","","","","","72","H","0","img/none_selected.jpg","","155","main_expt",""
"","bandit","235","618452","0.0-196.0-0.0","54879446","wem/bandit_either_3","A1IXH2QLUU5BKZ","either","8","253","","","","","","","0","0","1","0.5818713095","","0.6","0.2","0.4","0.8","","","","","0.5818713095","0.3697675558","0.8513110265","0.4589862704","","","","","","","","72","H","0","img/none_selected.jpg","","156","main_expt",""
"","bandit","236","620055","0.0-197.0-0.0","54879446","wem/bandit_either_3","A1IXH2QLUU5BKZ","either","8","81","","","","","","","0","1","0","","0.5804022203","0.6","0.2","0.4","0.8","0.5804022203","0.3604398023","0.8226236001","0.5370818316","","","","","","","","","","","","72","H","0","img/none_selected.jpg","","157","main_expt",""
"","bandit","237","621714","0.0-198.0-0.0","54879446","wem/bandit_either_3","A1IXH2QLUU5BKZ","either","8","143","","","","","","","0","1","0","","0.4773166223","0.6","0.2","0.4","0.8","0.4773166223","0.4061750625","0.8843141367","0.4757376888","","","","","","","","","","","","72","H","0","img/none_selected.jpg","","158","main_expt",""
"","bandit","238","623326","0.0-199.0-0.0","54879446","wem/bandit_either_3","A1IXH2QLUU5BKZ","either","8","103","","","","","","","0","0","1","0.419048585","","0.6","0.2","0.4","0.8","","","","","0.419048585","0.4696417586","0.8078798749","0.4887287223","","","","","","","","72","H","0","img/none_selected.jpg","","159","main_expt",""
"","bandit","239","624971","0.0-200.0-0.0","54879446","wem/bandit_either_3","A1IXH2QLUU5BKZ","either","8","128","","","","","","","0","0","1","","0.4659569923","0.6","0.2","0.4","0.8","0.4672574386","0.4659569923","0.7689164465","0.4588489809","","","","","","","","","","","","74","J","1","","","160","main_expt",""
"","bandit","240","626525","0.0-201.0-0.0","54879446","wem/bandit_either_3","A1IXH2QLUU5BKZ","either","8","41","","","","","","","0","1","0","","0.3947207546","0.6","0.2","0.4","0.8","0.5612985374","0.3947207546","0.7863156869","0.4920004413","","","","","","","","","","","","74","J","1","","","161","main_expt",""
"","bandit","241","628039","0.0-202.0-0.0","54879446","wem/bandit_either_3","A1IXH2QLUU5BKZ","either","8","1","","","","","","","0","0","1","0.2460097942","","0.6","0.2","0.4","0.8","","","","","0.5288680036","0.2460097942","0.8098475403","0.5389881207","","","","","","","","74","J","1","","","162","main_expt",""
"","bandit","242","629641","0.0-203.0-0.0","54879446","wem/bandit_either_3","A1IXH2QLUU5BKZ","either","8","84","","","","","","","0","0","1","","0.8222712862","0.6","0.2","0.4","0.8","0.6096883849","0.3603606056","0.8222712862","0.6040136001","","","","","","","","","","","","75","K","2","","","163","main_expt",""
"","bandit","243","631495","0.0-204.0-0.0","54879446","wem/bandit_either_3","A1IXH2QLUU5BKZ","either","8","338","","","","","","","1","0","0","0.7876031225","","0.6","0.2","0.4","0.8","","","","","0.4868922288","0.2507209727","0.7876031225","0.623756827","","","","","","","","75","K","2","","","164","main_expt",""
"","bandit","244","633839","0.0-205.0-0.0","54879446","wem/bandit_either_3","A1IXH2QLUU5BKZ","either","8","828","","","","","","","0","0","1","","0.7435052823","0.6","0.2","0.4","0.8","0.4055552053","0.2162043423","0.7435052823","0.6164515281","","","","","","","","","","","","75","K","2","","","165","main_expt",""
"","bandit","245","635523","0.0-206.0-0.0","54879446","wem/bandit_either_3","A1IXH2QLUU5BKZ","either","8","169","","","","","","","1","0","0","0.4660222187","","0.6","0.2","0.4","0.8","","","","","0.4748236382","0.2573409732","0.6545739251","0.4660222187","","","","","","","","76","L","3","","","166","main_expt",""
"","bandit","246","637171","0.0-207.0-0.0","54879446","wem/bandit_either_3","A1IXH2QLUU5BKZ","either","8","135","","","","","","","1","0","0","0.3336058786","","0.6","0.2","0.4","0.8","","","","","0.4725242185","0.4016088623","0.6645907447","0.3336058786","","","","","","","","76","L","3","","","167","main_expt",""
"","bandit","247","638837","0.0-208.0-0.0","54879446","wem/bandit_either_3","A1IXH2QLUU5BKZ","either","8","148","","","","","","","0","0","1","0.2887723434","","0.6","0.2","0.4","0.8","","","","","0.4775208721","0.5522858252","0.7243751722","0.2887723434","","","","","","","","76","L","3","","","168","main_expt",""
"","bandit","248","640448","0.0-209.0-0.0","54879446","wem/bandit_either_3","A1IXH2QLUU5BKZ","either","8","96","","","","","","","0","1","0","","0.3357056981","0.6","0.2","0.4","0.8","0.4682732781","0.5461138513","0.6453105543","0.3357056981","","","","","","","","","","","","76","L","3","","","169","main_expt",""
"","bandit","249","642157","0.0-210.0-0.0","54879446","wem/bandit_either_3","A1IXH2QLUU5BKZ","either","8","193","","","","","","","0","0","1","0.4179693295","","0.6","0.2","0.4","0.8","","","","","0.4246621539","0.4402798015","0.5334010147","0.4179693295","","","","","","","","76","L","3","","","170","main_expt",""
"","bandit","250","643862","0.0-211.0-0.0","54879446","wem/bandit_either_3","A1IXH2QLUU5BKZ","either","8","191","","","","","","","0","0","1","","0.3050406521","0.6","0.2","0.4","0.8","0.2843380906","0.450294849","0.498122785","0.3050406521","","","","","","","","","","","","76","L","3","","","171","main_expt",""
"","bandit","251","647907","0.0-212.0-0.0","54879446","wem/bandit_either_3","A1IXH2QLUU5BKZ","either","8","2529","","","","","","","0","0","1","","0.6475755847","0.6","0.2","0.4","0.8","0.2668952485","0.6475755847","0.4356988635","0.3364500029","","","","","","","","","","","","74","J","1","","","172","main_expt",""
"","bandit","252","650549","0.0-213.0-0.0","54879446","wem/bandit_either_3","A1IXH2QLUU5BKZ","either","8","1125","","","","","","","1","0","0","0.3964199688","","0.6","0.2","0.4","0.8","","","","","0.3802819164","0.6095255177","0.3964199688","0.421339117","","","","","","","","75","K","2","","","173","main_expt",""
"","bandit","253","652181","0.0-214.0-0.0","54879446","wem/bandit_either_3","A1IXH2QLUU5BKZ","either","8","111","","","","","","","0","0","1","0.3194345802","","0.6","0.2","0.4","0.8","","","","","0.4042455133","0.5003628493","0.3194345802","0.4913704717","","","","","","","","75","K","2","","","174","main_expt",""
"","bandit","254","653945","0.0-215.0-0.0","54879446","wem/bandit_either_3","A1IXH2QLUU5BKZ","either","8","249","","","","","","","0","0","1","","0.2865230234","0.6","0.2","0.4","0.8","0.4393989914","0.5576212716","0.2865230234","0.5882611891","","","","","","","","","","","","75","K","2","","","175","main_expt",""
"","bandit","255","655533","0.0-216.0-0.0","54879446","wem/bandit_either_3","A1IXH2QLUU5BKZ","either","8","74","","","","","","","0","0","1","","0.6313830356","0.6","0.2","0.4","0.8","0.4705173801","0.6230679906","0.3352692614","0.6313830356","","","","","","","","","","","","76","L","3","","","176","main_expt",""
"","bandit","256","659272","0.0-217.0-0.0","54879446","wem/bandit_either_3","A1IXH2QLUU5BKZ","either","8","2222","","","","","","","0","0","1","0.6501784685","","0.6","0.2","0.4","0.8","","","","","0.4698597734","0.6501784685","0.3389264817","0.5531265137","","","","","","","","74","J","1","","","177","main_expt",""
"","bandit","257","660852","0.0-218.0-0.0","54879446","wem/bandit_either_3","A1IXH2QLUU5BKZ","either","8","63","","","","","","","0","0","1","","0.3709673039","0.6","0.2","0.4","0.8","0.3570804947","0.6334155083","0.3709673039","0.4621004187","","","","","","","","","","","","75","K","2","","","178","main_expt",""
"","bandit","258","662846","0.0-219.0-0.0","54879446","wem/bandit_either_3","A1IXH2QLUU5BKZ","either","8","479","","","","","","","1","0","0","0.3441184995","","0.6","0.2","0.4","0.8","","","","","0.3441184995","0.7548338289","0.2940579202","0.512884041","","","","","","","","72","H","0","img/none_selected.jpg","","179","main_expt",""
"","bandit","259","664660","0.0-220.0-0.0","54879446","wem/bandit_either_3","A1IXH2QLUU5BKZ","either","8","300","","","","","","","0","0","1","","0.3646136501","0.6","0.2","0.4","0.8","0.3646136501","0.8074073351","0.3218724025","0.506744284","","","","","","","","","","","","72","H","0","img/none_selected.jpg","","180","main_expt",""
"","bandit","260","666389","0.0-221.0-0.0","54879446","wem/bandit_either_3","A1IXH2QLUU5BKZ","either","8","212","","","","","","","1","0","0","0.3777688814","","0.6","0.2","0.4","0.8","","","","","0.3777688814","0.780721516","0.3633286182","0.4556494723","","","","","","","","72","H","0","img/none_selected.jpg","","181","main_expt",""
"","bandit","261","667984","0.0-222.0-0.0","54879446","wem/bandit_either_3","A1IXH2QLUU5BKZ","either","8","80","","","","","","","0","0","1","0.4578236703","","0.6","0.2","0.4","0.8","","","","","0.4578236703","0.7647415088","0.3324048704","0.4494525508","","","","","","","","72","H","0","img/none_selected.jpg","","182","main_expt",""
"","bandit","262","669709","0.0-223.0-0.0","54879446","wem/bandit_either_3","A1IXH2QLUU5BKZ","either","8","207","","","","","","","1","0","0","0.4244895098","","0.6","0.2","0.4","0.8","","","","","0.4244895098","0.7349307529","0.3092830871","0.5189143621","","","","","","","","72","H","0","img/none_selected.jpg","","183","main_expt",""
"","bandit","263","671484","0.0-224.0-0.0","54879446","wem/bandit_either_3","A1IXH2QLUU5BKZ","either","8","265","","","","","","","0","0","1","0.3566779322","","0.6","0.2","0.4","0.8","","","","","0.3566779322","0.8298088288","0.3905692936","0.5167606333","","","","","","","","72","H","0","img/none_selected.jpg","","184","main_expt",""
"","bandit","264","673030","0.0-225.0-0.0","54879446","wem/bandit_either_3","A1IXH2QLUU5BKZ","either","8","29","","","","","","","0","0","1","","0.5270237034","0.6","0.2","0.4","0.8","0.3737416658","0.7894193193","0.4626192444","0.5270237034","","","","","","","","","","","","76","L","3","","","185","main_expt",""
"","bandit","265","674863","0.0-226.0-0.0","54879446","wem/bandit_either_3","A1IXH2QLUU5BKZ","either","8","315","","","","","","","0","0","1","0.5556036571","","0.6","0.2","0.4","0.8","","","","","0.3120176694","0.7665022487","0.6061762586","0.5556036571","","","","","","","","76","L","3","","","186","main_expt",""
"","bandit","266","676469","0.0-227.0-0.0","54879446","wem/bandit_either_3","A1IXH2QLUU5BKZ","either","8","90","","","","","","","0","0","1","","0.530958695","0.6","0.2","0.4","0.8","0.4134691065","0.7394266891","0.530958695","0.5865134094","","","","","","","","","","","","75","K","2","","","187","main_expt",""
"","bandit","267","678089","0.0-228.0-0.0","54879446","wem/bandit_either_3","A1IXH2QLUU5BKZ","either","8","102","","","","","","","0","1","0","","0.6567361442","0.6","0.2","0.4","0.8","0.4637770407","0.6567361442","0.380024655","0.5034866795","","","","","","","","","","","","74","J","1","","","188","main_expt",""
"","bandit","268","679811","0.0-229.0-0.0","54879446","wem/bandit_either_3","A1IXH2QLUU5BKZ","either","8","206","","","","","","","0","1","0","","0.6572443956","0.6","0.2","0.4","0.8","0.5739034088","0.6572443956","0.4563575644","0.5761715841","","","","","","","","","","","","74","J","1","","","189","main_expt",""
"","bandit","269","681462","0.0-230.0-0.0","54879446","wem/bandit_either_3","A1IXH2QLUU5BKZ","either","8","137","","","","","","","0","0","1","","0.6735764162","0.6","0.2","0.4","0.8","0.5859504021","0.6735764162","0.4540853102","0.5325489933","","","","","","","","","","","","74","J","1","","","190","main_expt",""
"","bandit","270","683198","0.0-231.0-0.0","54879446","wem/bandit_either_3","A1IXH2QLUU5BKZ","either","8","222","","","","","","","1","0","0","0.5997518312","","0.6","0.2","0.4","0.8","","","","","0.5325822721","0.5997518312","0.4328006462","0.5614919892","","","","","","","","74","J","1","","","191","main_expt",""
"","bandit","271","684782","0.0-232.0-0.0","54879446","wem/bandit_either_3","A1IXH2QLUU5BKZ","either","8","68","","","","","","","1","0","0","0.6582178794","","0.6","0.2","0.4","0.8","","","","","0.4622441745","0.6582178794","0.4979354652","0.5972832049","","","","","","","","74","J","1","","","192","main_expt",""
"","bandit","272","686611","0.0-233.0-0.0","54879446","wem/bandit_either_3","A1IXH2QLUU5BKZ","either","8","314","","","","","","","0","1","0","","0.7246172867","0.6","0.2","0.4","0.8","0.4765036663","0.7246172867","0.4887187701","0.6997951875","","","","","","","","","","","","74","J","1","","","193","main_expt",""
"","bandit","273","688376","0.0-234.0-0.0","54879446","wem/bandit_either_3","A1IXH2QLUU5BKZ","either","8","250","","","","","","","1","0","0","0.7721250451","","0.6","0.2","0.4","0.8","","","","","0.4504155567","0.7721250451","0.4993882896","0.7511051992","","","","","","","","74","J","1","","","194","main_expt",""
"","bandit","274","690470","0.0-235.0-0.0","54879446","wem/bandit_either_3","A1IXH2QLUU5BKZ","either","8","577","","","","","","","0","1","0","","0.8366496483","0.6","0.2","0.4","0.8","0.4354252764","0.8366496483","0.5011331455","0.8281457055","","","","","","","","","","","","74","J","1","","","195","main_expt",""
"","bandit","275","692534","0.0-236.0-0.0","54879446","wem/bandit_either_3","A1IXH2QLUU5BKZ","either","8","549","","","","","","","0","1","0","","0.8484646997","0.6","0.2","0.4","0.8","0.4170899215","0.8484646997","0.4487960683","0.8248544968","","","","","","","","","","","","74","J","1","","","196","main_expt",""
"","bandit","276","694604","0.0-237.0-0.0","54879446","wem/bandit_either_3","A1IXH2QLUU5BKZ","either","8","552","","","","","","","0","0","1","","0.8734060335","0.6","0.2","0.4","0.8","0.4149059055","0.8734060335","0.3975590019","0.8532714289","","","","","","","","","","","","74","J","1","","","197","main_expt",""
"","bandit","277","696443","0.0-238.0-0.0","54879446","wem/bandit_either_3","A1IXH2QLUU5BKZ","either","8","321","","","","","","","0","1","0","","0.8515360685","0.6","0.2","0.4","0.8","0.4737306044","0.8515360685","0.4161601929","0.7587337752","","","","","","","","","","","","74","J","1","","","198","main_expt",""
"","bandit","278","698188","0.0-239.0-0.0","54879446","wem/bandit_either_3","A1IXH2QLUU5BKZ","either","8","227","","","","","","","1","0","0","0.8805923715","","0.6","0.2","0.4","0.8","","","","","0.4541760911","0.8805923715","0.4483979408","0.8124408481","","","","","","","","74","J","1","","","199","main_expt",""
"","bandit","279","700176","0.0-240.0-0.0","54879446","wem/bandit_either_3","A1IXH2QLUU5BKZ","either","8","470","","","","","","","1","0","0","0.9645818821","","0.6","0.2","0.4","0.8","","","","","0.3964714959","0.9645818821","0.5303380975","0.7935778268","","","","","","","","74","J","1","","","200","main_expt",""
"","bandit","280","702023","0.0-241.0-0.0","54879446","wem/bandit_either_3","A1IXH2QLUU5BKZ","either","8","337","","","","","","","0","1","0","","0.9689478708","0.6","0.2","0.4","0.8","0.3815447649","0.9689478708","0.4014045657","0.736942723","","","","","","","","","","","","74","J","1","","","201","main_expt",""
"","bandit","281","703977","0.0-242.0-0.0","54879446","wem/bandit_either_3","A1IXH2QLUU5BKZ","either","8","439","","","","","","","1","0","0","0.9678291885","","0.6","0.2","0.4","0.8","","","","","0.3726367513","0.9678291885","0.5115169607","0.7001951276","","","","","","","","74","J","1","","","202","main_expt",""
"","bandit","282","705573","0.0-243.0-0.0","54879446","wem/bandit_either_3","A1IXH2QLUU5BKZ","either","8","81","","","","","","","0","1","0","","0.9633244117","0.6","0.2","0.4","0.8","0.3062653216","0.9633244117","0.5026191452","0.7209300446","","","","","","","","","","","","74","J","1","","","203","main_expt",""
"","bandit","283","707262","0.0-244.0-0.0","54879446","wem/bandit_either_3","A1IXH2QLUU5BKZ","either","8","177","","","","","","","0","1","0","","0.9730812582","0.6","0.2","0.4","0.8","0.2848501254","0.9730812582","0.4736298566","0.8574132932","","","","","","","","","","","","74","J","1","","","204","main_expt",""
"","bandit","284","708794","0.0-245.0-0.0","54879446","wem/bandit_either_3","A1IXH2QLUU5BKZ","either","8","16","","","","","","","1","0","0","0.9521206422","","0.6","0.2","0.4","0.8","","","","","0.3457586416","0.9521206422","0.6121858428","0.9038760074","","","","","","","","74","J","1","","","205","main_expt",""
"","bandit","285","710476","0.0-246.0-0.0","54879446","wem/bandit_either_3","A1IXH2QLUU5BKZ","either","8","165","","","","","","","0","1","0","","0.9614764056","0.6","0.2","0.4","0.8","0.4609097875","0.9614764056","0.6377028942","0.9273356803","","","","","","","","","","","","74","J","1","","","206","main_expt",""
"","bandit","286","712074","0.0-247.0-0.0","54879446","wem/bandit_either_3","A1IXH2QLUU5BKZ","either","8","81","","","","","","","0","1","0","","0.9625830716","0.6","0.2","0.4","0.8","0.4980316736","0.9625830716","0.5700483165","0.9502037039","","","","","","","","","","","","74","J","1","","","207","main_expt",""
"","bandit","287","713728","0.0-248.0-0.0","54879446","wem/bandit_either_3","A1IXH2QLUU5BKZ","either","8","136","","","","","","","0","1","0","","0.9359306517","0.6","0.2","0.4","0.8","0.4537691537","0.9359306517","0.624428721","0.944094639","","","","","","","","","","","","74","J","1","","","208","main_expt",""
"","bandit","288","715348","0.0-249.0-0.0","54879446","wem/bandit_either_3","A1IXH2QLUU5BKZ","either","8","101","","","","","","","0","1","0","","0.9632917203","0.6","0.2","0.4","0.8","0.4475842875","0.9632917203","0.4861871301","0.9070839441","","","","","","","","","","","","74","J","1","","","209","main_expt",""
"","bandit","289","717080","0.0-250.0-0.0","54879446","wem/bandit_either_3","A1IXH2QLUU5BKZ","either","8","219","","","","","","","0","1","0","","0.9633226214","0.6","0.2","0.4","0.8","0.4803454055","0.9633226214","0.3956361612","0.8960653589","","","","","","","","","","","","74","J","1","","","210","main_expt",""
"","bandit","290","718893","0.0-251.0-0.0","54879446","wem/bandit_either_3","A1IXH2QLUU5BKZ","either","8","297","","","","","","","0","1","0","","0.9719781217","0.6","0.2","0.4","0.8","0.4126443349","0.9719781217","0.3599204452","0.9155455821","","","","","","","","","","","","74","J","1","","","211","main_expt",""
"","bandit","291","720734","0.0-252.0-0.0","54879446","wem/bandit_either_3","A1IXH2QLUU5BKZ","either","8","326","","","","","","","0","1","0","","0.9700781686","0.6","0.2","0.4","0.8","0.3384802849","0.9700781686","0.3349000901","0.9087954588","","","","","","","","","","","","74","J","1","","","212","main_expt",""
"","bandit","292","722434","0.0-253.0-0.0","54879446","wem/bandit_either_3","A1IXH2QLUU5BKZ","either","8","183","","","","","","","0","1","0","","0.971165811","0.6","0.2","0.4","0.8","0.3039242722","0.971165811","0.3183344176","0.8528540962","","","","","","","","","","","","74","J","1","","","213","main_expt",""
"","bandit","293","724023","0.0-254.0-0.0","54879446","wem/bandit_either_3","A1IXH2QLUU5BKZ","either","8","79","","","","","","","1","0","0","0.9627117","","0.6","0.2","0.4","0.8","","","","","0.4541530846","0.9627117","0.2390758011","0.8506041988","","","","","","","","74","J","1","","","214","main_expt",""
"","bandit","294","725754","0.0-255.0-0.0","54879446","wem/bandit_either_3","A1IXH2QLUU5BKZ","either","8","216","","","","","","","1","0","0","0.9552130497","","0.6","0.2","0.4","0.8","","","","","0.5101749692","0.9552130497","0.1997060473","0.8001829978","","","","","","","","74","J","1","","","215","main_expt",""
"","bandit","295","727820","0.0-256.0-0.0","54879446","wem/bandit_either_3","A1IXH2QLUU5BKZ","either","8","553","","","","","","","0","1","0","","0.9220350188","0.6","0.2","0.4","0.8","0.5580520347","0.9220350188","0.2326539104","0.733614842","","","","","","","","","","","","74","J","1","","","216","main_expt",""
"","bandit","296","729556","0.0-257.0-0.0","54879446","wem/bandit_either_3","A1IXH2QLUU5BKZ","either","8","220","","","","","","","0","1","0","","0.8736667029","0.6","0.2","0.4","0.8","0.4368451062","0.8736667029","0.2319826337","0.7479737912","","","","","","","","","","","","74","J","1","","","217","main_expt",""
"","bandit","297","731344","0.0-258.0-0.0","54879446","wem/bandit_either_3","A1IXH2QLUU5BKZ","either","8","267","","","","","","","1","0","0","0.7602784417","","0.6","0.2","0.4","0.8","","","","","0.3963441813","0.7602784417","0.3143382807","0.7713398237","","","","","","","","74","J","1","","","218","main_expt",""
"","bandit","298","733125","0.0-259.0-0.0","54879446","wem/bandit_either_3","A1IXH2QLUU5BKZ","either","8","263","","","","","","","1","0","0","0.7643050859","","0.6","0.2","0.4","0.8","","","","","0.4809426617","0.7643050859","0.3304972923","0.8077055691","","","","","","","","74","J","1","","","219","main_expt",""
"","bandit","299","734704","0.0-260.0-0.0","54879446","wem/bandit_either_3","A1IXH2QLUU5BKZ","either","8","64","","","","","","","0","0","1","","0.7793587236","0.6","0.2","0.4","0.8","0.397759556","0.7793587236","0.2866104843","0.7778114837","","","","","","","","","","","","74","J","1","","","220","main_expt",""
"","bandit","300","736405","0.0-261.0-0.0","54879446","wem/bandit_either_3","A1IXH2QLUU5BKZ","either","8","182","","","","","","","1","0","0","0.82086311","","0.6","0.2","0.4","0.8","","","","","0.4087677593","0.82086311","0.3602561646","0.7214198583","","","","","","","","74","J","1","","","221","main_expt",""
"","bandit","301","737996","0.0-262.0-0.0","54879446","wem/bandit_either_3","A1IXH2QLUU5BKZ","either","8","72","","","","","","","0","1","0","","0.8543662658","0.6","0.2","0.4","0.8","0.4561280915","0.8543662658","0.3228749062","0.8091526303","","","","","","","","","","","","74","J","1","","","222","main_expt",""
"","bandit","302","739597","0.0-263.0-0.0","54879446","wem/bandit_either_3","A1IXH2QLUU5BKZ","either","8","80","","","","","","","0","1","0","","0.8599459829","0.6","0.2","0.4","0.8","0.4419858618","0.8599459829","0.2549485676","0.8240838469","","","","","","","","","","","","74","J","1","","","223","main_expt",""
"","bandit","303","741459","0.0-264.0-0.0","54879446","wem/bandit_either_3","A1IXH2QLUU5BKZ","either","8","348","","","","","","","0","1","0","","0.8747991669","0.6","0.2","0.4","0.8","0.494409337","0.8747991669","0.2389333491","0.7670685714","","","","","","","","","","","","74","J","1","","","224","main_expt",""
"","bandit","304","743225","0.0-265.0-0.0","54879446","wem/bandit_either_3","A1IXH2QLUU5BKZ","either","8","252","","","","","","","0","1","0","","0.7910409491","0.6","0.2","0.4","0.8","0.3713348049","0.7910409491","0.1517307125","0.8775689376","","","","","","","","","","","","74","J","1","","","225","main_expt",""
"","bandit","305","744832","0.0-266.0-0.0","54879446","wem/bandit_either_3","A1IXH2QLUU5BKZ","either","8","92","","","","","","","0","1","0","","0.7212928749","0.6","0.2","0.4","0.8","0.4013452417","0.7212928749","0.1002450003","0.8846504348","","","","","","","","","","","","74","J","1","","","226","main_expt",""
"","bandit","306","746713","0.0-267.0-0.0","54879446","wem/bandit_either_3","A1IXH2QLUU5BKZ","either","8","366","","","","","","","1","0","0","0.7090989562","","0.6","0.2","0.4","0.8","","","","","0.393451628","0.7090989562","0.1049945928","0.851087938","","","","","","","","74","J","1","","","227","main_expt",""
"","bandit","307","748495","0.0-268.0-0.0","54879446","wem/bandit_either_3","A1IXH2QLUU5BKZ","either","8","263","","","","","","","0","1","0","","0.6606736223","0.6","0.2","0.4","0.8","0.4175844788","0.6606736223","0.03915988122","0.9074720337","","","","","","","","","","","","74","J","1","","","228","main_expt",""
"","bandit","308","750147","0.0-269.0-0.0","54879446","wem/bandit_either_3","A1IXH2QLUU5BKZ","either","8","140","","","","","","","0","1","0","","0.6893924153","0.6","0.2","0.4","0.8","0.408368909","0.6893924153","0.03767516843","0.872332114","","","","","","","","","","","","74","J","1","","","229","main_expt",""
"","bandit","309","751739","0.0-270.0-0.0","54879446","wem/bandit_either_3","A1IXH2QLUU5BKZ","either","8","77","","","","","","","1","0","0","0.6067604319","","0.6","0.2","0.4","0.8","","","","","0.4777699032","0.6067604319","0.05804790214","0.7967167456","","","","","","","","74","J","1","","","230","main_expt",""
"","bandit","310","753330","0.0-271.0-0.0","54879446","wem/bandit_either_3","A1IXH2QLUU5BKZ","either","8","74","","","","","","","1","0","0","0.5037419277","","0.6","0.2","0.4","0.8","","","","","0.4935442242","0.5037419277","0.04963095007","0.7760618079","","","","","","","","74","J","1","","","231","main_expt",""
"","bandit","311","755034","0.0-272.0-0.0","54879446","wem/bandit_either_3","A1IXH2QLUU5BKZ","either","8","187","","","","","","","1","0","0","0.4339479185","","0.6","0.2","0.4","0.8","","","","","0.4889590317","0.4339479185","0.03759782928","0.7765467853","","","","","","","","74","J","1","","","232","main_expt",""
"","bandit","312","756650","0.0-273.0-0.0","54879446","wem/bandit_either_3","A1IXH2QLUU5BKZ","either","8","96","","","","","","","0","0","1","","0.4525546635","0.6","0.2","0.4","0.8","0.5212294662","0.4525546635","0.03147013274","0.7895219362","","","","","","","","","","","","74","J","1","","","233","main_expt",""
"","bandit","313","758236","0.0-274.0-0.0","54879446","wem/bandit_either_3","A1IXH2QLUU5BKZ","either","8","70","","","","","","","0","1","0","","0.3680080929","0.6","0.2","0.4","0.8","0.4420617392","0.3680080929","0.03547440544","0.7491899586","","","","","","","","","","","","74","J","1","","","234","main_expt",""
"","bandit","314","760045","0.0-275.0-0.0","54879446","wem/bandit_either_3","A1IXH2QLUU5BKZ","either","8","292","","","","","","","0","1","0","","0.3416373547","0.6","0.2","0.4","0.8","0.4816955248","0.3416373547","0.04486782706","0.7397351474","","","","","","","","","","","","74","J","1","","","235","main_expt",""
"","bandit","315","761636","0.0-276.0-0.0","54879446","wem/bandit_either_3","A1IXH2QLUU5BKZ","either","8","74","","","","","","","0","1","0","","0.3722877153","0.6","0.2","0.4","0.8","0.3028121716","0.3722877153","0.03122339122","0.6587673302","","","","","","","","","","","","74","J","1","","","236","main_expt",""
"","bandit","316","763452","0.0-277.0-0.0","54879446","wem/bandit_either_3","A1IXH2QLUU5BKZ","either","8","298","","","","","","","0","1","0","","0.3081002542","0.6","0.2","0.4","0.8","0.3802502189","0.3081002542","0.04191117605","0.7534934878","","","","","","","","","","","","74","J","1","","","237","main_expt",""
"","bandit","317","765130","0.0-278.0-0.0","54879446","wem/bandit_either_3","A1IXH2QLUU5BKZ","either","8","161","","","","","","","0","0","1","","0.2546656634","0.6","0.2","0.4","0.8","0.4160754302","0.2546656634","0.06367740527","0.8023031038","","","","","","","","","","","","74","J","1","","","238","main_expt",""
"","bandit","318","766977","0.0-279.0-0.0","54879446","wem/bandit_either_3","A1IXH2QLUU5BKZ","either","8","329","","","","","","","0","0","1","","0.3038323055","0.6","0.2","0.4","0.8","0.3510440385","0.3038323055","0.06315957527","0.8333986962","","","","","","","","","","","","74","J","1","","","239","main_expt",""
"","bandit","319","768502","0.0-280.0-0.0","54879446","wem/bandit_either_3","A1IXH2QLUU5BKZ","either","8","0","","","","","","","0","0","1","","0.05324295338","0.6","0.2","0.4","0.8","0.4182550587","0.291884511","0.05324295338","0.840768508","","","","","","","","","","","","75","K","2","","","240","main_expt",""
"","bandit","320","770098","0.0-281.0-0.0","54879446","wem/bandit_either_3","A1IXH2QLUU5BKZ","either","8","78","","","","","","","1","0","0","0.823006268","","0.6","0.2","0.4","0.8","","","","","0.5037088371","0.3124975621","0.04641095239","0.823006268","","","","","","","","76","L","3","","","241","main_expt",""
"","bandit","321","771729","0.0-282.0-0.0","54879446","wem/bandit_either_3","A1IXH2QLUU5BKZ","either","8","115","","","","","","","1","0","0","0.8152254121","","0.6","0.2","0.4","0.8","","","","","0.4877747003","0.3637146884","0.04954190216","0.8152254121","","","","","","","","76","L","3","","","242","main_expt",""
"","bandit","322","773435","0.0-283.0-0.0","54879446","wem/bandit_either_3","A1IXH2QLUU5BKZ","either","8","188","","","","","","","1","0","0","0.8377493118","","0.6","0.2","0.4","0.8","","","","","0.5007011316","0.3304840913","0.05592390002","0.8377493118","","","","","","","","76","L","3","","","243","main_expt",""
"","bandit","323","775032","0.0-284.0-0.0","54879446","wem/bandit_either_3","A1IXH2QLUU5BKZ","either","8","82","","","","","","","1","0","0","0.8258586067","","0.6","0.2","0.4","0.8","","","","","0.5730304632","0.4067767971","0.03808637997","0.8258586067","","","","","","","","76","L","3","","","244","main_expt",""
"","bandit","324","776727","0.0-285.0-0.0","54879446","wem/bandit_either_3","A1IXH2QLUU5BKZ","either","8","178","","","","","","","1","0","0","0.7889424323","","0.6","0.2","0.4","0.8","","","","","0.6096531262","0.4091901929","0.02077199453","0.7889424323","","","","","","","","76","L","3","","","245","main_expt",""
"","bandit","325","778288","0.0-286.0-0.0","54879446","wem/bandit_either_3","A1IXH2QLUU5BKZ","either","8","44","","","","","","","1","0","0","0.7288058668","","0.6","0.2","0.4","0.8","","","","","0.6433625309","0.3814802778","0.01756278659","0.7288058668","","","","","","","","76","L","3","","","246","main_expt",""
"","bandit","326","780104","0.0-287.0-0.0","54879446","wem/bandit_either_3","A1IXH2QLUU5BKZ","either","8","300","","","","","","","1","0","0","0.6944890646","","0.6","0.2","0.4","0.8","","","","","0.5912901759","0.4081758168","0.02612390617","0.6944890646","","","","","","","","76","L","3","","","247","main_expt",""
