"consent","trial_type","trial_index","time_elapsed","internal_node_id","subjID","study","MID","cond","drift","rt","responses","key_press","expt_phase","like","value","connected","gems","bombs","no_reward","GemPrChosen","BombPrChosen","GainOverPainPr_0","GainOverPainPr_1","GainOverPainPr_2","GainOverPainPr_3","LosePr_0","LosePr_1","LosePr_2","LosePr_3","WinPr_0","WinPr_1","WinPr_2","WinPr_3","Q0","Q1","Q2","gender","age","ethnicity","target","respCharCode","respKey","respChoiceNum","respChoice","practice","trial_counter","trial_label","button_pressed"
"INL_behavioral_consent_30min_online.html","consent","0","45681","0.0-0.0","55786474","wem/bandit_either_3","A3908297ZI3LES","either","6","","","","","","","","","","","","","","","","","","","","","","","","","","","","","","","","","","","","","","",""
"","survey-text","1","56642","0.0-1.0","55786474","wem/bandit_either_3","A3908297ZI3LES","either","6","9954","{""Q0"":""A3908297ZI3LES""}","","","","","","","","","","","","","","","","","","","","","","","","","","","","","","","","","","","","",""
"","text","2","69942","0.0-2.0","55786474","wem/bandit_either_3","A3908297ZI3LES","either","6","12299","","32","","","","","","","","","","","","","","","","","","","","","","","","","","","","","","","","","","","",""
"","text","3","72221","0.0-3.0","55786474","wem/bandit_either_3","A3908297ZI3LES","either","6","2277","","32","","","","","","","","","","","","","","","","","","","","","","","","","","","","","","","","","","","",""
"","text","4","92221","0.0-4.0","55786474","wem/bandit_either_3","A3908297ZI3LES","either","6","19999","","32","","","","","","","","","","","","","","","","","","","","","","","","","","","","","","","","","","","",""
"","text","5","114445","0.0-5.0","55786474","wem/bandit_either_3","A3908297ZI3LES","either","6","22223","","32","","","","","","","","","","","","","","","","","","","","","","","","","","","","","","","","","","","",""
"","text","6","142654","0.0-6.0","55786474","wem/bandit_either_3","A3908297ZI3LES","either","6","28208","","32","","","","","","","","","","","","","","","","","","","","","","","","","","","","","","","","","","","",""
"","text","7","163445","0.0-7.0","55786474","wem/bandit_either_3","A3908297ZI3LES","either","6","20790","","32","","","","","","","","","","","","","","","","","","","","","","","","","","","","","","","","","","","",""
"","text","8","164621","0.0-8.0","55786474","wem/bandit_either_3","A3908297ZI3LES","either","6","1175","","32","","","","","","","","","","","","","","","","","","","","","","","","","","","","","","","","","","","",""
"","identification","9","171353","0.0-9.0-0.0","55786474","wem/bandit_either_3","A3908297ZI3LES","either","6","6720","","","","3","3","3","","","","","","","","","","","","","","","","","","","","","","","","the village of Zur","","","","","","","",""
"","identification","10","176217","0.0-9.0-1.0","55786474","wem/bandit_either_3","A3908297ZI3LES","either","6","3853","","","","3","3","3","","","","","","","","","","","","","","","","","","","","","","","","the village of Nyx","","","","","","","",""
"","text","11","181853","0.0-10.0","55786474","wem/bandit_either_3","A3908297ZI3LES","either","6","4635","","32","","","","","","","","","","","","","","","","","","","","","","","","","","","","","","","","","","","",""
"","text","12","184349","0.0-11.0","55786474","wem/bandit_either_3","A3908297ZI3LES","either","6","2495","","32","","","","","","","","","","","","","","","","","","","","","","","","","","","","","","","","","","","",""
"","text","13","186501","0.0-12.0","55786474","wem/bandit_either_3","A3908297ZI3LES","either","6","2150","","32","","","","","","","","","","","","","","","","","","","","","","","","","","","","","","","","","","","",""
"","text","14","193957","0.0-13.0","55786474","wem/bandit_either_3","A3908297ZI3LES","either","6","7455","","32","","","","","","","","","","","","","","","","","","","","","","","","","","","","","","","","","","","",""
"","bandit","15","196931","0.0-14.0-0.0","55786474","wem/bandit_either_3","A3908297ZI3LES","either","6","1469","","","","","","","0","0","1","0","0","","","","","0","","","","0","","","","","","","","","","","74","J","0","img/none_selected_demo.jpg","true","0","",""
"","bandit","16","199274","0.0-15.0-0.0","55786474","wem/bandit_either_3","A3908297ZI3LES","either","6","839","","","","","","","0","0","1","0","0","","","","","0","","","","0","","","","","","","","","","","75","K","0","img/none_selected_demo.jpg","true","0","",""
"","text","17","210837","0.0-16.0","55786474","wem/bandit_either_3","A3908297ZI3LES","either","6","11562","","32","","","","","","","","","","","","","","","","","","","","","","","","","","","","","","","","","","","",""
"","text","18","226414","0.0-17.0","55786474","wem/bandit_either_3","A3908297ZI3LES","either","6","15575","","32","","","","","","","","","","","","","","","","","","","","","","","","","","","","","","","","","","","",""
"","text","19","232301","0.0-18.0","55786474","wem/bandit_either_3","A3908297ZI3LES","either","6","5886","","32","","","","","","","","","","","","","","","","","","","","","","","","","","","","","","","","","","","",""
"","text","20","242846","0.0-19.0","55786474","wem/bandit_either_3","A3908297ZI3LES","either","6","10544","","32","","","","","","","","","","","","","","","","","","","","","","","","","","","","","","","","","","","",""
"","bandit","21","245057","0.0-20.0-0.0","55786474","wem/bandit_either_3","A3908297ZI3LES","either","6","709","","","","","","","1","0","0","0.8","","0.5","0.5","","","","","","","0.8","0.2","","","","","","","","","","74","J","0","img/none_selected_demo.jpg","true","0","80_20_practice",""
"","bandit","22","247969","0.0-20.0-1.0","55786474","wem/bandit_either_3","A3908297ZI3LES","either","6","1409","","","","","","","1","0","0","0.8","","0.5","0.5","","","","","","","0.8","0.2","","","","","","","","","","74","J","0","img/none_selected_demo.jpg","true","0","80_20_practice",""
"","bandit","23","251737","0.0-20.0-2.0","55786474","wem/bandit_either_3","A3908297ZI3LES","either","6","2265","","","","","","","0","1","0","","0.8","0.5","0.5","","","0.8","0.2","","","","","","","","","","","","","","74","J","0","img/none_selected_demo.jpg","true","0","80_20_practice",""
"","bandit","24","255505","0.0-20.0-3.0","55786474","wem/bandit_either_3","A3908297ZI3LES","either","6","2264","","","","","","","0","0","1","0.2","","0.5","0.5","","","","","","","0.8","0.2","","","","","","","","","","75","K","1","","true","0","80_20_practice",""
"","bandit","25","258072","0.0-20.0-4.0","55786474","wem/bandit_either_3","A3908297ZI3LES","either","6","1065","","","","","","","0","1","0","","0.2","0.5","0.5","","","0.8","0.2","","","","","","","","","","","","","","75","K","1","","true","0","80_20_practice",""
"","bandit","26","260696","0.0-20.0-5.0","55786474","wem/bandit_either_3","A3908297ZI3LES","either","6","1122","","","","","","","0","0","1","","0.2","0.5","0.5","","","0.8","0.2","","","","","","","","","","","","","","75","K","1","","true","0","80_20_practice",""
"","bandit","27","263049","0.0-20.0-6.0","55786474","wem/bandit_either_3","A3908297ZI3LES","either","6","851","","","","","","","0","1","0","","0.2","0.5","0.5","","","0.8","0.2","","","","","","","","","","","","","","75","K","1","","true","0","80_20_practice",""
"","bandit","28","265761","0.0-20.0-7.0","55786474","wem/bandit_either_3","A3908297ZI3LES","either","6","1209","","","","","","","0","0","1","0.2","","0.5","0.5","","","","","","","0.8","0.2","","","","","","","","","","75","K","1","","true","0","80_20_practice",""
"","bandit","29","267961","0.0-20.0-8.0","55786474","wem/bandit_either_3","A3908297ZI3LES","either","6","695","","","","","","","0","0","1","","0.2","0.5","0.5","","","0.8","0.2","","","","","","","","","","","","","","75","K","1","","true","0","80_20_practice",""
"","bandit","30","269873","0.0-20.0-9.0","55786474","wem/bandit_either_3","A3908297ZI3LES","either","6","408","","","","","","","0","0","1","","0.2","0.5","0.5","","","0.8","0.2","","","","","","","","","","","","","","75","K","1","","true","0","80_20_practice",""
"","bandit","31","272056","0.0-20.0-10.0","55786474","wem/bandit_either_3","A3908297ZI3LES","either","6","680","","","","","","","0","0","1","","0.2","0.5","0.5","","","0.8","0.2","","","","","","","","","","","","","","75","K","1","","true","0","80_20_practice",""
"","bandit","32","274320","0.0-20.0-11.0","55786474","wem/bandit_either_3","A3908297ZI3LES","either","6","761","","","","","","","0","0","1","0.2","","0.5","0.5","","","","","","","0.8","0.2","","","","","","","","","","75","K","1","","true","0","80_20_practice",""
"","bandit","33","276329","0.0-20.0-12.0","55786474","wem/bandit_either_3","A3908297ZI3LES","either","6","505","","","","","","","0","0","1","","0.2","0.5","0.5","","","0.8","0.2","","","","","","","","","","","","","","75","K","1","","true","0","80_20_practice",""
"","bandit","34","278730","0.0-20.0-13.0","55786474","wem/bandit_either_3","A3908297ZI3LES","either","6","898","","","","","","","0","0","1","0.2","","0.5","0.5","","","","","","","0.8","0.2","","","","","","","","","","75","K","1","","true","0","80_20_practice",""
"","bandit","35","280689","0.0-20.0-14.0","55786474","wem/bandit_either_3","A3908297ZI3LES","either","6","457","","","","","","","0","0","1","","0.2","0.5","0.5","","","0.8","0.2","","","","","","","","","","","","","","75","K","1","","true","0","80_20_practice",""
"","bandit","36","283433","0.0-20.0-15.0","55786474","wem/bandit_either_3","A3908297ZI3LES","either","6","1240","","","","","","","0","0","1","","0.2","0.5","0.5","","","0.8","0.2","","","","","","","","","","","","","","75","K","1","","true","0","80_20_practice",""
"","bandit","37","286081","0.0-20.0-16.0","55786474","wem/bandit_either_3","A3908297ZI3LES","either","6","1145","","","","","","","0","0","1","0.2","","0.5","0.5","","","","","","","0.8","0.2","","","","","","","","","","75","K","1","","true","0","80_20_practice",""
"","bandit","38","288225","0.0-20.0-17.0","55786474","wem/bandit_either_3","A3908297ZI3LES","either","6","641","","","","","","","0","0","1","","0.2","0.5","0.5","","","0.8","0.2","","","","","","","","","","","","","","75","K","1","","true","0","80_20_practice",""
"","bandit","39","290336","0.0-20.0-18.0","55786474","wem/bandit_either_3","A3908297ZI3LES","either","6","608","","","","","","","0","0","1","0.2","","0.5","0.5","","","","","","","0.8","0.2","","","","","","","","","","75","K","1","","true","0","80_20_practice",""
"","bandit","40","292456","0.0-20.0-19.0","55786474","wem/bandit_either_3","A3908297ZI3LES","either","6","617","","","","","","","0","0","1","","0.2","0.5","0.5","","","0.8","0.2","","","","","","","","","","","","","","75","K","1","","true","0","80_20_practice",""
"","text","41","297382","0.0-21.0","55786474","wem/bandit_either_3","A3908297ZI3LES","either","6","4923","","32","","","","","","","","","","","","","","","","","","","","","","","","","","","","","","","","","","","",""
"","bandit","42","303873","0.0-22.0-0.0","55786474","wem/bandit_either_3","A3908297ZI3LES","either","6","4988","","","","","","","1","0","0","1","0","","","","","0","1","","","1","0","","","","","","","","","","74","J","0","img/none_selected_demo.jpg","true","0","",""
"","text","43","310941","0.0-23.0","55786474","wem/bandit_either_3","A3908297ZI3LES","either","6","7065","","32","","","","","","","","","","","","","","","","","","","","","","","","","","","","","","","","","","","",""
"","text","44","317341","0.0-24.0","55786474","wem/bandit_either_3","A3908297ZI3LES","either","6","6399","","32","","","","","","","","","","","","","","","","","","","","","","","","","","","","","","","","","","","",""
"","text","45","321749","0.0-25.0","55786474","wem/bandit_either_3","A3908297ZI3LES","either","6","4406","","32","","","","","","","","","","","","","","","","","","","","","","","","","","","","","","","","","","","",""
"","text","46","326221","0.0-26.0","55786474","wem/bandit_either_3","A3908297ZI3LES","either","6","4470","","32","","","","","","","","","","","","","","","","","","","","","","","","","","","","","","","","","","","",""
"","text","47","338821","0.0-27.0","55786474","wem/bandit_either_3","A3908297ZI3LES","either","6","12599","","32","","","","","","","","","","","","","","","","","","","","","","","","","","","","","","","","","","","",""
"","text","48","341837","0.0-28.0","55786474","wem/bandit_either_3","A3908297ZI3LES","either","6","3013","","32","","","","","","","","","","","","","","","","","","","","","","","","","","","","","","","","","","","",""
"","text","49","353221","0.0-29.0","55786474","wem/bandit_either_3","A3908297ZI3LES","either","6","11384","","32","","","","","","","","","","","","","","","","","","","","","","","","","","","","","","","","","","","",""
"","text","50","356589","0.0-30.0","55786474","wem/bandit_either_3","A3908297ZI3LES","either","6","3366","","32","","","","","","","","","","","","","","","","","","","","","","","","","","","","","","","","","","","",""
"","text","51","358989","0.0-31.0","55786474","wem/bandit_either_3","A3908297ZI3LES","either","6","2398","","32","","","","","","","","","","","","","","","","","","","","","","","","","","","","","","","","","","","",""
"","text","52","360901","0.0-32.0","55786474","wem/bandit_either_3","A3908297ZI3LES","either","6","1910","","32","","","","","","","","","","","","","","","","","","","","","","","","","","","","","","","","","","","",""
"","text","53","370725","0.0-33.0","55786474","wem/bandit_either_3","A3908297ZI3LES","either","6","9823","","32","","","","","","","","","","","","","","","","","","","","","","","","","","","","","","","","","","","",""
"","bandit","54","374505","0.0-34.0-0.0","55786474","wem/bandit_either_3","A3908297ZI3LES","either","6","2277","","","","","","","0","0","1","","0.2","0.5","0.5","0.5","0.5","0.8","0.2","0.6","0.2","","","","","","","","","","","","76","L","3","","true","0","full_practice",""
"","bandit","55","378714","0.0-34.0-1.0","55786474","wem/bandit_either_3","A3908297ZI3LES","either","6","2704","","","","","","","0","0","1","","0.2","0.5","0.5","0.5","0.5","0.8","0.2","0.6","0.2","","","","","","","","","","","","76","L","3","","true","0","full_practice",""
"","bandit","56","380960","0.0-34.0-2.0","55786474","wem/bandit_either_3","A3908297ZI3LES","either","6","743","","","","","","","1","0","0","0.6","","0.5","0.5","0.5","0.5","","","","","0.8","0.2","0.6","0.2","","","","","","","","75","K","2","","true","0","full_practice",""
"","bandit","57","383321","0.0-34.0-3.0","55786474","wem/bandit_either_3","A3908297ZI3LES","either","6","856","","","","","","","0","0","1","","0.6","0.5","0.5","0.5","0.5","0.8","0.2","0.6","0.2","","","","","","","","","","","","75","K","2","","true","0","full_practice",""
"","bandit","58","385673","0.0-34.0-4.0","55786474","wem/bandit_either_3","A3908297ZI3LES","either","6","849","","","","","","","0","0","1","","0.2","0.5","0.5","0.5","0.5","0.8","0.2","0.6","0.2","","","","","","","","","","","","74","J","1","","true","0","full_practice",""
"","bandit","59","388345","0.0-34.0-5.0","55786474","wem/bandit_either_3","A3908297ZI3LES","either","6","1168","","","","","","","0","1","0","","0.8","0.5","0.5","0.5","0.5","0.8","0.2","0.6","0.2","","","","","","","","","","","","72","H","0","img/none_selected.jpg","true","0","full_practice",""
"","bandit","60","390481","0.0-34.0-6.0","55786474","wem/bandit_either_3","A3908297ZI3LES","either","6","634","","","","","","","1","0","0","0.8","","0.5","0.5","0.5","0.5","","","","","0.8","0.2","0.6","0.2","","","","","","","","72","H","0","img/none_selected.jpg","true","0","full_practice",""
"","bandit","61","392801","0.0-34.0-7.0","55786474","wem/bandit_either_3","A3908297ZI3LES","either","6","816","","","","","","","1","0","0","0.8","","0.5","0.5","0.5","0.5","","","","","0.8","0.2","0.6","0.2","","","","","","","","72","H","0","img/none_selected.jpg","true","0","full_practice",""
"","bandit","62","394856","0.0-34.0-8.0","55786474","wem/bandit_either_3","A3908297ZI3LES","either","6","552","","","","","","","1","0","0","0.8","","0.5","0.5","0.5","0.5","","","","","0.8","0.2","0.6","0.2","","","","","","","","72","H","0","img/none_selected.jpg","true","0","full_practice",""
"","bandit","63","396944","0.0-34.0-9.0","55786474","wem/bandit_either_3","A3908297ZI3LES","either","6","585","","","","","","","0","1","0","","0.8","0.5","0.5","0.5","0.5","0.8","0.2","0.6","0.2","","","","","","","","","","","","72","H","0","img/none_selected.jpg","true","0","full_practice",""
"","bandit","64","399048","0.0-34.0-10.0","55786474","wem/bandit_either_3","A3908297ZI3LES","either","6","600","","","","","","","1","0","0","0.8","","0.5","0.5","0.5","0.5","","","","","0.8","0.2","0.6","0.2","","","","","","","","72","H","0","img/none_selected.jpg","true","0","full_practice",""
"","bandit","65","401089","0.0-34.0-11.0","55786474","wem/bandit_either_3","A3908297ZI3LES","either","6","537","","","","","","","1","0","0","0.8","","0.5","0.5","0.5","0.5","","","","","0.8","0.2","0.6","0.2","","","","","","","","72","H","0","img/none_selected.jpg","true","0","full_practice",""
"","bandit","66","403777","0.0-34.0-12.0","55786474","wem/bandit_either_3","A3908297ZI3LES","either","6","1185","","","","","","","0","1","0","","0.8","0.5","0.5","0.5","0.5","0.8","0.2","0.6","0.2","","","","","","","","","","","","72","H","0","img/none_selected.jpg","true","0","full_practice",""
"","bandit","67","406969","0.0-34.0-13.0","55786474","wem/bandit_either_3","A3908297ZI3LES","either","6","1688","","","","","","","1","0","0","0.8","","0.5","0.5","0.5","0.5","","","","","0.8","0.2","0.6","0.2","","","","","","","","72","H","0","img/none_selected.jpg","true","0","full_practice",""
"","bandit","68","409690","0.0-34.0-14.0","55786474","wem/bandit_either_3","A3908297ZI3LES","either","6","1215","","","","","","","0","0","1","","0.8","0.5","0.5","0.5","0.5","0.8","0.2","0.6","0.2","","","","","","","","","","","","72","H","0","img/none_selected.jpg","true","0","full_practice",""
"","bandit","69","411297","0.0-34.0-15.0","55786474","wem/bandit_either_3","A3908297ZI3LES","either","6","103","","","","","","","1","0","0","0.8","","0.5","0.5","0.5","0.5","","","","","0.8","0.2","0.6","0.2","","","","","","","","72","H","0","img/none_selected.jpg","true","0","full_practice",""
"","bandit","70","413408","0.0-34.0-16.0","55786474","wem/bandit_either_3","A3908297ZI3LES","either","6","608","","","","","","","0","0","1","0.8","","0.5","0.5","0.5","0.5","","","","","0.8","0.2","0.6","0.2","","","","","","","","72","H","0","img/none_selected.jpg","true","0","full_practice",""
"","bandit","71","415520","0.0-34.0-17.0","55786474","wem/bandit_either_3","A3908297ZI3LES","either","6","606","","","","","","","0","0","1","","0.2","0.5","0.5","0.5","0.5","0.8","0.2","0.6","0.2","","","","","","","","","","","","74","J","1","","true","0","full_practice",""
"","bandit","72","417976","0.0-34.0-18.0","55786474","wem/bandit_either_3","A3908297ZI3LES","either","6","952","","","","","","","0","0","1","","0.6","0.5","0.5","0.5","0.5","0.8","0.2","0.6","0.2","","","","","","","","","","","","75","K","2","","true","0","full_practice",""
"","bandit","73","420065","0.0-34.0-19.0","55786474","wem/bandit_either_3","A3908297ZI3LES","either","6","586","","","","","","","0","0","1","0.2","","0.5","0.5","0.5","0.5","","","","","0.8","0.2","0.6","0.2","","","","","","","","76","L","3","","true","0","full_practice",""
"","text","74","424077","0.0-35.0","55786474","wem/bandit_either_3","A3908297ZI3LES","either","6","4005","","32","","","","","","","","","","","","","","","","","","","","","","","","","","","","","","","","","","","",""
"","text","75","434870","0.0-36.0","55786474","wem/bandit_either_3","A3908297ZI3LES","either","6","9791","","32","","","","","","","","","","","","","","","","","","","","","","","","","","","","","","","","","","","",""
"","text","76","439653","0.0-37.0","55786474","wem/bandit_either_3","A3908297ZI3LES","either","6","4781","","32","","","","","","","","","","","","","","","","","","","","","","","","","","","","","","","","","","","",""
"","text","77","441853","0.0-38.0","55786474","wem/bandit_either_3","A3908297ZI3LES","either","6","2198","","32","","","","","","","","","","","","","","","","","","","","","","","","","","","","","","","","","","","",""
"","text","78","449773","0.0-39.0","55786474","wem/bandit_either_3","A3908297ZI3LES","either","6","7917","","32","","","","","","","","","","","","","","","","","","","","","","","","","","","","","","","","","","","",""
"","text","79","451900","0.0-40.0","55786474","wem/bandit_either_3","A3908297ZI3LES","either","6","2126","","32","","","","","","","","","","","","","","","","","","","","","","","","","","","","","","","","","","","",""
"","bandit","80","454737","0.0-41.0-0.0","55786474","wem/bandit_either_3","A3908297ZI3LES","either","6","1334","","","","","","","1","0","0","0.1947351938","","0.8","0.4","0.2","0.6","","","","","0.1947351938","0.7197236342","0.2309914537","0.3049938501","","","","","","","","72","H","0","img/none_selected.jpg","","1","main_expt",""
"","bandit","81","456849","0.0-42.0-0.0","55786474","wem/bandit_either_3","A3908297ZI3LES","either","6","609","","","","","","","0","1","0","","0.1865171684","0.8","0.4","0.2","0.6","0.1865171684","0.7453792406","0.2351366282","0.3105507028","","","","","","","","","","","","72","H","0","img/none_selected.jpg","","2","main_expt",""
"","bandit","82","458777","0.0-43.0-0.0","55786474","wem/bandit_either_3","A3908297ZI3LES","either","6","423","","","","","","","0","0","1","","0.1578482069","0.8","0.4","0.2","0.6","0.1578482069","0.7422746785","0.3338792953","0.347932066","","","","","","","","","","","","72","H","0","img/none_selected.jpg","","3","main_expt",""
"","bandit","83","460801","0.0-44.0-0.0","55786474","wem/bandit_either_3","A3908297ZI3LES","either","6","520","","","","","","","0","0","1","0.1733557992","","0.8","0.4","0.2","0.6","","","","","0.1733557992","0.8152876082","0.2578124611","0.294099503","","","","","","","","72","H","0","img/none_selected.jpg","","4","main_expt",""
"","bandit","84","463049","0.0-45.0-0.0","55786474","wem/bandit_either_3","A3908297ZI3LES","either","6","745","","","","","","","0","0","1","","0.1275681293","0.8","0.4","0.2","0.6","0.1275681293","0.8494846052","0.152782507","0.256228135","","","","","","","","","","","","72","H","0","img/none_selected.jpg","","5","main_expt",""
"","bandit","85","465097","0.0-46.0-0.0","55786474","wem/bandit_either_3","A3908297ZI3LES","either","6","543","","","","","","","0","0","1","0.1776351543","","0.8","0.4","0.2","0.6","","","","","0.1776351543","0.8036792828","0.200224935","0.3142053347","","","","","","","","72","H","0","img/none_selected.jpg","","6","main_expt",""
"","bandit","86","467264","0.0-47.0-0.0","55786474","wem/bandit_either_3","A3908297ZI3LES","either","6","663","","","","","","","1","0","0","0.1412615145","","0.8","0.4","0.2","0.6","","","","","0.1412615145","0.8659664865","0.2200442108","0.2382568898","","","","","","","","72","H","0","img/none_selected.jpg","","7","main_expt",""
"","bandit","87","469208","0.0-48.0-0.0","55786474","wem/bandit_either_3","A3908297ZI3LES","either","6","441","","","","","","","0","0","1","","0.1508054742","0.8","0.4","0.2","0.6","0.1508054742","0.8475436228","0.1516915951","0.220471749","","","","","","","","","","","","72","H","0","img/none_selected.jpg","","8","main_expt",""
"","bandit","88","471209","0.0-49.0-0.0","55786474","wem/bandit_either_3","A3908297ZI3LES","either","6","497","","","","","","","0","0","1","0.1882404854","","0.8","0.4","0.2","0.6","","","","","0.1882404854","0.8034999265","0.1468829212","0.2842820234","","","","","","","","72","H","0","img/none_selected.jpg","","9","main_expt",""
"","bandit","89","473257","0.0-50.0-0.0","55786474","wem/bandit_either_3","A3908297ZI3LES","either","6","544","","","","","","","1","0","0","0.1731305678","","0.8","0.4","0.2","0.6","","","","","0.1731305678","0.7148412232","0.1507643719","0.3392415315","","","","","","","","72","H","0","img/none_selected.jpg","","10","main_expt",""
"","bandit","90","476217","0.0-51.0-0.0","55786474","wem/bandit_either_3","A3908297ZI3LES","either","6","1455","","","","","","","0","0","1","0.2475279461","","0.8","0.4","0.2","0.6","","","","","0.2475279461","0.7213030285","0.18301","0.4470346709","","","","","","","","72","H","0","img/none_selected.jpg","","11","main_expt",""
"","bandit","91","478393","0.0-52.0-0.0","55786474","wem/bandit_either_3","A3908297ZI3LES","either","6","671","","","","","","","0","0","1","0.2068792089","","0.8","0.4","0.2","0.6","","","","","0.2068792089","0.7396148754","0.209562337","0.5143820195","","","","","","","","72","H","0","img/none_selected.jpg","","12","main_expt",""
"","bandit","92","481280","0.0-53.0-0.0","55786474","wem/bandit_either_3","A3908297ZI3LES","either","6","1384","","","","","","","0","0","1","0.1594062408","","0.8","0.4","0.2","0.6","","","","","0.1594062408","0.6870781676","0.2133897639","0.4934308908","","","","","","","","72","H","0","img/none_selected.jpg","","13","main_expt",""
"","bandit","93","483585","0.0-54.0-0.0","55786474","wem/bandit_either_3","A3908297ZI3LES","either","6","800","","","","","","","0","0","1","0.1808320347","","0.8","0.4","0.2","0.6","","","","","0.1808320347","0.6561171826","0.1865122749","0.5884397519","","","","","","","","72","H","0","img/none_selected.jpg","","14","main_expt",""
"","bandit","94","485654","0.0-55.0-0.0","55786474","wem/bandit_either_3","A3908297ZI3LES","either","6","559","","","","","","","0","0","1","0.2401125286","","0.8","0.4","0.2","0.6","","","","","0.2401125286","0.6255101569","0.3169691733","0.425765204","","","","","","","","72","H","0","img/none_selected.jpg","","15","main_expt",""
"","bandit","95","487920","0.0-56.0-0.0","55786474","wem/bandit_either_3","A3908297ZI3LES","either","6","763","","","","","","","1","0","0","0.1823220599","","0.8","0.4","0.2","0.6","","","","","0.1823220599","0.6101220295","0.3927767979","0.4458974369","","","","","","","","72","H","0","img/none_selected.jpg","","16","main_expt",""
"","bandit","96","490001","0.0-57.0-0.0","55786474","wem/bandit_either_3","A3908297ZI3LES","either","6","577","","","","","","","0","0","1","0.2076179308","","0.8","0.4","0.2","0.6","","","","","0.2076179308","0.6233337625","0.2882183284","0.4907358526","","","","","","","","72","H","0","img/none_selected.jpg","","17","main_expt",""
"","bandit","97","492513","0.0-58.0-0.0","55786474","wem/bandit_either_3","A3908297ZI3LES","either","6","1007","","","","","","","0","0","1","","0.2310064443","0.8","0.4","0.2","0.6","0.2310064443","0.598865074","0.3212622409","0.4895096529","","","","","","","","","","","","72","H","0","img/none_selected.jpg","","18","main_expt",""
"","bandit","98","495602","0.0-59.0-0.0","55786474","wem/bandit_either_3","A3908297ZI3LES","either","6","1585","","","","","","","0","0","1","0.1919199612","","0.8","0.4","0.2","0.6","","","","","0.1919199612","0.6318918302","0.3678238944","0.5437378015","","","","","","","","72","H","0","img/none_selected.jpg","","19","main_expt",""
"","bandit","99","497833","0.0-60.0-0.0","55786474","wem/bandit_either_3","A3908297ZI3LES","either","6","725","","","","","","","0","0","1","","0.2150176637","0.8","0.4","0.2","0.6","0.2150176637","0.5667690756","0.4357360734","0.543071052","","","","","","","","","","","","72","H","0","img/none_selected.jpg","","20","main_expt",""
"","bandit","100","500009","0.0-61.0-0.0","55786474","wem/bandit_either_3","A3908297ZI3LES","either","6","659","","","","","","","1","0","0","0.2980309021","","0.8","0.4","0.2","0.6","","","","","0.2980309021","0.6364396753","0.4486518506","0.5457928974","","","","","","","","72","H","0","img/none_selected.jpg","","21","main_expt",""
"","bandit","101","502232","0.0-62.0-0.0","55786474","wem/bandit_either_3","A3908297ZI3LES","either","6","719","","","","","","","0","0","1","0.3238742104","","0.8","0.4","0.2","0.6","","","","","0.3238742104","0.5563436533","0.5145372488","0.4531799458","","","","","","","","72","H","0","img/none_selected.jpg","","22","main_expt",""
"","bandit","102","504928","0.0-63.0-0.0","55786474","wem/bandit_either_3","A3908297ZI3LES","either","6","1192","","","","","","","1","0","0","0.4158928209","","0.8","0.4","0.2","0.6","","","","","0.4158928209","0.4555064456","0.6324996067","0.4321579995","","","","","","","","72","H","0","img/none_selected.jpg","","23","main_expt",""
"","bandit","103","506913","0.0-64.0-0.0","55786474","wem/bandit_either_3","A3908297ZI3LES","either","6","481","","","","","","","0","0","1","0.2798670784","","0.8","0.4","0.2","0.6","","","","","0.2798670784","0.4398961724","0.6665025749","0.3892872195","","","","","","","","72","H","0","img/none_selected.jpg","","24","main_expt",""
"","bandit","104","508953","0.0-65.0-0.0","55786474","wem/bandit_either_3","A3908297ZI3LES","either","6","536","","","","","","","1","0","0","0.3932164435","","0.8","0.4","0.2","0.6","","","","","0.3932164435","0.3810464824","0.5316582614","0.4322880781","","","","","","","","72","H","0","img/none_selected.jpg","","25","main_expt",""
"","bandit","105","511201","0.0-66.0-0.0","55786474","wem/bandit_either_3","A3908297ZI3LES","either","6","743","","","","","","","0","0","1","0.3243459504","","0.8","0.4","0.2","0.6","","","","","0.3243459504","0.451695138","0.4282094451","0.4560392573","","","","","","","","72","H","0","img/none_selected.jpg","","26","main_expt",""
"","bandit","106","513369","0.0-67.0-0.0","55786474","wem/bandit_either_3","A3908297ZI3LES","either","6","663","","","","","","","0","0","1","","0.4266302179","0.8","0.4","0.2","0.6","0.4266302179","0.4423729324","0.4711380508","0.5372901799","","","","","","","","","","","","72","H","0","img/none_selected.jpg","","27","main_expt",""
"","bandit","107","515513","0.0-68.0-0.0","55786474","wem/bandit_either_3","A3908297ZI3LES","either","6","638","","","","","","","0","0","1","0.4206607535","","0.8","0.4","0.2","0.6","","","","","0.4206607535","0.4221124674","0.4539290932","0.6619872032","","","","","","","","72","H","0","img/none_selected.jpg","","28","main_expt",""
"","bandit","108","518097","0.0-69.0-0.0","55786474","wem/bandit_either_3","A3908297ZI3LES","either","6","1079","","","","","","","1","0","0","0.440099583","","0.8","0.4","0.2","0.6","","","","","0.440099583","0.489207998","0.4378511583","0.5939885142","","","","","","","","72","H","0","img/none_selected.jpg","","29","main_expt",""
"","bandit","109","520392","0.0-70.0-0.0","55786474","wem/bandit_either_3","A3908297ZI3LES","either","6","791","","","","","","","0","0","1","0.3982168329","","0.8","0.4","0.2","0.6","","","","","0.3982168329","0.4406356357","0.3425428874","0.5602145404","","","","","","","","72","H","0","img/none_selected.jpg","","30","main_expt",""
"","bandit","110","523312","0.0-71.0-0.0","55786474","wem/bandit_either_3","A3908297ZI3LES","either","6","1415","","","","","","","1","0","0","0.3573437221","","0.8","0.4","0.2","0.6","","","","","0.3573437221","0.484130952","0.2354865125","0.5376870091","","","","","","","","72","H","0","img/none_selected.jpg","","31","main_expt",""
"","bandit","111","525649","0.0-72.0-0.0","55786474","wem/bandit_either_3","A3908297ZI3LES","either","6","833","","","","","","","1","0","0","0.3712986889","","0.8","0.4","0.2","0.6","","","","","0.3712986889","0.432294219","0.2552437171","0.6346195819","","","","","","","","72","H","0","img/none_selected.jpg","","32","main_expt",""
"","bandit","112","528001","0.0-73.0-0.0","55786474","wem/bandit_either_3","A3908297ZI3LES","either","6","847","","","","","","","0","0","1","0.45096985","","0.8","0.4","0.2","0.6","","","","","0.45096985","0.4821309474","0.2470382599","0.7540961955","","","","","","","","72","H","0","img/none_selected.jpg","","33","main_expt",""
"","bandit","113","530105","0.0-74.0-0.0","55786474","wem/bandit_either_3","A3908297ZI3LES","either","6","600","","","","","","","0","0","1","0.5559331637","","0.8","0.4","0.2","0.6","","","","","0.5559331637","0.4702474349","0.2951894024","0.699797925","","","","","","","","72","H","0","img/none_selected.jpg","","34","main_expt",""
"","bandit","114","531613","0.0-75.0-0.0","55786474","wem/bandit_either_3","A3908297ZI3LES","either","6","1","","","","","","","1","0","0","0.7354386419","","0.8","0.4","0.2","0.6","","","","","0.7354386419","0.5363697359","0.2596626779","0.7410295452","","","","","","","","72","H","0","img/none_selected.jpg","","35","main_expt",""
"","bandit","115","533706","0.0-76.0-0.0","55786474","wem/bandit_either_3","A3908297ZI3LES","either","6","587","","","","","","","0","1","0","","0.6934166837","0.8","0.4","0.2","0.6","0.6934166837","0.602250539","0.3164764808","0.7332281969","","","","","","","","","","","","72","H","0","img/none_selected.jpg","","36","main_expt",""
"","bandit","116","536320","0.0-77.0-0.0","55786474","wem/bandit_either_3","A3908297ZI3LES","either","6","1109","","","","","","","1","0","0","0.6311869688","","0.8","0.4","0.2","0.6","","","","","0.6311869688","0.5337433964","0.3672962009","0.736713329","","","","","","","","72","H","0","img/none_selected.jpg","","37","main_expt",""
"","bandit","117","538641","0.0-78.0-0.0","55786474","wem/bandit_either_3","A3908297ZI3LES","either","6","815","","","","","","","1","0","0","0.6583504975","","0.8","0.4","0.2","0.6","","","","","0.6583504975","0.5970413872","0.4056598401","0.6860808007","","","","","","","","72","H","0","img/none_selected.jpg","","38","main_expt",""
"","bandit","118","540738","0.0-79.0-0.0","55786474","wem/bandit_either_3","A3908297ZI3LES","either","6","590","","","","","","","0","0","1","","0.5861321806","0.8","0.4","0.2","0.6","0.5861321806","0.6529448079","0.4236995386","0.7498761973","","","","","","","","","","","","72","H","0","img/none_selected.jpg","","39","main_expt",""
"","bandit","119","543585","0.0-80.0-0.0","55786474","wem/bandit_either_3","A3908297ZI3LES","either","6","1339","","","","","","","1","0","0","0.4892836735","","0.8","0.4","0.2","0.6","","","","","0.4892836735","0.6612991154","0.4365163158","0.7043283504","","","","","","","","72","H","0","img/none_selected.jpg","","40","main_expt",""
"","bandit","120","545665","0.0-81.0-0.0","55786474","wem/bandit_either_3","A3908297ZI3LES","either","6","574","","","","","","","1","0","0","0.3479900608","","0.8","0.4","0.2","0.6","","","","","0.3479900608","0.7390431107","0.4854269132","0.6469690382","","","","","","","","72","H","0","img/none_selected.jpg","","41","main_expt",""
"","bandit","121","547761","0.0-82.0-0.0","55786474","wem/bandit_either_3","A3908297ZI3LES","either","6","591","","","","","","","0","0","1","0.376709287","","0.8","0.4","0.2","0.6","","","","","0.376709287","0.7609423287","0.4753587859","0.6388905256","","","","","","","","72","H","0","img/none_selected.jpg","","42","main_expt",""
"","bandit","122","549714","0.0-83.0-0.0","55786474","wem/bandit_either_3","A3908297ZI3LES","either","6","446","","","","","","","0","0","1","0.4319300722","","0.8","0.4","0.2","0.6","","","","","0.4319300722","0.8039673949","0.452202747","0.6383372244","","","","","","","","72","H","0","img/none_selected.jpg","","43","main_expt",""
"","bandit","123","552081","0.0-84.0-0.0","55786474","wem/bandit_either_3","A3908297ZI3LES","either","6","862","","","","","","","1","0","0","0.4458636389","","0.8","0.4","0.2","0.6","","","","","0.4458636389","0.8216753652","0.5522191005","0.6247854939","","","","","","","","72","H","0","img/none_selected.jpg","","44","main_expt",""
"","bandit","124","553641","0.0-85.0-0.0","55786474","wem/bandit_either_3","A3908297ZI3LES","either","6","54","","","","","","","0","0","1","0.4323480181","","0.8","0.4","0.2","0.6","","","","","0.4323480181","0.7636866317","0.4878962787","0.6341880498","","","","","","","","72","H","0","img/none_selected.jpg","","45","main_expt",""
"","bandit","125","555768","0.0-86.0-0.0","55786474","wem/bandit_either_3","A3908297ZI3LES","either","6","623","","","","","","","1","0","0","0.4348202433","","0.8","0.4","0.2","0.6","","","","","0.4348202433","0.8203755575","0.487595293","0.5081310512","","","","","","","","72","H","0","img/none_selected.jpg","","46","main_expt",""
"","bandit","126","557337","0.0-87.0-0.0","55786474","wem/bandit_either_3","A3908297ZI3LES","either","6","63","","","","","","","0","0","1","0.3430847618","","0.8","0.4","0.2","0.6","","","","","0.3430847618","0.8706375764","0.444754188","0.4202927251","","","","","","","","72","H","0","img/none_selected.jpg","","47","main_expt",""
"","bandit","127","559473","0.0-88.0-0.0","55786474","wem/bandit_either_3","A3908297ZI3LES","either","6","632","","","","","","","1","0","0","0.2601977795","","0.8","0.4","0.2","0.6","","","","","0.2601977795","0.8019506245","0.5044276746","0.4767868938","","","","","","","","72","H","0","img/none_selected.jpg","","48","main_expt",""
"","bandit","128","561121","0.0-89.0-0.0","55786474","wem/bandit_either_3","A3908297ZI3LES","either","6","143","","","","","","","1","0","0","0.2368144698","","0.8","0.4","0.2","0.6","","","","","0.2368144698","0.7331224435","0.3766714482","0.3749468019","","","","","","","","72","H","0","img/none_selected.jpg","","49","main_expt",""
"","bandit","129","563097","0.0-90.0-0.0","55786474","wem/bandit_either_3","A3908297ZI3LES","either","6","472","","","","","","","0","0","1","","0.2484527115","0.8","0.4","0.2","0.6","0.2484527115","0.7908344101","0.406992786","0.3532902347","","","","","","","","","","","","72","H","0","img/none_selected.jpg","","50","main_expt",""
"","bandit","130","566297","0.0-91.0-0.0","55786474","wem/bandit_either_3","A3908297ZI3LES","either","6","1694","","","","","","","0","0","1","0.230268934","","0.8","0.4","0.2","0.6","","","","","0.230268934","0.7922828235","0.3854505747","0.2413466802","","","","","","","","72","H","0","img/none_selected.jpg","","51","main_expt",""
"","bandit","131","568521","0.0-92.0-0.0","55786474","wem/bandit_either_3","A3908297ZI3LES","either","6","719","","","","","","","0","0","1","0.3429002399","","0.8","0.4","0.2","0.6","","","","","0.3429002399","0.7485378942","0.3956915145","0.2673723166","","","","","","","","72","H","0","img/none_selected.jpg","","52","main_expt",""
"","bandit","132","570816","0.0-93.0-0.0","55786474","wem/bandit_either_3","A3908297ZI3LES","either","6","790","","","","","","","0","1","0","","0.2871029552","0.8","0.4","0.2","0.6","0.2871029552","0.6603794952","0.3062348001","0.2806035608","","","","","","","","","","","","72","H","0","img/none_selected.jpg","","53","main_expt",""
"","bandit","133","573024","0.0-94.0-0.0","55786474","wem/bandit_either_3","A3908297ZI3LES","either","6","704","","","","","","","0","0","1","0.2594444468","","0.8","0.4","0.2","0.6","","","","","0.2594444468","0.6931449795","0.2996500993","0.2544312064","","","","","","","","72","H","0","img/none_selected.jpg","","54","main_expt",""
"","bandit","134","575713","0.0-95.0-0.0","55786474","wem/bandit_either_3","A3908297ZI3LES","either","6","1183","","","","","","","0","0","1","","0.3333749245","0.8","0.4","0.2","0.6","0.3333749245","0.7553272845","0.2518247787","0.3362815808","","","","","","","","","","","","72","H","0","img/none_selected.jpg","","55","main_expt",""
"","bandit","135","578113","0.0-96.0-0.0","55786474","wem/bandit_either_3","A3908297ZI3LES","either","6","896","","","","","","","0","0","1","","0.3049104067","0.8","0.4","0.2","0.6","0.3049104067","0.7231548626","0.3014763065","0.3798256012","","","","","","","","","","","","72","H","0","img/none_selected.jpg","","56","main_expt",""
"","bandit","136","580169","0.0-97.0-0.0","55786474","wem/bandit_either_3","A3908297ZI3LES","either","6","550","","","","","","","0","0","1","0.3623273811","","0.8","0.4","0.2","0.6","","","","","0.3623273811","0.7485901337","0.2730843718","0.3989549393","","","","","","","","72","H","0","img/none_selected.jpg","","57","main_expt",""
"","bandit","137","582417","0.0-98.0-0.0","55786474","wem/bandit_either_3","A3908297ZI3LES","either","6","742","","","","","","","1","0","0","0.3621169042","","0.8","0.4","0.2","0.6","","","","","0.3621169042","0.797082508","0.367239041","0.3373398956","","","","","","","","72","H","0","img/none_selected.jpg","","58","main_expt",""
"","bandit","138","584705","0.0-99.0-0.0","55786474","wem/bandit_either_3","A3908297ZI3LES","either","6","782","","","","","","","0","0","1","","0.3672848169","0.8","0.4","0.2","0.6","0.3672848169","0.7466963627","0.4005220403","0.3381045731","","","","","","","","","","","","72","H","0","img/none_selected.jpg","","59","main_expt",""
"","bandit","139","587042","0.0-100.0-0.0","55786474","wem/bandit_either_3","A3908297ZI3LES","either","6","830","","","","","","","1","0","0","0.5123874715","","0.8","0.4","0.2","0.6","","","","","0.5123874715","0.6359615323","0.4863912708","0.4838111383","","","","","","","","72","H","0","img/none_selected.jpg","","60","main_expt",""
"","bandit","140","590448","0.0-101.0-0.0","55786474","wem/bandit_either_3","A3908297ZI3LES","either","6","1902","","","","","","","1","0","0","0.5218319631","","0.8","0.4","0.2","0.6","","","","","0.5218319631","0.7125939799","0.5220595343","0.4290776342","","","","","","","","72","H","0","img/none_selected.jpg","","61","main_expt",""
"","bandit","141","592426","0.0-102.0-0.0","55786474","wem/bandit_either_3","A3908297ZI3LES","either","6","471","","","","","","","0","0","1","","0.6482151027","0.8","0.4","0.2","0.6","0.6482151027","0.5978650666","0.5447889898","0.4387439774","","","","","","","","","","","","72","H","0","img/none_selected.jpg","","62","main_expt",""
"","bandit","142","594537","0.0-103.0-0.0","55786474","wem/bandit_either_3","A3908297ZI3LES","either","6","607","","","","","","","0","1","0","","0.6966290852","0.8","0.4","0.2","0.6","0.6966290852","0.5166338879","0.5517390004","0.3670418014","","","","","","","","","","","","72","H","0","img/none_selected.jpg","","63","main_expt",""
"","bandit","143","596993","0.0-104.0-0.0","55786474","wem/bandit_either_3","A3908297ZI3LES","either","6","950","","","","","","","1","0","0","0.6497033777","","0.8","0.4","0.2","0.6","","","","","0.6497033777","0.4901650138","0.6576188384","0.3470393933","","","","","","","","72","H","0","img/none_selected.jpg","","64","main_expt",""
"","bandit","144","598937","0.0-105.0-0.0","55786474","wem/bandit_either_3","A3908297ZI3LES","either","6","439","","","","","","","1","0","0","0.6925184903","","0.8","0.4","0.2","0.6","","","","","0.6925184903","0.459365688","0.5156176703","0.3361574661","","","","","","","","72","H","0","img/none_selected.jpg","","65","main_expt",""
"","bandit","145","601075","0.0-106.0-0.0","55786474","wem/bandit_either_3","A3908297ZI3LES","either","6","630","","","","","","","0","0","1","0.8298767513","","0.8","0.4","0.2","0.6","","","","","0.8298767513","0.4666104807","0.3851410914","0.34308242","","","","","","","","72","H","0","img/none_selected.jpg","","66","main_expt",""
"","bandit","146","603400","0.0-107.0-0.0","55786474","wem/bandit_either_3","A3908297ZI3LES","either","6","821","","","","","","","0","0","1","0.8506596021","","0.8","0.4","0.2","0.6","","","","","0.8506596021","0.5547259005","0.3925250542","0.3730603492","","","","","","","","72","H","0","img/none_selected.jpg","","67","main_expt",""
"","bandit","147","605592","0.0-108.0-0.0","55786474","wem/bandit_either_3","A3908297ZI3LES","either","6","687","","","","","","","1","0","0","0.8536910832","","0.8","0.4","0.2","0.6","","","","","0.8536910832","0.6038719492","0.3884113518","0.4089949532","","","","","","","","72","H","0","img/none_selected.jpg","","68","main_expt",""
"","bandit","148","607552","0.0-109.0-0.0","55786474","wem/bandit_either_3","A3908297ZI3LES","either","6","455","","","","","","","1","0","0","0.8642538991","","0.8","0.4","0.2","0.6","","","","","0.8642538991","0.6148283845","0.3434478979","0.3749002533","","","","","","","","72","H","0","img/none_selected.jpg","","69","main_expt",""
"","bandit","149","609739","0.0-110.0-0.0","55786474","wem/bandit_either_3","A3908297ZI3LES","either","6","679","","","","","","","1","0","0","0.8073802352","","0.8","0.4","0.2","0.6","","","","","0.8073802352","0.6683283761","0.4426642051","0.4133869845","","","","","","","","72","H","0","img/none_selected.jpg","","70","main_expt",""
"","bandit","150","612129","0.0-111.0-0.0","55786474","wem/bandit_either_3","A3908297ZI3LES","either","6","886","","","","","","","0","0","1","0.8059201048","","0.8","0.4","0.2","0.6","","","","","0.8059201048","0.738459761","0.4518046004","0.3302164541","","","","","","","","72","H","0","img/none_selected.jpg","","71","main_expt",""
"","bandit","151","614385","0.0-112.0-0.0","55786474","wem/bandit_either_3","A3908297ZI3LES","either","6","751","","","","","","","1","0","0","0.8262275011","","0.8","0.4","0.2","0.6","","","","","0.8262275011","0.6525166508","0.4903223245","0.2570952275","","","","","","","","72","H","0","img/none_selected.jpg","","72","main_expt",""
"","bandit","152","616449","0.0-113.0-0.0","55786474","wem/bandit_either_3","A3908297ZI3LES","either","6","557","","","","","","","1","0","0","0.7334390718","","0.8","0.4","0.2","0.6","","","","","0.7334390718","0.5715134512","0.5296083002","0.2042885023","","","","","","","","72","H","0","img/none_selected.jpg","","73","main_expt",""
"","bandit","153","618561","0.0-114.0-0.0","55786474","wem/bandit_either_3","A3908297ZI3LES","either","6","607","","","","","","","1","0","0","0.7490977197","","0.8","0.4","0.2","0.6","","","","","0.7490977197","0.6228045854","0.4883026933","0.2152837516","","","","","","","","72","H","0","img/none_selected.jpg","","74","main_expt",""
"","bandit","154","620785","0.0-115.0-0.0","55786474","wem/bandit_either_3","A3908297ZI3LES","either","6","718","","","","","","","0","1","0","","0.7554087461","0.8","0.4","0.2","0.6","0.7554087461","0.613630376","0.4914171484","0.2044775694","","","","","","","","","","","","72","H","0","img/none_selected.jpg","","75","main_expt",""
"","bandit","155","623272","0.0-116.0-0.0","55786474","wem/bandit_either_3","A3908297ZI3LES","either","6","982","","","","","","","1","0","0","0.804443878","","0.8","0.4","0.2","0.6","","","","","0.804443878","0.7047266053","0.6059218973","0.2247613499","","","","","","","","72","H","0","img/none_selected.jpg","","76","main_expt",""
"","bandit","156","625417","0.0-117.0-0.0","55786474","wem/bandit_either_3","A3908297ZI3LES","either","6","638","","","","","","","1","0","0","0.6656620098","","0.8","0.4","0.2","0.6","","","","","0.6656620098","0.6910360943","0.553792366","0.2266335256","","","","","","","","72","H","0","img/none_selected.jpg","","77","main_expt",""
"","bandit","157","627378","0.0-118.0-0.0","55786474","wem/bandit_either_3","A3908297ZI3LES","either","6","454","","","","","","","1","0","0","0.5898140708","","0.8","0.4","0.2","0.6","","","","","0.5898140708","0.5515992215","0.6884193839","0.1659731505","","","","","","","","72","H","0","img/none_selected.jpg","","78","main_expt",""
"","bandit","158","629338","0.0-119.0-0.0","55786474","wem/bandit_either_3","A3908297ZI3LES","either","6","455","","","","","","","1","0","0","0.613215191","","0.8","0.4","0.2","0.6","","","","","0.613215191","0.6448399581","0.7214277645","0.2343921172","","","","","","","","72","H","0","img/none_selected.jpg","","79","main_expt",""
"","bandit","159","631921","0.0-120.0-0.0","55786474","wem/bandit_either_3","A3908297ZI3LES","either","6","1078","","","","","","","0","0","1","0.4605925783","","0.8","0.4","0.2","0.6","","","","","0.4605925783","0.739479497","0.7328142644","0.2164054515","","","","","","","","72","H","0","img/none_selected.jpg","","80","main_expt",""
"","bandit","160","633985","0.0-121.0-0.0","55786474","wem/bandit_either_3","A3908297ZI3LES","either","6","558","","","","","","","0","0","1","0.5390789087","","0.8","0.4","0.2","0.6","","","","","0.5390789087","0.6956071838","0.7101675561","0.1361232007","","","","","","","","72","H","0","img/none_selected.jpg","","81","main_expt",""
"","bandit","161","636339","0.0-122.0-0.0","55786474","wem/bandit_either_3","A3908297ZI3LES","either","6","846","","","","","","","0","0","1","0.621290364","","0.8","0.4","0.2","0.6","","","","","0.621290364","0.5886517937","0.6984384541","0.2275447725","","","","","","","","72","H","0","img/none_selected.jpg","","82","main_expt",""
"","bandit","162","638433","0.0-123.0-0.0","55786474","wem/bandit_either_3","A3908297ZI3LES","either","6","588","","","","","","","1","0","0","0.6359424421","","0.8","0.4","0.2","0.6","","","","","0.6359424421","0.4764182235","0.7447883659","0.1900607051","","","","","","","","72","H","0","img/none_selected.jpg","","83","main_expt",""
"","bandit","163","640376","0.0-124.0-0.0","55786474","wem/bandit_either_3","A3908297ZI3LES","either","6","438","","","","","","","1","0","0","0.6133664729","","0.8","0.4","0.2","0.6","","","","","0.6133664729","0.5149027494","0.6900592863","0.1306868958","","","","","","","","72","H","0","img/none_selected.jpg","","84","main_expt",""
"","bandit","164","642497","0.0-125.0-0.0","55786474","wem/bandit_either_3","A3908297ZI3LES","either","6","615","","","","","","","1","0","0","0.7815463305","","0.8","0.4","0.2","0.6","","","","","0.7815463305","0.4908067213","0.7010597455","0.1683201849","","","","","","","","72","H","0","img/none_selected.jpg","","85","main_expt",""
"","bandit","165","644744","0.0-126.0-0.0","55786474","wem/bandit_either_3","A3908297ZI3LES","either","6","742","","","","","","","1","0","0","0.7355789231","","0.8","0.4","0.2","0.6","","","","","0.7355789231","0.4139472458","0.6171062652","0.1290314955","","","","","","","","72","H","0","img/none_selected.jpg","","86","main_expt",""
"","bandit","166","647161","0.0-127.0-0.0","55786474","wem/bandit_either_3","A3908297ZI3LES","either","6","912","","","","","","","0","1","0","","0.7267399876","0.8","0.4","0.2","0.6","0.7267399876","0.4253818619","0.5629375242","0.2297537383","","","","","","","","","","","","72","H","0","img/none_selected.jpg","","87","main_expt",""
"","bandit","167","649355","0.0-128.0-0.0","55786474","wem/bandit_either_3","A3908297ZI3LES","either","6","686","","","","","","","0","0","1","","0.7703195612","0.8","0.4","0.2","0.6","0.7703195612","0.4448862761","0.6434443074","0.1878263516","","","","","","","","","","","","72","H","0","img/none_selected.jpg","","88","main_expt",""
"","bandit","168","651489","0.0-129.0-0.0","55786474","wem/bandit_either_3","A3908297ZI3LES","either","6","628","","","","","","","1","0","0","0.81872988","","0.8","0.4","0.2","0.6","","","","","0.81872988","0.4295642349","0.7296698787","0.1896964823","","","","","","","","72","H","0","img/none_selected.jpg","","89","main_expt",""
"","bandit","169","655065","0.0-130.0-0.0","55786474","wem/bandit_either_3","A3908297ZI3LES","either","6","2070","","","","","","","1","0","0","0.8032570632","","0.8","0.4","0.2","0.6","","","","","0.8032570632","0.3655203192","0.7042864347","0.1614970172","","","","","","","","72","H","0","img/none_selected.jpg","","90","main_expt",""
"","bandit","170","658248","0.0-131.0-0.0","55786474","wem/bandit_either_3","A3908297ZI3LES","either","6","1678","","","","","","","1","0","0","0.8257352781","","0.8","0.4","0.2","0.6","","","","","0.8257352781","0.402428746","0.7606559624","0.2107705911","","","","","","","","72","H","0","img/none_selected.jpg","","91","main_expt",""
"","bandit","171","660496","0.0-132.0-0.0","55786474","wem/bandit_either_3","A3908297ZI3LES","either","6","743","","","","","","","1","0","0","0.7762210657","","0.8","0.4","0.2","0.6","","","","","0.7762210657","0.452733603","0.8466818248","0.1317951273","","","","","","","","72","H","0","img/none_selected.jpg","","92","main_expt",""
"","bandit","172","662754","0.0-133.0-0.0","55786474","wem/bandit_either_3","A3908297ZI3LES","either","6","750","","","","","","","1","0","0","0.8293629201","","0.8","0.4","0.2","0.6","","","","","0.8293629201","0.5416456901","0.8181600593","0.09268613222","","","","","","","","72","H","0","img/none_selected.jpg","","93","main_expt",""
"","bandit","173","664961","0.0-134.0-0.0","55786474","wem/bandit_either_3","A3908297ZI3LES","either","6","703","","","","","","","1","0","0","0.7849393417","","0.8","0.4","0.2","0.6","","","","","0.7849393417","0.5246039132","0.7259749053","0.06418168538","","","","","","","","72","H","0","img/none_selected.jpg","","94","main_expt",""
"","bandit","174","667377","0.0-135.0-0.0","55786474","wem/bandit_either_3","A3908297ZI3LES","either","6","910","","","","","","","0","1","0","","0.7850226125","0.8","0.4","0.2","0.6","0.7850226125","0.606801291","0.6538641892","0.100072779","","","","","","","","","","","","72","H","0","img/none_selected.jpg","","95","main_expt",""
"","bandit","175","669537","0.0-136.0-0.0","55786474","wem/bandit_either_3","A3908297ZI3LES","either","6","652","","","","","","","1","0","0","0.8013150942","","0.8","0.4","0.2","0.6","","","","","0.8013150942","0.7175242067","0.6384360591","0.09628221604","","","","","","","","72","H","0","img/none_selected.jpg","","96","main_expt",""
"","bandit","176","671513","0.0-137.0-0.0","55786474","wem/bandit_either_3","A3908297ZI3LES","either","6","469","","","","","","","1","0","0","0.70340399","","0.8","0.4","0.2","0.6","","","","","0.70340399","0.7706560561","0.6836118029","0.1335622201","","","","","","","","72","H","0","img/none_selected.jpg","","97","main_expt",""
"","bandit","177","673457","0.0-138.0-0.0","55786474","wem/bandit_either_3","A3908297ZI3LES","either","6","437","","","","","","","0","0","1","0.7562517051","","0.8","0.4","0.2","0.6","","","","","0.7562517051","0.7234704616","0.659457158","0.167202632","","","","","","","","72","H","0","img/none_selected.jpg","","98","main_expt",""
"","bandit","178","675457","0.0-139.0-0.0","55786474","wem/bandit_either_3","A3908297ZI3LES","either","6","494","","","","","","","0","0","1","0.6514659141","","0.8","0.4","0.2","0.6","","","","","0.6514659141","0.6582042781","0.7726162223","0.1216125457","","","","","","","","72","H","0","img/none_selected.jpg","","99","main_expt",""
"","bandit","179","677472","0.0-140.0-0.0","55786474","wem/bandit_either_3","A3908297ZI3LES","either","6","510","","","","","","","1","0","0","0.7112237606","","0.8","0.4","0.2","0.6","","","","","0.7112237606","0.6530973887","0.8446518706","0.1163239148","","","","","","","","72","H","0","img/none_selected.jpg","","100","main_expt",""
"","bandit","180","679410","0.0-141.0-0.0","55786474","wem/bandit_either_3","A3908297ZI3LES","either","6","431","","","","","","","1","0","0","0.6865981462","","0.8","0.4","0.2","0.6","","","","","0.6865981462","0.6690961394","0.8784151442","0.1037928869","","","","","","","","72","H","0","img/none_selected.jpg","","101","main_expt",""
"","bandit","181","682481","0.0-142.0-0.0","55786474","wem/bandit_either_3","A3908297ZI3LES","either","6","1566","","","","","","","0","0","1","0.6663704066","","0.8","0.4","0.2","0.6","","","","","0.6663704066","0.6268844929","0.8781202538","0.0991068806","","","","","","","","72","H","0","img/none_selected.jpg","","102","main_expt",""
"","bandit","182","684514","0.0-143.0-0.0","55786474","wem/bandit_either_3","A3908297ZI3LES","either","6","527","","","","","","","0","1","0","","0.6006744832","0.8","0.4","0.2","0.6","0.6006744832","0.6657789595","0.8123732176","0.1226752409","","","","","","","","","","","","72","H","0","img/none_selected.jpg","","103","main_expt",""
"","bandit","183","686457","0.0-144.0-0.0","55786474","wem/bandit_either_3","A3908297ZI3LES","either","6","437","","","","","","","0","0","1","0.518723913","","0.8","0.4","0.2","0.6","","","","","0.518723913","0.6951589836","0.8461937008","0.1552466415","","","","","","","","72","H","0","img/none_selected.jpg","","104","main_expt",""
"","bandit","184","688578","0.0-145.0-0.0","55786474","wem/bandit_either_3","A3908297ZI3LES","either","6","613","","","","","","","1","0","0","0.5343999165","","0.8","0.4","0.2","0.6","","","","","0.5343999165","0.6382729445","0.8664825842","0.1702138509","","","","","","","","72","H","0","img/none_selected.jpg","","105","main_expt",""
"","bandit","185","690489","0.0-146.0-0.0","55786474","wem/bandit_either_3","A3908297ZI3LES","either","6","405","","","","","","","0","0","1","0.4959998489","","0.8","0.4","0.2","0.6","","","","","0.4959998489","0.7139624249","0.8703997655","0.2021425125","","","","","","","","72","H","0","img/none_selected.jpg","","106","main_expt",""
"","bandit","186","692688","0.0-147.0-0.0","55786474","wem/bandit_either_3","A3908297ZI3LES","either","6","694","","","","","","","0","0","1","0.5052663648","","0.8","0.4","0.2","0.6","","","","","0.5052663648","0.7718136471","0.8964314806","0.2196373816","","","","","","","","72","H","0","img/none_selected.jpg","","107","main_expt",""
"","bandit","187","694937","0.0-148.0-0.0","55786474","wem/bandit_either_3","A3908297ZI3LES","either","6","740","","","","","","","0","0","1","0.4859582203","","0.8","0.4","0.2","0.6","","","","","0.4859582203","0.8818715302","0.9080126319","0.2393661099","","","","","","","","72","H","0","img/none_selected.jpg","","108","main_expt",""
"","bandit","188","696922","0.0-149.0-0.0","55786474","wem/bandit_either_3","A3908297ZI3LES","either","6","478","","","","","","","1","0","0","0.523617738","","0.8","0.4","0.2","0.6","","","","","0.523617738","0.8757741924","0.8880845243","0.2516352594","","","","","","","","72","H","0","img/none_selected.jpg","","109","main_expt",""
"","bandit","189","699185","0.0-150.0-0.0","55786474","wem/bandit_either_3","A3908297ZI3LES","either","6","758","","","","","","","1","0","0","0.5492010791","","0.8","0.4","0.2","0.6","","","","","0.5492010791","0.8657151097","0.899251136","0.2424291788","","","","","","","","72","H","0","img/none_selected.jpg","","110","main_expt",""
"","bandit","190","701145","0.0-151.0-0.0","55786474","wem/bandit_either_3","A3908297ZI3LES","either","6","454","","","","","","","0","0","1","0.5467154696","","0.8","0.4","0.2","0.6","","","","","0.5467154696","0.8457624762","0.9019514556","0.2033086481","","","","","","","","72","H","0","img/none_selected.jpg","","111","main_expt",""
"","bandit","191","703441","0.0-152.0-0.0","55786474","wem/bandit_either_3","A3908297ZI3LES","either","6","791","","","","","","","1","0","0","0.5396215981","","0.8","0.4","0.2","0.6","","","","","0.5396215981","0.8756116827","0.9315537639","0.208613213","","","","","","","","72","H","0","img/none_selected.jpg","","112","main_expt",""
"","bandit","192","705993","0.0-153.0-0.0","55786474","wem/bandit_either_3","A3908297ZI3LES","either","6","1047","","","","","","","0","0","1","","0.5542875214","0.8","0.4","0.2","0.6","0.5542875214","0.8773181328","0.9254394702","0.2743958833","","","","","","","","","","","","72","H","0","img/none_selected.jpg","","113","main_expt",""
"","bandit","193","708217","0.0-154.0-0.0","55786474","wem/bandit_either_3","A3908297ZI3LES","either","6","717","","","","","","","1","0","0","0.6411428718","","0.8","0.4","0.2","0.6","","","","","0.6411428718","0.8842236373","0.9394904604","0.2657329006","","","","","","","","72","H","0","img/none_selected.jpg","","114","main_expt",""
"","bandit","194","710842","0.0-155.0-0.0","55786474","wem/bandit_either_3","A3908297ZI3LES","either","6","1118","","","","","","","1","0","0","0.7261400339","","0.8","0.4","0.2","0.6","","","","","0.7261400339","0.8499121835","0.9533355239","0.3234316928","","","","","","","","72","H","0","img/none_selected.jpg","","115","main_expt",""
"","bandit","195","713065","0.0-156.0-0.0","55786474","wem/bandit_either_3","A3908297ZI3LES","either","6","716","","","","","","","1","0","0","0.7395407697","","0.8","0.4","0.2","0.6","","","","","0.7395407697","0.7890056153","0.960842596","0.3625587123","","","","","","","","72","H","0","img/none_selected.jpg","","116","main_expt",""
"","bandit","196","715401","0.0-157.0-0.0","55786474","wem/bandit_either_3","A3908297ZI3LES","either","6","831","","","","","","","1","0","0","0.8231731708","","0.8","0.4","0.2","0.6","","","","","0.8231731708","0.7709890197","0.937733065","0.4946904956","","","","","","","","72","H","0","img/none_selected.jpg","","117","main_expt",""
"","bandit","197","717577","0.0-158.0-0.0","55786474","wem/bandit_either_3","A3908297ZI3LES","either","6","670","","","","","","","1","0","0","0.8278750807","","0.8","0.4","0.2","0.6","","","","","0.8278750807","0.7459937787","0.9561499645","0.6246330079","","","","","","","","72","H","0","img/none_selected.jpg","","118","main_expt",""
"","bandit","198","719713","0.0-159.0-0.0","55786474","wem/bandit_either_3","A3908297ZI3LES","either","6","630","","","","","","","0","0","1","0.8715827524","","0.8","0.4","0.2","0.6","","","","","0.8715827524","0.716881491","0.9595118281","0.5818097722","","","","","","","","72","H","0","img/none_selected.jpg","","119","main_expt",""
"","bandit","199","721865","0.0-160.0-0.0","55786474","wem/bandit_either_3","A3908297ZI3LES","either","6","644","","","","","","","0","1","0","","0.8522670476","0.8","0.4","0.2","0.6","0.8522670476","0.6595649419","0.9548463758","0.5990025551","","","","","","","","","","","","72","H","0","img/none_selected.jpg","","120","main_expt",""
"","bandit","200","724170","0.0-161.0-0.0","55786474","wem/bandit_either_3","A3908297ZI3LES","either","6","797","","","","","","","0","0","1","0.8266542562","","0.8","0.4","0.2","0.6","","","","","0.8266542562","0.6576447048","0.958085665","0.6534424477","","","","","","","","72","H","0","img/none_selected.jpg","","121","main_expt",""
"","bandit","201","725857","0.0-162.0-0.0","55786474","wem/bandit_either_3","A3908297ZI3LES","either","6","180","","","","","","","1","0","0","0.81688531","","0.8","0.4","0.2","0.6","","","","","0.81688531","0.6391957719","0.9630601427","0.5952731017","","","","","","","","72","H","0","img/none_selected.jpg","","122","main_expt",""
"","bandit","202","727905","0.0-163.0-0.0","55786474","wem/bandit_either_3","A3908297ZI3LES","either","6","540","","","","","","","0","0","1","","0.8307363081","0.8","0.4","0.2","0.6","0.8307363081","0.5873908865","0.9790283764","0.6469086187","","","","","","","","","","","","72","H","0","img/none_selected.jpg","","123","main_expt",""
"","bandit","203","730088","0.0-164.0-0.0","55786474","wem/bandit_either_3","A3908297ZI3LES","either","6","677","","","","","","","1","0","0","0.6943824695","","0.8","0.4","0.2","0.6","","","","","0.6943824695","0.6592760984","0.9718765302","0.6911454426","","","","","","","","72","H","0","img/none_selected.jpg","","124","main_expt",""
"","bandit","204","733321","0.0-165.0-0.0","55786474","wem/bandit_either_3","A3908297ZI3LES","either","6","1727","","","","","","","1","0","0","0.7137568944","","0.8","0.4","0.2","0.6","","","","","0.7137568944","0.6012083746","0.9845173964","0.750572215","","","","","","","","72","H","0","img/none_selected.jpg","","125","main_expt",""
"","bandit","205","735346","0.0-166.0-0.0","55786474","wem/bandit_either_3","A3908297ZI3LES","either","6","517","","","","","","","1","0","0","0.6878742658","","0.8","0.4","0.2","0.6","","","","","0.6878742658","0.6043440275","0.9804670004","0.8108432581","","","","","","","","72","H","0","img/none_selected.jpg","","126","main_expt",""
"","bandit","206","737241","0.0-167.0-0.0","55786474","wem/bandit_either_3","A3908297ZI3LES","either","6","387","","","","","","","1","0","0","0.6175454059","","0.8","0.4","0.2","0.6","","","","","0.6175454059","0.5043142332","0.9792667249","0.8338196277","","","","","","","","72","H","0","img/none_selected.jpg","","127","main_expt",""
"","bandit","207","738993","0.0-168.0-0.0","55786474","wem/bandit_either_3","A3908297ZI3LES","either","6","244","","","","","","","0","0","1","0.5556505876","","0.8","0.4","0.2","0.6","","","","","0.5556505876","0.5778209799","0.9853815399","0.8624128669","","","","","","","","72","H","0","img/none_selected.jpg","","128","main_expt",""
"","bandit","208","740873","0.0-169.0-0.0","55786474","wem/bandit_either_3","A3908297ZI3LES","either","6","374","","","","","","","1","0","0","0.5948532478","","0.8","0.4","0.2","0.6","","","","","0.5948532478","0.5806273004","0.9838319732","0.9026068167","","","","","","","","72","H","0","img/none_selected.jpg","","129","main_expt",""
"","bandit","209","743025","0.0-170.0-0.0","55786474","wem/bandit_either_3","A3908297ZI3LES","either","6","645","","","","","","","0","0","1","0.6646968067","","0.8","0.4","0.2","0.6","","","","","0.6646968067","0.4152233618","0.9798768453","0.8983636673","","","","","","","","72","H","0","img/none_selected.jpg","","130","main_expt",""
"","bandit","210","745104","0.0-171.0-0.0","55786474","wem/bandit_either_3","A3908297ZI3LES","either","6","573","","","","","","","1","0","0","0.6676177377","","0.8","0.4","0.2","0.6","","","","","0.6676177377","0.4527057242","0.9628017066","0.888478962","","","","","","","","72","H","0","img/none_selected.jpg","","131","main_expt",""
"","bandit","211","747113","0.0-172.0-0.0","55786474","wem/bandit_either_3","A3908297ZI3LES","either","6","502","","","","","","","1","0","0","0.7638630926","","0.8","0.4","0.2","0.6","","","","","0.7638630926","0.5185753891","0.9723970119","0.8470567254","","","","","","","","72","H","0","img/none_selected.jpg","","132","main_expt",""
"","bandit","212","749147","0.0-173.0-0.0","55786474","wem/bandit_either_3","A3908297ZI3LES","either","6","525","","","","","","","0","0","1","0.726350598","","0.8","0.4","0.2","0.6","","","","","0.726350598","0.4567386081","0.9754432393","0.8852081265","","","","","","","","72","H","0","img/none_selected.jpg","","133","main_expt",""
"","bandit","213","751305","0.0-174.0-0.0","55786474","wem/bandit_either_3","A3908297ZI3LES","either","6","653","","","","","","","1","0","0","0.7638059904","","0.8","0.4","0.2","0.6","","","","","0.7638059904","0.4494056808","0.9635376407","0.8317422298","","","","","","","","72","H","0","img/none_selected.jpg","","134","main_expt",""
"","bandit","214","753313","0.0-175.0-0.0","55786474","wem/bandit_either_3","A3908297ZI3LES","either","6","503","","","","","","","1","0","0","0.7337835984","","0.8","0.4","0.2","0.6","","","","","0.7337835984","0.4608562393","0.9304273523","0.8121858422","","","","","","","","72","H","0","img/none_selected.jpg","","135","main_expt",""
"","bandit","215","756801","0.0-176.0-0.0","55786474","wem/bandit_either_3","A3908297ZI3LES","either","6","1981","","","","","","","0","1","0","","0.7869055623","0.8","0.4","0.2","0.6","0.7869055623","0.6684020244","0.9295592062","0.8473276522","","","","","","","","","","","","72","H","0","img/none_selected.jpg","","136","main_expt",""
"","bandit","216","759721","0.0-177.0-0.0","55786474","wem/bandit_either_3","A3908297ZI3LES","either","6","1414","","","","","","","1","0","0","0.8033651193","","0.8","0.4","0.2","0.6","","","","","0.8033651193","0.614137061","0.9343332129","0.8251243182","","","","","","","","72","H","0","img/none_selected.jpg","","137","main_expt",""
"","bandit","217","762744","0.0-178.0-0.0","55786474","wem/bandit_either_3","A3908297ZI3LES","either","6","1517","","","","","","","1","0","0","0.7620089345","","0.8","0.4","0.2","0.6","","","","","0.7620089345","0.711021659","0.9325781127","0.7892590299","","","","","","","","72","H","0","img/none_selected.jpg","","138","main_expt",""
"","bandit","218","767312","0.0-179.0-0.0","55786474","wem/bandit_either_3","A3908297ZI3LES","either","6","3062","","","","","","","1","0","0","0.8098853196","","0.8","0.4","0.2","0.6","","","","","0.8098853196","0.5731932267","0.9687763229","0.753698647","","","","","","","","72","H","0","img/none_selected.jpg","","139","main_expt",""
"","bandit","219","769801","0.0-180.0-0.0","55786474","wem/bandit_either_3","A3908297ZI3LES","either","6","983","","","","","","","0","1","0","","0.8737133651","0.8","0.4","0.2","0.6","0.8737133651","0.6553783698","0.9520204639","0.7281837229","","","","","","","","","","","","72","H","0","img/none_selected.jpg","","140","main_expt",""
"","bandit","220","771897","0.0-181.0-0.0","55786474","wem/bandit_either_3","A3908297ZI3LES","either","6","589","","","","","","","1","0","0","0.8464817719","","0.8","0.4","0.2","0.6","","","","","0.8464817719","0.5665224918","0.9615613541","0.7913145473","","","","","","","","72","H","0","img/none_selected.jpg","","141","main_expt",""
"","bandit","221","774115","0.0-182.0-0.0","55786474","wem/bandit_either_3","A3908297ZI3LES","either","6","708","","","","","","","1","0","0","0.8457688645","","0.8","0.4","0.2","0.6","","","","","0.8457688645","0.5230460729","0.9438722422","0.7498898283","","","","","","","","72","H","0","img/none_selected.jpg","","142","main_expt",""
"","bandit","222","776569","0.0-183.0-0.0","55786474","wem/bandit_either_3","A3908297ZI3LES","either","6","946","","","","","","","0","1","0","","0.8801682128","0.8","0.4","0.2","0.6","0.8801682128","0.5401897842","0.9419241064","0.723110339","","","","","","","","","","","","72","H","0","img/none_selected.jpg","","143","main_expt",""
"","bandit","223","779473","0.0-184.0-0.0","55786474","wem/bandit_either_3","A3908297ZI3LES","either","6","1397","","","","","","","1","0","0","0.7806105972","","0.8","0.4","0.2","0.6","","","","","0.7806105972","0.5495292383","0.9383966058","0.7697142539","","","","","","","","72","H","0","img/none_selected.jpg","","144","main_expt",""
"","bandit","224","783041","0.0-185.0-0.0","55786474","wem/bandit_either_3","A3908297ZI3LES","either","6","2061","","","","","","","0","0","1","0.7384744451","","0.8","0.4","0.2","0.6","","","","","0.7384744451","0.4718854897","0.9442204223","0.8279494337","","","","","","","","72","H","0","img/none_selected.jpg","","145","main_expt",""
"","bandit","225","785232","0.0-186.0-0.0","55786474","wem/bandit_either_3","A3908297ZI3LES","either","6","684","","","","","","","0","1","0","","0.7078417075","0.8","0.4","0.2","0.6","0.7078417075","0.3790577705","0.9461270134","0.747104877","","","","","","","","","","","","72","H","0","img/none_selected.jpg","","146","main_expt",""
"","bandit","226","787977","0.0-187.0-0.0","55786474","wem/bandit_either_3","A3908297ZI3LES","either","6","1239","","","","","","","1","0","0","0.7671729372","","0.8","0.4","0.2","0.6","","","","","0.7671729372","0.3671333747","0.9677113618","0.7635883185","","","","","","","","72","H","0","img/none_selected.jpg","","147","main_expt",""
"","bandit","227","790161","0.0-188.0-0.0","55786474","wem/bandit_either_3","A3908297ZI3LES","either","6","676","","","","","","","1","0","0","0.7515071201","","0.8","0.4","0.2","0.6","","","","","0.7515071201","0.4462771912","0.9603287673","0.6650729927","","","","","","","","72","H","0","img/none_selected.jpg","","148","main_expt",""
"","bandit","228","792233","0.0-189.0-0.0","55786474","wem/bandit_either_3","A3908297ZI3LES","either","6","564","","","","","","","1","0","0","0.7582160768","","0.8","0.4","0.2","0.6","","","","","0.7582160768","0.3929125452","0.9256305183","0.594527628","","","","","","","","72","H","0","img/none_selected.jpg","","149","main_expt",""
"","bandit","229","794610","0.0-190.0-0.0","55786474","wem/bandit_either_3","A3908297ZI3LES","either","6","869","","","","","","","1","0","0","0.6843302658","","0.8","0.4","0.2","0.6","","","","","0.6843302658","0.3825194633","0.9222609783","0.5101412162","","","","","","","","72","H","0","img/none_selected.jpg","","150","main_expt",""
"","bandit","230","796865","0.0-191.0-0.0","55786474","wem/bandit_either_3","A3908297ZI3LES","either","6","748","","","","","","","1","0","0","0.4980827124","","0.8","0.4","0.2","0.6","","","","","0.4980827124","0.3889652011","0.9522131909","0.5755011036","","","","","","","","72","H","0","img/none_selected.jpg","","151","main_expt",""
"","bandit","231","799240","0.0-192.0-0.0","55786474","wem/bandit_either_3","A3908297ZI3LES","either","6","868","","","","","","","1","0","0","0.5418861514","","0.8","0.4","0.2","0.6","","","","","0.5418861514","0.372169082","0.9351777179","0.5415628766","","","","","","","","72","H","0","img/none_selected.jpg","","152","main_expt",""
"","bandit","232","801265","0.0-193.0-0.0","55786474","wem/bandit_either_3","A3908297ZI3LES","either","6","518","","","","","","","0","0","1","0.6424708626","","0.8","0.4","0.2","0.6","","","","","0.6424708626","0.4275919172","0.9526549669","0.6392888902","","","","","","","","72","H","0","img/none_selected.jpg","","153","main_expt",""
"","bandit","233","803505","0.0-194.0-0.0","55786474","wem/bandit_either_3","A3908297ZI3LES","either","6","733","","","","","","","1","0","0","0.6200403258","","0.8","0.4","0.2","0.6","","","","","0.6200403258","0.3978897223","0.944677936","0.6798835142","","","","","","","","72","H","0","img/none_selected.jpg","","154","main_expt",""
"","bandit","234","805457","0.0-195.0-0.0","55786474","wem/bandit_either_3","A3908297ZI3LES","either","6","446","","","","","","","1","0","0","0.5087788092","","0.8","0.4","0.2","0.6","","","","","0.5087788092","0.4922143253","0.9443948233","0.7376683638","","","","","","","","72","H","0","img/none_selected.jpg","","155","main_expt",""
"","bandit","235","808265","0.0-196.0-0.0","55786474","wem/bandit_either_3","A3908297ZI3LES","either","6","1300","","","","","","","0","0","1","0.4397360723","","0.8","0.4","0.2","0.6","","","","","0.4397360723","0.5060601407","0.9312029685","0.7740838489","","","","","","","","72","H","0","img/none_selected.jpg","","156","main_expt",""
"","bandit","236","810209","0.0-197.0-0.0","55786474","wem/bandit_either_3","A3908297ZI3LES","either","6","437","","","","","","","0","0","1","","0.4529934193","0.8","0.4","0.2","0.6","0.4529934193","0.56460533","0.9009413449","0.7526352547","","","","","","","","","","","","72","H","0","img/none_selected.jpg","","157","main_expt",""
"","bandit","237","813017","0.0-198.0-0.0","55786474","wem/bandit_either_3","A3908297ZI3LES","either","6","1300","","","","","","","0","1","0","","0.522014142","0.8","0.4","0.2","0.6","0.522014142","0.5551408743","0.8799225656","0.807066173","","","","","","","","","","","","72","H","0","img/none_selected.jpg","","158","main_expt",""
"","bandit","238","815112","0.0-199.0-0.0","55786474","wem/bandit_either_3","A3908297ZI3LES","either","6","589","","","","","","","0","0","1","","0.447178695","0.8","0.4","0.2","0.6","0.447178695","0.6362487126","0.9103166083","0.8348587906","","","","","","","","","","","","72","H","0","img/none_selected.jpg","","159","main_expt",""
"","bandit","239","818048","0.0-200.0-0.0","55786474","wem/bandit_either_3","A3908297ZI3LES","either","6","1429","","","","","","","1","0","0","0.4293784973","","0.8","0.4","0.2","0.6","","","","","0.4293784973","0.5818198138","0.9575168601","0.8054329593","","","","","","","","72","H","0","img/none_selected.jpg","","160","main_expt",""
"","bandit","240","820210","0.0-201.0-0.0","55786474","wem/bandit_either_3","A3908297ZI3LES","either","6","654","","","","","","","0","0","1","0.4263694152","","0.8","0.4","0.2","0.6","","","","","0.4263694152","0.5079421761","0.9323430526","0.8263011938","","","","","","","","72","H","0","img/none_selected.jpg","","161","main_expt",""
"","bandit","241","822561","0.0-202.0-0.0","55786474","wem/bandit_either_3","A3908297ZI3LES","either","6","844","","","","","","","0","0","1","0.4394756583","","0.8","0.4","0.2","0.6","","","","","0.4394756583","0.3944353318","0.8731035433","0.8468561623","","","","","","","","72","H","0","img/none_selected.jpg","","162","main_expt",""
"","bandit","242","826529","0.0-203.0-0.0","55786474","wem/bandit_either_3","A3908297ZI3LES","either","6","2461","","","","","","","0","0","1","0.4632532181","","0.8","0.4","0.2","0.6","","","","","0.4632532181","0.4560534757","0.860239847","0.866861138","","","","","","","","72","H","0","img/none_selected.jpg","","163","main_expt",""
"","bandit","243","829761","0.0-204.0-0.0","55786474","wem/bandit_either_3","A3908297ZI3LES","either","6","1726","","","","","","","1","0","0","0.469091439","","0.8","0.4","0.2","0.6","","","","","0.469091439","0.4338988853","0.8327160304","0.8621839131","","","","","","","","72","H","0","img/none_selected.jpg","","164","main_expt",""
"","bandit","244","832033","0.0-205.0-0.0","55786474","wem/bandit_either_3","A3908297ZI3LES","either","6","764","","","","","","","0","0","1","0.4691854483","","0.8","0.4","0.2","0.6","","","","","0.4691854483","0.3640020004","0.8780399083","0.8368369455","","","","","","","","72","H","0","img/none_selected.jpg","","165","main_expt",""
"","bandit","245","834552","0.0-206.0-0.0","55786474","wem/bandit_either_3","A3908297ZI3LES","either","6","1012","","","","","","","1","0","0","0.424594696","","0.8","0.4","0.2","0.6","","","","","0.424594696","0.4433911144","0.8659509199","0.8543831227","","","","","","","","72","H","0","img/none_selected.jpg","","166","main_expt",""
"","bandit","246","836465","0.0-207.0-0.0","55786474","wem/bandit_either_3","A3908297ZI3LES","either","6","406","","","","","","","1","0","0","0.4691217736","","0.8","0.4","0.2","0.6","","","","","0.4691217736","0.4852122499","0.8458676595","0.8444257961","","","","","","","","72","H","0","img/none_selected.jpg","","167","main_expt",""
"","bandit","247","838640","0.0-208.0-0.0","55786474","wem/bandit_either_3","A3908297ZI3LES","either","6","670","","","","","","","1","0","0","0.4605946041","","0.8","0.4","0.2","0.6","","","","","0.4605946041","0.4829488348","0.7368025647","0.8895061166","","","","","","","","72","H","0","img/none_selected.jpg","","168","main_expt",""
"","bandit","248","880881","0.0-209.0-0.0","55786474","wem/bandit_either_3","A3908297ZI3LES","either","6","40732","","","","","","","0","0","1","","0.4302520818","0.8","0.4","0.2","0.6","0.4302520818","0.467087579","0.6811301937","0.8980662015","","","","","","","","","","","","72","H","0","img/none_selected.jpg","","169","main_expt",""
"","bandit","249","882840","0.0-210.0-0.0","55786474","wem/bandit_either_3","A3908297ZI3LES","either","6","453","","","","","","","0","0","1","0.3846086554","","0.8","0.4","0.2","0.6","","","","","0.3846086554","0.3575164989","0.6781719117","0.9399190154","","","","","","","","72","H","0","img/none_selected.jpg","","170","main_expt",""
"","bandit","250","884799","0.0-211.0-0.0","55786474","wem/bandit_either_3","A3908297ZI3LES","either","6","452","","","","","","","0","0","1","0.4938912128","","0.8","0.4","0.2","0.6","","","","","0.4938912128","0.3433755155","0.5779776893","0.9199626721","","","","","","","","72","H","0","img/none_selected.jpg","","171","main_expt",""
"","bandit","251","886848","0.0-212.0-0.0","55786474","wem/bandit_either_3","A3908297ZI3LES","either","6","541","","","","","","","1","0","0","0.5409242696","","0.8","0.4","0.2","0.6","","","","","0.5409242696","0.2921203137","0.5461867433","0.8885959212","","","","","","","","72","H","0","img/none_selected.jpg","","172","main_expt",""
"","bandit","252","888824","0.0-213.0-0.0","55786474","wem/bandit_either_3","A3908297ZI3LES","either","6","469","","","","","","","1","0","0","0.4899310385","","0.8","0.4","0.2","0.6","","","","","0.4899310385","0.3237382503","0.5898781272","0.8502068985","","","","","","","","72","H","0","img/none_selected.jpg","","173","main_expt",""
"","bandit","253","890720","0.0-214.0-0.0","55786474","wem/bandit_either_3","A3908297ZI3LES","either","6","389","","","","","","","1","0","0","0.4464532747","","0.8","0.4","0.2","0.6","","","","","0.4464532747","0.2935635685","0.5990225055","0.9054067092","","","","","","","","72","H","0","img/none_selected.jpg","","174","main_expt",""
"","bandit","254","892984","0.0-215.0-0.0","55786474","wem/bandit_either_3","A3908297ZI3LES","either","6","755","","","","","","","1","0","0","0.4363040476","","0.8","0.4","0.2","0.6","","","","","0.4363040476","0.2797951809","0.6129624105","0.9096893241","","","","","","","","72","H","0","img/none_selected.jpg","","175","main_expt",""
"","bandit","255","895128","0.0-216.0-0.0","55786474","wem/bandit_either_3","A3908297ZI3LES","either","6","636","","","","","","","0","0","1","0.4198776974","","0.8","0.4","0.2","0.6","","","","","0.4198776974","0.2067270565","0.5434192492","0.9081003197","","","","","","","","72","H","0","img/none_selected.jpg","","176","main_expt",""
"","bandit","256","897136","0.0-217.0-0.0","55786474","wem/bandit_either_3","A3908297ZI3LES","either","6","500","","","","","","","1","0","0","0.4001478854","","0.8","0.4","0.2","0.6","","","","","0.4001478854","0.19266164","0.5893108522","0.8417535431","","","","","","","","72","H","0","img/none_selected.jpg","","177","main_expt",""
"","bandit","257","899177","0.0-218.0-0.0","55786474","wem/bandit_either_3","A3908297ZI3LES","either","6","531","","","","","","","1","0","0","0.3015477047","","0.8","0.4","0.2","0.6","","","","","0.3015477047","0.1393448617","0.4862463398","0.8045518304","","","","","","","","72","H","0","img/none_selected.jpg","","178","main_expt",""
"","bandit","258","901465","0.0-219.0-0.0","55786474","wem/bandit_either_3","A3908297ZI3LES","either","6","780","","","","","","","0","0","1","0.2700131006","","0.8","0.4","0.2","0.6","","","","","0.2700131006","0.1149816072","0.4227787996","0.8250115846","","","","","","","","72","H","0","img/none_selected.jpg","","179","main_expt",""
"","bandit","259","903153","0.0-220.0-0.0","55786474","wem/bandit_either_3","A3908297ZI3LES","either","6","180","","","","","","","1","0","0","0.3473069","","0.8","0.4","0.2","0.6","","","","","0.3473069","0.1231561222","0.3583368423","0.7418096358","","","","","","","","72","H","0","img/none_selected.jpg","","180","main_expt",""
"","bandit","260","905097","0.0-221.0-0.0","55786474","wem/bandit_either_3","A3908297ZI3LES","either","6","436","","","","","","","0","0","1","0.3478804011","","0.8","0.4","0.2","0.6","","","","","0.3478804011","0.1134989143","0.3820052134","0.7180260456","","","","","","","","72","H","0","img/none_selected.jpg","","181","main_expt",""
"","bandit","261","906968","0.0-222.0-0.0","55786474","wem/bandit_either_3","A3908297ZI3LES","either","6","363","","","","","","","1","0","0","0.3304981007","","0.8","0.4","0.2","0.6","","","","","0.3304981007","0.07317944644","0.437769555","0.6777378447","","","","","","","","72","H","0","img/none_selected.jpg","","182","main_expt",""
"","bandit","262","909129","0.0-223.0-0.0","55786474","wem/bandit_either_3","A3908297ZI3LES","either","6","654","","","","","","","1","0","0","0.2578466268","","0.8","0.4","0.2","0.6","","","","","0.2578466268","0.05085611098","0.3951330089","0.6331465848","","","","","","","","72","H","0","img/none_selected.jpg","","183","main_expt",""
"","bandit","263","911289","0.0-224.0-0.0","55786474","wem/bandit_either_3","A3908297ZI3LES","either","6","653","","","","","","","0","0","1","0.3550464129","","0.8","0.4","0.2","0.6","","","","","0.3550464129","0.07152820202","0.4062376343","0.6578519513","","","","","","","","72","H","0","img/none_selected.jpg","","184","main_expt",""
"","bandit","264","913473","0.0-225.0-0.0","55786474","wem/bandit_either_3","A3908297ZI3LES","either","6","677","","","","","","","0","0","1","0.2993299556","","0.8","0.4","0.2","0.6","","","","","0.2993299556","0.08814522307","0.4035727276","0.7160298793","","","","","","","","72","H","0","img/none_selected.jpg","","185","main_expt",""
"","bandit","265","915457","0.0-226.0-0.0","55786474","wem/bandit_either_3","A3908297ZI3LES","either","6","475","","","","","","","1","0","0","0.3985972224","","0.8","0.4","0.2","0.6","","","","","0.3985972224","0.0931487442","0.4595565904","0.7081703269","","","","","","","","72","H","0","img/none_selected.jpg","","186","main_expt",""
"","bandit","266","917338","0.0-227.0-0.0","55786474","wem/bandit_either_3","A3908297ZI3LES","either","6","371","","","","","","","0","0","1","0.4563810555","","0.8","0.4","0.2","0.6","","","","","0.4563810555","0.05847154344","0.4956959756","0.7670757258","","","","","","","","72","H","0","img/none_selected.jpg","","187","main_expt",""
"","bandit","267","919425","0.0-228.0-0.0","55786474","wem/bandit_either_3","A3908297ZI3LES","either","6","571","","","","","","","1","0","0","0.4621092719","","0.8","0.4","0.2","0.6","","","","","0.4621092719","0.05005107021","0.4295585103","0.7986884496","","","","","","","","72","H","0","img/none_selected.jpg","","188","main_expt",""
"","bandit","268","922353","0.0-229.0-0.0","55786474","wem/bandit_either_3","A3908297ZI3LES","either","6","1420","","","","","","","0","0","1","0.4214675273","","0.8","0.4","0.2","0.6","","","","","0.4214675273","0.05158958255","0.4121259827","0.8113194514","","","","","","","","72","H","0","img/none_selected.jpg","","189","main_expt",""
"","bandit","269","924425","0.0-230.0-0.0","55786474","wem/bandit_either_3","A3908297ZI3LES","either","6","563","","","","","","","0","0","1","","0.4445162903","0.8","0.4","0.2","0.6","0.4445162903","0.0530996007","0.40505342","0.8311477635","","","","","","","","","","","","72","H","0","img/none_selected.jpg","","190","main_expt",""
"","bandit","270","926161","0.0-231.0-0.0","55786474","wem/bandit_either_3","A3908297ZI3LES","either","6","229","","","","","","","0","0","1","0.4077799102","","0.8","0.4","0.2","0.6","","","","","0.4077799102","0.05342003941","0.3671493273","0.7941336253","","","","","","","","72","H","0","img/none_selected.jpg","","191","main_expt",""
"","bandit","271","928785","0.0-232.0-0.0","55786474","wem/bandit_either_3","A3908297ZI3LES","either","6","1115","","","","","","","0","0","1","","0.413117206","0.8","0.4","0.2","0.6","0.413117206","0.05264216412","0.3367263454","0.841847859","","","","","","","","","","","","72","H","0","img/none_selected.jpg","","192","main_expt",""
"","bandit","272","931177","0.0-233.0-0.0","55786474","wem/bandit_either_3","A3908297ZI3LES","either","6","883","","","","","","","0","0","1","0.374663265","","0.8","0.4","0.2","0.6","","","","","0.374663265","0.07418965368","0.2587514209","0.865127625","","","","","","","","72","H","0","img/none_selected.jpg","","193","main_expt",""
"","bandit","273","933641","0.0-234.0-0.0","55786474","wem/bandit_either_3","A3908297ZI3LES","either","6","955","","","","","","","0","0","1","0.2792309937","","0.8","0.4","0.2","0.6","","","","","0.2792309937","0.1148515542","0.2123696513","0.8369883383","","","","","","","","72","H","0","img/none_selected.jpg","","194","main_expt",""
"","bandit","274","935569","0.0-235.0-0.0","55786474","wem/bandit_either_3","A3908297ZI3LES","either","6","421","","","","","","","0","0","1","0.3090424304","","0.8","0.4","0.2","0.6","","","","","0.3090424304","0.1102075851","0.2551117677","0.8226177272","","","","","","","","72","H","0","img/none_selected.jpg","","195","main_expt",""
"","bandit","275","937608","0.0-236.0-0.0","55786474","wem/bandit_either_3","A3908297ZI3LES","either","6","531","","","","","","","1","0","0","0.2254203465","","0.8","0.4","0.2","0.6","","","","","0.2254203465","0.09307195637","0.2948177706","0.8759919892","","","","","","","","72","H","0","img/none_selected.jpg","","196","main_expt",""
"","bandit","276","939168","0.0-237.0-0.0","55786474","wem/bandit_either_3","A3908297ZI3LES","either","6","52","","","","","","","1","0","0","0.2104085952","","0.8","0.4","0.2","0.6","","","","","0.2104085952","0.08341332984","0.2864074111","0.9413038234","","","","","","","","72","H","0","img/none_selected.jpg","","197","main_expt",""
"","bandit","277","941224","0.0-238.0-0.0","55786474","wem/bandit_either_3","A3908297ZI3LES","either","6","548","","","","","","","0","0","1","0.1686499416","","0.8","0.4","0.2","0.6","","","","","0.1686499416","0.06206278739","0.3044962429","0.9384937307","","","","","","","","72","H","0","img/none_selected.jpg","","198","main_expt",""
"","bandit","278","944041","0.0-239.0-0.0","55786474","wem/bandit_either_3","A3908297ZI3LES","either","6","1309","","","","","","","0","0","1","0.1696058054","","0.8","0.4","0.2","0.6","","","","","0.1696058054","0.1015706687","0.2804127106","0.927250614","","","","","","","","72","H","0","img/none_selected.jpg","","199","main_expt",""
"","bandit","279","946065","0.0-240.0-0.0","55786474","wem/bandit_either_3","A3908297ZI3LES","either","6","516","","","","","","","0","0","1","","0.1940139532","0.8","0.4","0.2","0.6","0.1940139532","0.07348353789","0.3151112274","0.8840406778","","","","","","","","","","","","72","H","0","img/none_selected.jpg","","200","main_expt",""
"","bandit","280","948985","0.0-241.0-0.0","55786474","wem/bandit_either_3","A3908297ZI3LES","either","6","1411","","","","","","","0","0","1","0.2384341862","","0.8","0.4","0.2","0.6","","","","","0.2384341862","0.09218994405","0.3124471347","0.8866639954","","","","","","","","72","H","0","img/none_selected.jpg","","201","main_expt",""
"","bandit","281","951146","0.0-242.0-0.0","55786474","wem/bandit_either_3","A3908297ZI3LES","either","6","651","","","","","","","1","0","0","0.2069173963","","0.8","0.4","0.2","0.6","","","","","0.2069173963","0.1662378481","0.3418115628","0.8188103646","","","","","","","","72","H","0","img/none_selected.jpg","","202","main_expt",""
"","bandit","282","953115","0.0-243.0-0.0","55786474","wem/bandit_either_3","A3908297ZI3LES","either","6","459","","","","","","","0","0","1","0.2502389624","","0.8","0.4","0.2","0.6","","","","","0.2502389624","0.1808123801","0.2676578736","0.8026106274","","","","","","","","72","H","0","img/none_selected.jpg","","203","main_expt",""
"","bandit","283","955080","0.0-244.0-0.0","55786474","wem/bandit_either_3","A3908297ZI3LES","either","6","458","","","","","","","0","0","1","0.2226806","","0.8","0.4","0.2","0.6","","","","","0.2226806","0.2011980288","0.2513587973","0.6613987003","","","","","","","","72","H","0","img/none_selected.jpg","","204","main_expt",""
"","bandit","284","957097","0.0-245.0-0.0","55786474","wem/bandit_either_3","A3908297ZI3LES","either","6","508","","","","","","","0","0","1","0.2327973494","","0.8","0.4","0.2","0.6","","","","","0.2327973494","0.1877492959","0.2733703365","0.7402115251","","","","","","","","72","H","0","img/none_selected.jpg","","205","main_expt",""
"","bandit","285","960627","0.0-246.0-0.0","55786474","wem/bandit_either_3","A3908297ZI3LES","either","6","2019","","","","","","","1","0","0","0.3134624789","","0.8","0.4","0.2","0.6","","","","","0.3134624789","0.1891298069","0.3212331514","0.6792505986","","","","","","","","72","H","0","img/none_selected.jpg","","206","main_expt",""
"","bandit","286","963000","0.0-247.0-0.0","55786474","wem/bandit_either_3","A3908297ZI3LES","either","6","866","","","","","","","0","0","1","0.3808856429","","0.8","0.4","0.2","0.6","","","","","0.3808856429","0.2092890992","0.3381772831","0.6510378203","","","","","","","","72","H","0","img/none_selected.jpg","","207","main_expt",""
"","bandit","287","965378","0.0-248.0-0.0","55786474","wem/bandit_either_3","A3908297ZI3LES","either","6","867","","","","","","","0","0","1","0.318509643","","0.8","0.4","0.2","0.6","","","","","0.318509643","0.2563161799","0.2370260631","0.5971377862","","","","","","","","72","H","0","img/none_selected.jpg","","208","main_expt",""
"","bandit","288","967528","0.0-249.0-0.0","55786474","wem/bandit_either_3","A3908297ZI3LES","either","6","643","","","","","","","1","0","0","0.2932847295","","0.8","0.4","0.2","0.6","","","","","0.2932847295","0.2643940457","0.2157004535","0.6040603887","","","","","","","","72","H","0","img/none_selected.jpg","","209","main_expt",""
"","bandit","289","969552","0.0-250.0-0.0","55786474","wem/bandit_either_3","A3908297ZI3LES","either","6","515","","","","","","","0","0","1","0.2230023122","","0.8","0.4","0.2","0.6","","","","","0.2230023122","0.2710870001","0.2655169153","0.7794442159","","","","","","","","72","H","0","img/none_selected.jpg","","210","main_expt",""
"","bandit","290","971625","0.0-251.0-0.0","55786474","wem/bandit_either_3","A3908297ZI3LES","either","6","563","","","","","","","0","0","1","0.1899351836","","0.8","0.4","0.2","0.6","","","","","0.1899351836","0.2056380183","0.2359505063","0.8397026392","","","","","","","","72","H","0","img/none_selected.jpg","","211","main_expt",""
"","bandit","291","973543","0.0-252.0-0.0","55786474","wem/bandit_either_3","A3908297ZI3LES","either","6","411","","","","","","","0","0","1","0.2593929449","","0.8","0.4","0.2","0.6","","","","","0.2593929449","0.2487045614","0.2431981852","0.7883870126","","","","","","","","72","H","0","img/none_selected.jpg","","212","main_expt",""
"","bandit","292","975431","0.0-253.0-0.0","55786474","wem/bandit_either_3","A3908297ZI3LES","either","6","380","","","","","","","0","0","1","0.2304425673","","0.8","0.4","0.2","0.6","","","","","0.2304425673","0.3520378668","0.3385658967","0.7160446845","","","","","","","","72","H","0","img/none_selected.jpg","","213","main_expt",""
"","bandit","293","977295","0.0-254.0-0.0","55786474","wem/bandit_either_3","A3908297ZI3LES","either","6","356","","","","","","","0","0","1","","0.2849244028","0.8","0.4","0.2","0.6","0.2849244028","0.3455661114","0.445002088","0.7501162241","","","","","","","","","","","","72","H","0","img/none_selected.jpg","","214","main_expt",""
"","bandit","294","979224","0.0-255.0-0.0","55786474","wem/bandit_either_3","A3908297ZI3LES","either","6","421","","","","","","","1","0","0","0.3184819088","","0.8","0.4","0.2","0.6","","","","","0.3184819088","0.3290646698","0.4340580748","0.7574589115","","","","","","","","72","H","0","img/none_selected.jpg","","215","main_expt",""
"","bandit","295","980856","0.0-256.0-0.0","55786474","wem/bandit_either_3","A3908297ZI3LES","either","6","124","","","","","","","0","0","1","","0.2989728513","0.8","0.4","0.2","0.6","0.2989728513","0.2737258078","0.3996931216","0.7376674805","","","","","","","","","","","","72","H","0","img/none_selected.jpg","","216","main_expt",""
"","bandit","296","982480","0.0-257.0-0.0","55786474","wem/bandit_either_3","A3908297ZI3LES","either","6","115","","","","","","","0","0","1","0.5538830624","","0.8","0.4","0.2","0.6","","","","","0.5538830624","0.2401291484","0.453570069","0.67262171","","","","","","","","72","H","0","img/none_selected.jpg","","217","main_expt",""
"","bandit","297","984488","0.0-258.0-0.0","55786474","wem/bandit_either_3","A3908297ZI3LES","either","6","499","","","","","","","1","0","0","0.5331458927","","0.8","0.4","0.2","0.6","","","","","0.5331458927","0.2395298113","0.3566620654","0.6309662891","","","","","","","","72","H","0","img/none_selected.jpg","","218","main_expt",""
"","bandit","298","986312","0.0-259.0-0.0","55786474","wem/bandit_either_3","A3908297ZI3LES","either","6","315","","","","","","","0","1","0","","0.409279481","0.8","0.4","0.2","0.6","0.409279481","0.2333127667","0.3114207129","0.610488243","","","","","","","","","","","","72","H","0","img/none_selected.jpg","","219","main_expt",""
"","bandit","299","988192","0.0-260.0-0.0","55786474","wem/bandit_either_3","A3908297ZI3LES","either","6","371","","","","","","","1","0","0","0.3910907299","","0.8","0.4","0.2","0.6","","","","","0.3910907299","0.2097963002","0.348491043","0.6741838821","","","","","","","","72","H","0","img/none_selected.jpg","","220","main_expt",""
"","bandit","300","990023","0.0-261.0-0.0","55786474","wem/bandit_either_3","A3908297ZI3LES","either","6","323","","","","","","","1","0","0","0.37386253","","0.8","0.4","0.2","0.6","","","","","0.37386253","0.1761429423","0.325682353","0.6938787555","","","","","","","","72","H","0","img/none_selected.jpg","","221","main_expt",""
"","bandit","301","991895","0.0-262.0-0.0","55786474","wem/bandit_either_3","A3908297ZI3LES","either","6","364","","","","","","","0","0","1","0.5460784034","","0.8","0.4","0.2","0.6","","","","","0.5460784034","0.1770547834","0.3582518194","0.622086605","","","","","","","","72","H","0","img/none_selected.jpg","","222","main_expt",""
"","bandit","302","994082","0.0-263.0-0.0","55786474","wem/bandit_either_3","A3908297ZI3LES","either","6","676","","","","","","","0","1","0","","0.5484594206","0.8","0.4","0.2","0.6","0.5484594206","0.1494166006","0.3596631187","0.6190419158","","","","","","","","","","","","72","H","0","img/none_selected.jpg","","223","main_expt",""
"","bandit","303","996256","0.0-264.0-0.0","55786474","wem/bandit_either_3","A3908297ZI3LES","either","6","666","","","","","","","0","0","1","0.5156266917","","0.8","0.4","0.2","0.6","","","","","0.5156266917","0.1444184755","0.4757784632","0.6525227655","","","","","","","","72","H","0","img/none_selected.jpg","","224","main_expt",""
"","bandit","304","998192","0.0-265.0-0.0","55786474","wem/bandit_either_3","A3908297ZI3LES","either","6","427","","","","","","","1","0","0","0.5120039273","","0.8","0.4","0.2","0.6","","","","","0.5120039273","0.2381889698","0.5384710229","0.5739960468","","","","","","","","72","H","0","img/none_selected.jpg","","225","main_expt",""
"","bandit","305","1000136","0.0-266.0-0.0","55786474","wem/bandit_either_3","A3908297ZI3LES","either","6","435","","","","","","","0","0","1","","0.5568413113","0.8","0.4","0.2","0.6","0.5568413113","0.1429230379","0.5308581489","0.6038380469","","","","","","","","","","","","72","H","0","img/none_selected.jpg","","226","main_expt",""
"","bandit","306","1002408","0.0-267.0-0.0","55786474","wem/bandit_either_3","A3908297ZI3LES","either","6","763","","","","","","","0","0","1","0.5277183188","","0.8","0.4","0.2","0.6","","","","","0.5277183188","0.124100867","0.488482713","0.5203417309","","","","","","","","72","H","0","img/none_selected.jpg","","227","main_expt",""
"","bandit","307","1004328","0.0-268.0-0.0","55786474","wem/bandit_either_3","A3908297ZI3LES","either","6","411","","","","","","","0","0","1","0.5041270258","","0.8","0.4","0.2","0.6","","","","","0.5041270258","0.1762219884","0.4406219513","0.4263922038","","","","","","","","72","H","0","img/none_selected.jpg","","228","main_expt",""
"","bandit","308","1006008","0.0-269.0-0.0","55786474","wem/bandit_either_3","A3908297ZI3LES","either","6","170","","","","","","","1","0","0","0.4541369304","","0.8","0.4","0.2","0.6","","","","","0.4541369304","0.1910325121","0.4892119921","0.3475105047","","","","","","","","72","H","0","img/none_selected.jpg","","229","main_expt",""
"","bandit","309","1007679","0.0-270.0-0.0","55786474","wem/bandit_either_3","A3908297ZI3LES","either","6","163","","","","","","","1","0","0","0.4504381994","","0.8","0.4","0.2","0.6","","","","","0.4504381994","0.2571549068","0.5129573662","0.3353007417","","","","","","","","72","H","0","img/none_selected.jpg","","230","main_expt",""
"","bandit","310","1009656","0.0-271.0-0.0","55786474","wem/bandit_either_3","A3908297ZI3LES","either","6","468","","","","","","","0","0","1","0.4698668598","","0.8","0.4","0.2","0.6","","","","","0.4698668598","0.1781345747","0.4382888871","0.2870546929","","","","","","","","72","H","0","img/none_selected.jpg","","231","main_expt",""
"","bandit","311","1011737","0.0-272.0-0.0","55786474","wem/bandit_either_3","A3908297ZI3LES","either","6","571","","","","","","","0","1","0","","0.5460008395","0.8","0.4","0.2","0.6","0.5460008395","0.1748933913","0.42174841","0.3092655517","","","","","","","","","","","","72","H","0","img/none_selected.jpg","","232","main_expt",""
"","bandit","312","1013704","0.0-273.0-0.0","55786474","wem/bandit_either_3","A3908297ZI3LES","either","6","459","","","","","","","1","0","0","0.5345299581","","0.8","0.4","0.2","0.6","","","","","0.5345299581","0.2196371411","0.4297142637","0.4231157335","","","","","","","","72","H","0","img/none_selected.jpg","","233","main_expt",""
"","bandit","313","1015673","0.0-274.0-0.0","55786474","wem/bandit_either_3","A3908297ZI3LES","either","6","460","","","","","","","1","0","0","0.508060833","","0.8","0.4","0.2","0.6","","","","","0.508060833","0.2052749597","0.3016140143","0.5525929145","","","","","","","","72","H","0","img/none_selected.jpg","","234","main_expt",""
