"consent","trial_type","trial_index","time_elapsed","internal_node_id","subjID","study","MID","cond","drift","rt","responses","key_press","expt_phase","like","value","connected","gems","bombs","no_reward","GemPrChosen","BombPrChosen","GainOverPainPr_0","GainOverPainPr_1","GainOverPainPr_2","GainOverPainPr_3","LosePr_0","LosePr_1","LosePr_2","LosePr_3","WinPr_0","WinPr_1","WinPr_2","WinPr_3","Q0","Q1","Q2","gender","age","ethnicity","target","respCharCode","respKey","respChoiceNum","respChoice","practice","trial_counter","trial_label","button_pressed"
"INL_behavioral_consent_30min_online.html","consent","0","130515","0.0-0.0","55879531","wem/bandit_either_3","AHB3QFZSFN9DL","either","1","","","","","","","","","","","","","","","","","","","","","","","","","","","","","","","","","","","","","","",""
"","survey-text","1","151968","0.0-1.0","55879531","wem/bandit_either_3","AHB3QFZSFN9DL","either","1","20416","{""Q0"":""AHB3QFZSFN9DL""}","","","","","","","","","","","","","","","","","","","","","","","","","","","","","","","","","","","","",""
"","text","2","220458","0.0-2.0","55879531","wem/bandit_either_3","AHB3QFZSFN9DL","either","1","67462","","32","","","","","","","","","","","","","","","","","","","","","","","","","","","","","","","","","","","",""
"","text","3","231302","0.0-3.0","55879531","wem/bandit_either_3","AHB3QFZSFN9DL","either","1","10836","","32","","","","","","","","","","","","","","","","","","","","","","","","","","","","","","","","","","","",""
"","text","4","275696","0.0-4.0","55879531","wem/bandit_either_3","AHB3QFZSFN9DL","either","1","44387","","32","","","","","","","","","","","","","","","","","","","","","","","","","","","","","","","","","","","",""
"","text","5","300475","0.0-5.0","55879531","wem/bandit_either_3","AHB3QFZSFN9DL","either","1","24769","","32","","","","","","","","","","","","","","","","","","","","","","","","","","","","","","","","","","","",""
"","text","6","360289","0.0-6.0","55879531","wem/bandit_either_3","AHB3QFZSFN9DL","either","1","59806","","32","","","","","","","","","","","","","","","","","","","","","","","","","","","","","","","","","","","",""
"","text","7","379571","0.0-7.0","55879531","wem/bandit_either_3","AHB3QFZSFN9DL","either","1","19275","","32","","","","","","","","","","","","","","","","","","","","","","","","","","","","","","","","","","","",""
"","text","8","386690","0.0-8.0","55879531","wem/bandit_either_3","AHB3QFZSFN9DL","either","1","7112","","32","","","","","","","","","","","","","","","","","","","","","","","","","","","","","","","","","","","",""
"","identification","9","411684","0.0-9.0-0.0","55879531","wem/bandit_either_3","AHB3QFZSFN9DL","either","1","24932","","","","5","5","5","","","","","","","","","","","","","","","","","","","","","","","","the village of Zur","","","","","","","",""
"","identification","10","426676","0.0-9.0-1.0","55879531","wem/bandit_either_3","AHB3QFZSFN9DL","either","1","13926","","","","1","1","1","","","","","","","","","","","","","","","","","","","","","","","","the village of Nyx","","","","","","","",""
"","text","11","438844","0.0-10.0","55879531","wem/bandit_either_3","AHB3QFZSFN9DL","either","1","11158","","32","","","","","","","","","","","","","","","","","","","","","","","","","","","","","","","","","","","",""
"","text","12","446620","0.0-11.0","55879531","wem/bandit_either_3","AHB3QFZSFN9DL","either","1","7771","","32","","","","","","","","","","","","","","","","","","","","","","","","","","","","","","","","","","","",""
"","text","13","450700","0.0-12.0","55879531","wem/bandit_either_3","AHB3QFZSFN9DL","either","1","4075","","32","","","","","","","","","","","","","","","","","","","","","","","","","","","","","","","","","","","",""
"","text","14","456542","0.0-13.0","55879531","wem/bandit_either_3","AHB3QFZSFN9DL","either","1","5835","","32","","","","","","","","","","","","","","","","","","","","","","","","","","","","","","","","","","","",""
"","bandit","15","462168","0.0-14.0-0.0","55879531","wem/bandit_either_3","AHB3QFZSFN9DL","either","1","4064","","","","","","","0","0","1","0","0","","","","","0","","","","0","","","","","","","","","","","74","J","0","img/none_selected_demo.jpg","true","0","",""
"","bandit","16","466373","0.0-15.0-0.0","55879531","wem/bandit_either_3","AHB3QFZSFN9DL","either","1","2664","","","","","","","0","0","1","0","0","","","","","0","","","","0","","","","","","","","","","","75","K","0","img/none_selected_demo.jpg","true","0","",""
"","text","17","486172","0.0-16.0","55879531","wem/bandit_either_3","AHB3QFZSFN9DL","either","1","19789","","32","","","","","","","","","","","","","","","","","","","","","","","","","","","","","","","","","","","",""
"","text","18","495895","0.0-17.0","55879531","wem/bandit_either_3","AHB3QFZSFN9DL","either","1","9718","","32","","","","","","","","","","","","","","","","","","","","","","","","","","","","","","","","","","","",""
"","text","19","508071","0.0-18.0","55879531","wem/bandit_either_3","AHB3QFZSFN9DL","either","1","12168","","32","","","","","","","","","","","","","","","","","","","","","","","","","","","","","","","","","","","",""
"","text","20","519630","0.0-19.0","55879531","wem/bandit_either_3","AHB3QFZSFN9DL","either","1","11553","","32","","","","","","","","","","","","","","","","","","","","","","","","","","","","","","","","","","","",""
"","bandit","21","522857","0.0-20.0-0.0","55879531","wem/bandit_either_3","AHB3QFZSFN9DL","either","1","1691","","","","","","","0","1","0","","0.8","0.5","0.5","","","0.8","0.2","","","","","","","","","","","","","","74","J","0","img/none_selected_demo.jpg","true","0","80_20_practice",""
"","bandit","22","525497","0.0-20.0-1.0","55879531","wem/bandit_either_3","AHB3QFZSFN9DL","either","1","1087","","","","","","","0","1","0","","0.8","0.5","0.5","","","0.8","0.2","","","","","","","","","","","","","","74","J","0","img/none_selected_demo.jpg","true","0","80_20_practice",""
"","bandit","23","527293","0.0-20.0-2.0","55879531","wem/bandit_either_3","AHB3QFZSFN9DL","either","1","259","","","","","","","0","0","1","0.8","","0.5","0.5","","","","","","","0.8","0.2","","","","","","","","","","74","J","0","img/none_selected_demo.jpg","true","0","80_20_practice",""
"","bandit","24","529464","0.0-20.0-3.0","55879531","wem/bandit_either_3","AHB3QFZSFN9DL","either","1","642","","","","","","","0","1","0","","0.8","0.5","0.5","","","0.8","0.2","","","","","","","","","","","","","","74","J","0","img/none_selected_demo.jpg","true","0","80_20_practice",""
"","bandit","25","531836","0.0-20.0-4.0","55879531","wem/bandit_either_3","AHB3QFZSFN9DL","either","1","823","","","","","","","0","1","0","","0.8","0.5","0.5","","","0.8","0.2","","","","","","","","","","","","","","74","J","0","img/none_selected_demo.jpg","true","0","80_20_practice",""
"","bandit","26","533884","0.0-20.0-5.0","55879531","wem/bandit_either_3","AHB3QFZSFN9DL","either","1","511","","","","","","","1","0","0","0.8","","0.5","0.5","","","","","","","0.8","0.2","","","","","","","","","","74","J","0","img/none_selected_demo.jpg","true","0","80_20_practice",""
"","bandit","27","535892","0.0-20.0-6.0","55879531","wem/bandit_either_3","AHB3QFZSFN9DL","either","1","469","","","","","","","0","1","0","","0.8","0.5","0.5","","","0.8","0.2","","","","","","","","","","","","","","74","J","0","img/none_selected_demo.jpg","true","0","80_20_practice",""
"","bandit","28","537939","0.0-20.0-7.0","55879531","wem/bandit_either_3","AHB3QFZSFN9DL","either","1","513","","","","","","","1","0","0","0.8","","0.5","0.5","","","","","","","0.8","0.2","","","","","","","","","","74","J","0","img/none_selected_demo.jpg","true","0","80_20_practice",""
"","bandit","29","539884","0.0-20.0-8.0","55879531","wem/bandit_either_3","AHB3QFZSFN9DL","either","1","410","","","","","","","0","0","1","0.8","","0.5","0.5","","","","","","","0.8","0.2","","","","","","","","","","74","J","0","img/none_selected_demo.jpg","true","0","80_20_practice",""
"","bandit","30","541576","0.0-20.0-9.0","55879531","wem/bandit_either_3","AHB3QFZSFN9DL","either","1","150","","","","","","","1","0","0","0.8","","0.5","0.5","","","","","","","0.8","0.2","","","","","","","","","","74","J","0","img/none_selected_demo.jpg","true","0","80_20_practice",""
"","bandit","31","543203","0.0-20.0-10.0","55879531","wem/bandit_either_3","AHB3QFZSFN9DL","either","1","74","","","","","","","0","1","0","","0.8","0.5","0.5","","","0.8","0.2","","","","","","","","","","","","","","74","J","0","img/none_selected_demo.jpg","true","0","80_20_practice",""
"","bandit","32","545081","0.0-20.0-11.0","55879531","wem/bandit_either_3","AHB3QFZSFN9DL","either","1","339","","","","","","","0","1","0","","0.8","0.5","0.5","","","0.8","0.2","","","","","","","","","","","","","","74","J","0","img/none_selected_demo.jpg","true","0","80_20_practice",""
"","bandit","33","547066","0.0-20.0-12.0","55879531","wem/bandit_either_3","AHB3QFZSFN9DL","either","1","429","","","","","","","0","1","0","","0.8","0.5","0.5","","","0.8","0.2","","","","","","","","","","","","","","74","J","0","img/none_selected_demo.jpg","true","0","80_20_practice",""
"","bandit","34","549265","0.0-20.0-13.0","55879531","wem/bandit_either_3","AHB3QFZSFN9DL","either","1","648","","","","","","","0","1","0","","0.8","0.5","0.5","","","0.8","0.2","","","","","","","","","","","","","","74","J","0","img/none_selected_demo.jpg","true","0","80_20_practice",""
"","bandit","35","551251","0.0-20.0-14.0","55879531","wem/bandit_either_3","AHB3QFZSFN9DL","either","1","439","","","","","","","1","0","0","0.8","","0.5","0.5","","","","","","","0.8","0.2","","","","","","","","","","74","J","0","img/none_selected_demo.jpg","true","0","80_20_practice",""
"","bandit","36","553189","0.0-20.0-15.0","55879531","wem/bandit_either_3","AHB3QFZSFN9DL","either","1","395","","","","","","","1","0","0","0.8","","0.5","0.5","","","","","","","0.8","0.2","","","","","","","","","","74","J","0","img/none_selected_demo.jpg","true","0","80_20_practice",""
"","bandit","37","555081","0.0-20.0-16.0","55879531","wem/bandit_either_3","AHB3QFZSFN9DL","either","1","347","","","","","","","1","0","0","0.8","","0.5","0.5","","","","","","","0.8","0.2","","","","","","","","","","74","J","0","img/none_selected_demo.jpg","true","0","80_20_practice",""
"","bandit","38","557141","0.0-20.0-17.0","55879531","wem/bandit_either_3","AHB3QFZSFN9DL","either","1","520","","","","","","","1","0","0","0.8","","0.5","0.5","","","","","","","0.8","0.2","","","","","","","","","","74","J","0","img/none_selected_demo.jpg","true","0","80_20_practice",""
"","bandit","39","559033","0.0-20.0-18.0","55879531","wem/bandit_either_3","AHB3QFZSFN9DL","either","1","349","","","","","","","1","0","0","0.8","","0.5","0.5","","","","","","","0.8","0.2","","","","","","","","","","74","J","0","img/none_selected_demo.jpg","true","0","80_20_practice",""
"","bandit","40","560987","0.0-20.0-19.0","55879531","wem/bandit_either_3","AHB3QFZSFN9DL","either","1","411","","","","","","","0","1","0","","0.8","0.5","0.5","","","0.8","0.2","","","","","","","","","","","","","","74","J","0","img/none_selected_demo.jpg","true","0","80_20_practice",""
"","text","41","569226","0.0-21.0","55879531","wem/bandit_either_3","AHB3QFZSFN9DL","either","1","8224","","32","","","","","","","","","","","","","","","","","","","","","","","","","","","","","","","","","","","",""
"","bandit","42","571778","0.0-22.0-0.0","55879531","wem/bandit_either_3","AHB3QFZSFN9DL","either","1","1015","","","","","","","1","0","0","1","0","","","","","0","1","","","1","0","","","","","","","","","","74","J","0","img/none_selected_demo.jpg","true","0","",""
"","text","43","577177","0.0-23.0","55879531","wem/bandit_either_3","AHB3QFZSFN9DL","either","1","5387","","32","","","","","","","","","","","","","","","","","","","","","","","","","","","","","","","","","","","",""
"","text","44","583386","0.0-24.0","55879531","wem/bandit_either_3","AHB3QFZSFN9DL","either","1","6202","","32","","","","","","","","","","","","","","","","","","","","","","","","","","","","","","","","","","","",""
"","text","45","587258","0.0-25.0","55879531","wem/bandit_either_3","AHB3QFZSFN9DL","either","1","3863","","32","","","","","","","","","","","","","","","","","","","","","","","","","","","","","","","","","","","",""
"","text","46","594486","0.0-26.0","55879531","wem/bandit_either_3","AHB3QFZSFN9DL","either","1","7217","","32","","","","","","","","","","","","","","","","","","","","","","","","","","","","","","","","","","","",""
"","text","47","604000","0.0-27.0","55879531","wem/bandit_either_3","AHB3QFZSFN9DL","either","1","9502","","32","","","","","","","","","","","","","","","","","","","","","","","","","","","","","","","","","","","",""
"","text","48","609742","0.0-28.0","55879531","wem/bandit_either_3","AHB3QFZSFN9DL","either","1","5734","","32","","","","","","","","","","","","","","","","","","","","","","","","","","","","","","","","","","","",""
"","text","49","615314","0.0-29.0","55879531","wem/bandit_either_3","AHB3QFZSFN9DL","either","1","5562","","32","","","","","","","","","","","","","","","","","","","","","","","","","","","","","","","","","","","",""
"","text","50","619561","0.0-30.0","55879531","wem/bandit_either_3","AHB3QFZSFN9DL","either","1","4240","","32","","","","","","","","","","","","","","","","","","","","","","","","","","","","","","","","","","","",""
"","text","51","625582","0.0-31.0","55879531","wem/bandit_either_3","AHB3QFZSFN9DL","either","1","6013","","32","","","","","","","","","","","","","","","","","","","","","","","","","","","","","","","","","","","",""
"","text","52","627778","0.0-32.0","55879531","wem/bandit_either_3","AHB3QFZSFN9DL","either","1","2185","","32","","","","","","","","","","","","","","","","","","","","","","","","","","","","","","","","","","","",""
"","text","53","637368","0.0-33.0","55879531","wem/bandit_either_3","AHB3QFZSFN9DL","either","1","9579","","32","","","","","","","","","","","","","","","","","","","","","","","","","","","","","","","","","","","",""
"","bandit","54","640371","0.0-34.0-0.0","55879531","wem/bandit_either_3","AHB3QFZSFN9DL","either","1","1459","","","","","","","0","1","0","","0.8","0.5","0.5","0.5","0.5","0.8","0.2","0.6","0.2","","","","","","","","","","","","72","H","0","img/none_selected.jpg","true","0","full_practice",""
"","bandit","55","642424","0.0-34.0-1.0","55879531","wem/bandit_either_3","AHB3QFZSFN9DL","either","1","504","","","","","","","0","1","0","","0.8","0.5","0.5","0.5","0.5","0.8","0.2","0.6","0.2","","","","","","","","","","","","72","H","0","img/none_selected.jpg","true","0","full_practice",""
"","bandit","56","644409","0.0-34.0-2.0","55879531","wem/bandit_either_3","AHB3QFZSFN9DL","either","1","448","","","","","","","0","1","0","","0.8","0.5","0.5","0.5","0.5","0.8","0.2","0.6","0.2","","","","","","","","","","","","72","H","0","img/none_selected.jpg","true","0","full_practice",""
"","bandit","57","646382","0.0-34.0-3.0","55879531","wem/bandit_either_3","AHB3QFZSFN9DL","either","1","429","","","","","","","0","1","0","","0.8","0.5","0.5","0.5","0.5","0.8","0.2","0.6","0.2","","","","","","","","","","","","72","H","0","img/none_selected.jpg","true","0","full_practice",""
"","bandit","58","648924","0.0-34.0-4.0","55879531","wem/bandit_either_3","AHB3QFZSFN9DL","either","1","1010","","","","","","","1","0","0","0.8","","0.5","0.5","0.5","0.5","","","","","0.8","0.2","0.6","0.2","","","","","","","","72","H","0","img/none_selected.jpg","true","0","full_practice",""
"","bandit","59","650975","0.0-34.0-5.0","55879531","wem/bandit_either_3","AHB3QFZSFN9DL","either","1","494","","","","","","","0","1","0","","0.8","0.5","0.5","0.5","0.5","0.8","0.2","0.6","0.2","","","","","","","","","","","","72","H","0","img/none_selected.jpg","true","0","full_practice",""
"","bandit","60","652914","0.0-34.0-6.0","55879531","wem/bandit_either_3","AHB3QFZSFN9DL","either","1","387","","","","","","","1","0","0","0.8","","0.5","0.5","0.5","0.5","","","","","0.8","0.2","0.6","0.2","","","","","","","","72","H","0","img/none_selected.jpg","true","0","full_practice",""
"","bandit","61","654836","0.0-34.0-7.0","55879531","wem/bandit_either_3","AHB3QFZSFN9DL","either","1","370","","","","","","","0","0","1","0.8","","0.5","0.5","0.5","0.5","","","","","0.8","0.2","0.6","0.2","","","","","","","","72","H","0","img/none_selected.jpg","true","0","full_practice",""
"","bandit","62","656697","0.0-34.0-8.0","55879531","wem/bandit_either_3","AHB3QFZSFN9DL","either","1","322","","","","","","","1","0","0","0.8","","0.5","0.5","0.5","0.5","","","","","0.8","0.2","0.6","0.2","","","","","","","","72","H","0","img/none_selected.jpg","true","0","full_practice",""
"","bandit","63","658591","0.0-34.0-9.0","55879531","wem/bandit_either_3","AHB3QFZSFN9DL","either","1","352","","","","","","","0","0","1","","0.8","0.5","0.5","0.5","0.5","0.8","0.2","0.6","0.2","","","","","","","","","","","","72","H","0","img/none_selected.jpg","true","0","full_practice",""
"","bandit","64","660484","0.0-34.0-10.0","55879531","wem/bandit_either_3","AHB3QFZSFN9DL","either","1","338","","","","","","","0","1","0","","0.8","0.5","0.5","0.5","0.5","0.8","0.2","0.6","0.2","","","","","","","","","","","","72","H","0","img/none_selected.jpg","true","0","full_practice",""
"","bandit","65","662329","0.0-34.0-11.0","55879531","wem/bandit_either_3","AHB3QFZSFN9DL","either","1","294","","","","","","","0","0","1","0.8","","0.5","0.5","0.5","0.5","","","","","0.8","0.2","0.6","0.2","","","","","","","","72","H","0","img/none_selected.jpg","true","0","full_practice",""
"","bandit","66","664113","0.0-34.0-12.0","55879531","wem/bandit_either_3","AHB3QFZSFN9DL","either","1","229","","","","","","","1","0","0","0.8","","0.5","0.5","0.5","0.5","","","","","0.8","0.2","0.6","0.2","","","","","","","","72","H","0","img/none_selected.jpg","true","0","full_practice",""
"","bandit","67","665949","0.0-34.0-13.0","55879531","wem/bandit_either_3","AHB3QFZSFN9DL","either","1","300","","","","","","","0","0","1","0.8","","0.5","0.5","0.5","0.5","","","","","0.8","0.2","0.6","0.2","","","","","","","","72","H","0","img/none_selected.jpg","true","0","full_practice",""
"","bandit","68","667787","0.0-34.0-14.0","55879531","wem/bandit_either_3","AHB3QFZSFN9DL","either","1","305","","","","","","","0","0","1","","0.8","0.5","0.5","0.5","0.5","0.8","0.2","0.6","0.2","","","","","","","","","","","","72","H","0","img/none_selected.jpg","true","0","full_practice",""
"","bandit","69","669816","0.0-34.0-15.0","55879531","wem/bandit_either_3","AHB3QFZSFN9DL","either","1","472","","","","","","","0","0","1","","0.2","0.5","0.5","0.5","0.5","0.8","0.2","0.6","0.2","","","","","","","","","","","","74","J","1","","true","0","full_practice",""
"","bandit","70","671561","0.0-34.0-16.0","55879531","wem/bandit_either_3","AHB3QFZSFN9DL","either","1","204","","","","","","","0","1","0","","0.6","0.5","0.5","0.5","0.5","0.8","0.2","0.6","0.2","","","","","","","","","","","","75","K","2","","true","0","full_practice",""
"","bandit","71","673419","0.0-34.0-17.0","55879531","wem/bandit_either_3","AHB3QFZSFN9DL","either","1","312","","","","","","","0","0","1","0.6","","0.5","0.5","0.5","0.5","","","","","0.8","0.2","0.6","0.2","","","","","","","","75","K","2","","true","0","full_practice",""
"","bandit","72","675229","0.0-34.0-18.0","55879531","wem/bandit_either_3","AHB3QFZSFN9DL","either","1","277","","","","","","","0","1","0","","0.6","0.5","0.5","0.5","0.5","0.8","0.2","0.6","0.2","","","","","","","","","","","","75","K","2","","true","0","full_practice",""
"","bandit","73","677097","0.0-34.0-19.0","55879531","wem/bandit_either_3","AHB3QFZSFN9DL","either","1","304","","","","","","","0","0","1","0.6","","0.5","0.5","0.5","0.5","","","","","0.8","0.2","0.6","0.2","","","","","","","","75","K","2","","true","0","full_practice",""
"","text","74","683740","0.0-35.0","55879531","wem/bandit_either_3","AHB3QFZSFN9DL","either","1","6615","","32","","","","","","","","","","","","","","","","","","","","","","","","","","","","","","","","","","","",""
"","text","75","717066","0.0-36.0","55879531","wem/bandit_either_3","AHB3QFZSFN9DL","either","1","32300","","32","","","","","","","","","","","","","","","","","","","","","","","","","","","","","","","","","","","",""
"","text","76","730401","0.0-37.0","55879531","wem/bandit_either_3","AHB3QFZSFN9DL","either","1","13324","","32","","","","","","","","","","","","","","","","","","","","","","","","","","","","","","","","","","","",""
"","text","77","750032","0.0-38.0","55879531","wem/bandit_either_3","AHB3QFZSFN9DL","either","1","19617","","32","","","","","","","","","","","","","","","","","","","","","","","","","","","","","","","","","","","",""
"","text","78","758569","0.0-39.0","55879531","wem/bandit_either_3","AHB3QFZSFN9DL","either","1","8525","","32","","","","","","","","","","","","","","","","","","","","","","","","","","","","","","","","","","","",""
"","text","79","764852","0.0-40.0","55879531","wem/bandit_either_3","AHB3QFZSFN9DL","either","1","6267","","32","","","","","","","","","","","","","","","","","","","","","","","","","","","","","","","","","","","",""
"","bandit","80","768174","0.0-41.0-0.0","55879531","wem/bandit_either_3","AHB3QFZSFN9DL","either","1","1770","","","","","","","0","0","1","","0.5202783506","0.4","0.6","0.8","0.2","0.8101107889","0.7674833066","0.4995060561","0.5202783506","","","","","","","","","","","","76","L","3","","","1","main_expt",""
"","bandit","81","770174","0.0-42.0-0.0","55879531","wem/bandit_either_3","AHB3QFZSFN9DL","either","1","444","","","","","","","1","0","0","0.4452888422","","0.4","0.6","0.8","0.2","","","","","0.8827976921","0.7786696111","0.4452888422","0.4559554218","","","","","","","","75","K","2","","","2","main_expt",""
"","bandit","82","771972","0.0-43.0-0.0","55879531","wem/bandit_either_3","AHB3QFZSFN9DL","either","1","237","","","","","","","0","0","1","","0.4956599627","0.4","0.6","0.8","0.2","0.918633781","0.7883912796","0.4956599627","0.3791335739","","","","","","","","","","","","75","K","2","","","3","main_expt",""
"","bandit","83","774079","0.0-44.0-0.0","55879531","wem/bandit_either_3","AHB3QFZSFN9DL","either","1","557","","","","","","","0","0","1","0.3939226057","","0.4","0.6","0.8","0.2","","","","","0.8961075186","0.8311681014","0.3939226057","0.362446662","","","","","","","","75","K","2","","","4","main_expt",""
"","bandit","84","775736","0.0-45.0-0.0","55879531","wem/bandit_either_3","AHB3QFZSFN9DL","either","1","119","","","","","","","1","0","0","0.706748425","","0.4","0.6","0.8","0.2","","","","","0.9065038385","0.706748425","0.4737796053","0.4337427147","","","","","","","","74","J","1","","","5","main_expt",""
"","bandit","85","777649","0.0-46.0-0.0","55879531","wem/bandit_either_3","AHB3QFZSFN9DL","either","1","380","","","","","","","1","0","0","0.7246132019","","0.4","0.6","0.8","0.2","","","","","0.9628954729","0.7246132019","0.5798080576","0.4260566605","","","","","","","","74","J","1","","","6","main_expt",""
"","bandit","86","779458","0.0-47.0-0.0","55879531","wem/bandit_either_3","AHB3QFZSFN9DL","either","1","254","","","","","","","1","0","0","0.822103072","","0.4","0.6","0.8","0.2","","","","","0.9244273404","0.822103072","0.6184433593","0.5595739282","","","","","","","","74","J","1","","","7","main_expt",""
"","bandit","87","781312","0.0-48.0-0.0","55879531","wem/bandit_either_3","AHB3QFZSFN9DL","either","1","310","","","","","","","1","0","0","0.8176183596","","0.4","0.6","0.8","0.2","","","","","0.9214665689","0.8176183596","0.5380809204","0.5757792393","","","","","","","","74","J","1","","","8","main_expt",""
"","bandit","88","783357","0.0-49.0-0.0","55879531","wem/bandit_either_3","AHB3QFZSFN9DL","either","1","495","","","","","","","0","0","1","0.7421782695","","0.4","0.6","0.8","0.2","","","","","0.9604963414","0.7421782695","0.4884558296","0.5508288143","","","","","","","","74","J","1","","","9","main_expt",""
"","bandit","89","785219","0.0-50.0-0.0","55879531","wem/bandit_either_3","AHB3QFZSFN9DL","either","1","318","","","","","","","1","0","0","0.7112185725","","0.4","0.6","0.8","0.2","","","","","0.973544224","0.7112185725","0.6062827564","0.4615344473","","","","","","","","74","J","1","","","10","main_expt",""
"","bandit","90","787378","0.0-51.0-0.0","55879531","wem/bandit_either_3","AHB3QFZSFN9DL","either","1","628","","","","","","","1","0","0","0.6656122322","","0.4","0.6","0.8","0.2","","","","","0.9756729976","0.6656122322","0.6618996933","0.4731032433","","","","","","","","74","J","1","","","11","main_expt",""
"","bandit","91","789469","0.0-52.0-0.0","55879531","wem/bandit_either_3","AHB3QFZSFN9DL","either","1","550","","","","","","","1","0","0","0.632951522","","0.4","0.6","0.8","0.2","","","","","0.9824084628","0.632951522","0.6589688621","0.5028989732","","","","","","","","74","J","1","","","12","main_expt",""
"","bandit","92","791396","0.0-53.0-0.0","55879531","wem/bandit_either_3","AHB3QFZSFN9DL","either","1","372","","","","","","","0","0","1","","0.6428643634","0.4","0.6","0.8","0.2","0.9852841122","0.6428643634","0.7483501345","0.5252386458","","","","","","","","","","","","74","J","1","","","13","main_expt",""
"","bandit","93","793268","0.0-54.0-0.0","55879531","wem/bandit_either_3","AHB3QFZSFN9DL","either","1","311","","","","","","","1","0","0","0.5693663763","","0.4","0.6","0.8","0.2","","","","","0.9844185579","0.5693663763","0.7642220585","0.4883642101","","","","","","","","74","J","1","","","14","main_expt",""
"","bandit","94","795139","0.0-55.0-0.0","55879531","wem/bandit_either_3","AHB3QFZSFN9DL","either","1","326","","","","","","","0","0","1","0.6354763258","","0.4","0.6","0.8","0.2","","","","","0.9716790186","0.6354763258","0.8255663415","0.5125695872","","","","","","","","74","J","1","","","15","main_expt",""
"","bandit","95","797063","0.0-56.0-0.0","55879531","wem/bandit_either_3","AHB3QFZSFN9DL","either","1","379","","","","","","","0","1","0","","0.6074668868","0.4","0.6","0.8","0.2","0.9724226268","0.6074668868","0.8262734196","0.483313844","","","","","","","","","","","","74","J","1","","","16","main_expt",""
"","bandit","96","798972","0.0-57.0-0.0","55879531","wem/bandit_either_3","AHB3QFZSFN9DL","either","1","363","","","","","","","1","0","0","0.634379517","","0.4","0.6","0.8","0.2","","","","","0.969397438","0.634379517","0.8957105494","0.4764119597","","","","","","","","74","J","1","","","17","main_expt",""
"","bandit","97","800807","0.0-58.0-0.0","55879531","wem/bandit_either_3","AHB3QFZSFN9DL","either","1","285","","","","","","","0","1","0","","0.7399013172","0.4","0.6","0.8","0.2","0.9487821198","0.7399013172","0.8243017832","0.4742144938","","","","","","","","","","","","74","J","1","","","18","main_expt",""
"","bandit","98","802699","0.0-59.0-0.0","55879531","wem/bandit_either_3","AHB3QFZSFN9DL","either","1","325","","","","","","","0","0","1","","0.6892422428","0.4","0.6","0.8","0.2","0.8822386923","0.6892422428","0.8174393347","0.5445729057","","","","","","","","","","","","74","J","1","","","19","main_expt",""
"","bandit","99","804590","0.0-60.0-0.0","55879531","wem/bandit_either_3","AHB3QFZSFN9DL","either","1","327","","","","","","","0","1","0","","0.5544472153","0.4","0.6","0.8","0.2","0.8658452863","0.5544472153","0.8457625901","0.5114357523","","","","","","","","","","","","74","J","1","","","20","main_expt",""
"","bandit","100","806327","0.0-61.0-0.0","55879531","wem/bandit_either_3","AHB3QFZSFN9DL","either","1","173","","","","","","","1","0","0","0.4705077418","","0.4","0.6","0.8","0.2","","","","","0.8597265301","0.4705077418","0.8565453533","0.4948626968","","","","","","","","74","J","1","","","21","main_expt",""
"","bandit","101","808210","0.0-62.0-0.0","55879531","wem/bandit_either_3","AHB3QFZSFN9DL","either","1","337","","","","","","","0","0","1","0.5364913494","","0.4","0.6","0.8","0.2","","","","","0.929530396","0.5364913494","0.8821281293","0.3750889156","","","","","","","","74","J","1","","","22","main_expt",""
"","bandit","102","810034","0.0-63.0-0.0","55879531","wem/bandit_either_3","AHB3QFZSFN9DL","either","1","271","","","","","","","1","0","0","0.5450887529","","0.4","0.6","0.8","0.2","","","","","0.9149061772","0.5450887529","0.8253896901","0.3874093852","","","","","","","","74","J","1","","","23","main_expt",""
"","bandit","103","811919","0.0-64.0-0.0","55879531","wem/bandit_either_3","AHB3QFZSFN9DL","either","1","332","","","","","","","1","0","0","0.6013055931","","0.4","0.6","0.8","0.2","","","","","0.9389899916","0.6013055931","0.8682133559","0.4126546177","","","","","","","","74","J","1","","","24","main_expt",""
"","bandit","104","813819","0.0-65.0-0.0","55879531","wem/bandit_either_3","AHB3QFZSFN9DL","either","1","370","","","","","","","1","0","0","0.7116226269","","0.4","0.6","0.8","0.2","","","","","0.9583062328","0.7116226269","0.8186134727","0.3871809826","","","","","","","","74","J","1","","","25","main_expt",""
"","bandit","105","815773","0.0-66.0-0.0","55879531","wem/bandit_either_3","AHB3QFZSFN9DL","either","1","404","","","","","","","1","0","0","0.7284905038","","0.4","0.6","0.8","0.2","","","","","0.9349434311","0.7284905038","0.841170918","0.4162773602","","","","","","","","74","J","1","","","26","main_expt",""
"","bandit","106","817648","0.0-67.0-0.0","55879531","wem/bandit_either_3","AHB3QFZSFN9DL","either","1","318","","","","","","","0","0","1","0.7007901837","","0.4","0.6","0.8","0.2","","","","","0.9147743466","0.7007901837","0.8332298301","0.4153433109","","","","","","","","74","J","1","","","27","main_expt",""
"","bandit","107","819514","0.0-68.0-0.0","55879531","wem/bandit_either_3","AHB3QFZSFN9DL","either","1","333","","","","","","","0","0","1","0.7197690037","","0.4","0.6","0.8","0.2","","","","","0.8913744663","0.7197690037","0.8340804883","0.3083156359","","","","","","","","74","J","1","","","28","main_expt",""
"","bandit","108","821737","0.0-69.0-0.0","55879531","wem/bandit_either_3","AHB3QFZSFN9DL","either","1","688","","","","","","","1","0","0","0.7569205749","","0.4","0.6","0.8","0.2","","","","","0.9004815278","0.7569205749","0.8800986549","0.4048150761","","","","","","","","74","J","1","","","29","main_expt",""
"","bandit","109","823667","0.0-70.0-0.0","55879531","wem/bandit_either_3","AHB3QFZSFN9DL","either","1","384","","","","","","","0","0","1","","0.7007062976","0.4","0.6","0.8","0.2","0.8335499875","0.7007062976","0.800988266","0.5604470694","","","","","","","","","","","","74","J","1","","","30","main_expt",""
"","bandit","110","825606","0.0-71.0-0.0","55879531","wem/bandit_either_3","AHB3QFZSFN9DL","either","1","379","","","","","","","1","0","0","0.6218809145","","0.4","0.6","0.8","0.2","","","","","0.7904098286","0.6218809145","0.8092707987","0.5114456598","","","","","","","","74","J","1","","","31","main_expt",""
"","bandit","111","827524","0.0-72.0-0.0","55879531","wem/bandit_either_3","AHB3QFZSFN9DL","either","1","358","","","","","","","1","0","0","0.5448888872","","0.4","0.6","0.8","0.2","","","","","0.8156470634","0.5448888872","0.7600689364","0.5195843055","","","","","","","","74","J","1","","","32","main_expt",""
"","bandit","112","829395","0.0-73.0-0.0","55879531","wem/bandit_either_3","AHB3QFZSFN9DL","either","1","344","","","","","","","0","0","1","0.4396040002","","0.4","0.6","0.8","0.2","","","","","0.7458483223","0.4396040002","0.7268405739","0.4278216128","","","","","","","","74","J","1","","","33","main_expt",""
"","bandit","113","831390","0.0-74.0-0.0","55879531","wem/bandit_either_3","AHB3QFZSFN9DL","either","1","438","","","","","","","0","1","0","","0.8745519215","0.4","0.6","0.8","0.2","0.8745519215","0.3418027302","0.7867385379","0.4581725564","","","","","","","","","","","","72","H","0","img/none_selected.jpg","","34","main_expt",""
"","bandit","114","833267","0.0-75.0-0.0","55879531","wem/bandit_either_3","AHB3QFZSFN9DL","either","1","314","","","","","","","1","0","0","0.8761773117","","0.4","0.6","0.8","0.2","","","","","0.8761773117","0.3770378826","0.7776722478","0.5170179058","","","","","","","","72","H","0","img/none_selected.jpg","","35","main_expt",""
"","bandit","115","835142","0.0-76.0-0.0","55879531","wem/bandit_either_3","AHB3QFZSFN9DL","either","1","310","","","","","","","0","1","0","","0.8898579413","0.4","0.6","0.8","0.2","0.8898579413","0.3264650107","0.8110731924","0.5761285305","","","","","","","","","","","","72","H","0","img/none_selected.jpg","","36","main_expt",""
"","bandit","116","836972","0.0-77.0-0.0","55879531","wem/bandit_either_3","AHB3QFZSFN9DL","either","1","279","","","","","","","0","1","0","","0.9189960073","0.4","0.6","0.8","0.2","0.9189960073","0.1696248696","0.8371501114","0.5824592389","","","","","","","","","","","","72","H","0","img/none_selected.jpg","","37","main_expt",""
"","bandit","117","838778","0.0-78.0-0.0","55879531","wem/bandit_either_3","AHB3QFZSFN9DL","either","1","258","","","","","","","0","1","0","","0.9429067042","0.4","0.6","0.8","0.2","0.9429067042","0.3008725236","0.801984358","0.5039158184","","","","","","","","","","","","72","H","0","img/none_selected.jpg","","38","main_expt",""
"","bandit","118","840695","0.0-79.0-0.0","55879531","wem/bandit_either_3","AHB3QFZSFN9DL","either","1","344","","","","","","","0","1","0","","0.8860185862","0.4","0.6","0.8","0.2","0.8860185862","0.3612597963","0.836760671","0.4906961915","","","","","","","","","","","","72","H","0","img/none_selected.jpg","","39","main_expt",""
"","bandit","119","842561","0.0-80.0-0.0","55879531","wem/bandit_either_3","AHB3QFZSFN9DL","either","1","314","","","","","","","0","1","0","","0.8958725565","0.4","0.6","0.8","0.2","0.8958725565","0.3316001813","0.7930168878","0.5118773476","","","","","","","","","","","","72","H","0","img/none_selected.jpg","","40","main_expt",""
"","bandit","120","844450","0.0-81.0-0.0","55879531","wem/bandit_either_3","AHB3QFZSFN9DL","either","1","349","","","","","","","0","1","0","","0.8369757826","0.4","0.6","0.8","0.2","0.8369757826","0.251761063","0.6758505439","0.5207000815","","","","","","","","","","","","72","H","0","img/none_selected.jpg","","41","main_expt",""
"","bandit","121","846424","0.0-82.0-0.0","55879531","wem/bandit_either_3","AHB3QFZSFN9DL","either","1","414","","","","","","","0","1","0","","0.8724413244","0.4","0.6","0.8","0.2","0.8724413244","0.3764367217","0.669091732","0.6208632684","","","","","","","","","","","","72","H","0","img/none_selected.jpg","","42","main_expt",""
"","bandit","122","848378","0.0-83.0-0.0","55879531","wem/bandit_either_3","AHB3QFZSFN9DL","either","1","402","","","","","","","0","0","1","","0.8721156492","0.4","0.6","0.8","0.2","0.8721156492","0.4280411123","0.5774386383","0.6736877605","","","","","","","","","","","","72","H","0","img/none_selected.jpg","","43","main_expt",""
"","bandit","123","850297","0.0-84.0-0.0","55879531","wem/bandit_either_3","AHB3QFZSFN9DL","either","1","359","","","","","","","0","1","0","","0.874486911","0.4","0.6","0.8","0.2","0.874486911","0.4250007774","0.5402750746","0.6770598463","","","","","","","","","","","","72","H","0","img/none_selected.jpg","","44","main_expt",""
"","bandit","124","852159","0.0-85.0-0.0","55879531","wem/bandit_either_3","AHB3QFZSFN9DL","either","1","300","","","","","","","1","0","0","0.7653026016","","0.4","0.6","0.8","0.2","","","","","0.7653026016","0.3964774122","0.4769525635","0.6811336834","","","","","","","","72","H","0","img/none_selected.jpg","","45","main_expt",""
"","bandit","125","854020","0.0-86.0-0.0","55879531","wem/bandit_either_3","AHB3QFZSFN9DL","either","1","291","","","","","","","0","1","0","","0.6884850605","0.4","0.6","0.8","0.2","0.6884850605","0.3755541509","0.460739512","0.7409040253","","","","","","","","","","","","72","H","0","img/none_selected.jpg","","46","main_expt",""
"","bandit","126","855908","0.0-87.0-0.0","55879531","wem/bandit_either_3","AHB3QFZSFN9DL","either","1","331","","","","","","","0","1","0","","0.6869729855","0.4","0.6","0.8","0.2","0.6869729855","0.3698766084","0.3953603582","0.8602274841","","","","","","","","","","","","72","H","0","img/none_selected.jpg","","47","main_expt",""
"","bandit","127","858428","0.0-88.0-0.0","55879531","wem/bandit_either_3","AHB3QFZSFN9DL","either","1","980","","","","","","","0","1","0","","0.624749708","0.4","0.6","0.8","0.2","0.624749708","0.2924141828","0.5194217752","0.8947369126","","","","","","","","","","","","72","H","0","img/none_selected.jpg","","48","main_expt",""
"","bandit","128","860421","0.0-89.0-0.0","55879531","wem/bandit_either_3","AHB3QFZSFN9DL","either","1","454","","","","","","","0","0","1","","0.6269608649","0.4","0.6","0.8","0.2","0.6269608649","0.2506794134","0.5015721984","0.9071052574","","","","","","","","","","","","72","H","0","img/none_selected.jpg","","49","main_expt",""
"","bandit","129","862312","0.0-90.0-0.0","55879531","wem/bandit_either_3","AHB3QFZSFN9DL","either","1","332","","","","","","","0","0","1","0.5394470416","","0.4","0.6","0.8","0.2","","","","","0.5394470416","0.2200095001","0.4427204185","0.8569531155","","","","","","","","72","H","0","img/none_selected.jpg","","50","main_expt",""
"","bandit","130","865296","0.0-91.0-0.0","55879531","wem/bandit_either_3","AHB3QFZSFN9DL","either","1","1427","","","","","","","1","0","0","0.8728609703","","0.4","0.6","0.8","0.2","","","","","0.4991806479","0.2703780474","0.5194544998","0.8728609703","","","","","","","","76","L","3","","","51","main_expt",""
"","bandit","131","867232","0.0-92.0-0.0","55879531","wem/bandit_either_3","AHB3QFZSFN9DL","either","1","372","","","","","","","0","1","0","","0.902184381","0.4","0.6","0.8","0.2","0.5431464126","0.3215640211","0.4420680866","0.902184381","","","","","","","","","","","","76","L","3","","","52","main_expt",""
"","bandit","132","869112","0.0-93.0-0.0","55879531","wem/bandit_either_3","AHB3QFZSFN9DL","either","1","341","","","","","","","0","1","0","","0.8975054296","0.4","0.6","0.8","0.2","0.4799783957","0.2918797996","0.5541791803","0.8975054296","","","","","","","","","","","","76","L","3","","","53","main_expt",""
"","bandit","133","871080","0.0-94.0-0.0","55879531","wem/bandit_either_3","AHB3QFZSFN9DL","either","1","412","","","","","","","0","1","0","","0.9436546011","0.4","0.6","0.8","0.2","0.3946877269","0.2432815539","0.6187664305","0.9436546011","","","","","","","","","","","","76","L","3","","","54","main_expt",""
"","bandit","134","873077","0.0-95.0-0.0","55879531","wem/bandit_either_3","AHB3QFZSFN9DL","either","1","445","","","","","","","0","1","0","","0.9411334538","0.4","0.6","0.8","0.2","0.3892466866","0.1993500609","0.538030076","0.9411334538","","","","","","","","","","","","76","L","3","","","55","main_expt",""
"","bandit","135","874986","0.0-96.0-0.0","55879531","wem/bandit_either_3","AHB3QFZSFN9DL","either","1","367","","","","","","","0","1","0","","0.862285227","0.4","0.6","0.8","0.2","0.347268188","0.1832364248","0.5137881872","0.862285227","","","","","","","","","","","","76","L","3","","","56","main_expt",""
"","bandit","136","876853","0.0-97.0-0.0","55879531","wem/bandit_either_3","AHB3QFZSFN9DL","either","1","328","","","","","","","0","1","0","","0.9034803314","0.4","0.6","0.8","0.2","0.3462231845","0.1703919496","0.6274604021","0.9034803314","","","","","","","","","","","","76","L","3","","","57","main_expt",""
"","bandit","137","878755","0.0-98.0-0.0","55879531","wem/bandit_either_3","AHB3QFZSFN9DL","either","1","350","","","","","","","0","0","1","0.9062052911","","0.4","0.6","0.8","0.2","","","","","0.3707442777","0.2146973212","0.5636132077","0.9062052911","","","","","","","","76","L","3","","","58","main_expt",""
"","bandit","138","880636","0.0-99.0-0.0","55879531","wem/bandit_either_3","AHB3QFZSFN9DL","either","1","314","","","","","","","0","1","0","","0.9169546289","0.4","0.6","0.8","0.2","0.4530366532","0.2118107272","0.6555757088","0.9169546289","","","","","","","","","","","","76","L","3","","","59","main_expt",""
"","bandit","139","882480","0.0-100.0-0.0","55879531","wem/bandit_either_3","AHB3QFZSFN9DL","either","1","271","","","","","","","0","1","0","","0.9048679239","0.4","0.6","0.8","0.2","0.4335409142","0.2096036334","0.6555481193","0.9048679239","","","","","","","","","","","","76","L","3","","","60","main_expt",""
"","bandit","140","884329","0.0-101.0-0.0","55879531","wem/bandit_either_3","AHB3QFZSFN9DL","either","1","299","","","","","","","0","1","0","","0.9346572725","0.4","0.6","0.8","0.2","0.3601573371","0.1985607356","0.6988977931","0.9346572725","","","","","","","","","","","","76","L","3","","","61","main_expt",""
"","bandit","141","886173","0.0-102.0-0.0","55879531","wem/bandit_either_3","AHB3QFZSFN9DL","either","1","295","","","","","","","0","0","1","","0.9332729597","0.4","0.6","0.8","0.2","0.3187004912","0.2352246004","0.6124712875","0.9332729597","","","","","","","","","","","","76","L","3","","","62","main_expt",""
"","bandit","142","888159","0.0-103.0-0.0","55879531","wem/bandit_either_3","AHB3QFZSFN9DL","either","1","422","","","","","","","0","1","0","","0.9300142507","0.4","0.6","0.8","0.2","0.331276396","0.1989126294","0.4881994696","0.9300142507","","","","","","","","","","","","76","L","3","","","63","main_expt",""
"","bandit","143","889974","0.0-104.0-0.0","55879531","wem/bandit_either_3","AHB3QFZSFN9DL","either","1","265","","","","","","","0","1","0","","0.8992917639","0.4","0.6","0.8","0.2","0.3984677","0.2231035509","0.5007509184","0.8992917639","","","","","","","","","","","","76","L","3","","","64","main_expt",""
"","bandit","144","891903","0.0-105.0-0.0","55879531","wem/bandit_either_3","AHB3QFZSFN9DL","either","1","376","","","","","","","0","1","0","","0.7939475476","0.4","0.6","0.8","0.2","0.3012021372","0.174077904","0.6077525222","0.7939475476","","","","","","","","","","","","76","L","3","","","65","main_expt",""
"","bandit","145","893790","0.0-106.0-0.0","55879531","wem/bandit_either_3","AHB3QFZSFN9DL","either","1","339","","","","","","","0","1","0","","0.7848839068","0.4","0.6","0.8","0.2","0.2848395029","0.1505104035","0.4876759876","0.7848839068","","","","","","","","","","","","76","L","3","","","66","main_expt",""
"","bandit","146","895721","0.0-107.0-0.0","55879531","wem/bandit_either_3","AHB3QFZSFN9DL","either","1","367","","","","","","","0","1","0","","0.7712869283","0.4","0.6","0.8","0.2","0.2908363747","0.1706094741","0.4705728971","0.7712869283","","","","","","","","","","","","76","L","3","","","67","main_expt",""
"","bandit","147","897619","0.0-108.0-0.0","55879531","wem/bandit_either_3","AHB3QFZSFN9DL","either","1","339","","","","","","","0","1","0","","0.7426915226","0.4","0.6","0.8","0.2","0.3226378352","0.193375558","0.5822594153","0.7426915226","","","","","","","","","","","","76","L","3","","","68","main_expt",""
"","bandit","148","899541","0.0-109.0-0.0","55879531","wem/bandit_either_3","AHB3QFZSFN9DL","either","1","365","","","","","","","0","1","0","","0.592712881","0.4","0.6","0.8","0.2","0.4490581071","0.226811003","0.6189715015","0.592712881","","","","","","","","","","","","76","L","3","","","69","main_expt",""
"","bandit","149","901789","0.0-110.0-0.0","55879531","wem/bandit_either_3","AHB3QFZSFN9DL","either","1","688","","","","","","","0","1","0","","0.6587085967","0.4","0.6","0.8","0.2","0.42365523","0.191142909","0.5307799745","0.6587085967","","","","","","","","","","","","76","L","3","","","70","main_expt",""
"","bandit","150","903931","0.0-111.0-0.0","55879531","wem/bandit_either_3","AHB3QFZSFN9DL","either","1","605","","","","","","","0","0","1","","0.7562029562","0.4","0.6","0.8","0.2","0.427101634","0.2371486809","0.5205551237","0.7562029562","","","","","","","","","","","","76","L","3","","","71","main_expt",""
"","bandit","151","905867","0.0-112.0-0.0","55879531","wem/bandit_either_3","AHB3QFZSFN9DL","either","1","391","","","","","","","0","1","0","","0.670676276","0.4","0.6","0.8","0.2","0.5387899421","0.2602117984","0.5913901284","0.670676276","","","","","","","","","","","","76","L","3","","","72","main_expt",""
"","bandit","152","907750","0.0-113.0-0.0","55879531","wem/bandit_either_3","AHB3QFZSFN9DL","either","1","348","","","","","","","0","0","1","","0.6870219419","0.4","0.6","0.8","0.2","0.4931252492","0.1837165363","0.7127465592","0.6870219419","","","","","","","","","","","","76","L","3","","","73","main_expt",""
"","bandit","153","909634","0.0-114.0-0.0","55879531","wem/bandit_either_3","AHB3QFZSFN9DL","either","1","343","","","","","","","0","0","1","","0.582898469","0.4","0.6","0.8","0.2","0.3888626504","0.2032334464","0.7804212289","0.582898469","","","","","","","","","","","","76","L","3","","","74","main_expt",""
"","bandit","154","911476","0.0-115.0-0.0","55879531","wem/bandit_either_3","AHB3QFZSFN9DL","either","1","317","","","","","","","1","0","0","0.7966502287","","0.4","0.6","0.8","0.2","","","","","0.3866429177","0.2782751631","0.7966502287","0.6452442043","","","","","","","","75","K","2","","","75","main_expt",""
"","bandit","155","913297","0.0-116.0-0.0","55879531","wem/bandit_either_3","AHB3QFZSFN9DL","either","1","279","","","","","","","0","1","0","","0.7775959854","0.4","0.6","0.8","0.2","0.3948468247","0.3318782676","0.7775959854","0.7031137023","","","","","","","","","","","","75","K","2","","","76","main_expt",""
"","bandit","156","915186","0.0-117.0-0.0","55879531","wem/bandit_either_3","AHB3QFZSFN9DL","either","1","335","","","","","","","1","0","0","0.8523583745","","0.4","0.6","0.8","0.2","","","","","0.4853082722","0.312607664","0.8523583745","0.6096498107","","","","","","","","75","K","2","","","77","main_expt",""
"","bandit","157","917050","0.0-118.0-0.0","55879531","wem/bandit_either_3","AHB3QFZSFN9DL","either","1","295","","","","","","","1","0","0","0.7707034136","","0.4","0.6","0.8","0.2","","","","","0.4971609959","0.3250695504","0.7707034136","0.532302087","","","","","","","","75","K","2","","","78","main_expt",""
"","bandit","158","918988","0.0-119.0-0.0","55879531","wem/bandit_either_3","AHB3QFZSFN9DL","either","1","384","","","","","","","1","0","0","0.7919080975","","0.4","0.6","0.8","0.2","","","","","0.5349041547","0.277144637","0.7919080975","0.4448734945","","","","","","","","75","K","2","","","79","main_expt",""
"","bandit","159","920850","0.0-120.0-0.0","55879531","wem/bandit_either_3","AHB3QFZSFN9DL","either","1","318","","","","","","","0","0","1","0.8107458935","","0.4","0.6","0.8","0.2","","","","","0.4713204996","0.293018971","0.8107458935","0.34513516","","","","","","","","75","K","2","","","80","main_expt",""
"","bandit","160","922827","0.0-121.0-0.0","55879531","wem/bandit_either_3","AHB3QFZSFN9DL","either","1","419","","","","","","","1","0","0","0.7851591746","","0.4","0.6","0.8","0.2","","","","","0.4132476049","0.2730851157","0.7851591746","0.406584365","","","","","","","","75","K","2","","","81","main_expt",""
"","bandit","161","924696","0.0-122.0-0.0","55879531","wem/bandit_either_3","AHB3QFZSFN9DL","either","1","326","","","","","","","0","1","0","","0.8067558171","0.4","0.6","0.8","0.2","0.4640808921","0.2436011542","0.8067558171","0.5068312928","","","","","","","","","","","","75","K","2","","","82","main_expt",""
"","bandit","162","926634","0.0-123.0-0.0","55879531","wem/bandit_either_3","AHB3QFZSFN9DL","either","1","387","","","","","","","1","0","0","0.7777816444","","0.4","0.6","0.8","0.2","","","","","0.442115463","0.2009218657","0.7777816444","0.5209063211","","","","","","","","75","K","2","","","83","main_expt",""
"","bandit","163","928588","0.0-124.0-0.0","55879531","wem/bandit_either_3","AHB3QFZSFN9DL","either","1","392","","","","","","","1","0","0","0.7801041195","","0.4","0.6","0.8","0.2","","","","","0.5117806844","0.1550904625","0.7801041195","0.6221591745","","","","","","","","75","K","2","","","84","main_expt",""
"","bandit","164","930466","0.0-125.0-0.0","55879531","wem/bandit_either_3","AHB3QFZSFN9DL","either","1","307","","","","","","","0","0","1","0.7593249252","","0.4","0.6","0.8","0.2","","","","","0.5309627618","0.1193398435","0.7593249252","0.6939346182","","","","","","","","75","K","2","","","85","main_expt",""
"","bandit","165","932262","0.0-126.0-0.0","55879531","wem/bandit_either_3","AHB3QFZSFN9DL","either","1","252","","","","","","","0","0","1","0.7911667705","","0.4","0.6","0.8","0.2","","","","","0.5482659382","0.1398572341","0.7911667705","0.7533471596","","","","","","","","75","K","2","","","86","main_expt",""
"","bandit","166","933991","0.0-127.0-0.0","55879531","wem/bandit_either_3","AHB3QFZSFN9DL","either","1","169","","","","","","","0","0","1","0.1941505275","","0.4","0.6","0.8","0.2","","","","","0.4772076429","0.1941505275","0.8480662183","0.8040573679","","","","","","","","74","J","1","","","87","main_expt",""
"","bandit","167","936249","0.0-128.0-0.0","55879531","wem/bandit_either_3","AHB3QFZSFN9DL","either","1","699","","","","","","","1","0","0","0.5202977678","","0.4","0.6","0.8","0.2","","","","","0.5202977678","0.09645570925","0.8110462569","0.7800800897","","","","","","","","72","H","0","img/none_selected.jpg","","88","main_expt",""
"","bandit","168","938157","0.0-129.0-0.0","55879531","wem/bandit_either_3","AHB3QFZSFN9DL","either","1","336","","","","","","","0","0","1","","0.4970482359","0.4","0.6","0.8","0.2","0.4970482359","0.1304326216","0.7924414871","0.7329239748","","","","","","","","","","","","72","H","0","img/none_selected.jpg","","89","main_expt",""
"","bandit","169","940032","0.0-130.0-0.0","55879531","wem/bandit_either_3","AHB3QFZSFN9DL","either","1","327","","","","","","","0","0","1","0.1410434261","","0.4","0.6","0.8","0.2","","","","","0.4671205494","0.1410434261","0.8190855249","0.7202813078","","","","","","","","74","J","1","","","90","main_expt",""
"","bandit","170","941929","0.0-131.0-0.0","55879531","wem/bandit_either_3","AHB3QFZSFN9DL","either","1","361","","","","","","","0","0","1","","0.5518401665","0.4","0.6","0.8","0.2","0.5518401665","0.1277095213","0.858270253","0.698586111","","","","","","","","","","","","72","H","0","img/none_selected.jpg","","91","main_expt",""
"","bandit","171","945407","0.0-132.0-0.0","55879531","wem/bandit_either_3","AHB3QFZSFN9DL","either","1","1923","","","","","","","0","0","1","","0.6054304462","0.4","0.6","0.8","0.2","0.620788192","0.08596821216","0.8583259383","0.6054304462","","","","","","","","","","","","76","L","3","","","92","main_expt",""
"","bandit","172","947357","0.0-133.0-0.0","55879531","wem/bandit_either_3","AHB3QFZSFN9DL","either","1","404","","","","","","","1","0","0","0.8335107661","","0.4","0.6","0.8","0.2","","","","","0.679669404","0.05652587691","0.8335107661","0.6829204303","","","","","","","","75","K","2","","","93","main_expt",""
"","bandit","173","949189","0.0-134.0-0.0","55879531","wem/bandit_either_3","AHB3QFZSFN9DL","either","1","280","","","","","","","0","1","0","","0.8849423118","0.4","0.6","0.8","0.2","0.6726581754","0.07490457358","0.8849423118","0.6084783934","","","","","","","","","","","","75","K","2","","","94","main_expt",""
"","bandit","174","951111","0.0-135.0-0.0","55879531","wem/bandit_either_3","AHB3QFZSFN9DL","either","1","359","","","","","","","1","0","0","0.9175662658","","0.4","0.6","0.8","0.2","","","","","0.5983950962","0.05201682933","0.9175662658","0.51962455","","","","","","","","75","K","2","","","95","main_expt",""
"","bandit","175","952989","0.0-136.0-0.0","55879531","wem/bandit_either_3","AHB3QFZSFN9DL","either","1","313","","","","","","","0","1","0","","0.8726153548","0.4","0.6","0.8","0.2","0.6316158747","0.0353667714","0.8726153548","0.453067158","","","","","","","","","","","","75","K","2","","","96","main_expt",""
"","bandit","176","954906","0.0-137.0-0.0","55879531","wem/bandit_either_3","AHB3QFZSFN9DL","either","1","356","","","","","","","1","0","0","0.7260562137","","0.4","0.6","0.8","0.2","","","","","0.6660601513","0.04301306848","0.7260562137","0.4090095009","","","","","","","","75","K","2","","","97","main_expt",""
"","bandit","177","956806","0.0-138.0-0.0","55879531","wem/bandit_either_3","AHB3QFZSFN9DL","either","1","336","","","","","","","1","0","0","0.6506148609","","0.4","0.6","0.8","0.2","","","","","0.6185462561","0.03950067624","0.6506148609","0.360727585","","","","","","","","75","K","2","","","98","main_expt",""
"","bandit","178","958742","0.0-139.0-0.0","55879531","wem/bandit_either_3","AHB3QFZSFN9DL","either","1","381","","","","","","","0","0","1","0.5816342488","","0.4","0.6","0.8","0.2","","","","","0.581128502","0.03156699585","0.5816342488","0.3351327477","","","","","","","","75","K","2","","","99","main_expt",""
"","bandit","179","960637","0.0-140.0-0.0","55879531","wem/bandit_either_3","AHB3QFZSFN9DL","either","1","338","","","","","","","1","0","0","0.5521464449","","0.4","0.6","0.8","0.2","","","","","0.479775063","0.0248161238","0.5521464449","0.3491912274","","","","","","","","75","K","2","","","100","main_expt",""
"","bandit","180","962536","0.0-141.0-0.0","55879531","wem/bandit_either_3","AHB3QFZSFN9DL","either","1","335","","","","","","","1","0","0","0.6063232436","","0.4","0.6","0.8","0.2","","","","","0.5114647241","0.02218075004","0.6063232436","0.4105375765","","","","","","","","75","K","2","","","101","main_expt",""
"","bandit","181","964405","0.0-142.0-0.0","55879531","wem/bandit_either_3","AHB3QFZSFN9DL","either","1","325","","","","","","","1","0","0","0.5636213764","","0.4","0.6","0.8","0.2","","","","","0.4718740674","0.01802152149","0.5636213764","0.438632671","","","","","","","","75","K","2","","","102","main_expt",""
"","bandit","182","966352","0.0-143.0-0.0","55879531","wem/bandit_either_3","AHB3QFZSFN9DL","either","1","401","","","","","","","1","0","0","0.5370473259","","0.4","0.6","0.8","0.2","","","","","0.5245129891","0.01877214671","0.5370473259","0.372838406","","","","","","","","75","K","2","","","103","main_expt",""
"","bandit","183","968238","0.0-144.0-0.0","55879531","wem/bandit_either_3","AHB3QFZSFN9DL","either","1","328","","","","","","","0","0","1","0.549647281","","0.4","0.6","0.8","0.2","","","","","0.5170751474","0.01556743346","0.549647281","0.3057692375","","","","","","","","75","K","2","","","104","main_expt",""
"","bandit","184","970126","0.0-145.0-0.0","55879531","wem/bandit_either_3","AHB3QFZSFN9DL","either","1","343","","","","","","","0","1","0","","0.4225976111","0.4","0.6","0.8","0.2","0.472330124","0.03717147126","0.4225976111","0.37369274","","","","","","","","","","","","75","K","2","","","105","main_expt",""
"","bandit","185","972005","0.0-146.0-0.0","55879531","wem/bandit_either_3","AHB3QFZSFN9DL","either","1","310","","","","","","","1","0","0","0.5005163425","","0.4","0.6","0.8","0.2","","","","","0.568133852","0.07687033395","0.5005163425","0.3179799449","","","","","","","","75","K","2","","","106","main_expt",""
"","bandit","186","973912","0.0-147.0-0.0","55879531","wem/bandit_either_3","AHB3QFZSFN9DL","either","1","344","","","","","","","1","0","0","0.3995396385","","0.4","0.6","0.8","0.2","","","","","0.536018559","0.07659049968","0.3995396385","0.3053765494","","","","","","","","75","K","2","","","107","main_expt",""
"","bandit","187","975804","0.0-148.0-0.0","55879531","wem/bandit_either_3","AHB3QFZSFN9DL","either","1","326","","","","","","","0","0","1","","0.3855926336","0.4","0.6","0.8","0.2","0.3880888981","0.07827602418","0.3855926336","0.2732860947","","","","","","","","","","","","75","K","2","","","108","main_expt",""
"","bandit","188","977684","0.0-149.0-0.0","55879531","wem/bandit_either_3","AHB3QFZSFN9DL","either","1","329","","","","","","","1","0","0","0.3059937163","","0.4","0.6","0.8","0.2","","","","","0.3675045314","0.1352418701","0.3059937163","0.2624197952","","","","","","","","75","K","2","","","109","main_expt",""
"","bandit","189","979501","0.0-150.0-0.0","55879531","wem/bandit_either_3","AHB3QFZSFN9DL","either","1","277","","","","","","","0","0","1","0.2752892785","","0.4","0.6","0.8","0.2","","","","","0.4560700489","0.1705666919","0.2752892785","0.3303210632","","","","","","","","75","K","2","","","110","main_expt",""
"","bandit","190","981249","0.0-151.0-0.0","55879531","wem/bandit_either_3","AHB3QFZSFN9DL","either","1","193","","","","","","","0","0","1","0.2202970635","","0.4","0.6","0.8","0.2","","","","","0.5366389876","0.2202970635","0.3038626008","0.3541452024","","","","","","","","74","J","1","","","111","main_expt",""
"","bandit","191","983035","0.0-152.0-0.0","55879531","wem/bandit_either_3","AHB3QFZSFN9DL","either","1","218","","","","","","","0","0","1","","0.5742054707","0.4","0.6","0.8","0.2","0.5742054707","0.2368742277","0.2308866464","0.4468573219","","","","","","","","","","","","72","H","0","img/none_selected.jpg","","112","main_expt",""
"","bandit","192","984971","0.0-153.0-0.0","55879531","wem/bandit_either_3","AHB3QFZSFN9DL","either","1","380","","","","","","","0","1","0","","0.5163231944","0.4","0.6","0.8","0.2","0.6014260319","0.2487241586","0.2420052043","0.5163231944","","","","","","","","","","","","76","L","3","","","113","main_expt",""
"","bandit","193","986787","0.0-154.0-0.0","55879531","wem/bandit_either_3","AHB3QFZSFN9DL","either","1","275","","","","","","","0","0","1","0.4064640458","","0.4","0.6","0.8","0.2","","","","","0.5398035654","0.238824581","0.3277817495","0.4064640458","","","","","","","","76","L","3","","","114","main_expt",""
"","bandit","194","988667","0.0-155.0-0.0","55879531","wem/bandit_either_3","AHB3QFZSFN9DL","either","1","331","","","","","","","1","0","0","0.4085425191","","0.4","0.6","0.8","0.2","","","","","0.5008208772","0.1480638281","0.3280884562","0.4085425191","","","","","","","","76","L","3","","","115","main_expt",""
"","bandit","195","990529","0.0-156.0-0.0","55879531","wem/bandit_either_3","AHB3QFZSFN9DL","either","1","300","","","","","","","0","0","1","","0.4412864427","0.4","0.6","0.8","0.2","0.4200837231","0.1246447603","0.4137256642","0.4412864427","","","","","","","","","","","","76","L","3","","","116","main_expt",""
"","bandit","196","992357","0.0-157.0-0.0","55879531","wem/bandit_either_3","AHB3QFZSFN9DL","either","1","266","","","","","","","1","0","0","0.5188885271","","0.4","0.6","0.8","0.2","","","","","0.4094987027","0.1308085784","0.372751341","0.5188885271","","","","","","","","76","L","3","","","117","main_expt",""
"","bandit","197","994170","0.0-158.0-0.0","55879531","wem/bandit_either_3","AHB3QFZSFN9DL","either","1","261","","","","","","","0","1","0","","0.5728151575","0.4","0.6","0.8","0.2","0.3862907493","0.09076242324","0.4225631273","0.5728151575","","","","","","","","","","","","76","L","3","","","118","main_expt",""
"","bandit","198","995987","0.0-159.0-0.0","55879531","wem/bandit_either_3","AHB3QFZSFN9DL","either","1","269","","","","","","","0","1","0","","0.5065624602","0.4","0.6","0.8","0.2","0.4437318585","0.09057925276","0.4188482812","0.5065624602","","","","","","","","","","","","76","L","3","","","119","main_expt",""
"","bandit","199","997785","0.0-160.0-0.0","55879531","wem/bandit_either_3","AHB3QFZSFN9DL","either","1","234","","","","","","","0","1","0","","0.4064427813","0.4","0.6","0.8","0.2","0.293469011","0.1288926122","0.3729077829","0.4064427813","","","","","","","","","","","","76","L","3","","","120","main_expt",""
"","bandit","200","999577","0.0-161.0-0.0","55879531","wem/bandit_either_3","AHB3QFZSFN9DL","either","1","232","","","","","","","0","1","0","","0.3948988447","0.4","0.6","0.8","0.2","0.2141601759","0.1479701512","0.3817262037","0.3948988447","","","","","","","","","","","","76","L","3","","","121","main_expt",""
"","bandit","201","1001436","0.0-162.0-0.0","55879531","wem/bandit_either_3","AHB3QFZSFN9DL","either","1","286","","","","","","","0","0","1","","0.316823658","0.4","0.6","0.8","0.2","0.2594293103","0.1663524813","0.3537210734","0.316823658","","","","","","","","","","","","76","L","3","","","122","main_expt",""
"","bandit","202","1003132","0.0-163.0-0.0","55879531","wem/bandit_either_3","AHB3QFZSFN9DL","either","1","120","","","","","","","0","0","1","","0.3045978244","0.4","0.6","0.8","0.2","0.1519240937","0.1993917655","0.3633727708","0.3045978244","","","","","","","","","","","","76","L","3","","","123","main_expt",""
"","bandit","203","1005431","0.0-164.0-0.0","55879531","wem/bandit_either_3","AHB3QFZSFN9DL","either","1","741","","","","","","","0","1","0","","0.2389028675","0.4","0.6","0.8","0.2","0.2311656533","0.2948689786","0.4139908316","0.2389028675","","","","","","","","","","","","76","L","3","","","124","main_expt",""
"","bandit","204","1007359","0.0-165.0-0.0","55879531","wem/bandit_either_3","AHB3QFZSFN9DL","either","1","355","","","","","","","0","0","1","","0.2166803268","0.4","0.6","0.8","0.2","0.1956748967","0.4054398129","0.3619800754","0.2166803268","","","","","","","","","","","","76","L","3","","","125","main_expt",""
"","bandit","205","1009575","0.0-166.0-0.0","55879531","wem/bandit_either_3","AHB3QFZSFN9DL","either","1","664","","","","","","","0","0","1","","0.1613674106","0.4","0.6","0.8","0.2","0.1419383156","0.5337661481","0.353362548","0.1613674106","","","","","","","","","","","","76","L","3","","","126","main_expt",""
"","bandit","206","1011746","0.0-167.0-0.0","55879531","wem/bandit_either_3","AHB3QFZSFN9DL","either","1","607","","","","","","","0","0","1","","0.1682412955","0.4","0.6","0.8","0.2","0.1768105291","0.5510518781","0.2888217425","0.1682412955","","","","","","","","","","","","76","L","3","","","127","main_expt",""
"","bandit","207","1013605","0.0-168.0-0.0","55879531","wem/bandit_either_3","AHB3QFZSFN9DL","either","1","297","","","","","","","0","0","1","0.3131893798","","0.4","0.6","0.8","0.2","","","","","0.1187699492","0.4746642732","0.3131893798","0.1655910943","","","","","","","","75","K","2","","","128","main_expt",""
"","bandit","208","1015497","0.0-169.0-0.0","55879531","wem/bandit_either_3","AHB3QFZSFN9DL","either","1","344","","","","","","","1","0","0","0.5345142674","","0.4","0.6","0.8","0.2","","","","","0.1860330609","0.5345142674","0.2826861836","0.1845506081","","","","","","","","74","J","1","","","129","main_expt",""
"","bandit","209","1017344","0.0-170.0-0.0","55879531","wem/bandit_either_3","AHB3QFZSFN9DL","either","1","282","","","","","","","1","0","0","0.6617219445","","0.4","0.6","0.8","0.2","","","","","0.09722607165","0.6617219445","0.3434973012","0.1548240476","","","","","","","","74","J","1","","","130","main_expt",""
"","bandit","210","1019202","0.0-171.0-0.0","55879531","wem/bandit_either_3","AHB3QFZSFN9DL","either","1","289","","","","","","","1","0","0","0.6183560712","","0.4","0.6","0.8","0.2","","","","","0.05626421391","0.6183560712","0.3848082556","0.1503989","","","","","","","","74","J","1","","","131","main_expt",""
"","bandit","211","1021097","0.0-172.0-0.0","55879531","wem/bandit_either_3","AHB3QFZSFN9DL","either","1","331","","","","","","","1","0","0","0.7009512511","","0.4","0.6","0.8","0.2","","","","","0.1149854728","0.7009512511","0.4140069858","0.1199593994","","","","","","","","74","J","1","","","132","main_expt",""
"","bandit","212","1022820","0.0-173.0-0.0","55879531","wem/bandit_either_3","AHB3QFZSFN9DL","either","1","159","","","","","","","1","0","0","0.5838974895","","0.4","0.6","0.8","0.2","","","","","0.1698175541","0.5838974895","0.3745017877","0.1518383839","","","","","","","","74","J","1","","","133","main_expt",""
"","bandit","213","1024852","0.0-174.0-0.0","55879531","wem/bandit_either_3","AHB3QFZSFN9DL","either","1","461","","","","","","","1","0","0","0.6628563986","","0.4","0.6","0.8","0.2","","","","","0.1925371395","0.6628563986","0.3918835711","0.1855528241","","","","","","","","74","J","1","","","134","main_expt",""
"","bandit","214","1026759","0.0-175.0-0.0","55879531","wem/bandit_either_3","AHB3QFZSFN9DL","either","1","363","","","","","","","1","0","0","0.5610912218","","0.4","0.6","0.8","0.2","","","","","0.246136332","0.5610912218","0.3405764209","0.2187769305","","","","","","","","74","J","1","","","135","main_expt",""
"","bandit","215","1028683","0.0-176.0-0.0","55879531","wem/bandit_either_3","AHB3QFZSFN9DL","either","1","365","","","","","","","0","1","0","","0.4834649218","0.4","0.6","0.8","0.2","0.2277518718","0.4834649218","0.4155430462","0.2001534018","","","","","","","","","","","","74","J","1","","","136","main_expt",""
"","bandit","216","1030676","0.0-177.0-0.0","55879531","wem/bandit_either_3","AHB3QFZSFN9DL","either","1","418","","","","","","","0","1","0","","0.513072369","0.4","0.6","0.8","0.2","0.252962458","0.513072369","0.3389252929","0.176995917","","","","","","","","","","","","74","J","1","","","137","main_expt",""
"","bandit","217","1032651","0.0-178.0-0.0","55879531","wem/bandit_either_3","AHB3QFZSFN9DL","either","1","433","","","","","","","0","1","0","","0.5502636267","0.4","0.6","0.8","0.2","0.3018696236","0.5502636267","0.2698753193","0.1460019238","","","","","","","","","","","","74","J","1","","","138","main_expt",""
"","bandit","218","1034614","0.0-179.0-0.0","55879531","wem/bandit_either_3","AHB3QFZSFN9DL","either","1","434","","","","","","","1","0","0","0.4564922144","","0.4","0.6","0.8","0.2","","","","","0.347353107","0.4564922144","0.2821570394","0.06707115951","","","","","","","","74","J","1","","","139","main_expt",""
"","bandit","219","1036607","0.0-180.0-0.0","55879531","wem/bandit_either_3","AHB3QFZSFN9DL","either","1","434","","","","","","","1","0","0","0.4116013625","","0.4","0.6","0.8","0.2","","","","","0.2477375586","0.4116013625","0.3577533322","0.1071331831","","","","","","","","74","J","1","","","140","main_expt",""
"","bandit","220","1038511","0.0-181.0-0.0","55879531","wem/bandit_either_3","AHB3QFZSFN9DL","either","1","343","","","","","","","0","0","1","0.4498847811","","0.4","0.6","0.8","0.2","","","","","0.2880826197","0.4498847811","0.4250900652","0.1224459691","","","","","","","","74","J","1","","","141","main_expt",""
"","bandit","221","1040248","0.0-182.0-0.0","55879531","wem/bandit_either_3","AHB3QFZSFN9DL","either","1","180","","","","","","","1","0","0","0.4822150968","","0.4","0.6","0.8","0.2","","","","","0.2287108423","0.4822150968","0.3451055681","0.1127900777","","","","","","","","74","J","1","","","142","main_expt",""
"","bandit","222","1042127","0.0-183.0-0.0","55879531","wem/bandit_either_3","AHB3QFZSFN9DL","either","1","326","","","","","","","0","0","1","","0.513506041","0.4","0.6","0.8","0.2","0.2096850542","0.513506041","0.4661026996","0.1736101882","","","","","","","","","","","","74","J","1","","","143","main_expt",""
"","bandit","223","1043988","0.0-184.0-0.0","55879531","wem/bandit_either_3","AHB3QFZSFN9DL","either","1","292","","","","","","","1","0","0","0.556822441","","0.4","0.6","0.8","0.2","","","","","0.2214165798","0.556822441","0.4683168179","0.1231714597","","","","","","","","74","J","1","","","144","main_expt",""
"","bandit","224","1045890","0.0-185.0-0.0","55879531","wem/bandit_either_3","AHB3QFZSFN9DL","either","1","331","","","","","","","0","0","1","0.5633269006","","0.4","0.6","0.8","0.2","","","","","0.2412424024","0.5633269006","0.448697065","0.10514291","","","","","","","","74","J","1","","","145","main_expt",""
"","bandit","225","1047679","0.0-186.0-0.0","55879531","wem/bandit_either_3","AHB3QFZSFN9DL","either","1","225","","","","","","","1","0","0","0.6482805244","","0.4","0.6","0.8","0.2","","","","","0.1841611904","0.6482805244","0.4560677512","0.0972381369","","","","","","","","74","J","1","","","146","main_expt",""
"","bandit","226","1049559","0.0-187.0-0.0","55879531","wem/bandit_either_3","AHB3QFZSFN9DL","either","1","334","","","","","","","1","0","0","0.6036290043","","0.4","0.6","0.8","0.2","","","","","0.1577922033","0.6036290043","0.513472809","0.1897119627","","","","","","","","74","J","1","","","147","main_expt",""
"","bandit","227","1051454","0.0-188.0-0.0","55879531","wem/bandit_either_3","AHB3QFZSFN9DL","either","1","318","","","","","","","0","1","0","","0.6110248825","0.4","0.6","0.8","0.2","0.1663963597","0.6110248825","0.3820674583","0.1759094881","","","","","","","","","","","","74","J","1","","","148","main_expt",""
"","bandit","228","1053344","0.0-189.0-0.0","55879531","wem/bandit_either_3","AHB3QFZSFN9DL","either","1","345","","","","","","","0","0","1","","0.6453676348","0.4","0.6","0.8","0.2","0.319747154","0.6453676348","0.3116557105","0.2204336569","","","","","","","","","","","","74","J","1","","","149","main_expt",""
"","bandit","229","1055157","0.0-190.0-0.0","55879531","wem/bandit_either_3","AHB3QFZSFN9DL","either","1","233","","","","","","","0","0","1","","0.66235511","0.4","0.6","0.8","0.2","0.5410110608","0.66235511","0.3039338698","0.2328853871","","","","","","","","","","","","74","J","1","","","150","main_expt",""
"","bandit","230","1058206","0.0-191.0-0.0","55879531","wem/bandit_either_3","AHB3QFZSFN9DL","either","1","1483","","","","","","","1","0","0","0.5584745132","","0.4","0.6","0.8","0.2","","","","","0.5584745132","0.5547575852","0.3092958796","0.2652525627","","","","","","","","72","H","0","img/none_selected.jpg","","151","main_expt",""
"","bandit","231","1060080","0.0-192.0-0.0","55879531","wem/bandit_either_3","AHB3QFZSFN9DL","either","1","317","","","","","","","0","1","0","","0.5709378499","0.4","0.6","0.8","0.2","0.5709378499","0.5223098228","0.3097370874","0.2654363334","","","","","","","","","","","","72","H","0","img/none_selected.jpg","","152","main_expt",""
"","bandit","232","1062512","0.0-193.0-0.0","55879531","wem/bandit_either_3","AHB3QFZSFN9DL","either","1","867","","","","","","","0","0","1","","0.6314515046","0.4","0.6","0.8","0.2","0.6314515046","0.5137303037","0.2955649657","0.3505589273","","","","","","","","","","","","72","H","0","img/none_selected.jpg","","153","main_expt",""
"","bandit","233","1064545","0.0-194.0-0.0","55879531","wem/bandit_either_3","AHB3QFZSFN9DL","either","1","473","","","","","","","1","0","0","0.6734276465","","0.4","0.6","0.8","0.2","","","","","0.6734276465","0.5193194566","0.221553637","0.39889796","","","","","","","","72","H","0","img/none_selected.jpg","","154","main_expt",""
"","bandit","234","1066666","0.0-195.0-0.0","55879531","wem/bandit_either_3","AHB3QFZSFN9DL","either","1","549","","","","","","","0","1","0","","0.7019144477","0.4","0.6","0.8","0.2","0.7019144477","0.4736812385","0.2231547498","0.4202606707","","","","","","","","","","","","72","H","0","img/none_selected.jpg","","155","main_expt",""
"","bandit","235","1068784","0.0-196.0-0.0","55879531","wem/bandit_either_3","AHB3QFZSFN9DL","either","1","551","","","","","","","0","0","1","","0.6695455193","0.4","0.6","0.8","0.2","0.6695455193","0.4616442501","0.2750957943","0.4814159609","","","","","","","","","","","","72","H","0","img/none_selected.jpg","","156","main_expt",""
"","bandit","236","1071127","0.0-197.0-0.0","55879531","wem/bandit_either_3","AHB3QFZSFN9DL","either","1","776","","","","","","","1","0","0","0.6179864128","","0.4","0.6","0.8","0.2","","","","","0.6179864128","0.5025740222","0.2005793054","0.5316807058","","","","","","","","72","H","0","img/none_selected.jpg","","157","main_expt",""
"","bandit","237","1073049","0.0-198.0-0.0","55879531","wem/bandit_either_3","AHB3QFZSFN9DL","either","1","354","","","","","","","0","0","1","","0.7380689997","0.4","0.6","0.8","0.2","0.7380689997","0.4548105643","0.2502080146","0.5429668589","","","","","","","","","","","","72","H","0","img/none_selected.jpg","","158","main_expt",""
"","bandit","238","1074987","0.0-199.0-0.0","55879531","wem/bandit_either_3","AHB3QFZSFN9DL","either","1","378","","","","","","","0","1","0","","0.7632184112","0.4","0.6","0.8","0.2","0.7632184112","0.4622667215","0.2729805177","0.5991419929","","","","","","","","","","","","72","H","0","img/none_selected.jpg","","159","main_expt",""
"","bandit","239","1076874","0.0-200.0-0.0","55879531","wem/bandit_either_3","AHB3QFZSFN9DL","either","1","330","","","","","","","0","1","0","","0.6917664031","0.4","0.6","0.8","0.2","0.6917664031","0.4600517474","0.2801697818","0.6480894682","","","","","","","","","","","","72","H","0","img/none_selected.jpg","","160","main_expt",""
"","bandit","240","1078939","0.0-201.0-0.0","55879531","wem/bandit_either_3","AHB3QFZSFN9DL","either","1","534","","","","","","","0","1","0","","0.7106531984","0.4","0.6","0.8","0.2","0.7106531984","0.481388234","0.2437938608","0.6776161973","","","","","","","","","","","","72","H","0","img/none_selected.jpg","","161","main_expt",""
"","bandit","241","1081298","0.0-202.0-0.0","55879531","wem/bandit_either_3","AHB3QFZSFN9DL","either","1","788","","","","","","","0","0","1","0.809310282","","0.4","0.6","0.8","0.2","","","","","0.809310282","0.3850106192","0.2687553501","0.7134031715","","","","","","","","72","H","0","img/none_selected.jpg","","162","main_expt",""
"","bandit","242","1083513","0.0-203.0-0.0","55879531","wem/bandit_either_3","AHB3QFZSFN9DL","either","1","644","","","","","","","1","0","0","0.7492875705","","0.4","0.6","0.8","0.2","","","","","0.7492875705","0.3498723973","0.245991677","0.6215635068","","","","","","","","72","H","0","img/none_selected.jpg","","163","main_expt",""
"","bandit","243","1085636","0.0-204.0-0.0","55879531","wem/bandit_either_3","AHB3QFZSFN9DL","either","1","558","","","","","","","0","1","0","","0.7561394707","0.4","0.6","0.8","0.2","0.7561394707","0.4287417444","0.270385563","0.5219240024","","","","","","","","","","","","72","H","0","img/none_selected.jpg","","164","main_expt",""
"","bandit","244","1087634","0.0-205.0-0.0","55879531","wem/bandit_either_3","AHB3QFZSFN9DL","either","1","438","","","","","","","0","1","0","","0.8111415702","0.4","0.6","0.8","0.2","0.8111415702","0.3150145745","0.3037855967","0.4727302842","","","","","","","","","","","","72","H","0","img/none_selected.jpg","","165","main_expt",""
"","bandit","245","1089567","0.0-206.0-0.0","55879531","wem/bandit_either_3","AHB3QFZSFN9DL","either","1","382","","","","","","","1","0","0","0.7759938205","","0.4","0.6","0.8","0.2","","","","","0.7759938205","0.2927018344","0.3395577104","0.5181018645","","","","","","","","72","H","0","img/none_selected.jpg","","166","main_expt",""
"","bandit","246","1091485","0.0-207.0-0.0","55879531","wem/bandit_either_3","AHB3QFZSFN9DL","either","1","348","","","","","","","1","0","0","0.8267633335","","0.4","0.6","0.8","0.2","","","","","0.8267633335","0.3610256338","0.3443901906","0.5280433419","","","","","","","","72","H","0","img/none_selected.jpg","","167","main_expt",""
"","bandit","247","1093604","0.0-208.0-0.0","55879531","wem/bandit_either_3","AHB3QFZSFN9DL","either","1","554","","","","","","","0","0","1","0.8136073627","","0.4","0.6","0.8","0.2","","","","","0.8136073627","0.3137127159","0.2552323567","0.5470010145","","","","","","","","72","H","0","img/none_selected.jpg","","168","main_expt",""
"","bandit","248","1095734","0.0-209.0-0.0","55879531","wem/bandit_either_3","AHB3QFZSFN9DL","either","1","579","","","","","","","1","0","0","0.7308533614","","0.4","0.6","0.8","0.2","","","","","0.7308533614","0.2292796242","0.289352286","0.5558845962","","","","","","","","72","H","0","img/none_selected.jpg","","169","main_expt",""
"","bandit","249","1097922","0.0-210.0-0.0","55879531","wem/bandit_either_3","AHB3QFZSFN9DL","either","1","640","","","","","","","0","1","0","","0.7090730391","0.4","0.6","0.8","0.2","0.7090730391","0.221948569","0.2262743404","0.5799309324","","","","","","","","","","","","72","H","0","img/none_selected.jpg","","170","main_expt",""
"","bandit","250","1100112","0.0-211.0-0.0","55879531","wem/bandit_either_3","AHB3QFZSFN9DL","either","1","622","","","","","","","1","0","0","0.7229684446","","0.4","0.6","0.8","0.2","","","","","0.7229684446","0.159615594","0.2644351609","0.6643953266","","","","","","","","72","H","0","img/none_selected.jpg","","171","main_expt",""
"","bandit","251","1102311","0.0-212.0-0.0","55879531","wem/bandit_either_3","AHB3QFZSFN9DL","either","1","628","","","","","","","0","1","0","","0.6612043244","0.4","0.6","0.8","0.2","0.6612043244","0.1303854457","0.4136296373","0.7610666705","","","","","","","","","","","","72","H","0","img/none_selected.jpg","","172","main_expt",""
"","bandit","252","1104304","0.0-213.0-0.0","55879531","wem/bandit_either_3","AHB3QFZSFN9DL","either","1","435","","","","","","","0","1","0","","0.7669021743","0.4","0.6","0.8","0.2","0.7669021743","0.07729024622","0.491318492","0.8006149786","","","","","","","","","","","","72","H","0","img/none_selected.jpg","","173","main_expt",""
"","bandit","253","1106267","0.0-214.0-0.0","55879531","wem/bandit_either_3","AHB3QFZSFN9DL","either","1","393","","","","","","","1","0","0","0.8111867287","","0.4","0.6","0.8","0.2","","","","","0.8111867287","0.1227026474","0.4966763124","0.791095403","","","","","","","","72","H","0","img/none_selected.jpg","","174","main_expt",""
"","bandit","254","1108206","0.0-215.0-0.0","55879531","wem/bandit_either_3","AHB3QFZSFN9DL","either","1","374","","","","","","","0","1","0","","0.8192498968","0.4","0.6","0.8","0.2","0.8192498968","0.09483306355","0.5109350621","0.8572088762","","","","","","","","","","","","72","H","0","img/none_selected.jpg","","175","main_expt",""
"","bandit","255","1110585","0.0-216.0-0.0","55879531","wem/bandit_either_3","AHB3QFZSFN9DL","either","1","823","","","","","","","0","1","0","","0.8371283275","0.4","0.6","0.8","0.2","0.8371283275","0.143069758","0.6321295754","0.8576080684","","","","","","","","","","","","72","H","0","img/none_selected.jpg","","176","main_expt",""
"","bandit","256","1112648","0.0-217.0-0.0","55879531","wem/bandit_either_3","AHB3QFZSFN9DL","either","1","478","","","","","","","0","0","1","0.8545140947","","0.4","0.6","0.8","0.2","","","","","0.8545140947","0.1741656422","0.5515755996","0.8678158231","","","","","","","","72","H","0","img/none_selected.jpg","","177","main_expt",""
"","bandit","257","1114559","0.0-218.0-0.0","55879531","wem/bandit_either_3","AHB3QFZSFN9DL","either","1","338","","","","","","","0","1","0","","0.8794893657","0.4","0.6","0.8","0.2","0.8794893657","0.1904086474","0.5086275016","0.8820542777","","","","","","","","","","","","72","H","0","img/none_selected.jpg","","178","main_expt",""
"","bandit","258","1116573","0.0-219.0-0.0","55879531","wem/bandit_either_3","AHB3QFZSFN9DL","either","1","423","","","","","","","1","0","0","0.8939587296","","0.4","0.6","0.8","0.2","","","","","0.8939587296","0.1778905233","0.5215192908","0.8907334788","","","","","","","","72","H","0","img/none_selected.jpg","","179","main_expt",""
"","bandit","259","1118607","0.0-220.0-0.0","55879531","wem/bandit_either_3","AHB3QFZSFN9DL","either","1","452","","","","","","","0","1","0","","0.868077767","0.4","0.6","0.8","0.2","0.868077767","0.2112817454","0.5193414217","0.9161653667","","","","","","","","","","","","72","H","0","img/none_selected.jpg","","180","main_expt",""
"","bandit","260","1120526","0.0-221.0-0.0","55879531","wem/bandit_either_3","AHB3QFZSFN9DL","either","1","353","","","","","","","0","1","0","","0.9295405476","0.4","0.6","0.8","0.2","0.9295405476","0.2236312472","0.4613460131","0.9327112184","","","","","","","","","","","","72","H","0","img/none_selected.jpg","","181","main_expt",""
"","bandit","261","1123116","0.0-222.0-0.0","55879531","wem/bandit_either_3","AHB3QFZSFN9DL","either","1","1041","","","","","","","1","0","0","0.9213574857","","0.4","0.6","0.8","0.2","","","","","0.9213574857","0.264467441","0.4468633868","0.9284398706","","","","","","","","72","H","0","img/none_selected.jpg","","182","main_expt",""
"","bandit","262","1125817","0.0-223.0-0.0","55879531","wem/bandit_either_3","AHB3QFZSFN9DL","either","1","1125","","","","","","","1","0","0","0.9374560388","","0.4","0.6","0.8","0.2","","","","","0.9374560388","0.2240632979","0.4985091709","0.89591471","","","","","","","","72","H","0","img/none_selected.jpg","","183","main_expt",""
"","bandit","263","1127832","0.0-224.0-0.0","55879531","wem/bandit_either_3","AHB3QFZSFN9DL","either","1","467","","","","","","","0","1","0","","0.9120054929","0.4","0.6","0.8","0.2","0.9120054929","0.1671404848","0.6057575335","0.9146434193","","","","","","","","","","","","72","H","0","img/none_selected.jpg","","184","main_expt",""
"","bandit","264","1129972","0.0-225.0-0.0","55879531","wem/bandit_either_3","AHB3QFZSFN9DL","either","1","568","","","","","","","0","1","0","","0.8428471033","0.4","0.6","0.8","0.2","0.8428471033","0.1932257563","0.4915456485","0.8575823977","","","","","","","","","","","","72","H","0","img/none_selected.jpg","","185","main_expt",""
"","bandit","265","1132049","0.0-226.0-0.0","55879531","wem/bandit_either_3","AHB3QFZSFN9DL","either","1","519","","","","","","","0","0","1","0.7734335662","","0.4","0.6","0.8","0.2","","","","","0.7734335662","0.155472597","0.5976273718","0.8487952361","","","","","","","","72","H","0","img/none_selected.jpg","","186","main_expt",""
"","bandit","266","1134207","0.0-227.0-0.0","55879531","wem/bandit_either_3","AHB3QFZSFN9DL","either","1","588","","","","","","","0","1","0","","0.7667319261","0.4","0.6","0.8","0.2","0.7667319261","0.1895871356","0.5743595779","0.8603972339","","","","","","","","","","","","72","H","0","img/none_selected.jpg","","187","main_expt",""
"","bandit","267","1136261","0.0-228.0-0.0","55879531","wem/bandit_either_3","AHB3QFZSFN9DL","either","1","500","","","","","","","0","0","1","","0.5945875292","0.4","0.6","0.8","0.2","0.5945875292","0.2119556673","0.6833173747","0.8834510925","","","","","","","","","","","","72","H","0","img/none_selected.jpg","","188","main_expt",""
"","bandit","268","1138530","0.0-229.0-0.0","55879531","wem/bandit_either_3","AHB3QFZSFN9DL","either","1","690","","","","","","","0","1","0","","0.7406569186","0.4","0.6","0.8","0.2","0.7406569186","0.2255007403","0.651089354","0.8973947779","","","","","","","","","","","","72","H","0","img/none_selected.jpg","","189","main_expt",""
"","bandit","269","1140541","0.0-230.0-0.0","55879531","wem/bandit_either_3","AHB3QFZSFN9DL","either","1","446","","","","","","","1","0","0","0.7371931777","","0.4","0.6","0.8","0.2","","","","","0.7371931777","0.1754842532","0.6599652607","0.8824587855","","","","","","","","72","H","0","img/none_selected.jpg","","190","main_expt",""
"","bandit","270","1142714","0.0-231.0-0.0","55879531","wem/bandit_either_3","AHB3QFZSFN9DL","either","1","582","","","","","","","0","1","0","","0.7019705866","0.4","0.6","0.8","0.2","0.7019705866","0.1936311571","0.6960236584","0.9076431997","","","","","","","","","","","","72","H","0","img/none_selected.jpg","","191","main_expt",""
"","bandit","271","1144838","0.0-232.0-0.0","55879531","wem/bandit_either_3","AHB3QFZSFN9DL","either","1","553","","","","","","","1","0","0","0.6198122665","","0.4","0.6","0.8","0.2","","","","","0.6198122665","0.215612591","0.6713911156","0.8673165995","","","","","","","","72","H","0","img/none_selected.jpg","","192","main_expt",""
"","bandit","272","1146868","0.0-233.0-0.0","55879531","wem/bandit_either_3","AHB3QFZSFN9DL","either","1","445","","","","","","","0","0","1","0.6100930929","","0.4","0.6","0.8","0.2","","","","","0.6100930929","0.2818734505","0.7244072205","0.8264401474","","","","","","","","72","H","0","img/none_selected.jpg","","193","main_expt",""
"","bandit","273","1148838","0.0-234.0-0.0","55879531","wem/bandit_either_3","AHB3QFZSFN9DL","either","1","422","","","","","","","0","0","1","0.6332739585","","0.4","0.6","0.8","0.2","","","","","0.6332739585","0.3616108755","0.7397798508","0.8546086414","","","","","","","","72","H","0","img/none_selected.jpg","","194","main_expt",""
"","bandit","274","1151368","0.0-235.0-0.0","55879531","wem/bandit_either_3","AHB3QFZSFN9DL","either","1","955","","","","","","","0","1","0","","0.7914914872","0.4","0.6","0.8","0.2","0.609207161","0.3979961615","0.7602069811","0.7914914872","","","","","","","","","","","","76","L","3","","","195","main_expt",""
"","bandit","275","1153266","0.0-236.0-0.0","55879531","wem/bandit_either_3","AHB3QFZSFN9DL","either","1","343","","","","","","","0","0","1","","0.7608346536","0.4","0.6","0.8","0.2","0.6560649547","0.4366641927","0.7114092524","0.7608346536","","","","","","","","","","","","76","L","3","","","196","main_expt",""
"","bandit","276","1155181","0.0-237.0-0.0","55879531","wem/bandit_either_3","AHB3QFZSFN9DL","either","1","366","","","","","","","0","1","0","","0.7003784325","0.4","0.6","0.8","0.2","0.6656533059","0.560782874","0.6917424169","0.7003784325","","","","","","","","","","","","76","L","3","","","197","main_expt",""
"","bandit","277","1157191","0.0-238.0-0.0","55879531","wem/bandit_either_3","AHB3QFZSFN9DL","either","1","451","","","","","","","0","1","0","","0.6036075577","0.4","0.6","0.8","0.2","0.6841747727","0.5649388288","0.6561069913","0.6036075577","","","","","","","","","","","","76","L","3","","","198","main_expt",""
"","bandit","278","1159131","0.0-239.0-0.0","55879531","wem/bandit_either_3","AHB3QFZSFN9DL","either","1","358","","","","","","","0","0","1","0.5843314555","","0.4","0.6","0.8","0.2","","","","","0.7105065455","0.5375892324","0.6948346643","0.5843314555","","","","","","","","76","L","3","","","199","main_expt",""
"","bandit","279","1161050","0.0-240.0-0.0","55879531","wem/bandit_either_3","AHB3QFZSFN9DL","either","1","352","","","","","","","0","0","1","0.539414212","","0.4","0.6","0.8","0.2","","","","","0.7380433654","0.5625167851","0.7369743936","0.539414212","","","","","","","","76","L","3","","","200","main_expt",""
"","bandit","280","1162934","0.0-241.0-0.0","55879531","wem/bandit_either_3","AHB3QFZSFN9DL","either","1","332","","","","","","","1","0","0","0.8347268415","","0.4","0.6","0.8","0.2","","","","","0.6432951689","0.6266810217","0.8347268415","0.3774065742","","","","","","","","75","K","2","","","201","main_expt",""
"","bandit","281","1164854","0.0-242.0-0.0","55879531","wem/bandit_either_3","AHB3QFZSFN9DL","either","1","352","","","","","","","1","0","0","0.7612264534","","0.4","0.6","0.8","0.2","","","","","0.4995879772","0.6661075828","0.7612264534","0.2824615609","","","","","","","","75","K","2","","","202","main_expt",""
"","bandit","282","1166684","0.0-243.0-0.0","55879531","wem/bandit_either_3","AHB3QFZSFN9DL","either","1","266","","","","","","","1","0","0","0.6904596671","","0.4","0.6","0.8","0.2","","","","","0.4767352753","0.7534099026","0.6904596671","0.210170224","","","","","","","","75","K","2","","","203","main_expt",""
"","bandit","283","1168533","0.0-244.0-0.0","55879531","wem/bandit_either_3","AHB3QFZSFN9DL","either","1","272","","","","","","","0","0","1","","0.6855485072","0.4","0.6","0.8","0.2","0.3680612217","0.7033522103","0.6855485072","0.2708138581","","","","","","","","","","","","75","K","2","","","204","main_expt",""
"","bandit","284","1170405","0.0-245.0-0.0","55879531","wem/bandit_either_3","AHB3QFZSFN9DL","either","1","316","","","","","","","0","0","1","","0.7006332368","0.4","0.6","0.8","0.2","0.3404512965","0.6105989365","0.7006332368","0.3319820794","","","","","","","","","","","","75","K","2","","","205","main_expt",""
"","bandit","285","1172172","0.0-246.0-0.0","55879531","wem/bandit_either_3","AHB3QFZSFN9DL","either","1","213","","","","","","","1","0","0","0.725137222","","0.4","0.6","0.8","0.2","","","","","0.2774568564","0.725137222","0.7533130943","0.3517339603","","","","","","","","74","J","1","","","206","main_expt",""
"","bandit","286","1173990","0.0-247.0-0.0","55879531","wem/bandit_either_3","AHB3QFZSFN9DL","either","1","250","","","","","","","0","0","1","","0.5888984072","0.4","0.6","0.8","0.2","0.2228883469","0.5888984072","0.7191760557","0.2871079035","","","","","","","","","","","","74","J","1","","","207","main_expt",""
"","bandit","287","1175854","0.0-248.0-0.0","55879531","wem/bandit_either_3","AHB3QFZSFN9DL","either","1","293","","","","","","","0","1","0","","0.4650323514","0.4","0.6","0.8","0.2","0.2829247412","0.4650323514","0.6264293856","0.2642306377","","","","","","","","","","","","74","J","1","","","208","main_expt",""
"","bandit","288","1177748","0.0-249.0-0.0","55879531","wem/bandit_either_3","AHB3QFZSFN9DL","either","1","325","","","","","","","0","0","1","","0.4100719568","0.4","0.6","0.8","0.2","0.3169104167","0.4100719568","0.6500478562","0.3587725811","","","","","","","","","","","","74","J","1","","","209","main_expt",""
"","bandit","289","1179592","0.0-250.0-0.0","55879531","wem/bandit_either_3","AHB3QFZSFN9DL","either","1","280","","","","","","","0","0","1","0.5177296744","","0.4","0.6","0.8","0.2","","","","","0.2090062306","0.5177296744","0.6498865343","0.3103342645","","","","","","","","74","J","1","","","210","main_expt",""
"","bandit","290","1181330","0.0-251.0-0.0","55879531","wem/bandit_either_3","AHB3QFZSFN9DL","either","1","174","","","","","","","0","1","0","","0.1481662818","0.4","0.6","0.8","0.2","0.1481662818","0.5950812693","0.6056301442","0.3760595068","","","","","","","","","","","","72","H","0","img/none_selected.jpg","","211","main_expt",""
"","bandit","291","1183206","0.0-252.0-0.0","55879531","wem/bandit_either_3","AHB3QFZSFN9DL","either","1","303","","","","","","","0","0","1","","0.2114888193","0.4","0.6","0.8","0.2","0.2114888193","0.7169745983","0.5524844402","0.447023013","","","","","","","","","","","","72","H","0","img/none_selected.jpg","","212","main_expt",""
"","bandit","292","1185067","0.0-253.0-0.0","55879531","wem/bandit_either_3","AHB3QFZSFN9DL","either","1","308","","","","","","","0","0","1","0.2234642754","","0.4","0.6","0.8","0.2","","","","","0.2234642754","0.6766124197","0.6984249358","0.4529182837","","","","","","","","72","H","0","img/none_selected.jpg","","213","main_expt",""
"","bandit","293","1186989","0.0-254.0-0.0","55879531","wem/bandit_either_3","AHB3QFZSFN9DL","either","1","364","","","","","","","0","1","0","","0.4306534983","0.4","0.6","0.8","0.2","0.2315139555","0.8005648136","0.5996975418","0.4306534983","","","","","","","","","","","","76","L","3","","","214","main_expt",""
"","bandit","294","1188857","0.0-255.0-0.0","55879531","wem/bandit_either_3","AHB3QFZSFN9DL","either","1","312","","","","","","","0","0","1","","0.4314469479","0.4","0.6","0.8","0.2","0.1949488974","0.8487964291","0.6067129047","0.4314469479","","","","","","","","","","","","76","L","3","","","215","main_expt",""
"","bandit","295","1190702","0.0-256.0-0.0","55879531","wem/bandit_either_3","AHB3QFZSFN9DL","either","1","301","","","","","","","0","0","1","","0.45439575","0.4","0.6","0.8","0.2","0.2333303883","0.8674123454","0.6297976658","0.45439575","","","","","","","","","","","","76","L","3","","","216","main_expt",""
"","bandit","296","1192513","0.0-257.0-0.0","55879531","wem/bandit_either_3","AHB3QFZSFN9DL","either","1","257","","","","","","","1","0","0","0.6095272491","","0.4","0.6","0.8","0.2","","","","","0.2027763819","0.8774404243","0.6095272491","0.5228861726","","","","","","","","75","K","2","","","217","main_expt",""
"","bandit","297","1194345","0.0-258.0-0.0","55879531","wem/bandit_either_3","AHB3QFZSFN9DL","either","1","273","","","","","","","1","0","0","0.7058099393","","0.4","0.6","0.8","0.2","","","","","0.1895874514","0.8836448068","0.7058099393","0.463703458","","","","","","","","75","K","2","","","218","main_expt",""
"","bandit","298","1196207","0.0-259.0-0.0","55879531","wem/bandit_either_3","AHB3QFZSFN9DL","either","1","293","","","","","","","1","0","0","0.7396246451","","0.4","0.6","0.8","0.2","","","","","0.1537120117","0.880498508","0.7396246451","0.4522864467","","","","","","","","75","K","2","","","219","main_expt",""
"","bandit","299","1198074","0.0-260.0-0.0","55879531","wem/bandit_either_3","AHB3QFZSFN9DL","either","1","293","","","","","","","1","0","0","0.7091968036","","0.4","0.6","0.8","0.2","","","","","0.2022747423","0.8740874997","0.7091968036","0.4561576612","","","","","","","","75","K","2","","","220","main_expt",""
"","bandit","300","1199853","0.0-261.0-0.0","55879531","wem/bandit_either_3","AHB3QFZSFN9DL","either","1","224","","","","","","","0","0","1","0.7116308873","","0.4","0.6","0.8","0.2","","","","","0.3174413427","0.8527830905","0.7116308873","0.4264657168","","","","","","","","75","K","2","","","221","main_expt",""
"","bandit","301","1201626","0.0-262.0-0.0","55879531","wem/bandit_either_3","AHB3QFZSFN9DL","either","1","191","","","","","","","0","1","0","","0.769465391","0.4","0.6","0.8","0.2","0.2315667073","0.7717907476","0.769465391","0.3055141729","","","","","","","","","","","","75","K","2","","","222","main_expt",""
"","bandit","302","1203563","0.0-263.0-0.0","55879531","wem/bandit_either_3","AHB3QFZSFN9DL","either","1","356","","","","","","","1","0","0","0.7509006974","","0.4","0.6","0.8","0.2","","","","","0.2261006122","0.8359700354","0.7509006974","0.2868954791","","","","","","","","75","K","2","","","223","main_expt",""
"","bandit","303","1205281","0.0-264.0-0.0","55879531","wem/bandit_either_3","AHB3QFZSFN9DL","either","1","150","","","","","","","1","0","0","0.7007688409","","0.4","0.6","0.8","0.2","","","","","0.2662378096","0.819670806","0.7007688409","0.2698185242","","","","","","","","75","K","2","","","224","main_expt",""
"","bandit","304","1207240","0.0-265.0-0.0","55879531","wem/bandit_either_3","AHB3QFZSFN9DL","either","1","380","","","","","","","1","0","0","0.7409020096","","0.4","0.6","0.8","0.2","","","","","0.2163280173","0.8512382749","0.7409020096","0.213842325","","","","","","","","75","K","2","","","225","main_expt",""
"","bandit","305","1209094","0.0-266.0-0.0","55879531","wem/bandit_either_3","AHB3QFZSFN9DL","either","1","301","","","","","","","0","0","1","","0.7052945704","0.4","0.6","0.8","0.2","0.2809353625","0.8342861847","0.7052945704","0.1616408491","","","","","","","","","","","","75","K","2","","","226","main_expt",""
"","bandit","306","1210651","0.0-267.0-0.0","55879531","wem/bandit_either_3","AHB3QFZSFN9DL","either","1","7","","","","","","","0","0","1","0.606091252","","0.4","0.6","0.8","0.2","","","","","0.2396571279","0.7736041865","0.606091252","0.1777599287","","","","","","","","75","K","2","","","227","main_expt",""
"","bandit","307","1212391","0.0-268.0-0.0","55879531","wem/bandit_either_3","AHB3QFZSFN9DL","either","1","142","","","","","","","0","1","0","","0.8094350608","0.4","0.6","0.8","0.2","0.3430446928","0.8094350608","0.5834203199","0.2866543064","","","","","","","","","","","","74","J","1","","","228","main_expt",""
"","bandit","308","1214160","0.0-269.0-0.0","55879531","wem/bandit_either_3","AHB3QFZSFN9DL","either","1","191","","","","","","","0","0","1","0.8078722129","","0.4","0.6","0.8","0.2","","","","","0.2886233194","0.8078722129","0.5466214007","0.3948293382","","","","","","","","74","J","1","","","229","main_expt",""
"","bandit","309","1215983","0.0-270.0-0.0","55879531","wem/bandit_either_3","AHB3QFZSFN9DL","either","1","260","","","","","","","0","0","1","0.7719043616","","0.4","0.6","0.8","0.2","","","","","0.3213731463","0.7719043616","0.5519014059","0.3291786684","","","","","","","","74","J","1","","","230","main_expt",""
"","bandit","310","1217721","0.0-271.0-0.0","55879531","wem/bandit_either_3","AHB3QFZSFN9DL","either","1","160","","","","","","","0","0","1","0.2771614906","","0.4","0.6","0.8","0.2","","","","","0.2771614906","0.8049264475","0.4527164215","0.2378236032","","","","","","","","72","H","0","img/none_selected.jpg","","231","main_expt",""
"","bandit","311","1219621","0.0-272.0-0.0","55879531","wem/bandit_either_3","AHB3QFZSFN9DL","either","1","345","","","","","","","1","0","0","0.2249105956","","0.4","0.6","0.8","0.2","","","","","0.2249105956","0.8850589997","0.5135082398","0.246393804","","","","","","","","72","H","0","img/none_selected.jpg","","232","main_expt",""
"","bandit","312","1221465","0.0-273.0-0.0","55879531","wem/bandit_either_3","AHB3QFZSFN9DL","either","1","277","","","","","","","0","0","1","","0.2447973041","0.4","0.6","0.8","0.2","0.2447973041","0.9183615156","0.5502454751","0.2141634692","","","","","","","","","","","","72","H","0","img/none_selected.jpg","","233","main_expt",""
"","bandit","313","1223338","0.0-274.0-0.0","55879531","wem/bandit_either_3","AHB3QFZSFN9DL","either","1","289","","","","","","","0","0","1","","0.24601643","0.4","0.6","0.8","0.2","0.24601643","0.9639410842","0.3783923662","0.2876436191","","","","","","","","","","","","72","H","0","img/none_selected.jpg","","234","main_expt",""
"","bandit","314","1225051","0.0-275.0-0.0","55879531","wem/bandit_either_3","AHB3QFZSFN9DL","either","1","160","","","","","","","0","0","1","","0.2769077257","0.4","0.6","0.8","0.2","0.1629844561","0.9697187448","0.2814299379","0.2769077257","","","","","","","","","","","","76","L","3","","","235","main_expt",""
"","bandit","315","1226900","0.0-276.0-0.0","55879531","wem/bandit_either_3","AHB3QFZSFN9DL","either","1","301","","","","","","","0","0","1","0.3106100538","","0.4","0.6","0.8","0.2","","","","","0.1929455839","0.9571573523","0.3106100538","0.136865198","","","","","","","","75","K","2","","","236","main_expt",""
"","bandit","316","1228780","0.0-277.0-0.0","55879531","wem/bandit_either_3","AHB3QFZSFN9DL","either","1","302","","","","","","","1","0","0","0.9170696074","","0.4","0.6","0.8","0.2","","","","","0.1497712966","0.9170696074","0.3152445528","0.1123790732","","","","","","","","74","J","1","","","237","main_expt",""
"","bandit","317","1230578","0.0-278.0-0.0","55879531","wem/bandit_either_3","AHB3QFZSFN9DL","either","1","223","","","","","","","1","0","0","0.9207491077","","0.4","0.6","0.8","0.2","","","","","0.1526491196","0.9207491077","0.2637175197","0.09027024906","","","","","","","","74","J","1","","","238","main_expt",""
"","bandit","318","1232483","0.0-279.0-0.0","55879531","wem/bandit_either_3","AHB3QFZSFN9DL","either","1","323","","","","","","","1","0","0","0.9211301165","","0.4","0.6","0.8","0.2","","","","","0.1745924244","0.9211301165","0.1889878372","0.08323179304","","","","","","","","74","J","1","","","239","main_expt",""
"","bandit","319","1234247","0.0-280.0-0.0","55879531","wem/bandit_either_3","AHB3QFZSFN9DL","either","1","200","","","","","","","1","0","0","0.8992774771","","0.4","0.6","0.8","0.2","","","","","0.1159399908","0.8992774771","0.1710885746","0.08130265934","","","","","","","","74","J","1","","","240","main_expt",""
"","bandit","320","1236052","0.0-281.0-0.0","55879531","wem/bandit_either_3","AHB3QFZSFN9DL","either","1","235","","","","","","","1","0","0","0.8977441673","","0.4","0.6","0.8","0.2","","","","","0.1682101231","0.8977441673","0.1232632504","0.1424736114","","","","","","","","74","J","1","","","241","main_expt",""
"","bandit","321","1237872","0.0-282.0-0.0","55879531","wem/bandit_either_3","AHB3QFZSFN9DL","either","1","262","","","","","","","0","1","0","","0.853076495","0.4","0.6","0.8","0.2","0.1643169396","0.853076495","0.210295675","0.2433221762","","","","","","","","","","","","74","J","1","","","242","main_expt",""
"","bandit","322","1239700","0.0-283.0-0.0","55879531","wem/bandit_either_3","AHB3QFZSFN9DL","either","1","261","","","","","","","0","1","0","","0.8942427246","0.4","0.6","0.8","0.2","0.1355776028","0.8942427246","0.289349801","0.3185073654","","","","","","","","","","","","74","J","1","","","243","main_expt",""
