"consent","trial_type","trial_index","time_elapsed","internal_node_id","subjID","study","MID","cond","drift","rt","responses","key_press","expt_phase","like","value","connected","gems","bombs","no_reward","GemPrChosen","BombPrChosen","GainOverPainPr_0","GainOverPainPr_1","GainOverPainPr_2","GainOverPainPr_3","LosePr_0","LosePr_1","LosePr_2","LosePr_3","WinPr_0","WinPr_1","WinPr_2","WinPr_3","Q0","Q1","Q2","gender","age","ethnicity","target","respCharCode","respKey","respChoiceNum","respChoice","practice","trial_counter","trial_label","button_pressed"
"INL_behavioral_consent_30min_online.html","consent","0","11003","0.0-0.0","57075887","wem/bandit_either_3","A2KTFRPDBM635X","either","7","","","","","","","","","","","","","","","","","","","","","","","","","","","","","","","","","","","","","","",""
"","survey-text","1","15387","0.0-1.0","57075887","wem/bandit_either_3","A2KTFRPDBM635X","either","7","3377","{""Q0"":""A2KTFRPDBM635X""}","","","","","","","","","","","","","","","","","","","","","","","","","","","","","","","","","","","","",""
"","text","2","26181","0.0-2.0","57075887","wem/bandit_either_3","A2KTFRPDBM635X","either","7","9791","","32","","","","","","","","","","","","","","","","","","","","","","","","","","","","","","","","","","","",""
"","text","3","33126","0.0-3.0","57075887","wem/bandit_either_3","A2KTFRPDBM635X","either","7","6943","","32","","","","","","","","","","","","","","","","","","","","","","","","","","","","","","","","","","","",""
"","text","4","51535","0.0-4.0","57075887","wem/bandit_either_3","A2KTFRPDBM635X","either","7","18408","","32","","","","","","","","","","","","","","","","","","","","","","","","","","","","","","","","","","","",""
"","text","5","65124","0.0-5.0","57075887","wem/bandit_either_3","A2KTFRPDBM635X","either","7","13587","","32","","","","","","","","","","","","","","","","","","","","","","","","","","","","","","","","","","","",""
"","text","6","82788","0.0-6.0","57075887","wem/bandit_either_3","A2KTFRPDBM635X","either","7","17662","","32","","","","","","","","","","","","","","","","","","","","","","","","","","","","","","","","","","","",""
"","text","7","88864","0.0-7.0","57075887","wem/bandit_either_3","A2KTFRPDBM635X","either","7","6074","","32","","","","","","","","","","","","","","","","","","","","","","","","","","","","","","","","","","","",""
"","text","8","93384","0.0-8.0","57075887","wem/bandit_either_3","A2KTFRPDBM635X","either","7","4516","","32","","","","","","","","","","","","","","","","","","","","","","","","","","","","","","","","","","","",""
"","identification","9","108142","0.0-9.0-0.0","57075887","wem/bandit_either_3","A2KTFRPDBM635X","either","7","14742","","","","3","5","5","","","","","","","","","","","","","","","","","","","","","","","","the village of Zur","","","","","","","",""
"","identification","10","113949","0.0-9.0-1.0","57075887","wem/bandit_either_3","A2KTFRPDBM635X","either","7","4782","","","","3","5","5","","","","","","","","","","","","","","","","","","","","","","","","the village of Nyx","","","","","","","",""
"","text","11","120623","0.0-10.0","57075887","wem/bandit_either_3","A2KTFRPDBM635X","either","7","5671","","32","","","","","","","","","","","","","","","","","","","","","","","","","","","","","","","","","","","",""
"","text","12","123335","0.0-11.0","57075887","wem/bandit_either_3","A2KTFRPDBM635X","either","7","2710","","32","","","","","","","","","","","","","","","","","","","","","","","","","","","","","","","","","","","",""
"","text","13","125231","0.0-12.0","57075887","wem/bandit_either_3","A2KTFRPDBM635X","either","7","1892","","32","","","","","","","","","","","","","","","","","","","","","","","","","","","","","","","","","","","",""
"","text","14","129833","0.0-13.0","57075887","wem/bandit_either_3","A2KTFRPDBM635X","either","7","4600","","32","","","","","","","","","","","","","","","","","","","","","","","","","","","","","","","","","","","",""
"","bandit","15","133175","0.0-14.0-0.0","57075887","wem/bandit_either_3","A2KTFRPDBM635X","either","7","1831","","","","","","","0","0","1","0","0","","","","","0","","","","0","","","","","","","","","","","74","J","0","img/none_selected_demo.jpg","true","0","",""
"","bandit","16","135670","0.0-15.0-0.0","57075887","wem/bandit_either_3","A2KTFRPDBM635X","either","7","984","","","","","","","0","0","1","0","0","","","","","0","","","","0","","","","","","","","","","","75","K","0","img/none_selected_demo.jpg","true","0","",""
"","text","17","146701","0.0-16.0","57075887","wem/bandit_either_3","A2KTFRPDBM635X","either","7","11029","","32","","","","","","","","","","","","","","","","","","","","","","","","","","","","","","","","","","","",""
"","text","18","154558","0.0-17.0","57075887","wem/bandit_either_3","A2KTFRPDBM635X","either","7","7854","","32","","","","","","","","","","","","","","","","","","","","","","","","","","","","","","","","","","","",""
"","text","19","159894","0.0-18.0","57075887","wem/bandit_either_3","A2KTFRPDBM635X","either","7","5334","","32","","","","","","","","","","","","","","","","","","","","","","","","","","","","","","","","","","","",""
"","text","20","162723","0.0-19.0","57075887","wem/bandit_either_3","A2KTFRPDBM635X","either","7","2827","","32","","","","","","","","","","","","","","","","","","","","","","","","","","","","","","","","","","","",""
"","bandit","21","165467","0.0-20.0-0.0","57075887","wem/bandit_either_3","A2KTFRPDBM635X","either","7","1239","","","","","","","0","0","1","","0.2","0.5","0.5","","","0.8","0.2","","","","","","","","","","","","","","75","K","1","","true","0","80_20_practice",""
"","bandit","22","167766","0.0-20.0-1.0","57075887","wem/bandit_either_3","A2KTFRPDBM635X","either","7","792","","","","","","","1","0","0","0.8","","0.5","0.5","","","","","","","0.8","0.2","","","","","","","","","","74","J","0","img/none_selected_demo.jpg","true","0","80_20_practice",""
"","bandit","23","170265","0.0-20.0-2.0","57075887","wem/bandit_either_3","A2KTFRPDBM635X","either","7","987","","","","","","","1","0","0","0.8","","0.5","0.5","","","","","","","0.8","0.2","","","","","","","","","","74","J","0","img/none_selected_demo.jpg","true","0","80_20_practice",""
"","bandit","24","172705","0.0-20.0-3.0","57075887","wem/bandit_either_3","A2KTFRPDBM635X","either","7","932","","","","","","","0","0","1","","0.8","0.5","0.5","","","0.8","0.2","","","","","","","","","","","","","","74","J","0","img/none_selected_demo.jpg","true","0","80_20_practice",""
"","bandit","25","175215","0.0-20.0-4.0","57075887","wem/bandit_either_3","A2KTFRPDBM635X","either","7","1002","","","","","","","1","0","0","0.2","","0.5","0.5","","","","","","","0.8","0.2","","","","","","","","","","75","K","1","","true","0","80_20_practice",""
"","bandit","26","177536","0.0-20.0-5.0","57075887","wem/bandit_either_3","A2KTFRPDBM635X","either","7","811","","","","","","","0","0","1","0.2","","0.5","0.5","","","","","","","0.8","0.2","","","","","","","","","","75","K","1","","true","0","80_20_practice",""
"","bandit","27","179437","0.0-20.0-6.0","57075887","wem/bandit_either_3","A2KTFRPDBM635X","either","7","396","","","","","","","0","1","0","","0.8","0.5","0.5","","","0.8","0.2","","","","","","","","","","","","","","74","J","0","img/none_selected_demo.jpg","true","0","80_20_practice",""
"","bandit","28","181481","0.0-20.0-7.0","57075887","wem/bandit_either_3","A2KTFRPDBM635X","either","7","537","","","","","","","1","0","0","0.8","","0.5","0.5","","","","","","","0.8","0.2","","","","","","","","","","74","J","0","img/none_selected_demo.jpg","true","0","80_20_practice",""
"","bandit","29","183400","0.0-20.0-8.0","57075887","wem/bandit_either_3","A2KTFRPDBM635X","either","7","411","","","","","","","1","0","0","0.8","","0.5","0.5","","","","","","","0.8","0.2","","","","","","","","","","74","J","0","img/none_selected_demo.jpg","true","0","80_20_practice",""
"","bandit","30","185587","0.0-20.0-9.0","57075887","wem/bandit_either_3","A2KTFRPDBM635X","either","7","674","","","","","","","0","1","0","","0.8","0.5","0.5","","","0.8","0.2","","","","","","","","","","","","","","74","J","0","img/none_selected_demo.jpg","true","0","80_20_practice",""
"","bandit","31","187586","0.0-20.0-10.0","57075887","wem/bandit_either_3","A2KTFRPDBM635X","either","7","488","","","","","","","0","1","0","","0.8","0.5","0.5","","","0.8","0.2","","","","","","","","","","","","","","74","J","0","img/none_selected_demo.jpg","true","0","80_20_practice",""
"","bandit","32","189661","0.0-20.0-11.0","57075887","wem/bandit_either_3","A2KTFRPDBM635X","either","7","566","","","","","","","1","0","0","0.8","","0.5","0.5","","","","","","","0.8","0.2","","","","","","","","","","74","J","0","img/none_selected_demo.jpg","true","0","80_20_practice",""
"","bandit","33","191709","0.0-20.0-12.0","57075887","wem/bandit_either_3","A2KTFRPDBM635X","either","7","541","","","","","","","0","1","0","","0.8","0.5","0.5","","","0.8","0.2","","","","","","","","","","","","","","74","J","0","img/none_selected_demo.jpg","true","0","80_20_practice",""
"","bandit","34","194213","0.0-20.0-13.0","57075887","wem/bandit_either_3","A2KTFRPDBM635X","either","7","1000","","","","","","","0","1","0","","0.8","0.5","0.5","","","0.8","0.2","","","","","","","","","","","","","","74","J","0","img/none_selected_demo.jpg","true","0","80_20_practice",""
"","bandit","35","196078","0.0-20.0-14.0","57075887","wem/bandit_either_3","A2KTFRPDBM635X","either","7","356","","","","","","","1","0","0","0.8","","0.5","0.5","","","","","","","0.8","0.2","","","","","","","","","","74","J","0","img/none_selected_demo.jpg","true","0","80_20_practice",""
"","bandit","36","198134","0.0-20.0-15.0","57075887","wem/bandit_either_3","A2KTFRPDBM635X","either","7","543","","","","","","","1","0","0","0.8","","0.5","0.5","","","","","","","0.8","0.2","","","","","","","","","","74","J","0","img/none_selected_demo.jpg","true","0","80_20_practice",""
"","bandit","37","200487","0.0-20.0-16.0","57075887","wem/bandit_either_3","A2KTFRPDBM635X","either","7","845","","","","","","","0","0","1","0.8","","0.5","0.5","","","","","","","0.8","0.2","","","","","","","","","","74","J","0","img/none_selected_demo.jpg","true","0","80_20_practice",""
"","bandit","38","202310","0.0-20.0-17.0","57075887","wem/bandit_either_3","A2KTFRPDBM635X","either","7","314","","","","","","","1","0","0","0.8","","0.5","0.5","","","","","","","0.8","0.2","","","","","","","","","","74","J","0","img/none_selected_demo.jpg","true","0","80_20_practice",""
"","bandit","39","204534","0.0-20.0-18.0","57075887","wem/bandit_either_3","A2KTFRPDBM635X","either","7","715","","","","","","","1","0","0","0.8","","0.5","0.5","","","","","","","0.8","0.2","","","","","","","","","","74","J","0","img/none_selected_demo.jpg","true","0","80_20_practice",""
"","bandit","40","206503","0.0-20.0-19.0","57075887","wem/bandit_either_3","A2KTFRPDBM635X","either","7","463","","","","","","","0","0","1","0.2","","0.5","0.5","","","","","","","0.8","0.2","","","","","","","","","","75","K","1","","true","0","80_20_practice",""
"","text","41","212804","0.0-21.0","57075887","wem/bandit_either_3","A2KTFRPDBM635X","either","7","6299","","32","","","","","","","","","","","","","","","","","","","","","","","","","","","","","","","","","","","",""
"","bandit","42","216310","0.0-22.0-0.0","57075887","wem/bandit_either_3","A2KTFRPDBM635X","either","7","2000","","","","","","","1","0","0","1","0","","","","","0","1","","","1","0","","","","","","","","","","74","J","0","img/none_selected_demo.jpg","true","0","",""
"","text","43","225392","0.0-23.0","57075887","wem/bandit_either_3","A2KTFRPDBM635X","either","7","9076","","32","","","","","","","","","","","","","","","","","","","","","","","","","","","","","","","","","","","",""
"","text","44","228959","0.0-24.0","57075887","wem/bandit_either_3","A2KTFRPDBM635X","either","7","3565","","32","","","","","","","","","","","","","","","","","","","","","","","","","","","","","","","","","","","",""
"","text","45","231784","0.0-25.0","57075887","wem/bandit_either_3","A2KTFRPDBM635X","either","7","2823","","32","","","","","","","","","","","","","","","","","","","","","","","","","","","","","","","","","","","",""
"","text","46","235164","0.0-26.0","57075887","wem/bandit_either_3","A2KTFRPDBM635X","either","7","3376","","32","","","","","","","","","","","","","","","","","","","","","","","","","","","","","","","","","","","",""
"","text","47","249601","0.0-27.0","57075887","wem/bandit_either_3","A2KTFRPDBM635X","either","7","14434","","32","","","","","","","","","","","","","","","","","","","","","","","","","","","","","","","","","","","",""
"","text","48","255031","0.0-28.0","57075887","wem/bandit_either_3","A2KTFRPDBM635X","either","7","5426","","32","","","","","","","","","","","","","","","","","","","","","","","","","","","","","","","","","","","",""
"","text","49","258276","0.0-29.0","57075887","wem/bandit_either_3","A2KTFRPDBM635X","either","7","3241","","32","","","","","","","","","","","","","","","","","","","","","","","","","","","","","","","","","","","",""
"","text","50","260006","0.0-30.0","57075887","wem/bandit_either_3","A2KTFRPDBM635X","either","7","1727","","32","","","","","","","","","","","","","","","","","","","","","","","","","","","","","","","","","","","",""
"","text","51","262022","0.0-31.0","57075887","wem/bandit_either_3","A2KTFRPDBM635X","either","7","2012","","32","","","","","","","","","","","","","","","","","","","","","","","","","","","","","","","","","","","",""
"","text","52","264196","0.0-32.0","57075887","wem/bandit_either_3","A2KTFRPDBM635X","either","7","2171","","32","","","","","","","","","","","","","","","","","","","","","","","","","","","","","","","","","","","",""
"","text","53","267078","0.0-33.0","57075887","wem/bandit_either_3","A2KTFRPDBM635X","either","7","2879","","32","","","","","","","","","","","","","","","","","","","","","","","","","","","","","","","","","","","",""
"","bandit","54","270003","0.0-34.0-0.0","57075887","wem/bandit_either_3","A2KTFRPDBM635X","either","7","1414","","","","","","","1","0","0","0.8","","0.5","0.5","0.5","0.5","","","","","0.8","0.2","0.6","0.2","","","","","","","","72","H","0","img/none_selected.jpg","true","0","full_practice",""
"","bandit","55","272516","0.0-34.0-1.0","57075887","wem/bandit_either_3","A2KTFRPDBM635X","either","7","1002","","","","","","","0","0","1","","0.2","0.5","0.5","0.5","0.5","0.8","0.2","0.6","0.2","","","","","","","","","","","","74","J","1","","true","0","full_practice",""
"","bandit","56","274742","0.0-34.0-2.0","57075887","wem/bandit_either_3","A2KTFRPDBM635X","either","7","717","","","","","","","1","0","0","0.6","","0.5","0.5","0.5","0.5","","","","","0.8","0.2","0.6","0.2","","","","","","","","75","K","2","","true","0","full_practice",""
"","bandit","57","276918","0.0-34.0-3.0","57075887","wem/bandit_either_3","A2KTFRPDBM635X","either","7","668","","","","","","","0","0","1","0.2","","0.5","0.5","0.5","0.5","","","","","0.8","0.2","0.6","0.2","","","","","","","","76","L","3","","true","0","full_practice",""
"","bandit","58","278942","0.0-34.0-4.0","57075887","wem/bandit_either_3","A2KTFRPDBM635X","either","7","517","","","","","","","0","1","0","","0.6","0.5","0.5","0.5","0.5","0.8","0.2","0.6","0.2","","","","","","","","","","","","75","K","2","","true","0","full_practice",""
"","bandit","59","280945","0.0-34.0-5.0","57075887","wem/bandit_either_3","A2KTFRPDBM635X","either","7","495","","","","","","","1","0","0","0.6","","0.5","0.5","0.5","0.5","","","","","0.8","0.2","0.6","0.2","","","","","","","","75","K","2","","true","0","full_practice",""
"","bandit","60","282795","0.0-34.0-6.0","57075887","wem/bandit_either_3","A2KTFRPDBM635X","either","7","342","","","","","","","0","1","0","","0.6","0.5","0.5","0.5","0.5","0.8","0.2","0.6","0.2","","","","","","","","","","","","75","K","2","","true","0","full_practice",""
"","bandit","61","284557","0.0-34.0-7.0","57075887","wem/bandit_either_3","A2KTFRPDBM635X","either","7","251","","","","","","","0","0","1","0.8","","0.5","0.5","0.5","0.5","","","","","0.8","0.2","0.6","0.2","","","","","","","","72","H","0","img/none_selected.jpg","true","0","full_practice",""
"","bandit","62","286716","0.0-34.0-8.0","57075887","wem/bandit_either_3","A2KTFRPDBM635X","either","7","644","","","","","","","0","0","1","","0.6","0.5","0.5","0.5","0.5","0.8","0.2","0.6","0.2","","","","","","","","","","","","75","K","2","","true","0","full_practice",""
"","bandit","63","288588","0.0-34.0-9.0","57075887","wem/bandit_either_3","A2KTFRPDBM635X","either","7","364","","","","","","","1","0","0","0.6","","0.5","0.5","0.5","0.5","","","","","0.8","0.2","0.6","0.2","","","","","","","","75","K","2","","true","0","full_practice",""
"","bandit","64","290483","0.0-34.0-10.0","57075887","wem/bandit_either_3","A2KTFRPDBM635X","either","7","385","","","","","","","0","1","0","","0.6","0.5","0.5","0.5","0.5","0.8","0.2","0.6","0.2","","","","","","","","","","","","75","K","2","","true","0","full_practice",""
"","bandit","65","292512","0.0-34.0-11.0","57075887","wem/bandit_either_3","A2KTFRPDBM635X","either","7","522","","","","","","","0","0","1","0.2","","0.5","0.5","0.5","0.5","","","","","0.8","0.2","0.6","0.2","","","","","","","","74","J","1","","true","0","full_practice",""
"","bandit","66","294383","0.0-34.0-12.0","57075887","wem/bandit_either_3","A2KTFRPDBM635X","either","7","362","","","","","","","0","0","1","","0.2","0.5","0.5","0.5","0.5","0.8","0.2","0.6","0.2","","","","","","","","","","","","76","L","3","","true","0","full_practice",""
"","bandit","67","296108","0.0-34.0-13.0","57075887","wem/bandit_either_3","A2KTFRPDBM635X","either","7","210","","","","","","","1","0","0","0.8","","0.5","0.5","0.5","0.5","","","","","0.8","0.2","0.6","0.2","","","","","","","","72","H","0","img/none_selected.jpg","true","0","full_practice",""
"","bandit","68","298224","0.0-34.0-14.0","57075887","wem/bandit_either_3","A2KTFRPDBM635X","either","7","603","","","","","","","0","1","0","","0.6","0.5","0.5","0.5","0.5","0.8","0.2","0.6","0.2","","","","","","","","","","","","75","K","2","","true","0","full_practice",""
"","bandit","69","300599","0.0-34.0-15.0","57075887","wem/bandit_either_3","A2KTFRPDBM635X","either","7","862","","","","","","","1","0","0","0.6","","0.5","0.5","0.5","0.5","","","","","0.8","0.2","0.6","0.2","","","","","","","","75","K","2","","true","0","full_practice",""
"","bandit","70","302505","0.0-34.0-16.0","57075887","wem/bandit_either_3","A2KTFRPDBM635X","either","7","395","","","","","","","0","1","0","","0.6","0.5","0.5","0.5","0.5","0.8","0.2","0.6","0.2","","","","","","","","","","","","75","K","2","","true","0","full_practice",""
"","bandit","71","304532","0.0-34.0-17.0","57075887","wem/bandit_either_3","A2KTFRPDBM635X","either","7","520","","","","","","","0","0","1","0.6","","0.5","0.5","0.5","0.5","","","","","0.8","0.2","0.6","0.2","","","","","","","","75","K","2","","true","0","full_practice",""
"","bandit","72","306082","0.0-34.0-18.0","57075887","wem/bandit_either_3","A2KTFRPDBM635X","either","7","28","","","","","","","1","0","0","0.8","","0.5","0.5","0.5","0.5","","","","","0.8","0.2","0.6","0.2","","","","","","","","72","H","0","img/none_selected.jpg","true","0","full_practice",""
"","bandit","73","307908","0.0-34.0-19.0","57075887","wem/bandit_either_3","A2KTFRPDBM635X","either","7","318","","","","","","","0","1","0","","0.8","0.5","0.5","0.5","0.5","0.8","0.2","0.6","0.2","","","","","","","","","","","","72","H","0","img/none_selected.jpg","true","0","full_practice",""
"","text","74","311080","0.0-35.0","57075887","wem/bandit_either_3","A2KTFRPDBM635X","either","7","3164","","32","","","","","","","","","","","","","","","","","","","","","","","","","","","","","","","","","","","",""
"","text","75","323770","0.0-36.0","57075887","wem/bandit_either_3","A2KTFRPDBM635X","either","7","11682","","32","","","","","","","","","","","","","","","","","","","","","","","","","","","","","","","","","","","",""
"","text","76","334081","0.0-37.0","57075887","wem/bandit_either_3","A2KTFRPDBM635X","either","7","10308","","32","","","","","","","","","","","","","","","","","","","","","","","","","","","","","","","","","","","",""
"","text","77","339506","0.0-38.0","57075887","wem/bandit_either_3","A2KTFRPDBM635X","either","7","5422","","32","","","","","","","","","","","","","","","","","","","","","","","","","","","","","","","","","","","",""
"","text","78","343889","0.0-39.0","57075887","wem/bandit_either_3","A2KTFRPDBM635X","either","7","4379","","32","","","","","","","","","","","","","","","","","","","","","","","","","","","","","","","","","","","",""
"","text","79","347534","0.0-40.0","57075887","wem/bandit_either_3","A2KTFRPDBM635X","either","7","3637","","32","","","","","","","","","","","","","","","","","","","","","","","","","","","","","","","","","","","",""
"","bandit","80","350562","0.0-41.0-0.0","57075887","wem/bandit_either_3","A2KTFRPDBM635X","either","7","1519","","","","","","","0","0","1","0.1731741302","","0.4","0.6","0.8","0.2","","","","","0.1731741302","0.5514722813","0.7088318221","0.2888626749","","","","","","","","72","H","0","img/none_selected.jpg","","1","main_expt",""
"","bandit","81","352436","0.0-42.0-0.0","57075887","wem/bandit_either_3","A2KTFRPDBM635X","either","7","362","","","","","","","0","1","0","","0.5039303977","0.4","0.6","0.8","0.2","0.2874485847","0.5039303977","0.6292935488","0.3999538902","","","","","","","","","","","","74","J","1","","","2","main_expt",""
"","bandit","82","354828","0.0-43.0-0.0","57075887","wem/bandit_either_3","A2KTFRPDBM635X","either","7","882","","","","","","","0","1","0","","0.5285482983","0.4","0.6","0.8","0.2","0.2683250969","0.5527877924","0.5285482983","0.4126831114","","","","","","","","","","","","75","K","2","","","3","main_expt",""
"","bandit","83","356822","0.0-44.0-0.0","57075887","wem/bandit_either_3","A2KTFRPDBM635X","either","7","485","","","","","","","0","0","1","","0.3923803367","0.4","0.6","0.8","0.2","0.3988631097","0.6336700584","0.6744491701","0.3923803367","","","","","","","","","","","","76","L","3","","","4","main_expt",""
"","bandit","84","358628","0.0-45.0-0.0","57075887","wem/bandit_either_3","A2KTFRPDBM635X","either","7","295","","","","","","","0","1","0","","0.6340088104","0.4","0.6","0.8","0.2","0.3568799457","0.6340088104","0.7922285807","0.3803283439","","","","","","","","","","","","74","J","1","","","5","main_expt",""
"","bandit","85","360610","0.0-46.0-0.0","57075887","wem/bandit_either_3","A2KTFRPDBM635X","either","7","471","","","","","","","0","0","1","0.5784181907","","0.4","0.6","0.8","0.2","","","","","0.3188731731","0.5784181907","0.7459441126","0.4214296899","","","","","","","","74","J","1","","","6","main_expt",""
"","bandit","86","362565","0.0-47.0-0.0","57075887","wem/bandit_either_3","A2KTFRPDBM635X","either","7","445","","","","","","","1","0","0","0.7681481668","","0.4","0.6","0.8","0.2","","","","","0.4574196012","0.6727083857","0.7681481668","0.4755968838","","","","","","","","75","K","2","","","7","main_expt",""
"","bandit","87","364515","0.0-48.0-0.0","57075887","wem/bandit_either_3","A2KTFRPDBM635X","either","7","437","","","","","","","1","0","0","0.7251609313","","0.4","0.6","0.8","0.2","","","","","0.5037884951","0.7574508858","0.7251609313","0.5353568537","","","","","","","","75","K","2","","","8","main_expt",""
"","bandit","88","366428","0.0-49.0-0.0","57075887","wem/bandit_either_3","A2KTFRPDBM635X","either","7","406","","","","","","","1","0","0","0.7403055102","","0.4","0.6","0.8","0.2","","","","","0.5750013994","0.8280759311","0.7403055102","0.6246831942","","","","","","","","75","K","2","","","9","main_expt",""
"","bandit","89","368464","0.0-50.0-0.0","57075887","wem/bandit_either_3","A2KTFRPDBM635X","either","7","527","","","","","","","1","0","0","0.722944265","","0.4","0.6","0.8","0.2","","","","","0.5399040382","0.859726102","0.722944265","0.4475954046","","","","","","","","75","K","2","","","10","main_expt",""
"","bandit","90","370540","0.0-51.0-0.0","57075887","wem/bandit_either_3","A2KTFRPDBM635X","either","7","566","","","","","","","1","0","0","0.6833847698","","0.4","0.6","0.8","0.2","","","","","0.5181098662","0.877956501","0.6833847698","0.4514702697","","","","","","","","75","K","2","","","11","main_expt",""
"","bandit","91","372466","0.0-52.0-0.0","57075887","wem/bandit_either_3","A2KTFRPDBM635X","either","7","415","","","","","","","1","0","0","0.689227163","","0.4","0.6","0.8","0.2","","","","","0.5489165229","0.8883669707","0.689227163","0.4873058782","","","","","","","","75","K","2","","","12","main_expt",""
"","bandit","92","374312","0.0-53.0-0.0","57075887","wem/bandit_either_3","A2KTFRPDBM635X","either","7","337","","","","","","","1","0","0","0.5178623456","","0.4","0.6","0.8","0.2","","","","","0.6186986429","0.817149195","0.5178623456","0.4862469224","","","","","","","","75","K","2","","","13","main_expt",""
"","bandit","93","376347","0.0-54.0-0.0","57075887","wem/bandit_either_3","A2KTFRPDBM635X","either","7","522","","","","","","","0","0","1","","0.4768489018","0.4","0.6","0.8","0.2","0.4944095791","0.8589139609","0.4768489018","0.360908092","","","","","","","","","","","","75","K","2","","","14","main_expt",""
"","bandit","94","378196","0.0-55.0-0.0","57075887","wem/bandit_either_3","A2KTFRPDBM635X","either","7","336","","","","","","","1","0","0","0.5201849276","","0.4","0.6","0.8","0.2","","","","","0.4820951366","0.7955781648","0.5201849276","0.4126647893","","","","","","","","75","K","2","","","15","main_expt",""
"","bandit","95","380258","0.0-56.0-0.0","57075887","wem/bandit_either_3","A2KTFRPDBM635X","either","7","553","","","","","","","1","0","0","0.6862231469","","0.4","0.6","0.8","0.2","","","","","0.4888848296","0.8864445785","0.6862231469","0.4930686601","","","","","","","","75","K","2","","","16","main_expt",""
"","bandit","96","382071","0.0-57.0-0.0","57075887","wem/bandit_either_3","A2KTFRPDBM635X","either","7","305","","","","","","","1","0","0","0.7297328357","","0.4","0.6","0.8","0.2","","","","","0.381306026","0.8746062981","0.7297328357","0.5162343008","","","","","","","","75","K","2","","","17","main_expt",""
"","bandit","97","383863","0.0-58.0-0.0","57075887","wem/bandit_either_3","A2KTFRPDBM635X","either","7","280","","","","","","","0","1","0","","0.6686287009","0.4","0.6","0.8","0.2","0.3537135189","0.8910236512","0.6686287009","0.5627456494","","","","","","","","","","","","75","K","2","","","18","main_expt",""
"","bandit","98","385873","0.0-59.0-0.0","57075887","wem/bandit_either_3","A2KTFRPDBM635X","either","7","500","","","","","","","1","0","0","0.7885428456","","0.4","0.6","0.8","0.2","","","","","0.4891458502","0.8932054573","0.7885428456","0.4478227807","","","","","","","","75","K","2","","","19","main_expt",""
"","bandit","99","387970","0.0-60.0-0.0","57075887","wem/bandit_either_3","A2KTFRPDBM635X","either","7","579","","","","","","","1","0","0","0.7442236049","","0.4","0.6","0.8","0.2","","","","","0.5440957398","0.8900063933","0.7442236049","0.5306796692","","","","","","","","75","K","2","","","20","main_expt",""
"","bandit","100","389978","0.0-61.0-0.0","57075887","wem/bandit_either_3","A2KTFRPDBM635X","either","7","458","","","","","","","0","1","0","","0.7908218503","0.4","0.6","0.8","0.2","0.5621313733","0.8748704397","0.7908218503","0.5423611418","","","","","","","","","","","","75","K","2","","","21","main_expt",""
"","bandit","101","391970","0.0-62.0-0.0","57075887","wem/bandit_either_3","A2KTFRPDBM635X","either","7","480","","","","","","","0","1","0","","0.7163236006","0.4","0.6","0.8","0.2","0.5296345876","0.8498769136","0.7163236006","0.4190568807","","","","","","","","","","","","75","K","2","","","22","main_expt",""
"","bandit","102","393839","0.0-63.0-0.0","57075887","wem/bandit_either_3","A2KTFRPDBM635X","either","7","360","","","","","","","1","0","0","0.7061190667","","0.4","0.6","0.8","0.2","","","","","0.5187107172","0.8357449374","0.7061190667","0.4329937009","","","","","","","","75","K","2","","","23","main_expt",""
"","bandit","103","395488","0.0-64.0-0.0","57075887","wem/bandit_either_3","A2KTFRPDBM635X","either","7","139","","","","","","","0","0","1","","0.7470556917","0.4","0.6","0.8","0.2","0.6000521927","0.8431908073","0.7470556917","0.4298879426","","","","","","","","","","","","75","K","2","","","24","main_expt",""
"","bandit","104","397404","0.0-65.0-0.0","57075887","wem/bandit_either_3","A2KTFRPDBM635X","either","7","408","","","","","","","0","1","0","","0.8154180688","0.4","0.6","0.8","0.2","0.5443047256","0.8741885854","0.8154180688","0.2992323157","","","","","","","","","","","","75","K","2","","","25","main_expt",""
"","bandit","105","399159","0.0-66.0-0.0","57075887","wem/bandit_either_3","A2KTFRPDBM635X","either","7","242","","","","","","","0","0","1","","0.8395379789","0.4","0.6","0.8","0.2","0.592493964","0.8940719671","0.8395379789","0.3857263224","","","","","","","","","","","","75","K","2","","","26","main_expt",""
"","bandit","106","401721","0.0-67.0-0.0","57075887","wem/bandit_either_3","A2KTFRPDBM635X","either","7","1049","","","","","","","1","0","0","0.8733378856","","0.4","0.6","0.8","0.2","","","","","0.5779569403","0.8733378856","0.8023078409","0.3715251318","","","","","","","","74","J","1","","","27","main_expt",""
"","bandit","107","403569","0.0-68.0-0.0","57075887","wem/bandit_either_3","A2KTFRPDBM635X","either","7","333","","","","","","","0","1","0","","0.8695586723","0.4","0.6","0.8","0.2","0.7077223562","0.8695586723","0.8248968235","0.3387808014","","","","","","","","","","","","74","J","1","","","28","main_expt",""
"","bandit","108","405446","0.0-69.0-0.0","57075887","wem/bandit_either_3","A2KTFRPDBM635X","either","7","364","","","","","","","0","1","0","","0.7908290088","0.4","0.6","0.8","0.2","0.7070353494","0.7908290088","0.8621011303","0.3737397218","","","","","","","","","","","","74","J","1","","","29","main_expt",""
"","bandit","109","407821","0.0-70.0-0.0","57075887","wem/bandit_either_3","A2KTFRPDBM635X","either","7","867","","","","","","","1","0","0","0.8518997755","","0.4","0.6","0.8","0.2","","","","","0.6585428656","0.8518997755","0.8873668535","0.3232047389","","","","","","","","74","J","1","","","30","main_expt",""
"","bandit","110","409796","0.0-71.0-0.0","57075887","wem/bandit_either_3","A2KTFRPDBM635X","either","7","466","","","","","","","1","0","0","0.8509842625","","0.4","0.6","0.8","0.2","","","","","0.6724088618","0.8509842625","0.9318975106","0.4130267239","","","","","","","","74","J","1","","","31","main_expt",""
"","bandit","111","411720","0.0-72.0-0.0","57075887","wem/bandit_either_3","A2KTFRPDBM635X","either","7","403","","","","","","","1","0","0","0.872996121","","0.4","0.6","0.8","0.2","","","","","0.6416581209","0.872996121","0.9013609786","0.4167758813","","","","","","","","74","J","1","","","32","main_expt",""
"","bandit","112","413804","0.0-73.0-0.0","57075887","wem/bandit_either_3","A2KTFRPDBM635X","either","7","566","","","","","","","0","0","1","0.8571046391","","0.4","0.6","0.8","0.2","","","","","0.7055802426","0.8571046391","0.9041531295","0.4546052232","","","","","","","","74","J","1","","","33","main_expt",""
"","bandit","113","415614","0.0-74.0-0.0","57075887","wem/bandit_either_3","A2KTFRPDBM635X","either","7","296","","","","","","","1","0","0","0.9386104272","","0.4","0.6","0.8","0.2","","","","","0.7554114371","0.9175819521","0.9386104272","0.5231803088","","","","","","","","75","K","2","","","34","main_expt",""
"","bandit","114","417422","0.0-75.0-0.0","57075887","wem/bandit_either_3","A2KTFRPDBM635X","either","7","293","","","","","","","1","0","0","0.9180645683","","0.4","0.6","0.8","0.2","","","","","0.8008095759","0.9503165686","0.9180645683","0.4661188593","","","","","","","","75","K","2","","","35","main_expt",""
"","bandit","115","419042","0.0-76.0-0.0","57075887","wem/bandit_either_3","A2KTFRPDBM635X","either","7","110","","","","","","","0","1","0","","0.9095107155","0.4","0.6","0.8","0.2","0.6925109639","0.9327615424","0.9095107155","0.4106027186","","","","","","","","","","","","75","K","2","","","36","main_expt",""
"","bandit","116","420569","0.0-77.0-0.0","57075887","wem/bandit_either_3","A2KTFRPDBM635X","either","7","18","","","","","","","1","0","0","0.9405648028","","0.4","0.6","0.8","0.2","","","","","0.7764255689","0.9196494001","0.9405648028","0.5021263718","","","","","","","","75","K","2","","","37","main_expt",""
"","bandit","117","422419","0.0-78.0-0.0","57075887","wem/bandit_either_3","A2KTFRPDBM635X","either","7","333","","","","","","","1","0","0","0.9058459248","","0.4","0.6","0.8","0.2","","","","","0.8392953971","0.928530414","0.9058459248","0.5065313343","","","","","","","","75","K","2","","","38","main_expt",""
"","bandit","118","424264","0.0-79.0-0.0","57075887","wem/bandit_either_3","A2KTFRPDBM635X","either","7","323","","","","","","","1","0","0","0.8784462517","","0.4","0.6","0.8","0.2","","","","","0.7614495855","0.9001545702","0.8784462517","0.6098243774","","","","","","","","75","K","2","","","39","main_expt",""
"","bandit","119","426188","0.0-80.0-0.0","57075887","wem/bandit_either_3","A2KTFRPDBM635X","either","7","413","","","","","","","1","0","0","0.8408568766","","0.4","0.6","0.8","0.2","","","","","0.8060705796","0.8432481254","0.8408568766","0.679699592","","","","","","","","75","K","2","","","40","main_expt",""
"","bandit","120","427845","0.0-81.0-0.0","57075887","wem/bandit_either_3","A2KTFRPDBM635X","either","7","143","","","","","","","1","0","0","0.811342849","","0.4","0.6","0.8","0.2","","","","","0.7539991053","0.8326479564","0.811342849","0.616488607","","","","","","","","75","K","2","","","41","main_expt",""
"","bandit","121","429619","0.0-82.0-0.0","57075887","wem/bandit_either_3","A2KTFRPDBM635X","either","7","261","","","","","","","1","0","0","0.8058808774","","0.4","0.6","0.8","0.2","","","","","0.7717369324","0.8602810298","0.8058808774","0.6307104111","","","","","","","","75","K","2","","","42","main_expt",""
"","bandit","122","431162","0.0-83.0-0.0","57075887","wem/bandit_either_3","A2KTFRPDBM635X","either","7","33","","","","","","","1","0","0","0.7899844578","","0.4","0.6","0.8","0.2","","","","","0.7625968551","0.894365654","0.7899844578","0.554567591","","","","","","","","75","K","2","","","43","main_expt",""
"","bandit","123","433836","0.0-84.0-0.0","57075887","wem/bandit_either_3","A2KTFRPDBM635X","either","7","1162","","","","","","","0","0","1","0.7654486741","","0.4","0.6","0.8","0.2","","","","","0.8488621298","0.9033664713","0.7654486741","0.5281861223","","","","","","","","75","K","2","","","44","main_expt",""
"","bandit","124","435702","0.0-85.0-0.0","57075887","wem/bandit_either_3","A2KTFRPDBM635X","either","7","351","","","","","","","0","1","0","","0.8829964613","0.4","0.6","0.8","0.2","0.8522077325","0.8829964613","0.7674111825","0.5043334007","","","","","","","","","","","","74","J","1","","","45","main_expt",""
"","bandit","125","437213","0.0-86.0-0.0","57075887","wem/bandit_either_3","A2KTFRPDBM635X","either","7","2","","","","","","","0","0","1","","0.8674694879","0.4","0.6","0.8","0.2","0.8618589195","0.8674694879","0.6301273516","0.5426256613","","","","","","","","","","","","74","J","1","","","46","main_expt",""
"","bandit","126","439065","0.0-87.0-0.0","57075887","wem/bandit_either_3","A2KTFRPDBM635X","either","7","340","","","","","","","1","0","0","0.8886720039","","0.4","0.6","0.8","0.2","","","","","0.905897833","0.8886720039","0.7885969413","0.5024796093","","","","","","","","74","J","1","","","47","main_expt",""
"","bandit","127","441249","0.0-88.0-0.0","57075887","wem/bandit_either_3","A2KTFRPDBM635X","either","7","673","","","","","","","1","0","0","0.9229902905","","0.4","0.6","0.8","0.2","","","","","0.8929468812","0.9229902905","0.7983786211","0.4689138593","","","","","","","","74","J","1","","","48","main_expt",""
"","bandit","128","443278","0.0-89.0-0.0","57075887","wem/bandit_either_3","A2KTFRPDBM635X","either","7","512","","","","","","","1","0","0","0.9141434128","","0.4","0.6","0.8","0.2","","","","","0.854905512","0.9141434128","0.8249867574","0.4439560463","","","","","","","","74","J","1","","","49","main_expt",""
"","bandit","129","445363","0.0-90.0-0.0","57075887","wem/bandit_either_3","A2KTFRPDBM635X","either","7","569","","","","","","","0","1","0","","0.9181160336","0.4","0.6","0.8","0.2","0.8363103738","0.9181160336","0.7532301684","0.4079842927","","","","","","","","","","","","74","J","1","","","50","main_expt",""
"","bandit","130","447401","0.0-91.0-0.0","57075887","wem/bandit_either_3","A2KTFRPDBM635X","either","7","524","","","","","","","1","0","0","0.9266489825","","0.4","0.6","0.8","0.2","","","","","0.7168506975","0.9266489825","0.6750909554","0.4675199832","","","","","","","","74","J","1","","","51","main_expt",""
"","bandit","131","449296","0.0-92.0-0.0","57075887","wem/bandit_either_3","A2KTFRPDBM635X","either","7","384","","","","","","","1","0","0","0.9285581488","","0.4","0.6","0.8","0.2","","","","","0.6507986152","0.9285581488","0.6762079337","0.4368052975","","","","","","","","74","J","1","","","52","main_expt",""
"","bandit","132","451306","0.0-93.0-0.0","57075887","wem/bandit_either_3","A2KTFRPDBM635X","either","7","495","","","","","","","0","0","1","","0.9171724481","0.4","0.6","0.8","0.2","0.6531867096","0.9171724481","0.7882030045","0.4967902672","","","","","","","","","","","","74","J","1","","","53","main_expt",""
"","bandit","133","452835","0.0-94.0-0.0","57075887","wem/bandit_either_3","A2KTFRPDBM635X","either","7","12","","","","","","","1","0","0","0.8759533557","","0.4","0.6","0.8","0.2","","","","","0.6178049746","0.8709862684","0.8759533557","0.5321533453","","","","","","","","75","K","2","","","54","main_expt",""
"","bandit","134","454670","0.0-95.0-0.0","57075887","wem/bandit_either_3","A2KTFRPDBM635X","either","7","325","","","","","","","1","0","0","0.9307112091","","0.4","0.6","0.8","0.2","","","","","0.5501477499","0.9016108676","0.9307112091","0.593251847","","","","","","","","75","K","2","","","55","main_expt",""
"","bandit","135","456716","0.0-96.0-0.0","57075887","wem/bandit_either_3","A2KTFRPDBM635X","either","7","528","","","","","","","1","0","0","0.9486344027","","0.4","0.6","0.8","0.2","","","","","0.5181914202","0.9123335035","0.9486344027","0.602347159","","","","","","","","75","K","2","","","56","main_expt",""
"","bandit","136","458273","0.0-97.0-0.0","57075887","wem/bandit_either_3","A2KTFRPDBM635X","either","7","43","","","","","","","1","0","0","0.9450559811","","0.4","0.6","0.8","0.2","","","","","0.5052283364","0.9338523698","0.9450559811","0.736851976","","","","","","","","75","K","2","","","57","main_expt",""
"","bandit","137","460068","0.0-98.0-0.0","57075887","wem/bandit_either_3","A2KTFRPDBM635X","either","7","281","","","","","","","0","1","0","","0.960587128","0.4","0.6","0.8","0.2","0.4494585665","0.9023069914","0.960587128","0.7112026436","","","","","","","","","","","","75","K","2","","","58","main_expt",""
"","bandit","138","461955","0.0-99.0-0.0","57075887","wem/bandit_either_3","A2KTFRPDBM635X","either","7","374","","","","","","","0","0","1","0.9272570312","","0.4","0.6","0.8","0.2","","","","","0.4431029696","0.903153386","0.9272570312","0.7605469626","","","","","","","","75","K","2","","","59","main_expt",""
"","bandit","139","463858","0.0-100.0-0.0","57075887","wem/bandit_either_3","A2KTFRPDBM635X","either","7","392","","","","","","","1","0","0","0.9075075979","","0.4","0.6","0.8","0.2","","","","","0.4213069188","0.8975643475","0.9075075979","0.6504737249","","","","","","","","75","K","2","","","60","main_expt",""
"","bandit","140","465724","0.0-101.0-0.0","57075887","wem/bandit_either_3","A2KTFRPDBM635X","either","7","351","","","","","","","0","1","0","","0.9011961695","0.4","0.6","0.8","0.2","0.4735464544","0.8455107238","0.9011961695","0.7417300409","","","","","","","","","","","","75","K","2","","","61","main_expt",""
"","bandit","141","467624","0.0-102.0-0.0","57075887","wem/bandit_either_3","A2KTFRPDBM635X","either","7","383","","","","","","","1","0","0","0.9025442902","","0.4","0.6","0.8","0.2","","","","","0.4260239588","0.8423106617","0.9025442902","0.6889655243","","","","","","","","75","K","2","","","62","main_expt",""
"","bandit","142","469414","0.0-103.0-0.0","57075887","wem/bandit_either_3","A2KTFRPDBM635X","either","7","279","","","","","","","1","0","0","0.900711875","","0.4","0.6","0.8","0.2","","","","","0.4048641732","0.6997676278","0.900711875","0.7532165261","","","","","","","","75","K","2","","","63","main_expt",""
"","bandit","143","471217","0.0-104.0-0.0","57075887","wem/bandit_either_3","A2KTFRPDBM635X","either","7","294","","","","","","","1","0","0","0.8445511995","","0.4","0.6","0.8","0.2","","","","","0.261135461","0.8033841581","0.8445511995","0.7614619666","","","","","","","","75","K","2","","","64","main_expt",""
"","bandit","144","473058","0.0-105.0-0.0","57075887","wem/bandit_either_3","A2KTFRPDBM635X","either","7","323","","","","","","","1","0","0","0.7838665633","","0.4","0.6","0.8","0.2","","","","","0.4398785507","0.8458775523","0.7838665633","0.7474824059","","","","","","","","75","K","2","","","65","main_expt",""
"","bandit","145","474567","0.0-106.0-0.0","57075887","wem/bandit_either_3","A2KTFRPDBM635X","either","7","0","","","","","","","0","1","0","","0.8399866527","0.4","0.6","0.8","0.2","0.4549930047","0.8612648572","0.8399866527","0.7083026918","","","","","","","","","","","","75","K","2","","","66","main_expt",""
"","bandit","146","476599","0.0-107.0-0.0","57075887","wem/bandit_either_3","A2KTFRPDBM635X","either","7","516","","","","","","","1","0","0","0.9109535201","","0.4","0.6","0.8","0.2","","","","","0.5565794079","0.8686018104","0.9109535201","0.6535093674","","","","","","","","75","K","2","","","67","main_expt",""
"","bandit","147","478547","0.0-108.0-0.0","57075887","wem/bandit_either_3","A2KTFRPDBM635X","either","7","430","","","","","","","1","0","0","0.9064065477","","0.4","0.6","0.8","0.2","","","","","0.4211802827","0.8693437115","0.9064065477","0.4923739087","","","","","","","","75","K","2","","","68","main_expt",""
"","bandit","148","480718","0.0-109.0-0.0","57075887","wem/bandit_either_3","A2KTFRPDBM635X","either","7","660","","","","","","","1","0","0","0.9315833469","","0.4","0.6","0.8","0.2","","","","","0.3687693293","0.9168970181","0.9315833469","0.4898097669","","","","","","","","75","K","2","","","69","main_expt",""
"","bandit","149","483451","0.0-110.0-0.0","57075887","wem/bandit_either_3","A2KTFRPDBM635X","either","7","1216","","","","","","","1","0","0","0.9393923483","","0.4","0.6","0.8","0.2","","","","","0.3460903474","0.9293527272","0.9393923483","0.4369614599","","","","","","","","75","K","2","","","70","main_expt",""
"","bandit","150","485213","0.0-111.0-0.0","57075887","wem/bandit_either_3","A2KTFRPDBM635X","either","7","243","","","","","","","1","0","0","0.9568343035","","0.4","0.6","0.8","0.2","","","","","0.3278112836","0.949087413","0.9568343035","0.5031037484","","","","","","","","75","K","2","","","71","main_expt",""
"","bandit","151","486977","0.0-112.0-0.0","57075887","wem/bandit_either_3","A2KTFRPDBM635X","either","7","255","","","","","","","1","0","0","0.947758434","","0.4","0.6","0.8","0.2","","","","","0.2720469766","0.906373323","0.947758434","0.5397903688","","","","","","","","75","K","2","","","72","main_expt",""
"","bandit","152","489306","0.0-113.0-0.0","57075887","wem/bandit_either_3","A2KTFRPDBM635X","either","7","818","","","","","","","1","0","0","0.93965919","","0.4","0.6","0.8","0.2","","","","","0.2451019773","0.93965919","0.9052010222","0.5540652028","","","","","","","","74","J","1","","","73","main_expt",""
"","bandit","153","491495","0.0-114.0-0.0","57075887","wem/bandit_either_3","A2KTFRPDBM635X","either","7","677","","","","","","","0","1","0","","0.9416319858","0.4","0.6","0.8","0.2","0.2645862521","0.9416319858","0.927704936","0.61733434","","","","","","","","","","","","74","J","1","","","74","main_expt",""
"","bandit","154","493893","0.0-115.0-0.0","57075887","wem/bandit_either_3","A2KTFRPDBM635X","either","7","889","","","","","","","1","0","0","0.8769567517","","0.4","0.6","0.8","0.2","","","","","0.2298582","0.9535384208","0.8769567517","0.6341908543","","","","","","","","75","K","2","","","75","main_expt",""
"","bandit","155","496579","0.0-116.0-0.0","57075887","wem/bandit_either_3","A2KTFRPDBM635X","either","7","1174","","","","","","","1","0","0","0.9585479729","","0.4","0.6","0.8","0.2","","","","","0.3460043445","0.9585479729","0.8456064169","0.6355577018","","","","","","","","74","J","1","","","76","main_expt",""
"","bandit","156","498671","0.0-117.0-0.0","57075887","wem/bandit_either_3","A2KTFRPDBM635X","either","7","583","","","","","","","0","0","1","","0.8325595713","0.4","0.6","0.8","0.2","0.2526488818","0.9610253773","0.8325595713","0.7055426269","","","","","","","","","","","","75","K","2","","","77","main_expt",""
"","bandit","157","500697","0.0-118.0-0.0","57075887","wem/bandit_either_3","A2KTFRPDBM635X","either","7","506","","","","","","","0","0","1","0.2625396382","","0.4","0.6","0.8","0.2","","","","","0.2625396382","0.9580320452","0.9128982172","0.6137882531","","","","","","","","72","H","0","img/none_selected.jpg","","78","main_expt",""
"","bandit","158","503165","0.0-119.0-0.0","57075887","wem/bandit_either_3","A2KTFRPDBM635X","either","7","958","","","","","","","1","0","0","0.9403834825","","0.4","0.6","0.8","0.2","","","","","0.2957535945","0.9403834825","0.9213349282","0.668392527","","","","","","","","74","J","1","","","79","main_expt",""
"","bandit","159","505388","0.0-120.0-0.0","57075887","wem/bandit_either_3","A2KTFRPDBM635X","either","7","709","","","","","","","1","0","0","0.946171157","","0.4","0.6","0.8","0.2","","","","","0.1831261498","0.946171157","0.8935563746","0.7457361895","","","","","","","","74","J","1","","","80","main_expt",""
"","bandit","160","506909","0.0-121.0-0.0","57075887","wem/bandit_either_3","A2KTFRPDBM635X","either","7","2","","","","","","","1","0","0","0.9800092583","","0.4","0.6","0.8","0.2","","","","","0.1450659425","0.9800092583","0.932831263","0.8028050151","","","","","","","","74","J","1","","","81","main_expt",""
"","bandit","161","508861","0.0-122.0-0.0","57075887","wem/bandit_either_3","A2KTFRPDBM635X","either","7","441","","","","","","","1","0","0","0.9666397243","","0.4","0.6","0.8","0.2","","","","","0.1486641529","0.9666397243","0.9403650082","0.8727424511","","","","","","","","74","J","1","","","82","main_expt",""
"","bandit","162","510825","0.0-123.0-0.0","57075887","wem/bandit_either_3","A2KTFRPDBM635X","either","7","455","","","","","","","1","0","0","0.9637330664","","0.4","0.6","0.8","0.2","","","","","0.1567811066","0.9637330664","0.9066396881","0.8283068274","","","","","","","","74","J","1","","","83","main_expt",""
"","bandit","163","512834","0.0-124.0-0.0","57075887","wem/bandit_either_3","A2KTFRPDBM635X","either","7","502","","","","","","","0","0","1","","0.9617949183","0.4","0.6","0.8","0.2","0.196091916","0.9617949183","0.8962006295","0.8030064341","","","","","","","","","","","","74","J","1","","","84","main_expt",""
"","bandit","164","514872","0.0-125.0-0.0","57075887","wem/bandit_either_3","A2KTFRPDBM635X","either","7","522","","","","","","","0","1","0","","0.9561985801","0.4","0.6","0.8","0.2","0.1512390112","0.9561985801","0.9093999993","0.8622567251","","","","","","","","","","","","74","J","1","","","85","main_expt",""
"","bandit","165","517647","0.0-126.0-0.0","57075887","wem/bandit_either_3","A2KTFRPDBM635X","either","7","1268","","","","","","","1","0","0","0.9422505668","","0.4","0.6","0.8","0.2","","","","","0.1486491559","0.9422505668","0.9326862648","0.896584634","","","","","","","","74","J","1","","","86","main_expt",""
"","bandit","166","519400","0.0-127.0-0.0","57075887","wem/bandit_either_3","A2KTFRPDBM635X","either","7","245","","","","","","","1","0","0","0.926711091","","0.4","0.6","0.8","0.2","","","","","0.1047878604","0.926711091","0.9039434857","0.9208758521","","","","","","","","74","J","1","","","87","main_expt",""
"","bandit","167","521138","0.0-128.0-0.0","57075887","wem/bandit_either_3","A2KTFRPDBM635X","either","7","195","","","","","","","1","0","0","0.9195127861","","0.4","0.6","0.8","0.2","","","","","0.07038149384","0.9092576496","0.9195127861","0.9266301883","","","","","","","","75","K","2","","","88","main_expt",""
"","bandit","168","522955","0.0-129.0-0.0","57075887","wem/bandit_either_3","A2KTFRPDBM635X","either","7","302","","","","","","","0","1","0","","0.8948591238","0.4","0.6","0.8","0.2","0.1311535074","0.8948591238","0.9225053559","0.9259215542","","","","","","","","","","","","74","J","1","","","89","main_expt",""
"","bandit","169","526068","0.0-130.0-0.0","57075887","wem/bandit_either_3","A2KTFRPDBM635X","either","7","1597","","","","","","","1","0","0","0.9014563988","","0.4","0.6","0.8","0.2","","","","","0.1241310956","0.8716727139","0.9014563988","0.9400480964","","","","","","","","75","K","2","","","90","main_expt",""
"","bandit","170","527910","0.0-131.0-0.0","57075887","wem/bandit_either_3","A2KTFRPDBM635X","either","7","334","","","","","","","0","1","0","","0.9162570652","0.4","0.6","0.8","0.2","0.09664170694","0.8969144331","0.9162570652","0.8961855863","","","","","","","","","","","","75","K","2","","","91","main_expt",""
"","bandit","171","529884","0.0-132.0-0.0","57075887","wem/bandit_either_3","A2KTFRPDBM635X","either","7","459","","","","","","","1","0","0","0.9171553871","","0.4","0.6","0.8","0.2","","","","","0.09586364307","0.9171199264","0.9171553871","0.9211437923","","","","","","","","75","K","2","","","92","main_expt",""
"","bandit","172","532109","0.0-133.0-0.0","57075887","wem/bandit_either_3","A2KTFRPDBM635X","either","7","715","","","","","","","1","0","0","0.9463284029","","0.4","0.6","0.8","0.2","","","","","0.08304118766","0.9593171332","0.9463284029","0.8947860396","","","","","","","","75","K","2","","","93","main_expt",""
"","bandit","173","534201","0.0-134.0-0.0","57075887","wem/bandit_either_3","A2KTFRPDBM635X","either","7","579","","","","","","","1","0","0","0.9477079066","","0.4","0.6","0.8","0.2","","","","","0.1222865453","0.959226596","0.9477079066","0.822540961","","","","","","","","75","K","2","","","94","main_expt",""
"","bandit","174","536248","0.0-135.0-0.0","57075887","wem/bandit_either_3","A2KTFRPDBM635X","either","7","530","","","","","","","1","0","0","0.9474919074","","0.4","0.6","0.8","0.2","","","","","0.211460517","0.947105423","0.9474919074","0.8288041746","","","","","","","","75","K","2","","","95","main_expt",""
"","bandit","175","538191","0.0-136.0-0.0","57075887","wem/bandit_either_3","A2KTFRPDBM635X","either","7","421","","","","","","","1","0","0","0.9722490369","","0.4","0.6","0.8","0.2","","","","","0.2757920232","0.937205139","0.9722490369","0.8217366877","","","","","","","","75","K","2","","","96","main_expt",""
"","bandit","176","540349","0.0-137.0-0.0","57075887","wem/bandit_either_3","A2KTFRPDBM635X","either","7","648","","","","","","","0","1","0","","0.980822097","0.4","0.6","0.8","0.2","0.2646876298","0.9472767204","0.980822097","0.725285089","","","","","","","","","","","","75","K","2","","","97","main_expt",""
"","bandit","177","542348","0.0-138.0-0.0","57075887","wem/bandit_either_3","A2KTFRPDBM635X","either","7","480","","","","","","","1","0","0","0.9761591307","","0.4","0.6","0.8","0.2","","","","","0.3278454636","0.962959595","0.9761591307","0.7958966199","","","","","","","","75","K","2","","","98","main_expt",""
"","bandit","178","544255","0.0-139.0-0.0","57075887","wem/bandit_either_3","A2KTFRPDBM635X","either","7","394","","","","","","","1","0","0","0.9597391097","","0.4","0.6","0.8","0.2","","","","","0.4641870332","0.9720903607","0.9597391097","0.7741840332","","","","","","","","75","K","2","","","99","main_expt",""
"","bandit","179","546162","0.0-140.0-0.0","57075887","wem/bandit_either_3","A2KTFRPDBM635X","either","7","393","","","","","","","0","1","0","","0.9557148533","0.4","0.6","0.8","0.2","0.3972344865","0.9737169538","0.9557148533","0.7934767162","","","","","","","","","","","","75","K","2","","","100","main_expt",""
"","bandit","180","548091","0.0-141.0-0.0","57075887","wem/bandit_either_3","A2KTFRPDBM635X","either","7","414","","","","","","","1","0","0","0.9687934467","","0.4","0.6","0.8","0.2","","","","","0.4395304924","0.986468331","0.9687934467","0.8307638242","","","","","","","","75","K","2","","","101","main_expt",""
"","bandit","181","550291","0.0-142.0-0.0","57075887","wem/bandit_either_3","A2KTFRPDBM635X","either","7","682","","","","","","","1","0","0","0.9713318577","","0.4","0.6","0.8","0.2","","","","","0.5248298482","0.9859557102","0.9713318577","0.7737236933","","","","","","","","75","K","2","","","102","main_expt",""
"","bandit","182","553361","0.0-143.0-0.0","57075887","wem/bandit_either_3","A2KTFRPDBM635X","either","7","1555","","","","","","","1","0","0","0.9768128314","","0.4","0.6","0.8","0.2","","","","","0.6218364577","0.9828698412","0.9768128314","0.8168427084","","","","","","","","75","K","2","","","103","main_expt",""
"","bandit","183","555614","0.0-144.0-0.0","57075887","wem/bandit_either_3","A2KTFRPDBM635X","either","7","736","","","","","","","1","0","0","0.9566706727","","0.4","0.6","0.8","0.2","","","","","0.5528563194","0.9655029871","0.9566706727","0.7020104164","","","","","","","","75","K","2","","","104","main_expt",""
"","bandit","184","558385","0.0-145.0-0.0","57075887","wem/bandit_either_3","A2KTFRPDBM635X","either","7","1251","","","","","","","1","0","0","0.9352711559","","0.4","0.6","0.8","0.2","","","","","0.515821512","0.9587067199","0.9352711559","0.6750414237","","","","","","","","75","K","2","","","105","main_expt",""
"","bandit","185","559911","0.0-146.0-0.0","57075887","wem/bandit_either_3","A2KTFRPDBM635X","either","7","10","","","","","","","1","0","0","0.8980036198","","0.4","0.6","0.8","0.2","","","","","0.5380341879","0.9358961366","0.8980036198","0.5886413089","","","","","","","","75","K","2","","","106","main_expt",""
"","bandit","186","561700","0.0-147.0-0.0","57075887","wem/bandit_either_3","A2KTFRPDBM635X","either","7","271","","","","","","","1","0","0","0.9175797088","","0.4","0.6","0.8","0.2","","","","","0.3291998873","0.8829949032","0.9175797088","0.5507707533","","","","","","","","75","K","2","","","107","main_expt",""
"","bandit","187","564955","0.0-148.0-0.0","57075887","wem/bandit_either_3","A2KTFRPDBM635X","either","7","1743","","","","","","","0","0","1","0.8966825343","","0.4","0.6","0.8","0.2","","","","","0.3608627265","0.7668100276","0.8966825343","0.4325904974","","","","","","","","75","K","2","","","108","main_expt",""
"","bandit","188","568053","0.0-149.0-0.0","57075887","wem/bandit_either_3","A2KTFRPDBM635X","either","7","1587","","","","","","","1","0","0","0.8883819791","","0.4","0.6","0.8","0.2","","","","","0.3837942066","0.7652463225","0.8883819791","0.3735159861","","","","","","","","75","K","2","","","109","main_expt",""
"","bandit","189","571007","0.0-150.0-0.0","57075887","wem/bandit_either_3","A2KTFRPDBM635X","either","7","1443","","","","","","","1","0","0","0.9087011364","","0.4","0.6","0.8","0.2","","","","","0.3019365294","0.7974745759","0.9087011364","0.3704440872","","","","","","","","75","K","2","","","110","main_expt",""
"","bandit","190","572855","0.0-151.0-0.0","57075887","wem/bandit_either_3","A2KTFRPDBM635X","either","7","332","","","","","","","1","0","0","0.9337026812","","0.4","0.6","0.8","0.2","","","","","0.3483008865","0.812352323","0.9337026812","0.2749067499","","","","","","","","75","K","2","","","111","main_expt",""
"","bandit","191","574671","0.0-152.0-0.0","57075887","wem/bandit_either_3","A2KTFRPDBM635X","either","7","298","","","","","","","1","0","0","0.9113388615","","0.4","0.6","0.8","0.2","","","","","0.4342302697","0.7428975936","0.9113388615","0.2734667401","","","","","","","","75","K","2","","","112","main_expt",""
"","bandit","192","577313","0.0-153.0-0.0","57075887","wem/bandit_either_3","A2KTFRPDBM635X","either","7","1130","","","","","","","1","0","0","0.8980528729","","0.4","0.6","0.8","0.2","","","","","0.5187246657","0.7139653514","0.8980528729","0.2291946885","","","","","","","","75","K","2","","","113","main_expt",""
"","bandit","193","579827","0.0-154.0-0.0","57075887","wem/bandit_either_3","A2KTFRPDBM635X","either","7","999","","","","","","","1","0","0","0.8036326458","","0.4","0.6","0.8","0.2","","","","","0.5381742134","0.7945657698","0.8036326458","0.2413339081","","","","","","","","75","K","2","","","114","main_expt",""
"","bandit","194","581708","0.0-155.0-0.0","57075887","wem/bandit_either_3","A2KTFRPDBM635X","either","7","359","","","","","","","1","0","0","0.8700945717","","0.4","0.6","0.8","0.2","","","","","0.4785029821","0.8405588069","0.8700945717","0.3092826039","","","","","","","","75","K","2","","","115","main_expt",""
"","bandit","195","584636","0.0-156.0-0.0","57075887","wem/bandit_either_3","A2KTFRPDBM635X","either","7","1415","","","","","","","1","0","0","0.8895114993","","0.4","0.6","0.8","0.2","","","","","0.4654757386","0.8641798474","0.8895114993","0.2361366225","","","","","","","","75","K","2","","","116","main_expt",""
"","bandit","196","586472","0.0-157.0-0.0","57075887","wem/bandit_either_3","A2KTFRPDBM635X","either","7","323","","","","","","","1","0","0","0.8936856952","","0.4","0.6","0.8","0.2","","","","","0.4578633225","0.8756768431","0.8936856952","0.218402711","","","","","","","","75","K","2","","","117","main_expt",""
"","bandit","197","588339","0.0-158.0-0.0","57075887","wem/bandit_either_3","A2KTFRPDBM635X","either","7","357","","","","","","","0","1","0","","0.8077127093","0.4","0.6","0.8","0.2","0.4773941538","0.9015269718","0.8077127093","0.2003641109","","","","","","","","","","","","75","K","2","","","118","main_expt",""
"","bandit","198","590404","0.0-159.0-0.0","57075887","wem/bandit_either_3","A2KTFRPDBM635X","either","7","547","","","","","","","0","0","1","0.8901108642","","0.4","0.6","0.8","0.2","","","","","0.508374463","0.8709738884","0.8901108642","0.1375137305","","","","","","","","75","K","2","","","119","main_expt",""
"","bandit","199","592266","0.0-160.0-0.0","57075887","wem/bandit_either_3","A2KTFRPDBM635X","either","7","349","","","","","","","0","1","0","","0.8731124259","0.4","0.6","0.8","0.2","0.4294310012","0.8268338002","0.8731124259","0.08656631556","","","","","","","","","","","","75","K","2","","","120","main_expt",""
"","bandit","200","593957","0.0-161.0-0.0","57075887","wem/bandit_either_3","A2KTFRPDBM635X","either","7","170","","","","","","","1","0","0","0.8509174952","","0.4","0.6","0.8","0.2","","","","","0.3933985885","0.8432616236","0.8509174952","0.07812634859","","","","","","","","75","K","2","","","121","main_expt",""
"","bandit","201","596066","0.0-162.0-0.0","57075887","wem/bandit_either_3","A2KTFRPDBM635X","either","7","592","","","","","","","0","0","1","0.8707856005","","0.4","0.6","0.8","0.2","","","","","0.2641409089","0.8128728295","0.8707856005","0.09046411854","","","","","","","","75","K","2","","","122","main_expt",""
"","bandit","202","598009","0.0-163.0-0.0","57075887","wem/bandit_either_3","A2KTFRPDBM635X","either","7","373","","","","","","","1","0","0","0.7592524618","","0.4","0.6","0.8","0.2","","","","","0.2491349268","0.752198112","0.7592524618","0.1132512529","","","","","","","","75","K","2","","","123","main_expt",""
"","bandit","203","599904","0.0-164.0-0.0","57075887","wem/bandit_either_3","A2KTFRPDBM635X","either","7","387","","","","","","","0","1","0","","0.7330206325","0.4","0.6","0.8","0.2","0.2587226179","0.7117781612","0.7330206325","0.09419269712","","","","","","","","","","","","75","K","2","","","124","main_expt",""
"","bandit","204","601445","0.0-165.0-0.0","57075887","wem/bandit_either_3","A2KTFRPDBM635X","either","7","26","","","","","","","1","0","0","0.6903693331","","0.4","0.6","0.8","0.2","","","","","0.2925679814","0.7177409252","0.6903693331","0.110513045","","","","","","","","75","K","2","","","125","main_expt",""
"","bandit","205","603325","0.0-166.0-0.0","57075887","wem/bandit_either_3","A2KTFRPDBM635X","either","7","370","","","","","","","1","0","0","0.6370641568","","0.4","0.6","0.8","0.2","","","","","0.3997536411","0.7240917845","0.6370641568","0.07088043536","","","","","","","","75","K","2","","","126","main_expt",""
"","bandit","206","605293","0.0-167.0-0.0","57075887","wem/bandit_either_3","A2KTFRPDBM635X","either","7","453","","","","","","","0","0","1","0.6192694325","","0.4","0.6","0.8","0.2","","","","","0.4120812041","0.6788578752","0.6192694325","0.1041728595","","","","","","","","75","K","2","","","127","main_expt",""
"","bandit","207","610329","0.0-168.0-0.0","57075887","wem/bandit_either_3","A2KTFRPDBM635X","either","7","3519","","","","","","","1","0","0","0.559348281","","0.4","0.6","0.8","0.2","","","","","0.3731276689","0.6257789885","0.559348281","0.1006708935","","","","","","","","75","K","2","","","128","main_expt",""
"","bandit","208","613134","0.0-169.0-0.0","57075887","wem/bandit_either_3","A2KTFRPDBM635X","either","7","1298","","","","","","","1","0","0","0.610360397","","0.4","0.6","0.8","0.2","","","","","0.3263017501","0.4761868647","0.610360397","0.1336488566","","","","","","","","75","K","2","","","129","main_expt",""
"","bandit","209","614880","0.0-170.0-0.0","57075887","wem/bandit_either_3","A2KTFRPDBM635X","either","7","238","","","","","","","0","0","1","0.5737783772","","0.4","0.6","0.8","0.2","","","","","0.3226142564","0.4745188583","0.5737783772","0.1271550391","","","","","","","","75","K","2","","","130","main_expt",""
"","bandit","210","619133","0.0-171.0-0.0","57075887","wem/bandit_either_3","A2KTFRPDBM635X","either","7","2746","","","","","","","0","0","1","0.6252154127","","0.4","0.6","0.8","0.2","","","","","0.3907136596","0.4674409752","0.6252154127","0.1594360192","","","","","","","","75","K","2","","","131","main_expt",""
"","bandit","211","620774","0.0-172.0-0.0","57075887","wem/bandit_either_3","A2KTFRPDBM635X","either","7","135","","","","","","","0","1","0","","0.6473056352","0.4","0.6","0.8","0.2","0.4983036492","0.368649462","0.6473056352","0.1027658661","","","","","","","","","","","","75","K","2","","","132","main_expt",""
"","bandit","212","622473","0.0-173.0-0.0","57075887","wem/bandit_either_3","A2KTFRPDBM635X","either","7","191","","","","","","","0","1","0","","0.4595123468","0.4","0.6","0.8","0.2","0.6347393695","0.4313577514","0.4595123468","0.1223548883","","","","","","","","","","","","75","K","2","","","133","main_expt",""
"","bandit","213","624334","0.0-174.0-0.0","57075887","wem/bandit_either_3","A2KTFRPDBM635X","either","7","352","","","","","","","1","0","0","0.3043385566","","0.4","0.6","0.8","0.2","","","","","0.6037412299","0.3692150919","0.3043385566","0.1063029331","","","","","","","","75","K","2","","","134","main_expt",""
"","bandit","214","626326","0.0-175.0-0.0","57075887","wem/bandit_either_3","A2KTFRPDBM635X","either","7","486","","","","","","","1","0","0","0.340857567","","0.4","0.6","0.8","0.2","","","","","0.5511090861","0.3077662431","0.340857567","0.080644856","","","","","","","","75","K","2","","","135","main_expt",""
"","bandit","215","629763","0.0-176.0-0.0","57075887","wem/bandit_either_3","A2KTFRPDBM635X","either","7","1930","","","","","","","0","0","1","","0.2655810755","0.4","0.6","0.8","0.2","0.585911414","0.314969588","0.2655810755","0.1359867045","","","","","","","","","","","","75","K","2","","","136","main_expt",""
"","bandit","216","631455","0.0-177.0-0.0","57075887","wem/bandit_either_3","A2KTFRPDBM635X","either","7","183","","","","","","","0","0","1","0.3590847215","","0.4","0.6","0.8","0.2","","","","","0.5805905743","0.3590847215","0.3025530854","0.168344283","","","","","","","","74","J","1","","","137","main_expt",""
"","bandit","217","633448","0.0-178.0-0.0","57075887","wem/bandit_either_3","A2KTFRPDBM635X","either","7","483","","","","","","","1","0","0","0.3588584756","","0.4","0.6","0.8","0.2","","","","","0.6357737786","0.3588584756","0.2888348812","0.1867455324","","","","","","","","74","J","1","","","138","main_expt",""
"","bandit","218","634984","0.0-179.0-0.0","57075887","wem/bandit_either_3","A2KTFRPDBM635X","either","7","24","","","","","","","0","0","1","0.4289761638","","0.4","0.6","0.8","0.2","","","","","0.66639317","0.4289761638","0.2463208975","0.2277874407","","","","","","","","74","J","1","","","139","main_expt",""
"","bandit","219","636560","0.0-180.0-0.0","57075887","wem/bandit_either_3","A2KTFRPDBM635X","either","7","66","","","","","","","0","0","1","","0.273109751","0.4","0.6","0.8","0.2","0.6365789307","0.3801639999","0.273109751","0.2577820179","","","","","","","","","","","","75","K","2","","","140","main_expt",""
"","bandit","220","638159","0.0-181.0-0.0","57075887","wem/bandit_either_3","A2KTFRPDBM635X","either","7","89","","","","","","","0","0","1","","0.2445936549","0.4","0.6","0.8","0.2","0.6045632144","0.2445936549","0.3355442787","0.3674069736","","","","","","","","","","","","74","J","1","","","141","main_expt",""
"","bandit","221","640107","0.0-182.0-0.0","57075887","wem/bandit_either_3","A2KTFRPDBM635X","either","7","437","","","","","","","0","1","0","","0.5148607161","0.4","0.6","0.8","0.2","0.5148607161","0.3394066497","0.2781999234","0.4345417514","","","","","","","","","","","","72","H","0","img/none_selected.jpg","","142","main_expt",""
"","bandit","222","641963","0.0-183.0-0.0","57075887","wem/bandit_either_3","A2KTFRPDBM635X","either","7","337","","","","","","","0","0","1","","0.4754154836","0.4","0.6","0.8","0.2","0.4754154836","0.2899754881","0.2599467226","0.3811672827","","","","","","","","","","","","72","H","0","img/none_selected.jpg","","143","main_expt",""
"","bandit","223","644315","0.0-184.0-0.0","57075887","wem/bandit_either_3","A2KTFRPDBM635X","either","7","835","","","","","","","0","0","1","","0.516029258","0.4","0.6","0.8","0.2","0.516029258","0.3701332444","0.2353144144","0.2754059391","","","","","","","","","","","","72","H","0","img/none_selected.jpg","","144","main_expt",""
"","bandit","224","647201","0.0-185.0-0.0","57075887","wem/bandit_either_3","A2KTFRPDBM635X","either","7","1365","","","","","","","1","0","0","0.3322753171","","0.4","0.6","0.8","0.2","","","","","0.6646605279","0.3322753171","0.2120114759","0.2773400324","","","","","","","","74","J","1","","","145","main_expt",""
"","bandit","225","649093","0.0-186.0-0.0","57075887","wem/bandit_either_3","A2KTFRPDBM635X","either","7","378","","","","","","","0","0","1","0.3203507811","","0.4","0.6","0.8","0.2","","","","","0.6331546467","0.3203507811","0.176067728","0.2780426824","","","","","","","","74","J","1","","","146","main_expt",""
"","bandit","226","651038","0.0-187.0-0.0","57075887","wem/bandit_either_3","A2KTFRPDBM635X","either","7","426","","","","","","","0","0","1","0.304761248","","0.4","0.6","0.8","0.2","","","","","0.6356747602","0.304761248","0.1329453439","0.3373608721","","","","","","","","74","J","1","","","147","main_expt",""
"","bandit","227","653698","0.0-188.0-0.0","57075887","wem/bandit_either_3","A2KTFRPDBM635X","either","7","1137","","","","","","","0","0","1","0.1465103875","","0.4","0.6","0.8","0.2","","","","","0.6301772709","0.3809280674","0.1465103875","0.3529594122","","","","","","","","75","K","2","","","148","main_expt",""
"","bandit","228","655508","0.0-189.0-0.0","57075887","wem/bandit_either_3","A2KTFRPDBM635X","either","7","256","","","","","","","0","0","1","0.1190451538","","0.4","0.6","0.8","0.2","","","","","0.6640591829","0.3997986218","0.1190451538","0.3878328211","","","","","","","","75","K","2","","","149","main_expt",""
"","bandit","229","657472","0.0-190.0-0.0","57075887","wem/bandit_either_3","A2KTFRPDBM635X","either","7","456","","","","","","","0","0","1","","0.1195570164","0.4","0.6","0.8","0.2","0.6592717552","0.3159341416","0.1195570164","0.42943501","","","","","","","","","","","","75","K","2","","","150","main_expt",""
"","bandit","230","659600","0.0-191.0-0.0","57075887","wem/bandit_either_3","A2KTFRPDBM635X","either","7","614","","","","","","","0","1","0","","0.5142681232","0.4","0.6","0.8","0.2","0.5928743102","0.3052853957","0.100492686","0.5142681232","","","","","","","","","","","","76","L","3","","","151","main_expt",""
"","bandit","231","661568","0.0-192.0-0.0","57075887","wem/bandit_either_3","A2KTFRPDBM635X","either","7","446","","","","","","","0","1","0","","0.6321073962","0.4","0.6","0.8","0.2","0.6822187145","0.1896018403","0.1030367897","0.6321073962","","","","","","","","","","","","76","L","3","","","152","main_expt",""
"","bandit","232","663569","0.0-193.0-0.0","57075887","wem/bandit_either_3","A2KTFRPDBM635X","either","7","488","","","","","","","0","1","0","","0.6965670792","0.4","0.6","0.8","0.2","0.6832005509","0.2439656658","0.2059045691","0.6965670792","","","","","","","","","","","","76","L","3","","","153","main_expt",""
"","bandit","233","665682","0.0-194.0-0.0","57075887","wem/bandit_either_3","A2KTFRPDBM635X","either","7","604","","","","","","","0","1","0","","0.6516005735","0.4","0.6","0.8","0.2","0.7109729062","0.3068434149","0.2921647579","0.6516005735","","","","","","","","","","","","76","L","3","","","154","main_expt",""
"","bandit","234","667830","0.0-195.0-0.0","57075887","wem/bandit_either_3","A2KTFRPDBM635X","either","7","638","","","","","","","0","1","0","","0.7291318088","0.4","0.6","0.8","0.2","0.6975465092","0.2314644909","0.1789694193","0.7291318088","","","","","","","","","","","","76","L","3","","","155","main_expt",""
"","bandit","235","669833","0.0-196.0-0.0","57075887","wem/bandit_either_3","A2KTFRPDBM635X","either","7","491","","","","","","","0","1","0","","0.6273572288","0.4","0.6","0.8","0.2","0.6580608271","0.2154001061","0.2187195075","0.6273572288","","","","","","","","","","","","76","L","3","","","156","main_expt",""
"","bandit","236","671922","0.0-197.0-0.0","57075887","wem/bandit_either_3","A2KTFRPDBM635X","either","7","580","","","","","","","1","0","0","0.566197257","","0.4","0.6","0.8","0.2","","","","","0.5695802138","0.1648135251","0.2669834713","0.566197257","","","","","","","","76","L","3","","","157","main_expt",""
"","bandit","237","674117","0.0-198.0-0.0","57075887","wem/bandit_either_3","A2KTFRPDBM635X","either","7","681","","","","","","","0","0","1","","0.4523642269","0.4","0.6","0.8","0.2","0.4733954301","0.2215973425","0.4240307821","0.4523642269","","","","","","","","","","","","76","L","3","","","158","main_expt",""
"","bandit","238","676423","0.0-199.0-0.0","57075887","wem/bandit_either_3","A2KTFRPDBM635X","either","7","781","","","","","","","0","0","1","","0.3991212054","0.4","0.6","0.8","0.2","0.5619817243","0.2243274726","0.3840951437","0.3991212054","","","","","","","","","","","","76","L","3","","","159","main_expt",""
"","bandit","239","678787","0.0-200.0-0.0","57075887","wem/bandit_either_3","A2KTFRPDBM635X","either","7","838","","","","","","","0","0","1","","0.3566558104","0.4","0.6","0.8","0.2","0.4701658979","0.2061161075","0.4098147986","0.3566558104","","","","","","","","","","","","76","L","3","","","160","main_expt",""
"","bandit","240","682359","0.0-201.0-0.0","57075887","wem/bandit_either_3","A2KTFRPDBM635X","either","7","2047","","","","","","","0","0","1","","0.4430908041","0.4","0.6","0.8","0.2","0.5673671472","0.209200141","0.4027252302","0.4430908041","","","","","","","","","","","","76","L","3","","","161","main_expt",""
"","bandit","241","684384","0.0-202.0-0.0","57075887","wem/bandit_either_3","A2KTFRPDBM635X","either","7","513","","","","","","","0","0","1","","0.3966098285","0.4","0.6","0.8","0.2","0.4921809208","0.1477343718","0.3824170733","0.3966098285","","","","","","","","","","","","76","L","3","","","162","main_expt",""
"","bandit","242","686092","0.0-203.0-0.0","57075887","wem/bandit_either_3","A2KTFRPDBM635X","either","7","199","","","","","","","0","0","1","0.3352280924","","0.4","0.6","0.8","0.2","","","","","0.4204505308","0.1525050104","0.3352280924","0.3455868331","","","","","","","","75","K","2","","","163","main_expt",""
"","bandit","243","689454","0.0-204.0-0.0","57075887","wem/bandit_either_3","A2KTFRPDBM635X","either","7","1853","","","","","","","0","0","1","","0.08831047354","0.4","0.6","0.8","0.2","0.534748173","0.08831047354","0.3379187571","0.3368969945","","","","","","","","","","","","74","J","1","","","164","main_expt",""
"","bandit","244","691465","0.0-205.0-0.0","57075887","wem/bandit_either_3","A2KTFRPDBM635X","either","7","498","","","","","","","0","0","1","0.1035482763","","0.4","0.6","0.8","0.2","","","","","0.4724966102","0.1035482763","0.3160546663","0.3767562303","","","","","","","","74","J","1","","","165","main_expt",""
"","bandit","245","693337","0.0-206.0-0.0","57075887","wem/bandit_either_3","A2KTFRPDBM635X","either","7","364","","","","","","","0","0","1","0.3058359067","","0.4","0.6","0.8","0.2","","","","","0.5280505203","0.06888190676","0.3058359067","0.4727650462","","","","","","","","75","K","2","","","166","main_expt",""
"","bandit","246","695713","0.0-207.0-0.0","57075887","wem/bandit_either_3","A2KTFRPDBM635X","either","7","863","","","","","","","0","1","0","","0.6140635231","0.4","0.6","0.8","0.2","0.589670135","0.06051452263","0.2561334246","0.6140635231","","","","","","","","","","","","76","L","3","","","167","main_expt",""
"","bandit","247","697566","0.0-208.0-0.0","57075887","wem/bandit_either_3","A2KTFRPDBM635X","either","7","335","","","","","","","0","0","1","","0.5629225295","0.4","0.6","0.8","0.2","0.5058201204","0.07905307949","0.2459084815","0.5629225295","","","","","","","","","","","","76","L","3","","","168","main_expt",""
"","bandit","248","700078","0.0-209.0-0.0","57075887","wem/bandit_either_3","A2KTFRPDBM635X","either","7","989","","","","","","","0","1","0","","0.6456076899","0.4","0.6","0.8","0.2","0.4102709571","0.07051596905","0.2138460752","0.6456076899","","","","","","","","","","","","76","L","3","","","169","main_expt",""
"","bandit","249","701867","0.0-210.0-0.0","57075887","wem/bandit_either_3","A2KTFRPDBM635X","either","7","270","","","","","","","0","1","0","","0.719827795","0.4","0.6","0.8","0.2","0.5061826445","0.1056762318","0.1642406351","0.719827795","","","","","","","","","","","","76","L","3","","","170","main_expt",""
"","bandit","250","704268","0.0-211.0-0.0","57075887","wem/bandit_either_3","A2KTFRPDBM635X","either","7","886","","","","","","","0","0","1","","0.6716280274","0.4","0.6","0.8","0.2","0.6092158501","0.1513980822","0.2337150112","0.6716280274","","","","","","","","","","","","76","L","3","","","171","main_expt",""
"","bandit","251","706261","0.0-212.0-0.0","57075887","wem/bandit_either_3","A2KTFRPDBM635X","either","7","480","","","","","","","0","0","1","","0.5683226388","0.4","0.6","0.8","0.2","0.691496366","0.1552293495","0.3128682212","0.5683226388","","","","","","","","","","","","76","L","3","","","172","main_expt",""
"","bandit","252","707918","0.0-213.0-0.0","57075887","wem/bandit_either_3","A2KTFRPDBM635X","either","7","147","","","","","","","0","1","0","","0.7402253768","0.4","0.6","0.8","0.2","0.7402253768","0.1325975083","0.2775517843","0.4581357746","","","","","","","","","","","","72","H","0","img/none_selected.jpg","","173","main_expt",""
"","bandit","253","709963","0.0-214.0-0.0","57075887","wem/bandit_either_3","A2KTFRPDBM635X","either","7","534","","","","","","","0","0","1","","0.5903479164","0.4","0.6","0.8","0.2","0.6601004511","0.09024892351","0.4159305855","0.5903479164","","","","","","","","","","","","76","L","3","","","174","main_expt",""
"","bandit","254","711535","0.0-215.0-0.0","57075887","wem/bandit_either_3","A2KTFRPDBM635X","either","7","62","","","","","","","0","1","0","","0.6781732273","0.4","0.6","0.8","0.2","0.6781732273","0.06963745108","0.4471770837","0.5658285383","","","","","","","","","","","","72","H","0","img/none_selected.jpg","","175","main_expt",""
"","bandit","255","713652","0.0-216.0-0.0","57075887","wem/bandit_either_3","A2KTFRPDBM635X","either","7","586","","","","","","","0","0","1","0.6932650799","","0.4","0.6","0.8","0.2","","","","","0.6932650799","0.07897043431","0.5162211083","0.5313506173","","","","","","","","72","H","0","img/none_selected.jpg","","176","main_expt",""
"","bandit","256","715468","0.0-217.0-0.0","57075887","wem/bandit_either_3","A2KTFRPDBM635X","either","7","298","","","","","","","0","0","1","0.09469685393","","0.4","0.6","0.8","0.2","","","","","0.6803850572","0.09469685393","0.6372676231","0.4231289234","","","","","","","","74","J","1","","","177","main_expt",""
"","bandit","257","717688","0.0-218.0-0.0","57075887","wem/bandit_either_3","A2KTFRPDBM635X","either","7","711","","","","","","","0","0","1","0.1486386852","","0.4","0.6","0.8","0.2","","","","","0.5407017663","0.1486386852","0.6295749113","0.580807006","","","","","","","","74","J","1","","","178","main_expt",""
"","bandit","258","719688","0.0-219.0-0.0","57075887","wem/bandit_either_3","A2KTFRPDBM635X","either","7","483","","","","","","","0","0","1","0.4126066341","","0.4","0.6","0.8","0.2","","","","","0.5931576708","0.1965095934","0.4126066341","0.5499948007","","","","","","","","75","K","2","","","179","main_expt",""
"","bandit","259","721690","0.0-220.0-0.0","57075887","wem/bandit_either_3","A2KTFRPDBM635X","either","7","487","","","","","","","0","0","1","","0.5390819372","0.4","0.6","0.8","0.2","0.5390819372","0.1749048096","0.516991344","0.4918200669","","","","","","","","","","","","72","H","0","img/none_selected.jpg","","180","main_expt",""
"","bandit","260","723782","0.0-221.0-0.0","57075887","wem/bandit_either_3","A2KTFRPDBM635X","either","7","572","","","","","","","0","0","1","","0.4929910299","0.4","0.6","0.8","0.2","0.4929910299","0.232896561","0.4239603033","0.5428702931","","","","","","","","","","","","72","H","0","img/none_selected.jpg","","181","main_expt",""
"","bandit","261","725844","0.0-222.0-0.0","57075887","wem/bandit_either_3","A2KTFRPDBM635X","either","7","541","","","","","","","1","0","0","0.5870547156","","0.4","0.6","0.8","0.2","","","","","0.458433212","0.2561822725","0.3961891141","0.5870547156","","","","","","","","76","L","3","","","182","main_expt",""
"","bandit","262","727896","0.0-223.0-0.0","57075887","wem/bandit_either_3","A2KTFRPDBM635X","either","7","531","","","","","","","0","0","1","","0.5031908535","0.4","0.6","0.8","0.2","0.5725449786","0.2713883962","0.4364601233","0.5031908535","","","","","","","","","","","","76","L","3","","","183","main_expt",""
"","bandit","263","730034","0.0-224.0-0.0","57075887","wem/bandit_either_3","A2KTFRPDBM635X","either","7","617","","","","","","","0","0","1","","0.4239978994","0.4","0.6","0.8","0.2","0.4878383732","0.3543557679","0.4826964198","0.4239978994","","","","","","","","","","","","76","L","3","","","184","main_expt",""
"","bandit","264","732030","0.0-225.0-0.0","57075887","wem/bandit_either_3","A2KTFRPDBM635X","either","7","402","","","","","","","0","1","0","","0.5189350158","0.4","0.6","0.8","0.2","0.5189350158","0.2974533566","0.4448789548","0.3425545299","","","","","","","","","","","","72","H","0","img/none_selected.jpg","","185","main_expt",""
"","bandit","265","734168","0.0-226.0-0.0","57075887","wem/bandit_either_3","A2KTFRPDBM635X","either","7","620","","","","","","","0","1","0","","0.2594221554","0.4","0.6","0.8","0.2","0.4310300585","0.3295130888","0.4585835861","0.2594221554","","","","","","","","","","","","76","L","3","","","186","main_expt",""
"","bandit","266","736283","0.0-227.0-0.0","57075887","wem/bandit_either_3","A2KTFRPDBM635X","either","7","605","","","","","","","1","0","0","0.4005994516","","0.4","0.6","0.8","0.2","","","","","0.4005994516","0.3440574025","0.5470412386","0.350747246","","","","","","","","72","H","0","img/none_selected.jpg","","187","main_expt",""
"","bandit","267","738328","0.0-228.0-0.0","57075887","wem/bandit_either_3","A2KTFRPDBM635X","either","7","525","","","","","","","0","1","0","","0.3667816541","0.4","0.6","0.8","0.2","0.5684333967","0.3176863717","0.5485419855","0.3667816541","","","","","","","","","","","","76","L","3","","","188","main_expt",""
"","bandit","268","740239","0.0-229.0-0.0","57075887","wem/bandit_either_3","A2KTFRPDBM635X","either","7","398","","","","","","","0","0","1","","0.5768443477","0.4","0.6","0.8","0.2","0.5768443477","0.3194332301","0.6161015427","0.3129240978","","","","","","","","","","","","72","H","0","img/none_selected.jpg","","189","main_expt",""
"","bandit","269","741987","0.0-230.0-0.0","57075887","wem/bandit_either_3","A2KTFRPDBM635X","either","7","232","","","","","","","0","1","0","","0.3681084497","0.4","0.6","0.8","0.2","0.6091254975","0.3585260795","0.5145576236","0.3681084497","","","","","","","","","","","","76","L","3","","","190","main_expt",""
"","bandit","270","744013","0.0-231.0-0.0","57075887","wem/bandit_either_3","A2KTFRPDBM635X","either","7","507","","","","","","","0","0","1","","0.3284994938","0.4","0.6","0.8","0.2","0.6355225437","0.4438822556","0.4447609651","0.3284994938","","","","","","","","","","","","76","L","3","","","191","main_expt",""
"","bandit","271","745736","0.0-232.0-0.0","57075887","wem/bandit_either_3","A2KTFRPDBM635X","either","7","205","","","","","","","1","0","0","0.4273979598","","0.4","0.6","0.8","0.2","","","","","0.7449996868","0.6336907385","0.4273979598","0.2913335268","","","","","","","","75","K","2","","","192","main_expt",""
"","bandit","272","747938","0.0-233.0-0.0","57075887","wem/bandit_either_3","A2KTFRPDBM635X","either","7","674","","","","","","","0","0","1","0.4382354048","","0.4","0.6","0.8","0.2","","","","","0.7645281636","0.5871300795","0.4382354048","0.3614904019","","","","","","","","75","K","2","","","193","main_expt",""
"","bandit","273","749705","0.0-234.0-0.0","57075887","wem/bandit_either_3","A2KTFRPDBM635X","either","7","247","","","","","","","0","0","1","0.5919999684","","0.4","0.6","0.8","0.2","","","","","0.7417458559","0.5919999684","0.4367950698","0.4180963095","","","","","","","","74","J","1","","","194","main_expt",""
"","bandit","274","751856","0.0-235.0-0.0","57075887","wem/bandit_either_3","A2KTFRPDBM635X","either","7","639","","","","","","","0","1","0","","0.4129416526","0.4","0.6","0.8","0.2","0.7102393491","0.5599221581","0.4306922929","0.4129416526","","","","","","","","","","","","76","L","3","","","195","main_expt",""
"","bandit","275","754118","0.0-236.0-0.0","57075887","wem/bandit_either_3","A2KTFRPDBM635X","either","7","741","","","","","","","0","1","0","","0.6027995291","0.4","0.6","0.8","0.2","0.6846894693","0.4552797342","0.4436260943","0.6027995291","","","","","","","","","","","","76","L","3","","","196","main_expt",""
"","bandit","276","756273","0.0-237.0-0.0","57075887","wem/bandit_either_3","A2KTFRPDBM635X","either","7","628","","","","","","","0","0","1","","0.6174547511","0.4","0.6","0.8","0.2","0.6573901597","0.3045440077","0.4547077395","0.6174547511","","","","","","","","","","","","76","L","3","","","197","main_expt",""
"","bandit","277","758281","0.0-238.0-0.0","57075887","wem/bandit_either_3","A2KTFRPDBM635X","either","7","477","","","","","","","0","1","0","","0.5727893511","0.4","0.6","0.8","0.2","0.7020762336","0.4061180554","0.545148617","0.5727893511","","","","","","","","","","","","76","L","3","","","198","main_expt",""
"","bandit","278","760342","0.0-239.0-0.0","57075887","wem/bandit_either_3","A2KTFRPDBM635X","either","7","541","","","","","","","1","0","0","0.5803616598","","0.4","0.6","0.8","0.2","","","","","0.7749867965","0.3406873398","0.5838562778","0.5803616598","","","","","","","","76","L","3","","","199","main_expt",""
"","bandit","279","763322","0.0-240.0-0.0","57075887","wem/bandit_either_3","A2KTFRPDBM635X","either","7","1470","","","","","","","0","1","0","","0.5109940584","0.4","0.6","0.8","0.2","0.7971262248","0.2810551981","0.6569131065","0.5109940584","","","","","","","","","","","","76","L","3","","","200","main_expt",""
"","bandit","280","765996","0.0-241.0-0.0","57075887","wem/bandit_either_3","A2KTFRPDBM635X","either","7","1160","","","","","","","1","0","0","0.444158281","","0.4","0.6","0.8","0.2","","","","","0.6431063495","0.2295892347","0.6559739125","0.444158281","","","","","","","","76","L","3","","","201","main_expt",""
"","bandit","281","768125","0.0-242.0-0.0","57075887","wem/bandit_either_3","A2KTFRPDBM635X","either","7","606","","","","","","","0","0","1","","0.3774362348","0.4","0.6","0.8","0.2","0.6153479028","0.2134833186","0.5940698896","0.3774362348","","","","","","","","","","","","76","L","3","","","202","main_expt",""
"","bandit","282","770768","0.0-243.0-0.0","57075887","wem/bandit_either_3","A2KTFRPDBM635X","either","7","1126","","","","","","","0","0","1","","0.2852638898","0.4","0.6","0.8","0.2","0.6107921693","0.1538434825","0.6288005559","0.2852638898","","","","","","","","","","","","76","L","3","","","203","main_expt",""
"","bandit","283","772653","0.0-244.0-0.0","57075887","wem/bandit_either_3","A2KTFRPDBM635X","either","7","366","","","","","","","1","0","0","0.7483345684","","0.4","0.6","0.8","0.2","","","","","0.6364312764","0.08629221539","0.7483345684","0.3900316507","","","","","","","","75","K","2","","","204","main_expt",""
"","bandit","284","775728","0.0-245.0-0.0","57075887","wem/bandit_either_3","A2KTFRPDBM635X","either","7","1511","","","","","","","0","0","1","0.7823609999","","0.4","0.6","0.8","0.2","","","","","0.7098325313","0.1303029892","0.7823609999","0.3334674042","","","","","","","","75","K","2","","","205","main_expt",""
"","bandit","285","777385","0.0-246.0-0.0","57075887","wem/bandit_either_3","A2KTFRPDBM635X","either","7","142","","","","","","","0","0","1","0.1290793888","","0.4","0.6","0.8","0.2","","","","","0.6423198407","0.1290793888","0.7053347691","0.3997779834","","","","","","","","74","J","1","","","206","main_expt",""
"","bandit","286","780114","0.0-247.0-0.0","57075887","wem/bandit_either_3","A2KTFRPDBM635X","either","7","1222","","","","","","","0","0","1","0.1471003053","","0.4","0.6","0.8","0.2","","","","","0.7196337679","0.1471003053","0.692958529","0.2791746034","","","","","","","","74","J","1","","","207","main_expt",""
"","bandit","287","782189","0.0-248.0-0.0","57075887","wem/bandit_either_3","A2KTFRPDBM635X","either","7","549","","","","","","","1","0","0","0.5726600787","","0.4","0.6","0.8","0.2","","","","","0.7273253538","0.1204476287","0.5726600787","0.3447420344","","","","","","","","75","K","2","","","208","main_expt",""
"","bandit","288","784926","0.0-249.0-0.0","57075887","wem/bandit_either_3","A2KTFRPDBM635X","either","7","1227","","","","","","","0","0","1","0.7193759884","","0.4","0.6","0.8","0.2","","","","","0.7701678217","0.1752658923","0.7193759884","0.2106944101","","","","","","","","75","K","2","","","209","main_expt",""
"","bandit","289","786795","0.0-250.0-0.0","57075887","wem/bandit_either_3","A2KTFRPDBM635X","either","7","354","","","","","","","1","0","0","0.5469619257","","0.4","0.6","0.8","0.2","","","","","0.7673062315","0.2071456167","0.5469619257","0.2609791638","","","","","","","","75","K","2","","","210","main_expt",""
"","bandit","290","789220","0.0-251.0-0.0","57075887","wem/bandit_either_3","A2KTFRPDBM635X","either","7","913","","","","","","","1","0","0","0.5432746348","","0.4","0.6","0.8","0.2","","","","","0.7733207599","0.1982577311","0.5432746348","0.3702243554","","","","","","","","75","K","2","","","211","main_expt",""
"","bandit","291","791612","0.0-252.0-0.0","57075887","wem/bandit_either_3","A2KTFRPDBM635X","either","7","872","","","","","","","0","1","0","","0.4857525371","0.4","0.6","0.8","0.2","0.7176010575","0.2837026457","0.4857525371","0.4070014152","","","","","","","","","","","","75","K","2","","","212","main_expt",""
"","bandit","292","794789","0.0-253.0-0.0","57075887","wem/bandit_either_3","A2KTFRPDBM635X","either","7","1656","","","","","","","0","0","1","0.4416723402","","0.4","0.6","0.8","0.2","","","","","0.7241732444","0.2192955177","0.4416723402","0.5001351259","","","","","","","","75","K","2","","","213","main_expt",""
"","bandit","293","797300","0.0-254.0-0.0","57075887","wem/bandit_either_3","A2KTFRPDBM635X","either","7","993","","","","","","","0","0","1","","0.4231083207","0.4","0.6","0.8","0.2","0.6696022014","0.2885853396","0.4231083207","0.5667049056","","","","","","","","","","","","75","K","2","","","214","main_expt",""
"","bandit","294","799582","0.0-255.0-0.0","57075887","wem/bandit_either_3","A2KTFRPDBM635X","either","7","761","","","","","","","0","1","0","","0.6255990046","0.4","0.6","0.8","0.2","0.6255990046","0.2451296471","0.329019478","0.5259574602","","","","","","","","","","","","72","H","0","img/none_selected.jpg","","215","main_expt",""
"","bandit","295","802698","0.0-256.0-0.0","57075887","wem/bandit_either_3","A2KTFRPDBM635X","either","7","1593","","","","","","","0","0","1","0.6771362935","","0.4","0.6","0.8","0.2","","","","","0.6771362935","0.1946790852","0.3469743373","0.5468860011","","","","","","","","72","H","0","img/none_selected.jpg","","216","main_expt",""
"","bandit","296","804956","0.0-257.0-0.0","57075887","wem/bandit_either_3","A2KTFRPDBM635X","either","7","750","","","","","","","1","0","0","0.6182745027","","0.4","0.6","0.8","0.2","","","","","0.6918953154","0.2497229096","0.3618740044","0.6182745027","","","","","","","","76","L","3","","","217","main_expt",""
"","bandit","297","807526","0.0-258.0-0.0","57075887","wem/bandit_either_3","A2KTFRPDBM635X","either","7","1058","","","","","","","0","0","1","","0.5979125128","0.4","0.6","0.8","0.2","0.5726390237","0.3076421025","0.3574217595","0.5979125128","","","","","","","","","","","","76","L","3","","","218","main_expt",""
"","bandit","298","809312","0.0-259.0-0.0","57075887","wem/bandit_either_3","A2KTFRPDBM635X","either","7","270","","","","","","","0","0","1","0.5321687475","","0.4","0.6","0.8","0.2","","","","","0.5179196303","0.3488941347","0.3862686792","0.5321687475","","","","","","","","76","L","3","","","219","main_expt",""
"","bandit","299","811484","0.0-260.0-0.0","57075887","wem/bandit_either_3","A2KTFRPDBM635X","either","7","653","","","","","","","0","0","1","0.4432846828","","0.4","0.6","0.8","0.2","","","","","0.5578222379","0.306784001","0.4432846828","0.6053830099","","","","","","","","75","K","2","","","220","main_expt",""
"","bandit","300","813502","0.0-261.0-0.0","57075887","wem/bandit_either_3","A2KTFRPDBM635X","either","7","507","","","","","","","0","1","0","","0.3786925452","0.4","0.6","0.8","0.2","0.6640911266","0.3786925452","0.432499938","0.69383498","","","","","","","","","","","","74","J","1","","","221","main_expt",""
"","bandit","301","816443","0.0-262.0-0.0","57075887","wem/bandit_either_3","A2KTFRPDBM635X","either","7","1431","","","","","","","0","0","1","0.5014801557","","0.4","0.6","0.8","0.2","","","","","0.7340686256","0.5014801557","0.4050903391","0.783375317","","","","","","","","74","J","1","","","222","main_expt",""
"","bandit","302","818422","0.0-263.0-0.0","57075887","wem/bandit_either_3","A2KTFRPDBM635X","either","7","466","","","","","","","0","0","1","0.852862777","","0.4","0.6","0.8","0.2","","","","","0.852862777","0.4081704387","0.3282593462","0.8374489269","","","","","","","","72","H","0","img/none_selected.jpg","","223","main_expt",""
"","bandit","303","821063","0.0-264.0-0.0","57075887","wem/bandit_either_3","A2KTFRPDBM635X","either","7","1129","","","","","","","0","1","0","","0.7830506485","0.4","0.6","0.8","0.2","0.7830506485","0.422296693","0.2465370002","0.7801262993","","","","","","","","","","","","72","H","0","img/none_selected.jpg","","224","main_expt",""
"","bandit","304","823435","0.0-265.0-0.0","57075887","wem/bandit_either_3","A2KTFRPDBM635X","either","7","856","","","","","","","1","0","0","0.7447555501","","0.4","0.6","0.8","0.2","","","","","0.7447555501","0.3998144739","0.2260872052","0.7438235551","","","","","","","","72","H","0","img/none_selected.jpg","","225","main_expt",""
"","bandit","305","826222","0.0-266.0-0.0","57075887","wem/bandit_either_3","A2KTFRPDBM635X","either","7","1271","","","","","","","0","0","1","0.7331719472","","0.4","0.6","0.8","0.2","","","","","0.7331719472","0.2692780115","0.2573895518","0.7561714458","","","","","","","","72","H","0","img/none_selected.jpg","","226","main_expt",""
"","bandit","306","827949","0.0-267.0-0.0","57075887","wem/bandit_either_3","A2KTFRPDBM635X","either","7","216","","","","","","","0","0","1","0.268728261","","0.4","0.6","0.8","0.2","","","","","0.6417259928","0.268728261","0.2134597582","0.7527106072","","","","","","","","74","J","1","","","227","main_expt",""
"","bandit","307","829644","0.0-268.0-0.0","57075887","wem/bandit_either_3","A2KTFRPDBM635X","either","7","178","","","","","","","1","0","0","0.6315627418","","0.4","0.6","0.8","0.2","","","","","0.6050549784","0.2211951924","0.348479141","0.6315627418","","","","","","","","76","L","3","","","228","main_expt",""
"","bandit","308","832342","0.0-269.0-0.0","57075887","wem/bandit_either_3","A2KTFRPDBM635X","either","7","1176","","","","","","","0","1","0","","0.5564086662","0.4","0.6","0.8","0.2","0.5962230341","0.219241791","0.3250735223","0.5564086662","","","","","","","","","","","","76","L","3","","","229","main_expt",""
"","bandit","309","835236","0.0-270.0-0.0","57075887","wem/bandit_either_3","A2KTFRPDBM635X","either","7","1374","","","","","","","0","0","1","","0.5895813861","0.4","0.6","0.8","0.2","0.5594933722","0.291585141","0.3395219718","0.5895813861","","","","","","","","","","","","76","L","3","","","230","main_expt",""
"","bandit","310","836937","0.0-271.0-0.0","57075887","wem/bandit_either_3","A2KTFRPDBM635X","either","7","188","","","","","","","1","0","0","0.3315483329","","0.4","0.6","0.8","0.2","","","","","0.6411036761","0.2754541949","0.3315483329","0.6148213975","","","","","","","","75","K","2","","","231","main_expt",""
"","bandit","311","839610","0.0-272.0-0.0","57075887","wem/bandit_either_3","A2KTFRPDBM635X","either","7","1154","","","","","","","0","0","1","0.3876030756","","0.4","0.6","0.8","0.2","","","","","0.6653930637","0.3055336503","0.3876030756","0.5176988489","","","","","","","","75","K","2","","","232","main_expt",""
"","bandit","312","841590","0.0-273.0-0.0","57075887","wem/bandit_either_3","A2KTFRPDBM635X","either","7","450","","","","","","","0","0","1","","0.4505666118","0.4","0.6","0.8","0.2","0.5426719569","0.3390100853","0.3696248546","0.4505666118","","","","","","","","","","","","76","L","3","","","233","main_expt",""
"","bandit","313","844280","0.0-274.0-0.0","57075887","wem/bandit_either_3","A2KTFRPDBM635X","either","7","1171","","","","","","","0","0","1","","0.4393496879","0.4","0.6","0.8","0.2","0.5581360181","0.3165323161","0.3927474605","0.4393496879","","","","","","","","","","","","76","L","3","","","234","main_expt",""
"","bandit","314","845846","0.0-275.0-0.0","57075887","wem/bandit_either_3","A2KTFRPDBM635X","either","7","58","","","","","","","0","0","1","","0.5299247183","0.4","0.6","0.8","0.2","0.5299247183","0.2944333127","0.4734072524","0.3542725407","","","","","","","","","","","","72","H","0","img/none_selected.jpg","","235","main_expt",""
"","bandit","315","848087","0.0-276.0-0.0","57075887","wem/bandit_either_3","A2KTFRPDBM635X","either","7","722","","","","","","","0","0","1","","0.4127469632","0.4","0.6","0.8","0.2","0.4709954077","0.4127469632","0.5857320117","0.452511288","","","","","","","","","","","","74","J","1","","","236","main_expt",""
"","bandit","316","849961","0.0-277.0-0.0","57075887","wem/bandit_either_3","A2KTFRPDBM635X","either","7","353","","","","","","","0","0","1","0.5208556897","","0.4","0.6","0.8","0.2","","","","","0.4171051322","0.4353664578","0.5208556897","0.4743784035","","","","","","","","75","K","2","","","237","main_expt",""
"","bandit","317","851812","0.0-278.0-0.0","57075887","wem/bandit_either_3","A2KTFRPDBM635X","either","7","335","","","","","","","0","1","0","","0.3871798792","0.4","0.6","0.8","0.2","0.40722148","0.3871798792","0.4551370454","0.4666998134","","","","","","","","","","","","74","J","1","","","238","main_expt",""
"","bandit","318","853959","0.0-279.0-0.0","57075887","wem/bandit_either_3","A2KTFRPDBM635X","either","7","635","","","","","","","0","1","0","","0.3244704863","0.4","0.6","0.8","0.2","0.3113271407","0.3244704863","0.2979137516","0.4916456171","","","","","","","","","","","","74","J","1","","","239","main_expt",""
"","bandit","319","856672","0.0-280.0-0.0","57075887","wem/bandit_either_3","A2KTFRPDBM635X","either","7","1203","","","","","","","0","0","1","","0.3606581002","0.4","0.6","0.8","0.2","0.2505753432","0.3606581002","0.2453134511","0.7128417261","","","","","","","","","","","","74","J","1","","","240","main_expt",""
"","bandit","320","858725","0.0-281.0-0.0","57075887","wem/bandit_either_3","A2KTFRPDBM635X","either","7","544","","","","","","","0","0","1","0.2015136922","","0.4","0.6","0.8","0.2","","","","","0.2015136922","0.3524522155","0.1984184333","0.7711562233","","","","","","","","72","H","0","img/none_selected.jpg","","241","main_expt",""
"","bandit","321","860552","0.0-282.0-0.0","57075887","wem/bandit_either_3","A2KTFRPDBM635X","either","7","315","","","","","","","1","0","0","0.7503869254","","0.4","0.6","0.8","0.2","","","","","0.2405045743","0.3677191248","0.35553679","0.7503869254","","","","","","","","76","L","3","","","242","main_expt",""
"","bandit","322","862741","0.0-283.0-0.0","57075887","wem/bandit_either_3","A2KTFRPDBM635X","either","7","679","","","","","","","0","1","0","","0.6345316327","0.4","0.6","0.8","0.2","0.2458255622","0.2524844898","0.3153476176","0.6345316327","","","","","","","","","","","","76","L","3","","","243","main_expt",""
"","bandit","323","865485","0.0-284.0-0.0","57075887","wem/bandit_either_3","A2KTFRPDBM635X","either","7","1233","","","","","","","0","0","1","","0.6330191047","0.4","0.6","0.8","0.2","0.3958019263","0.2870953983","0.2733658223","0.6330191047","","","","","","","","","","","","76","L","3","","","244","main_expt",""
"","bandit","324","867625","0.0-285.0-0.0","57075887","wem/bandit_either_3","A2KTFRPDBM635X","either","7","630","","","","","","","1","0","0","0.6219736313","","0.4","0.6","0.8","0.2","","","","","0.3463698993","0.3392553197","0.3496419154","0.6219736313","","","","","","","","76","L","3","","","245","main_expt",""
"","bandit","325","870986","0.0-286.0-0.0","57075887","wem/bandit_either_3","A2KTFRPDBM635X","either","7","1779","","","","","","","0","0","1","0.633799682","","0.4","0.6","0.8","0.2","","","","","0.2897199721","0.3836850971","0.4179672116","0.633799682","","","","","","","","76","L","3","","","246","main_expt",""
"","bandit","326","873287","0.0-287.0-0.0","57075887","wem/bandit_either_3","A2KTFRPDBM635X","either","7","777","","","","","","","0","0","1","0.6297768441","","0.4","0.6","0.8","0.2","","","","","0.30250488","0.356061442","0.4571732286","0.6297768441","","","","","","","","76","L","3","","","247","main_expt",""
