"consent","trial_type","trial_index","time_elapsed","internal_node_id","subjID","study","MID","cond","drift","rt","responses","key_press","expt_phase","like","value","connected","gems","bombs","no_reward","GemPrChosen","BombPrChosen","GainOverPainPr_0","GainOverPainPr_1","GainOverPainPr_2","GainOverPainPr_3","LosePr_0","LosePr_1","LosePr_2","LosePr_3","WinPr_0","WinPr_1","WinPr_2","WinPr_3","Q0","Q1","Q2","gender","age","ethnicity","target","respCharCode","respKey","respChoiceNum","respChoice","practice","trial_counter","trial_label","button_pressed"
"INL_behavioral_consent_30min_online.html","consent","0","8115","0.0-0.0","59758203","wem/bandit_either_3","A1NUKP1UCT2R2R","either","5","","","","","","","","","","","","","","","","","","","","","","","","","","","","","","","","","","","","","","",""
"","survey-text","1","12532","0.0-1.0","59758203","wem/bandit_either_3","A1NUKP1UCT2R2R","either","5","3406","{""Q0"":""A1NUKP1UCT2R2R""}","","","","","","","","","","","","","","","","","","","","","","","","","","","","","","","","","","","","",""
"","text","2","20471","0.0-2.0","59758203","wem/bandit_either_3","A1NUKP1UCT2R2R","either","5","6929","","32","","","","","","","","","","","","","","","","","","","","","","","","","","","","","","","","","","","",""
"","text","3","25898","0.0-3.0","59758203","wem/bandit_either_3","A1NUKP1UCT2R2R","either","5","5424","","32","","","","","","","","","","","","","","","","","","","","","","","","","","","","","","","","","","","",""
"","text","4","82323","0.0-4.0","59758203","wem/bandit_either_3","A1NUKP1UCT2R2R","either","5","56423","","32","","","","","","","","","","","","","","","","","","","","","","","","","","","","","","","","","","","",""
"","text","5","93798","0.0-5.0","59758203","wem/bandit_either_3","A1NUKP1UCT2R2R","either","5","11471","","32","","","","","","","","","","","","","","","","","","","","","","","","","","","","","","","","","","","",""
"","text","6","112238","0.0-6.0","59758203","wem/bandit_either_3","A1NUKP1UCT2R2R","either","5","18435","","32","","","","","","","","","","","","","","","","","","","","","","","","","","","","","","","","","","","",""
"","text","7","115825","0.0-7.0","59758203","wem/bandit_either_3","A1NUKP1UCT2R2R","either","5","3585","","32","","","","","","","","","","","","","","","","","","","","","","","","","","","","","","","","","","","",""
"","text","8","119353","0.0-8.0","59758203","wem/bandit_either_3","A1NUKP1UCT2R2R","either","5","3525","","32","","","","","","","","","","","","","","","","","","","","","","","","","","","","","","","","","","","",""
"","identification","9","130571","0.0-9.0-0.0","59758203","wem/bandit_either_3","A1NUKP1UCT2R2R","either","5","11197","","","","3","4","3","","","","","","","","","","","","","","","","","","","","","","","","the village of Zur","","","","","","","",""
"","identification","10","136531","0.0-9.0-1.0","59758203","wem/bandit_either_3","A1NUKP1UCT2R2R","either","5","4943","","","","0","0","0","","","","","","","","","","","","","","","","","","","","","","","","the village of Nyx","","","","","","","",""
"","text","11","141946","0.0-10.0","59758203","wem/bandit_either_3","A1NUKP1UCT2R2R","either","5","4412","","32","","","","","","","","","","","","","","","","","","","","","","","","","","","","","","","","","","","",""
"","text","12","143265","0.0-11.0","59758203","wem/bandit_either_3","A1NUKP1UCT2R2R","either","5","1317","","32","","","","","","","","","","","","","","","","","","","","","","","","","","","","","","","","","","","",""
"","text","13","144921","0.0-12.0","59758203","wem/bandit_either_3","A1NUKP1UCT2R2R","either","5","1653","","32","","","","","","","","","","","","","","","","","","","","","","","","","","","","","","","","","","","",""
"","text","14","147476","0.0-13.0","59758203","wem/bandit_either_3","A1NUKP1UCT2R2R","either","5","2552","","32","","","","","","","","","","","","","","","","","","","","","","","","","","","","","","","","","","","",""
"","bandit","15","151059","0.0-14.0-0.0","59758203","wem/bandit_either_3","A1NUKP1UCT2R2R","either","5","2071","","","","","","","0","0","1","0","0","","","","","0","","","","0","","","","","","","","","","","74","J","0","img/none_selected_demo.jpg","true","0","",""
"","bandit","16","154232","0.0-15.0-0.0","59758203","wem/bandit_either_3","A1NUKP1UCT2R2R","either","5","1663","","","","","","","0","0","1","0","0","","","","","0","","","","0","","","","","","","","","","","75","K","0","img/none_selected_demo.jpg","true","0","",""
"","text","17","165229","0.0-16.0","59758203","wem/bandit_either_3","A1NUKP1UCT2R2R","either","5","10995","","32","","","","","","","","","","","","","","","","","","","","","","","","","","","","","","","","","","","",""
"","text","18","178069","0.0-17.0","59758203","wem/bandit_either_3","A1NUKP1UCT2R2R","either","5","12837","","32","","","","","","","","","","","","","","","","","","","","","","","","","","","","","","","","","","","",""
"","text","19","181170","0.0-18.0","59758203","wem/bandit_either_3","A1NUKP1UCT2R2R","either","5","3099","","32","","","","","","","","","","","","","","","","","","","","","","","","","","","","","","","","","","","",""
"","text","20","184634","0.0-19.0","59758203","wem/bandit_either_3","A1NUKP1UCT2R2R","either","5","3461","","32","","","","","","","","","","","","","","","","","","","","","","","","","","","","","","","","","","","",""
"","bandit","21","186877","0.0-20.0-0.0","59758203","wem/bandit_either_3","A1NUKP1UCT2R2R","either","5","732","","","","","","","0","1","0","","0.8","0.5","0.5","","","0.8","0.2","","","","","","","","","","","","","","74","J","0","img/none_selected_demo.jpg","true","0","80_20_practice",""
"","bandit","22","189401","0.0-20.0-1.0","59758203","wem/bandit_either_3","A1NUKP1UCT2R2R","either","5","1015","","","","","","","0","0","1","","0.8","0.5","0.5","","","0.8","0.2","","","","","","","","","","","","","","74","J","0","img/none_selected_demo.jpg","true","0","80_20_practice",""
"","bandit","23","191444","0.0-20.0-2.0","59758203","wem/bandit_either_3","A1NUKP1UCT2R2R","either","5","537","","","","","","","1","0","0","0.8","","0.5","0.5","","","","","","","0.8","0.2","","","","","","","","","","74","J","0","img/none_selected_demo.jpg","true","0","80_20_practice",""
"","bandit","24","193352","0.0-20.0-3.0","59758203","wem/bandit_either_3","A1NUKP1UCT2R2R","either","5","402","","","","","","","0","1","0","","0.8","0.5","0.5","","","0.8","0.2","","","","","","","","","","","","","","74","J","0","img/none_selected_demo.jpg","true","0","80_20_practice",""
"","bandit","25","195530","0.0-20.0-4.0","59758203","wem/bandit_either_3","A1NUKP1UCT2R2R","either","5","671","","","","","","","0","0","1","","0.2","0.5","0.5","","","0.8","0.2","","","","","","","","","","","","","","75","K","1","","true","0","80_20_practice",""
"","bandit","26","197281","0.0-20.0-5.0","59758203","wem/bandit_either_3","A1NUKP1UCT2R2R","either","5","245","","","","","","","0","1","0","","0.2","0.5","0.5","","","0.8","0.2","","","","","","","","","","","","","","75","K","1","","true","0","80_20_practice",""
"","bandit","27","199162","0.0-20.0-6.0","59758203","wem/bandit_either_3","A1NUKP1UCT2R2R","either","5","374","","","","","","","0","0","1","0.2","","0.5","0.5","","","","","","","0.8","0.2","","","","","","","","","","75","K","1","","true","0","80_20_practice",""
"","bandit","28","200905","0.0-20.0-7.0","59758203","wem/bandit_either_3","A1NUKP1UCT2R2R","either","5","236","","","","","","","0","0","1","","0.2","0.5","0.5","","","0.8","0.2","","","","","","","","","","","","","","75","K","1","","true","0","80_20_practice",""
"","bandit","29","202645","0.0-20.0-8.0","59758203","wem/bandit_either_3","A1NUKP1UCT2R2R","either","5","231","","","","","","","0","0","1","0.2","","0.5","0.5","","","","","","","0.8","0.2","","","","","","","","","","75","K","1","","true","0","80_20_practice",""
"","bandit","30","205592","0.0-20.0-9.0","59758203","wem/bandit_either_3","A1NUKP1UCT2R2R","either","5","1439","","","","","","","0","0","1","","0.2","0.5","0.5","","","0.8","0.2","","","","","","","","","","","","","","75","K","1","","true","0","80_20_practice",""
"","bandit","31","207474","0.0-20.0-10.0","59758203","wem/bandit_either_3","A1NUKP1UCT2R2R","either","5","374","","","","","","","0","0","1","0.2","","0.5","0.5","","","","","","","0.8","0.2","","","","","","","","","","75","K","1","","true","0","80_20_practice",""
"","bandit","32","209395","0.0-20.0-11.0","59758203","wem/bandit_either_3","A1NUKP1UCT2R2R","either","5","412","","","","","","","0","1","0","","0.8","0.5","0.5","","","0.8","0.2","","","","","","","","","","","","","","74","J","0","img/none_selected_demo.jpg","true","0","80_20_practice",""
"","bandit","33","211234","0.0-20.0-12.0","59758203","wem/bandit_either_3","A1NUKP1UCT2R2R","either","5","331","","","","","","","0","0","1","","0.8","0.5","0.5","","","0.8","0.2","","","","","","","","","","","","","","74","J","0","img/none_selected_demo.jpg","true","0","80_20_practice",""
"","bandit","34","213474","0.0-20.0-13.0","59758203","wem/bandit_either_3","A1NUKP1UCT2R2R","either","5","732","","","","","","","0","1","0","","0.8","0.5","0.5","","","0.8","0.2","","","","","","","","","","","","","","74","J","0","img/none_selected_demo.jpg","true","0","80_20_practice",""
"","bandit","35","215361","0.0-20.0-14.0","59758203","wem/bandit_either_3","A1NUKP1UCT2R2R","either","5","381","","","","","","","0","0","1","","0.2","0.5","0.5","","","0.8","0.2","","","","","","","","","","","","","","75","K","1","","true","0","80_20_practice",""
"","bandit","36","217322","0.0-20.0-15.0","59758203","wem/bandit_either_3","A1NUKP1UCT2R2R","either","5","451","","","","","","","0","0","1","","0.2","0.5","0.5","","","0.8","0.2","","","","","","","","","","","","","","75","K","1","","true","0","80_20_practice",""
"","bandit","37","219217","0.0-20.0-16.0","59758203","wem/bandit_either_3","A1NUKP1UCT2R2R","either","5","386","","","","","","","0","1","0","","0.2","0.5","0.5","","","0.8","0.2","","","","","","","","","","","","","","75","K","1","","true","0","80_20_practice",""
"","bandit","38","221034","0.0-20.0-17.0","59758203","wem/bandit_either_3","A1NUKP1UCT2R2R","either","5","306","","","","","","","0","0","1","","0.2","0.5","0.5","","","0.8","0.2","","","","","","","","","","","","","","75","K","1","","true","0","80_20_practice",""
"","bandit","39","222853","0.0-20.0-18.0","59758203","wem/bandit_either_3","A1NUKP1UCT2R2R","either","5","306","","","","","","","0","0","1","0.2","","0.5","0.5","","","","","","","0.8","0.2","","","","","","","","","","75","K","1","","true","0","80_20_practice",""
"","bandit","40","224707","0.0-20.0-19.0","59758203","wem/bandit_either_3","A1NUKP1UCT2R2R","either","5","340","","","","","","","0","0","1","0.2","","0.5","0.5","","","","","","","0.8","0.2","","","","","","","","","","75","K","1","","true","0","80_20_practice",""
"","text","41","227185","0.0-21.0","59758203","wem/bandit_either_3","A1NUKP1UCT2R2R","either","5","2475","","32","","","","","","","","","","","","","","","","","","","","","","","","","","","","","","","","","","","",""
"","bandit","42","229625","0.0-22.0-0.0","59758203","wem/bandit_either_3","A1NUKP1UCT2R2R","either","5","930","","","","","","","1","0","0","1","0","","","","","0","1","","","1","0","","","","","","","","","","74","J","0","img/none_selected_demo.jpg","true","0","",""
"","text","43","235756","0.0-23.0","59758203","wem/bandit_either_3","A1NUKP1UCT2R2R","either","5","6127","","32","","","","","","","","","","","","","","","","","","","","","","","","","","","","","","","","","","","",""
"","text","44","238465","0.0-24.0","59758203","wem/bandit_either_3","A1NUKP1UCT2R2R","either","5","2706","","32","","","","","","","","","","","","","","","","","","","","","","","","","","","","","","","","","","","",""
"","text","45","240578","0.0-25.0","59758203","wem/bandit_either_3","A1NUKP1UCT2R2R","either","5","2109","","32","","","","","","","","","","","","","","","","","","","","","","","","","","","","","","","","","","","",""
"","text","46","242833","0.0-26.0","59758203","wem/bandit_either_3","A1NUKP1UCT2R2R","either","5","2253","","32","","","","","","","","","","","","","","","","","","","","","","","","","","","","","","","","","","","",""
"","text","47","246281","0.0-27.0","59758203","wem/bandit_either_3","A1NUKP1UCT2R2R","either","5","3445","","32","","","","","","","","","","","","","","","","","","","","","","","","","","","","","","","","","","","",""
"","text","48","248722","0.0-28.0","59758203","wem/bandit_either_3","A1NUKP1UCT2R2R","either","5","2438","","32","","","","","","","","","","","","","","","","","","","","","","","","","","","","","","","","","","","",""
"","text","49","251138","0.0-29.0","59758203","wem/bandit_either_3","A1NUKP1UCT2R2R","either","5","2412","","32","","","","","","","","","","","","","","","","","","","","","","","","","","","","","","","","","","","",""
"","text","50","254210","0.0-30.0","59758203","wem/bandit_either_3","A1NUKP1UCT2R2R","either","5","3068","","32","","","","","","","","","","","","","","","","","","","","","","","","","","","","","","","","","","","",""
"","text","51","257797","0.0-31.0","59758203","wem/bandit_either_3","A1NUKP1UCT2R2R","either","5","3582","","32","","","","","","","","","","","","","","","","","","","","","","","","","","","","","","","","","","","",""
"","text","52","259139","0.0-32.0","59758203","wem/bandit_either_3","A1NUKP1UCT2R2R","either","5","1337","","32","","","","","","","","","","","","","","","","","","","","","","","","","","","","","","","","","","","",""
"","text","53","261978","0.0-33.0","59758203","wem/bandit_either_3","A1NUKP1UCT2R2R","either","5","2835","","32","","","","","","","","","","","","","","","","","","","","","","","","","","","","","","","","","","","",""
"","bandit","54","264048","0.0-34.0-0.0","59758203","wem/bandit_either_3","A1NUKP1UCT2R2R","either","5","563","","","","","","","1","0","0","0.8","","0.5","0.5","0.5","0.5","","","","","0.8","0.2","0.6","0.2","","","","","","","","72","H","0","img/none_selected.jpg","true","0","full_practice",""
"","bandit","55","265650","0.0-34.0-1.0","59758203","wem/bandit_either_3","A1NUKP1UCT2R2R","either","5","91","","","","","","","0","0","1","0.8","","0.5","0.5","0.5","0.5","","","","","0.8","0.2","0.6","0.2","","","","","","","","72","H","0","img/none_selected.jpg","true","0","full_practice",""
"","bandit","56","267569","0.0-34.0-2.0","59758203","wem/bandit_either_3","A1NUKP1UCT2R2R","either","5","409","","","","","","","0","1","0","","0.8","0.5","0.5","0.5","0.5","0.8","0.2","0.6","0.2","","","","","","","","","","","","72","H","0","img/none_selected.jpg","true","0","full_practice",""
"","bandit","57","269804","0.0-34.0-3.0","59758203","wem/bandit_either_3","A1NUKP1UCT2R2R","either","5","726","","","","","","","0","0","1","","0.2","0.5","0.5","0.5","0.5","0.8","0.2","0.6","0.2","","","","","","","","","","","","74","J","1","","true","0","full_practice",""
"","bandit","58","271842","0.0-34.0-4.0","59758203","wem/bandit_either_3","A1NUKP1UCT2R2R","either","5","527","","","","","","","0","0","1","0.2","","0.5","0.5","0.5","0.5","","","","","0.8","0.2","0.6","0.2","","","","","","","","74","J","1","","true","0","full_practice",""
"","bandit","59","274065","0.0-34.0-5.0","59758203","wem/bandit_either_3","A1NUKP1UCT2R2R","either","5","715","","","","","","","0","1","0","","0.6","0.5","0.5","0.5","0.5","0.8","0.2","0.6","0.2","","","","","","","","","","","","75","K","2","","true","0","full_practice",""
"","bandit","60","275920","0.0-34.0-6.0","59758203","wem/bandit_either_3","A1NUKP1UCT2R2R","either","5","346","","","","","","","0","0","1","","0.2","0.5","0.5","0.5","0.5","0.8","0.2","0.6","0.2","","","","","","","","","","","","76","L","3","","true","0","full_practice",""
"","bandit","61","277608","0.0-34.0-7.0","59758203","wem/bandit_either_3","A1NUKP1UCT2R2R","either","5","182","","","","","","","1","0","0","0.2","","0.5","0.5","0.5","0.5","","","","","0.8","0.2","0.6","0.2","","","","","","","","76","L","3","","true","0","full_practice",""
"","bandit","62","279415","0.0-34.0-8.0","59758203","wem/bandit_either_3","A1NUKP1UCT2R2R","either","5","300","","","","","","","0","0","1","0.2","","0.5","0.5","0.5","0.5","","","","","0.8","0.2","0.6","0.2","","","","","","","","76","L","3","","true","0","full_practice",""
"","bandit","63","280955","0.0-34.0-9.0","59758203","wem/bandit_either_3","A1NUKP1UCT2R2R","either","5","32","","","","","","","0","0","1","0.2","","0.5","0.5","0.5","0.5","","","","","0.8","0.2","0.6","0.2","","","","","","","","76","L","3","","true","0","full_practice",""
"","bandit","64","282783","0.0-34.0-10.0","59758203","wem/bandit_either_3","A1NUKP1UCT2R2R","either","5","321","","","","","","","0","0","1","0.2","","0.5","0.5","0.5","0.5","","","","","0.8","0.2","0.6","0.2","","","","","","","","76","L","3","","true","0","full_practice",""
"","bandit","65","284631","0.0-34.0-11.0","59758203","wem/bandit_either_3","A1NUKP1UCT2R2R","either","5","341","","","","","","","1","0","0","0.2","","0.5","0.5","0.5","0.5","","","","","0.8","0.2","0.6","0.2","","","","","","","","76","L","3","","true","0","full_practice",""
"","bandit","66","286409","0.0-34.0-12.0","59758203","wem/bandit_either_3","A1NUKP1UCT2R2R","either","5","267","","","","","","","0","0","1","","0.2","0.5","0.5","0.5","0.5","0.8","0.2","0.6","0.2","","","","","","","","","","","","76","L","3","","true","0","full_practice",""
"","bandit","67","288208","0.0-34.0-13.0","59758203","wem/bandit_either_3","A1NUKP1UCT2R2R","either","5","292","","","","","","","0","0","1","","0.2","0.5","0.5","0.5","0.5","0.8","0.2","0.6","0.2","","","","","","","","","","","","76","L","3","","true","0","full_practice",""
"","bandit","68","290105","0.0-34.0-14.0","59758203","wem/bandit_either_3","A1NUKP1UCT2R2R","either","5","387","","","","","","","0","0","1","0.2","","0.5","0.5","0.5","0.5","","","","","0.8","0.2","0.6","0.2","","","","","","","","76","L","3","","true","0","full_practice",""
"","bandit","69","291882","0.0-34.0-15.0","59758203","wem/bandit_either_3","A1NUKP1UCT2R2R","either","5","269","","","","","","","0","0","1","","0.2","0.5","0.5","0.5","0.5","0.8","0.2","0.6","0.2","","","","","","","","","","","","76","L","3","","true","0","full_practice",""
"","bandit","70","293696","0.0-34.0-16.0","59758203","wem/bandit_either_3","A1NUKP1UCT2R2R","either","5","306","","","","","","","0","1","0","","0.8","0.5","0.5","0.5","0.5","0.8","0.2","0.6","0.2","","","","","","","","","","","","72","H","0","img/none_selected.jpg","true","0","full_practice",""
"","bandit","71","295280","0.0-34.0-17.0","59758203","wem/bandit_either_3","A1NUKP1UCT2R2R","either","5","64","","","","","","","0","0","1","","0.2","0.5","0.5","0.5","0.5","0.8","0.2","0.6","0.2","","","","","","","","","","","","74","J","1","","true","0","full_practice",""
"","bandit","72","296970","0.0-34.0-18.0","59758203","wem/bandit_either_3","A1NUKP1UCT2R2R","either","5","180","","","","","","","0","0","1","","0.2","0.5","0.5","0.5","0.5","0.8","0.2","0.6","0.2","","","","","","","","","","","","74","J","1","","true","0","full_practice",""
"","bandit","73","298768","0.0-34.0-19.0","59758203","wem/bandit_either_3","A1NUKP1UCT2R2R","either","5","288","","","","","","","0","1","0","","0.6","0.5","0.5","0.5","0.5","0.8","0.2","0.6","0.2","","","","","","","","","","","","75","K","2","","true","0","full_practice",""
"","text","74","301708","0.0-35.0","59758203","wem/bandit_either_3","A1NUKP1UCT2R2R","either","5","2930","","32","","","","","","","","","","","","","","","","","","","","","","","","","","","","","","","","","","","",""
"","text","75","310402","0.0-36.0","59758203","wem/bandit_either_3","A1NUKP1UCT2R2R","either","5","7689","","32","","","","","","","","","","","","","","","","","","","","","","","","","","","","","","","","","","","",""
"","text","76","319468","0.0-37.0","59758203","wem/bandit_either_3","A1NUKP1UCT2R2R","either","5","9062","","32","","","","","","","","","","","","","","","","","","","","","","","","","","","","","","","","","","","",""
"","text","77","323089","0.0-38.0","59758203","wem/bandit_either_3","A1NUKP1UCT2R2R","either","5","3618","","32","","","","","","","","","","","","","","","","","","","","","","","","","","","","","","","","","","","",""
"","text","78","327489","0.0-39.0","59758203","wem/bandit_either_3","A1NUKP1UCT2R2R","either","5","4396","","32","","","","","","","","","","","","","","","","","","","","","","","","","","","","","","","","","","","",""
"","text","79","330836","0.0-40.0","59758203","wem/bandit_either_3","A1NUKP1UCT2R2R","either","5","3343","","32","","","","","","","","","","","","","","","","","","","","","","","","","","","","","","","","","","","",""
"","bandit","80","333016","0.0-41.0-0.0","59758203","wem/bandit_either_3","A1NUKP1UCT2R2R","either","5","672","","","","","","","0","1","0","","0.4253928501","0.2","0.6","0.4","0.8","0.4253928501","0.6131215568","0.32692793","0.4909711759","","","","","","","","","","","","72","H","0","img/none_selected.jpg","","1","main_expt",""
"","bandit","81","334896","0.0-42.0-0.0","59758203","wem/bandit_either_3","A1NUKP1UCT2R2R","either","5","369","","","","","","","0","0","1","","0.5447097682","0.2","0.6","0.4","0.8","0.5447097682","0.6783759564","0.3068321923","0.5514346198","","","","","","","","","","","","72","H","0","img/none_selected.jpg","","2","main_expt",""
"","bandit","82","336578","0.0-43.0-0.0","59758203","wem/bandit_either_3","A1NUKP1UCT2R2R","either","5","170","","","","","","","1","0","0","0.5631376832","","0.2","0.6","0.4","0.8","","","","","0.5631376832","0.6535049038","0.2871808385","0.5966913043","","","","","","","","72","H","0","img/none_selected.jpg","","3","main_expt",""
"","bandit","83","338399","0.0-44.0-0.0","59758203","wem/bandit_either_3","A1NUKP1UCT2R2R","either","5","299","","","","","","","0","0","1","","0.5889355808","0.2","0.6","0.4","0.8","0.5889355808","0.5433476707","0.3062311279","0.6236804691","","","","","","","","","","","","72","H","0","img/none_selected.jpg","","4","main_expt",""
"","bandit","84","340135","0.0-45.0-0.0","59758203","wem/bandit_either_3","A1NUKP1UCT2R2R","either","5","229","","","","","","","0","0","1","","0.6125363118","0.2","0.6","0.4","0.8","0.6125363118","0.4256320799","0.2453374439","0.5844938386","","","","","","","","","","","","72","H","0","img/none_selected.jpg","","5","main_expt",""
"","bandit","85","342047","0.0-46.0-0.0","59758203","wem/bandit_either_3","A1NUKP1UCT2R2R","either","5","404","","","","","","","0","1","0","","0.5204159956","0.2","0.6","0.4","0.8","0.5204159956","0.4097031487","0.2258644136","0.4929788692","","","","","","","","","","","","72","H","0","img/none_selected.jpg","","6","main_expt",""
"","bandit","86","344268","0.0-47.0-0.0","59758203","wem/bandit_either_3","A1NUKP1UCT2R2R","either","5","713","","","","","","","0","0","1","0.4614862243","","0.2","0.6","0.4","0.8","","","","","0.5949894572","0.4614862243","0.2251512132","0.3978044106","","","","","","","","74","J","1","","","7","main_expt",""
"","bandit","87","345923","0.0-48.0-0.0","59758203","wem/bandit_either_3","A1NUKP1UCT2R2R","either","5","142","","","","","","","0","0","1","0.4305419438","","0.2","0.6","0.4","0.8","","","","","0.7043393759","0.4305419438","0.1597376121","0.5080346622","","","","","","","","74","J","1","","","8","main_expt",""
"","bandit","88","347735","0.0-49.0-0.0","59758203","wem/bandit_either_3","A1NUKP1UCT2R2R","either","5","303","","","","","","","0","0","1","0.6000641755","","0.2","0.6","0.4","0.8","","","","","0.6866437556","0.6000641755","0.1395884133","0.440708512","","","","","","","","74","J","1","","","9","main_expt",""
"","bandit","89","349425","0.0-50.0-0.0","59758203","wem/bandit_either_3","A1NUKP1UCT2R2R","either","5","180","","","","","","","0","0","1","0.1529628815","","0.2","0.6","0.4","0.8","","","","","0.6743415364","0.66675231","0.1529628815","0.4862198985","","","","","","","","75","K","2","","","10","main_expt",""
"","bandit","90","351201","0.0-51.0-0.0","59758203","wem/bandit_either_3","A1NUKP1UCT2R2R","either","5","266","","","","","","","1","0","0","0.1918890603","","0.2","0.6","0.4","0.8","","","","","0.6907290289","0.538431352","0.1918890603","0.4942886423","","","","","","","","75","K","2","","","11","main_expt",""
"","bandit","91","353160","0.0-52.0-0.0","59758203","wem/bandit_either_3","A1NUKP1UCT2R2R","either","5","450","","","","","","","0","0","1","0.1412308375","","0.2","0.6","0.4","0.8","","","","","0.7254617755","0.5683478731","0.1412308375","0.4999864232","","","","","","","","75","K","2","","","12","main_expt",""
"","bandit","92","354788","0.0-53.0-0.0","59758203","wem/bandit_either_3","A1NUKP1UCT2R2R","either","5","118","","","","","","","0","0","1","","0.1854965676","0.2","0.6","0.4","0.8","0.7533793381","0.5870071372","0.1854965676","0.3945724157","","","","","","","","","","","","75","K","2","","","13","main_expt",""
"","bandit","93","356609","0.0-54.0-0.0","59758203","wem/bandit_either_3","A1NUKP1UCT2R2R","either","5","312","","","","","","","0","0","1","0.2200151947","","0.2","0.6","0.4","0.8","","","","","0.6909187676","0.3389967741","0.2200151947","0.458684297","","","","","","","","75","K","2","","","14","main_expt",""
"","bandit","94","358471","0.0-55.0-0.0","59758203","wem/bandit_either_3","A1NUKP1UCT2R2R","either","5","355","","","","","","","1","0","0","0.5338449271","","0.2","0.6","0.4","0.8","","","","","0.7916820586","0.2927381815","0.1497743902","0.5338449271","","","","","","","","76","L","3","","","15","main_expt",""
"","bandit","95","360008","0.0-56.0-0.0","59758203","wem/bandit_either_3","A1NUKP1UCT2R2R","either","5","29","","","","","","","0","0","1","","0.6821016448","0.2","0.6","0.4","0.8","0.7991661796","0.2268478953","0.1767244745","0.6821016448","","","","","","","","","","","","76","L","3","","","16","main_expt",""
"","bandit","96","363104","0.0-57.0-0.0","59758203","wem/bandit_either_3","A1NUKP1UCT2R2R","either","5","1588","","","","","","","1","0","0","0.6963612506","","0.2","0.6","0.4","0.8","","","","","0.7352739439","0.2364877179","0.1953364786","0.6963612506","","","","","","","","76","L","3","","","17","main_expt",""
"","bandit","97","364930","0.0-58.0-0.0","59758203","wem/bandit_either_3","A1NUKP1UCT2R2R","either","5","318","","","","","","","0","0","1","0.7035779666","","0.2","0.6","0.4","0.8","","","","","0.6911569498","0.280777314","0.139355503","0.7035779666","","","","","","","","76","L","3","","","18","main_expt",""
"","bandit","98","366673","0.0-59.0-0.0","59758203","wem/bandit_either_3","A1NUKP1UCT2R2R","either","5","234","","","","","","","1","0","0","0.677086514","","0.2","0.6","0.4","0.8","","","","","0.6372159304","0.3280428268","0.129677489","0.677086514","","","","","","","","76","L","3","","","19","main_expt",""
"","bandit","99","368495","0.0-60.0-0.0","59758203","wem/bandit_either_3","A1NUKP1UCT2R2R","either","5","309","","","","","","","0","0","1","0.5211019236","","0.2","0.6","0.4","0.8","","","","","0.5917564331","0.213865824","0.1584506979","0.5211019236","","","","","","","","76","L","3","","","20","main_expt",""
"","bandit","100","371495","0.0-61.0-0.0","59758203","wem/bandit_either_3","A1NUKP1UCT2R2R","either","5","1489","","","","","","","0","1","0","","0.6040081297","0.2","0.6","0.4","0.8","0.6351733259","0.2755747612","0.1934985877","0.6040081297","","","","","","","","","","","","76","L","3","","","21","main_expt",""
"","bandit","101","373496","0.0-62.0-0.0","59758203","wem/bandit_either_3","A1NUKP1UCT2R2R","either","5","489","","","","","","","0","0","1","0.5276460007","","0.2","0.6","0.4","0.8","","","","","0.57448168","0.3096891892","0.1184813826","0.5276460007","","","","","","","","76","L","3","","","22","main_expt",""
"","bandit","102","375547","0.0-63.0-0.0","59758203","wem/bandit_either_3","A1NUKP1UCT2R2R","either","5","539","","","","","","","1","0","0","0.4373756081","","0.2","0.6","0.4","0.8","","","","","0.532235281","0.1855444332","0.1387482349","0.4373756081","","","","","","","","76","L","3","","","23","main_expt",""
"","bandit","103","377440","0.0-64.0-0.0","59758203","wem/bandit_either_3","A1NUKP1UCT2R2R","either","5","384","","","","","","","0","0","1","0.4051577966","","0.2","0.6","0.4","0.8","","","","","0.4695599312","0.2026045625","0.1275075135","0.4051577966","","","","","","","","76","L","3","","","24","main_expt",""
"","bandit","104","379841","0.0-65.0-0.0","59758203","wem/bandit_either_3","A1NUKP1UCT2R2R","either","5","891","","","","","","","0","0","1","0.3583026632","","0.2","0.6","0.4","0.8","","","","","0.3710761786","0.2610081957","0.1324238285","0.3583026632","","","","","","","","76","L","3","","","25","main_expt",""
"","bandit","105","381808","0.0-66.0-0.0","59758203","wem/bandit_either_3","A1NUKP1UCT2R2R","either","5","458","","","","","","","0","0","1","","0.4070676783","0.2","0.6","0.4","0.8","0.3104834237","0.2068764453","0.2222282692","0.4070676783","","","","","","","","","","","","76","L","3","","","26","main_expt",""
"","bandit","106","383696","0.0-67.0-0.0","59758203","wem/bandit_either_3","A1NUKP1UCT2R2R","either","5","370","","","","","","","0","1","0","","0.4250638914","0.2","0.6","0.4","0.8","0.4250638914","0.1387354037","0.2367528544","0.3962805628","","","","","","","","","","","","72","H","0","img/none_selected.jpg","","27","main_expt",""
"","bandit","107","386078","0.0-68.0-0.0","59758203","wem/bandit_either_3","A1NUKP1UCT2R2R","either","5","867","","","","","","","0","0","1","","0.3738912408","0.2","0.6","0.4","0.8","0.3738912408","0.2065421522","0.1581712713","0.3381264529","","","","","","","","","","","","72","H","0","img/none_selected.jpg","","28","main_expt",""
"","bandit","108","387864","0.0-69.0-0.0","59758203","wem/bandit_either_3","A1NUKP1UCT2R2R","either","5","276","","","","","","","0","1","0","","0.411092256","0.2","0.6","0.4","0.8","0.411092256","0.2452437498","0.2361440946","0.3405446746","","","","","","","","","","","","72","H","0","img/none_selected.jpg","","29","main_expt",""
"","bandit","109","389712","0.0-70.0-0.0","59758203","wem/bandit_either_3","A1NUKP1UCT2R2R","either","5","340","","","","","","","0","1","0","","0.3076129501","0.2","0.6","0.4","0.8","0.306262239","0.3076129501","0.3051502752","0.3536414415","","","","","","","","","","","","74","J","1","","","30","main_expt",""
"","bandit","110","391522","0.0-71.0-0.0","59758203","wem/bandit_either_3","A1NUKP1UCT2R2R","either","5","290","","","","","","","0","0","1","","0.275744379","0.2","0.6","0.4","0.8","0.2846857217","0.275744379","0.3588845582","0.3201297868","","","","","","","","","","","","74","J","1","","","31","main_expt",""
"","bandit","111","393343","0.0-72.0-0.0","59758203","wem/bandit_either_3","A1NUKP1UCT2R2R","either","5","312","","","","","","","1","0","0","0.1582224348","","0.2","0.6","0.4","0.8","","","","","0.260797537","0.1582224348","0.3351264969","0.414050106","","","","","","","","74","J","1","","","32","main_expt",""
"","bandit","112","395112","0.0-73.0-0.0","59758203","wem/bandit_either_3","A1NUKP1UCT2R2R","either","5","259","","","","","","","0","0","1","0.07234251762","","0.2","0.6","0.4","0.8","","","","","0.3108282978","0.07234251762","0.3369799553","0.4846208784","","","","","","","","74","J","1","","","33","main_expt",""
"","bandit","113","396812","0.0-74.0-0.0","59758203","wem/bandit_either_3","A1NUKP1UCT2R2R","either","5","192","","","","","","","0","0","1","","0.07244310326","0.2","0.6","0.4","0.8","0.3996464291","0.07244310326","0.3040676539","0.4250330595","","","","","","","","","","","","74","J","1","","","34","main_expt",""
"","bandit","114","398616","0.0-75.0-0.0","59758203","wem/bandit_either_3","A1NUKP1UCT2R2R","either","5","293","","","","","","","0","0","1","0.07140094546","","0.2","0.6","0.4","0.8","","","","","0.4368131495","0.07140094546","0.2974236485","0.499329675","","","","","","","","74","J","1","","","35","main_expt",""
"","bandit","115","400595","0.0-76.0-0.0","59758203","wem/bandit_either_3","A1NUKP1UCT2R2R","either","5","468","","","","","","","0","0","1","0.310238309","","0.2","0.6","0.4","0.8","","","","","0.3396719642","0.08624361683","0.310238309","0.3892953339","","","","","","","","75","K","2","","","36","main_expt",""
"","bandit","116","402407","0.0-77.0-0.0","59758203","wem/bandit_either_3","A1NUKP1UCT2R2R","either","5","301","","","","","","","0","0","1","0.2818719109","","0.2","0.6","0.4","0.8","","","","","0.4409026667","0.07543251018","0.2818719109","0.3680424748","","","","","","","","75","K","2","","","37","main_expt",""
"","bandit","117","404256","0.0-78.0-0.0","59758203","wem/bandit_either_3","A1NUKP1UCT2R2R","either","5","339","","","","","","","0","0","1","0.2925765749","","0.2","0.6","0.4","0.8","","","","","0.489392614","0.1324785543","0.2925765749","0.4909804269","","","","","","","","75","K","2","","","38","main_expt",""
"","bandit","118","406049","0.0-79.0-0.0","59758203","wem/bandit_either_3","A1NUKP1UCT2R2R","either","5","282","","","","","","","1","0","0","0.5165168671","","0.2","0.6","0.4","0.8","","","","","0.4403114744","0.1824024676","0.3033582507","0.5165168671","","","","","","","","76","L","3","","","39","main_expt",""
"","bandit","119","407796","0.0-80.0-0.0","59758203","wem/bandit_either_3","A1NUKP1UCT2R2R","either","5","225","","","","","","","1","0","0","0.6036007873","","0.2","0.6","0.4","0.8","","","","","0.343221944","0.09861269436","0.2371445562","0.6036007873","","","","","","","","76","L","3","","","40","main_expt",""
"","bandit","120","409463","0.0-81.0-0.0","59758203","wem/bandit_either_3","A1NUKP1UCT2R2R","either","5","158","","","","","","","0","0","1","0.6078828369","","0.2","0.6","0.4","0.8","","","","","0.450343793","0.1028082326","0.2072661203","0.6078828369","","","","","","","","76","L","3","","","41","main_expt",""
"","bandit","121","411815","0.0-82.0-0.0","59758203","wem/bandit_either_3","A1NUKP1UCT2R2R","either","5","841","","","","","","","0","0","1","","0.5757077757","0.2","0.6","0.4","0.8","0.4422822993","0.1326350751","0.1850700716","0.5757077757","","","","","","","","","","","","76","L","3","","","42","main_expt",""
"","bandit","122","413706","0.0-83.0-0.0","59758203","wem/bandit_either_3","A1NUKP1UCT2R2R","either","5","380","","","","","","","0","0","1","0.504524575","","0.2","0.6","0.4","0.8","","","","","0.4755437476","0.1591685393","0.1700345657","0.504524575","","","","","","","","76","L","3","","","43","main_expt",""
"","bandit","123","416305","0.0-84.0-0.0","59758203","wem/bandit_either_3","A1NUKP1UCT2R2R","either","5","1088","","","","","","","0","0","1","0.3354744533","","0.2","0.6","0.4","0.8","","","","","0.6211160782","0.1558361793","0.150922449","0.3354744533","","","","","","","","76","L","3","","","44","main_expt",""
"","bandit","124","418194","0.0-85.0-0.0","59758203","wem/bandit_either_3","A1NUKP1UCT2R2R","either","5","380","","","","","","","0","1","0","","0.5950963145","0.2","0.6","0.4","0.8","0.5950963145","0.08224127908","0.08792573626","0.2259933845","","","","","","","","","","","","72","H","0","img/none_selected.jpg","","45","main_expt",""
"","bandit","125","420603","0.0-86.0-0.0","59758203","wem/bandit_either_3","A1NUKP1UCT2R2R","either","5","896","","","","","","","0","1","0","","0.600883672","0.2","0.6","0.4","0.8","0.600883672","0.05681632526","0.05210962111","0.1991815266","","","","","","","","","","","","72","H","0","img/none_selected.jpg","","46","main_expt",""
"","bandit","126","422322","0.0-87.0-0.0","59758203","wem/bandit_either_3","A1NUKP1UCT2R2R","either","5","207","","","","","","","0","0","1","0.02046531905","","0.2","0.6","0.4","0.8","","","","","0.6018426621","0.02046531905","0.1658512007","0.1821259253","","","","","","","","74","J","1","","","47","main_expt",""
"","bandit","127","424416","0.0-88.0-0.0","59758203","wem/bandit_either_3","A1NUKP1UCT2R2R","either","5","585","","","","","","","0","0","1","0.02793369594","","0.2","0.6","0.4","0.8","","","","","0.6719149388","0.02793369594","0.2171730843","0.1850219792","","","","","","","","74","J","1","","","48","main_expt",""
"","bandit","128","426259","0.0-89.0-0.0","59758203","wem/bandit_either_3","A1NUKP1UCT2R2R","either","5","332","","","","","","","0","0","1","0.01520235592","","0.2","0.6","0.4","0.8","","","","","0.5824093935","0.01520235592","0.2545874694","0.2843491098","","","","","","","","74","J","1","","","49","main_expt",""
"","bandit","129","428251","0.0-90.0-0.0","59758203","wem/bandit_either_3","A1NUKP1UCT2R2R","either","5","481","","","","","","","0","0","1","","0.1971443839","0.2","0.6","0.4","0.8","0.5697547833","0.008868670712","0.1971443839","0.2385085868","","","","","","","","","","","","75","K","2","","","50","main_expt",""
"","bandit","130","430080","0.0-91.0-0.0","59758203","wem/bandit_either_3","A1NUKP1UCT2R2R","either","5","317","","","","","","","0","0","1","","0.1743954459","0.2","0.6","0.4","0.8","0.5875551098","0.004668439046","0.1743954459","0.2762119933","","","","","","","","","","","","75","K","2","","","51","main_expt",""
"","bandit","131","431920","0.0-92.0-0.0","59758203","wem/bandit_either_3","A1NUKP1UCT2R2R","either","5","330","","","","","","","0","0","1","","0.1007451992","0.2","0.6","0.4","0.8","0.691822337","0.003090075005","0.1007451992","0.2350807626","","","","","","","","","","","","75","K","2","","","52","main_expt",""
"","bandit","132","433688","0.0-93.0-0.0","59758203","wem/bandit_either_3","A1NUKP1UCT2R2R","either","5","259","","","","","","","0","0","1","0.2301492847","","0.2","0.6","0.4","0.8","","","","","0.7363191169","0.003474758773","0.1648918076","0.2301492847","","","","","","","","76","L","3","","","53","main_expt",""
"","bandit","133","435434","0.0-94.0-0.0","59758203","wem/bandit_either_3","A1NUKP1UCT2R2R","either","5","234","","","","","","","0","0","1","0.2779325162","","0.2","0.6","0.4","0.8","","","","","0.7639548597","0.003279238457","0.1761014763","0.2779325162","","","","","","","","76","L","3","","","54","main_expt",""
"","bandit","134","437321","0.0-95.0-0.0","59758203","wem/bandit_either_3","A1NUKP1UCT2R2R","either","5","377","","","","","","","0","0","1","0.2882189161","","0.2","0.6","0.4","0.8","","","","","0.7264154962","0.001847339967","0.1460392243","0.2882189161","","","","","","","","76","L","3","","","55","main_expt",""
"","bandit","135","439145","0.0-96.0-0.0","59758203","wem/bandit_either_3","A1NUKP1UCT2R2R","either","5","317","","","","","","","1","0","0","0.7511403137","","0.2","0.6","0.4","0.8","","","","","0.7511403137","0.001186331615","0.1882527018","0.2646822794","","","","","","","","72","H","0","img/none_selected.jpg","","56","main_expt",""
"","bandit","136","440857","0.0-97.0-0.0","59758203","wem/bandit_either_3","A1NUKP1UCT2R2R","either","5","201","","","","","","","0","1","0","","0.6292194553","0.2","0.6","0.4","0.8","0.6292194553","0.001917609755","0.1836596221","0.3080117871","","","","","","","","","","","","72","H","0","img/none_selected.jpg","","57","main_expt",""
"","bandit","137","442592","0.0-98.0-0.0","59758203","wem/bandit_either_3","A1NUKP1UCT2R2R","either","5","222","","","","","","","1","0","0","0.5622591622","","0.2","0.6","0.4","0.8","","","","","0.5622591622","0.004115025419","0.2259562874","0.2609020091","","","","","","","","72","H","0","img/none_selected.jpg","","58","main_expt",""
"","bandit","138","445008","0.0-99.0-0.0","59758203","wem/bandit_either_3","A1NUKP1UCT2R2R","either","5","905","","","","","","","1","0","0","0.6394190939","","0.2","0.6","0.4","0.8","","","","","0.6394190939","0.007083433589","0.1673227733","0.3014652953","","","","","","","","72","H","0","img/none_selected.jpg","","59","main_expt",""
"","bandit","139","446872","0.0-100.0-0.0","59758203","wem/bandit_either_3","A1NUKP1UCT2R2R","either","5","354","","","","","","","1","0","0","0.502148976","","0.2","0.6","0.4","0.8","","","","","0.502148976","0.0100473459","0.1404143731","0.2872544729","","","","","","","","72","H","0","img/none_selected.jpg","","60","main_expt",""
"","bandit","140","448730","0.0-101.0-0.0","59758203","wem/bandit_either_3","A1NUKP1UCT2R2R","either","5","346","","","","","","","0","1","0","","0.5541662771","0.2","0.6","0.4","0.8","0.5541662771","0.02288810402","0.1087230511","0.2347068593","","","","","","","","","","","","72","H","0","img/none_selected.jpg","","61","main_expt",""
"","bandit","141","450315","0.0-102.0-0.0","59758203","wem/bandit_either_3","A1NUKP1UCT2R2R","either","5","76","","","","","","","1","0","0","0.6016144889","","0.2","0.6","0.4","0.8","","","","","0.6016144889","0.04890713094","0.1173770395","0.1786743828","","","","","","","","72","H","0","img/none_selected.jpg","","62","main_expt",""
"","bandit","142","452168","0.0-103.0-0.0","59758203","wem/bandit_either_3","A1NUKP1UCT2R2R","either","5","341","","","","","","","0","0","1","","0.6306423252","0.2","0.6","0.4","0.8","0.6306423252","0.06015841579","0.1173961002","0.1627017484","","","","","","","","","","","","72","H","0","img/none_selected.jpg","","63","main_expt",""
"","bandit","143","453951","0.0-104.0-0.0","59758203","wem/bandit_either_3","A1NUKP1UCT2R2R","either","5","274","","","","","","","0","1","0","","0.5963496952","0.2","0.6","0.4","0.8","0.5963496952","0.0697324588","0.1093057248","0.2220220934","","","","","","","","","","","","72","H","0","img/none_selected.jpg","","64","main_expt",""
"","bandit","144","455920","0.0-105.0-0.0","59758203","wem/bandit_either_3","A1NUKP1UCT2R2R","either","5","457","","","","","","","0","1","0","","0.5835424673","0.2","0.6","0.4","0.8","0.5835424673","0.03955641554","0.1437581537","0.1387290973","","","","","","","","","","","","72","H","0","img/none_selected.jpg","","65","main_expt",""
"","bandit","145","457903","0.0-106.0-0.0","59758203","wem/bandit_either_3","A1NUKP1UCT2R2R","either","5","475","","","","","","","0","1","0","","0.5789137396","0.2","0.6","0.4","0.8","0.5789137396","0.04104317144","0.1321246006","0.1481952943","","","","","","","","","","","","72","H","0","img/none_selected.jpg","","66","main_expt",""
"","bandit","146","461702","0.0-107.0-0.0","59758203","wem/bandit_either_3","A1NUKP1UCT2R2R","either","5","2286","","","","","","","0","0","1","0.07749417123","","0.2","0.6","0.4","0.8","","","","","0.6503196648","0.07749417123","0.1441415222","0.1354395346","","","","","","","","74","J","1","","","67","main_expt",""
"","bandit","147","463482","0.0-108.0-0.0","59758203","wem/bandit_either_3","A1NUKP1UCT2R2R","either","5","266","","","","","","","0","0","1","","0.1606162296","0.2","0.6","0.4","0.8","0.7295955131","0.1606162296","0.1794787892","0.09431815687","","","","","","","","","","","","74","J","1","","","68","main_expt",""
"","bandit","148","465523","0.0-109.0-0.0","59758203","wem/bandit_either_3","A1NUKP1UCT2R2R","either","5","520","","","","","","","0","0","1","","0.1458723802","0.2","0.6","0.4","0.8","0.7924649224","0.1458723802","0.2467892919","0.09491494314","","","","","","","","","","","","74","J","1","","","69","main_expt",""
"","bandit","149","467127","0.0-110.0-0.0","59758203","wem/bandit_either_3","A1NUKP1UCT2R2R","either","5","95","","","","","","","0","1","0","","0.2683381141","0.2","0.6","0.4","0.8","0.7104550926","0.09936082334","0.2683381141","0.144379617","","","","","","","","","","","","75","K","2","","","70","main_expt",""
"","bandit","150","468991","0.0-111.0-0.0","59758203","wem/bandit_either_3","A1NUKP1UCT2R2R","either","5","355","","","","","","","0","0","1","0.3513633517","","0.2","0.6","0.4","0.8","","","","","0.6350436987","0.08487306657","0.3513633517","0.1522740794","","","","","","","","75","K","2","","","71","main_expt",""
"","bandit","151","470968","0.0-112.0-0.0","59758203","wem/bandit_either_3","A1NUKP1UCT2R2R","either","5","466","","","","","","","1","0","0","0.2914052368","","0.2","0.6","0.4","0.8","","","","","0.5987872161","0.08819471669","0.2914052368","0.1668466162","","","","","","","","75","K","2","","","72","main_expt",""
"","bandit","152","472968","0.0-113.0-0.0","59758203","wem/bandit_either_3","A1NUKP1UCT2R2R","either","5","491","","","","","","","0","0","1","0.2877488323","","0.2","0.6","0.4","0.8","","","","","0.5985066563","0.1283432424","0.2877488323","0.1896474075","","","","","","","","75","K","2","","","73","main_expt",""
"","bandit","153","474895","0.0-114.0-0.0","59758203","wem/bandit_either_3","A1NUKP1UCT2R2R","either","5","418","","","","","","","0","0","1","","0.2562899571","0.2","0.6","0.4","0.8","0.6384302553","0.09379917772","0.2562899571","0.2374421278","","","","","","","","","","","","75","K","2","","","74","main_expt",""
"","bandit","154","476777","0.0-115.0-0.0","59758203","wem/bandit_either_3","A1NUKP1UCT2R2R","either","5","371","","","","","","","1","0","0","0.2733605005","","0.2","0.6","0.4","0.8","","","","","0.5658832615","0.09049970266","0.2733605005","0.2083661751","","","","","","","","75","K","2","","","75","main_expt",""
"","bandit","155","479817","0.0-116.0-0.0","59758203","wem/bandit_either_3","A1NUKP1UCT2R2R","either","5","1526","","","","","","","0","0","1","","0.3937912108","0.2","0.6","0.4","0.8","0.6242699585","0.08721668036","0.3937912108","0.2438220339","","","","","","","","","","","","75","K","2","","","76","main_expt",""
"","bandit","156","481856","0.0-117.0-0.0","59758203","wem/bandit_either_3","A1NUKP1UCT2R2R","either","5","526","","","","","","","0","0","1","","0.2317864895","0.2","0.6","0.4","0.8","0.5744400186","0.06435523183","0.2317864895","0.2688374605","","","","","","","","","","","","75","K","2","","","77","main_expt",""
"","bandit","157","483686","0.0-118.0-0.0","59758203","wem/bandit_either_3","A1NUKP1UCT2R2R","either","5","317","","","","","","","0","0","1","0.1809738678","","0.2","0.6","0.4","0.8","","","","","0.5888420407","0.0482567949","0.1809738678","0.354885782","","","","","","","","75","K","2","","","78","main_expt",""
"","bandit","158","485609","0.0-119.0-0.0","59758203","wem/bandit_either_3","A1NUKP1UCT2R2R","either","5","413","","","","","","","0","0","1","0.3618930149","","0.2","0.6","0.4","0.8","","","","","0.6367332082","0.0437210955","0.1139783564","0.3618930149","","","","","","","","76","L","3","","","79","main_expt",""
"","bandit","159","487449","0.0-120.0-0.0","59758203","wem/bandit_either_3","A1NUKP1UCT2R2R","either","5","322","","","","","","","0","0","1","0.2656346555","","0.2","0.6","0.4","0.8","","","","","0.6870764151","0.02877808334","0.08785846653","0.2656346555","","","","","","","","76","L","3","","","80","main_expt",""
"","bandit","160","489304","0.0-121.0-0.0","59758203","wem/bandit_either_3","A1NUKP1UCT2R2R","either","5","345","","","","","","","0","0","1","0.4245431589","","0.2","0.6","0.4","0.8","","","","","0.594282643","0.01921293631","0.09113866108","0.4245431589","","","","","","","","76","L","3","","","81","main_expt",""
"","bandit","161","491128","0.0-122.0-0.0","59758203","wem/bandit_either_3","A1NUKP1UCT2R2R","either","5","311","","","","","","","1","0","0","0.6134463007","","0.2","0.6","0.4","0.8","","","","","0.6134463007","0.04933803159","0.1055231707","0.4469352605","","","","","","","","72","H","0","img/none_selected.jpg","","82","main_expt",""
"","bandit","162","492903","0.0-123.0-0.0","59758203","wem/bandit_either_3","A1NUKP1UCT2R2R","either","5","264","","","","","","","0","0","1","","0.573719985","0.2","0.6","0.4","0.8","0.573719985","0.03134335394","0.09865920741","0.4492602846","","","","","","","","","","","","72","H","0","img/none_selected.jpg","","83","main_expt",""
"","bandit","163","496351","0.0-124.0-0.0","59758203","wem/bandit_either_3","A1NUKP1UCT2R2R","either","5","1938","","","","","","","0","0","1","","0.5666188995","0.2","0.6","0.4","0.8","0.5666188995","0.08181594064","0.06745845416","0.4800113203","","","","","","","","","","","","72","H","0","img/none_selected.jpg","","84","main_expt",""
"","bandit","164","498379","0.0-125.0-0.0","59758203","wem/bandit_either_3","A1NUKP1UCT2R2R","either","5","510","","","","","","","0","1","0","","0.5161506384","0.2","0.6","0.4","0.8","0.5161506384","0.09326949564","0.05723787215","0.53417275","","","","","","","","","","","","72","H","0","img/none_selected.jpg","","85","main_expt",""
"","bandit","165","500176","0.0-126.0-0.0","59758203","wem/bandit_either_3","A1NUKP1UCT2R2R","either","5","285","","","","","","","1","0","0","0.4408304524","","0.2","0.6","0.4","0.8","","","","","0.4408304524","0.1365856799","0.04283717318","0.4431594274","","","","","","","","72","H","0","img/none_selected.jpg","","86","main_expt",""
"","bandit","166","502020","0.0-127.0-0.0","59758203","wem/bandit_either_3","A1NUKP1UCT2R2R","either","5","329","","","","","","","0","1","0","","0.4926691315","0.2","0.6","0.4","0.8","0.4926691315","0.1845868617","0.04801612347","0.4135642243","","","","","","","","","","","","72","H","0","img/none_selected.jpg","","87","main_expt",""
"","bandit","167","503881","0.0-128.0-0.0","59758203","wem/bandit_either_3","A1NUKP1UCT2R2R","either","5","344","","","","","","","0","0","1","","0.6047228172","0.2","0.6","0.4","0.8","0.6047228172","0.2304222619","0.1154775412","0.4785462387","","","","","","","","","","","","72","H","0","img/none_selected.jpg","","88","main_expt",""
"","bandit","168","505702","0.0-129.0-0.0","59758203","wem/bandit_either_3","A1NUKP1UCT2R2R","either","5","304","","","","","","","0","0","1","","0.5311406509","0.2","0.6","0.4","0.8","0.5311406509","0.1408060154","0.1308375778","0.6395163219","","","","","","","","","","","","72","H","0","img/none_selected.jpg","","89","main_expt",""
"","bandit","169","507615","0.0-130.0-0.0","59758203","wem/bandit_either_3","A1NUKP1UCT2R2R","either","5","403","","","","","","","0","0","1","0.6262376813","","0.2","0.6","0.4","0.8","","","","","0.6262376813","0.1870966622","0.07282967421","0.6143207643","","","","","","","","72","H","0","img/none_selected.jpg","","90","main_expt",""
"","bandit","170","509496","0.0-131.0-0.0","59758203","wem/bandit_either_3","A1NUKP1UCT2R2R","either","5","370","","","","","","","0","1","0","","0.192698437","0.2","0.6","0.4","0.8","0.690423555","0.192698437","0.07599207753","0.446485487","","","","","","","","","","","","74","J","1","","","91","main_expt",""
"","bandit","171","511312","0.0-132.0-0.0","59758203","wem/bandit_either_3","A1NUKP1UCT2R2R","either","5","305","","","","","","","0","0","1","0.1683480261","","0.2","0.6","0.4","0.8","","","","","0.6517149298","0.1683480261","0.04323911508","0.5169677416","","","","","","","","74","J","1","","","92","main_expt",""
"","bandit","172","513088","0.0-133.0-0.0","59758203","wem/bandit_either_3","A1NUKP1UCT2R2R","either","5","265","","","","","","","0","0","1","0.1330499919","","0.2","0.6","0.4","0.8","","","","","0.5656193004","0.1330499919","0.04253576945","0.4242737166","","","","","","","","74","J","1","","","93","main_expt",""
"","bandit","173","514897","0.0-134.0-0.0","59758203","wem/bandit_either_3","A1NUKP1UCT2R2R","either","5","295","","","","","","","0","1","0","","0.1880917327","0.2","0.6","0.4","0.8","0.4344563295","0.1880917327","0.04534385772","0.3479993201","","","","","","","","","","","","74","J","1","","","94","main_expt",""
"","bandit","174","516796","0.0-135.0-0.0","59758203","wem/bandit_either_3","A1NUKP1UCT2R2R","either","5","388","","","","","","","1","0","0","0.03318992591","","0.2","0.6","0.4","0.8","","","","","0.5651083109","0.1867575465","0.03318992591","0.3701135783","","","","","","","","75","K","2","","","95","main_expt",""
"","bandit","175","518556","0.0-136.0-0.0","59758203","wem/bandit_either_3","A1NUKP1UCT2R2R","either","5","243","","","","","","","0","0","1","0.03408771876","","0.2","0.6","0.4","0.8","","","","","0.5348041914","0.2231999883","0.03408771876","0.3430407586","","","","","","","","75","K","2","","","96","main_expt",""
"","bandit","176","520273","0.0-137.0-0.0","59758203","wem/bandit_either_3","A1NUKP1UCT2R2R","either","5","206","","","","","","","0","0","1","","0.05013144164","0.2","0.6","0.4","0.8","0.5627844697","0.2149045243","0.05013144164","0.2876443713","","","","","","","","","","","","75","K","2","","","97","main_expt",""
"","bandit","177","522104","0.0-138.0-0.0","59758203","wem/bandit_either_3","A1NUKP1UCT2R2R","either","5","318","","","","","","","0","0","1","0.03739082544","","0.2","0.6","0.4","0.8","","","","","0.6177525637","0.1963416079","0.03739082544","0.3310412313","","","","","","","","75","K","2","","","98","main_expt",""
"","bandit","178","523895","0.0-139.0-0.0","59758203","wem/bandit_either_3","A1NUKP1UCT2R2R","either","5","281","","","","","","","1","0","0","0.3893078888","","0.2","0.6","0.4","0.8","","","","","0.7429557604","0.1659387142","0.1018336486","0.3893078888","","","","","","","","76","L","3","","","99","main_expt",""
"","bandit","179","525698","0.0-140.0-0.0","59758203","wem/bandit_either_3","A1NUKP1UCT2R2R","either","5","290","","","","","","","0","0","1","0.4049224607","","0.2","0.6","0.4","0.8","","","","","0.6717563967","0.145948344","0.1398961818","0.4049224607","","","","","","","","76","L","3","","","100","main_expt",""
"","bandit","180","527394","0.0-141.0-0.0","59758203","wem/bandit_either_3","A1NUKP1UCT2R2R","either","5","182","","","","","","","0","0","1","0.3259939159","","0.2","0.6","0.4","0.8","","","","","0.6929666651","0.1366695263","0.1830356504","0.3259939159","","","","","","","","76","L","3","","","101","main_expt",""
"","bandit","181","529200","0.0-142.0-0.0","59758203","wem/bandit_either_3","A1NUKP1UCT2R2R","either","5","297","","","","","","","1","0","0","0.3598161211","","0.2","0.6","0.4","0.8","","","","","0.6827494989","0.1543059156","0.1396005595","0.3598161211","","","","","","","","76","L","3","","","102","main_expt",""
"","bandit","182","531025","0.0-143.0-0.0","59758203","wem/bandit_either_3","A1NUKP1UCT2R2R","either","5","311","","","","","","","0","1","0","","0.3385951472","0.2","0.6","0.4","0.8","0.7315485361","0.1484193465","0.0853830874","0.3385951472","","","","","","","","","","","","76","L","3","","","103","main_expt",""
"","bandit","183","532769","0.0-144.0-0.0","59758203","wem/bandit_either_3","A1NUKP1UCT2R2R","either","5","231","","","","","","","1","0","0","0.4881545817","","0.2","0.6","0.4","0.8","","","","","0.6852971926","0.1516288854","0.09317924201","0.4881545817","","","","","","","","76","L","3","","","104","main_expt",""
"","bandit","184","534632","0.0-145.0-0.0","59758203","wem/bandit_either_3","A1NUKP1UCT2R2R","either","5","353","","","","","","","1","0","0","0.4790883063","","0.2","0.6","0.4","0.8","","","","","0.693594393","0.1283123627","0.08203708102","0.4790883063","","","","","","","","76","L","3","","","105","main_expt",""
"","bandit","185","537442","0.0-146.0-0.0","59758203","wem/bandit_either_3","A1NUKP1UCT2R2R","either","5","1299","","","","","","","1","0","0","0.4354998123","","0.2","0.6","0.4","0.8","","","","","0.6101065231","0.2016068708","0.07160056992","0.4354998123","","","","","","","","76","L","3","","","106","main_expt",""
"","bandit","186","539103","0.0-147.0-0.0","59758203","wem/bandit_either_3","A1NUKP1UCT2R2R","either","5","152","","","","","","","1","0","0","0.4789065637","","0.2","0.6","0.4","0.8","","","","","0.5549317608","0.2344181992","0.09799112372","0.4789065637","","","","","","","","76","L","3","","","107","main_expt",""
"","bandit","187","540938","0.0-148.0-0.0","59758203","wem/bandit_either_3","A1NUKP1UCT2R2R","either","5","319","","","","","","","0","0","1","0.2921896665","","0.2","0.6","0.4","0.8","","","","","0.5753690117","0.2234564856","0.1101799882","0.2921896665","","","","","","","","76","L","3","","","108","main_expt",""
"","bandit","188","542769","0.0-149.0-0.0","59758203","wem/bandit_either_3","A1NUKP1UCT2R2R","either","5","320","","","","","","","0","0","1","0.3545905428","","0.2","0.6","0.4","0.8","","","","","0.5748544728","0.2494485671","0.07189968831","0.3545905428","","","","","","","","76","L","3","","","109","main_expt",""
"","bandit","189","544593","0.0-150.0-0.0","59758203","wem/bandit_either_3","A1NUKP1UCT2R2R","either","5","312","","","","","","","0","0","1","0.3110769573","","0.2","0.6","0.4","0.8","","","","","0.6473038793","0.2804015825","0.06101418375","0.3110769573","","","","","","","","76","L","3","","","110","main_expt",""
"","bandit","190","546431","0.0-151.0-0.0","59758203","wem/bandit_either_3","A1NUKP1UCT2R2R","either","5","330","","","","","","","0","1","0","","0.6296147118","0.2","0.6","0.4","0.8","0.6296147118","0.254644275","0.1032726654","0.3673577619","","","","","","","","","","","","72","H","0","img/none_selected.jpg","","111","main_expt",""
"","bandit","191","548324","0.0-152.0-0.0","59758203","wem/bandit_either_3","A1NUKP1UCT2R2R","either","5","382","","","","","","","0","0","1","","0.6174722021","0.2","0.6","0.4","0.8","0.6174722021","0.2686709136","0.1061240248","0.3439961468","","","","","","","","","","","","72","H","0","img/none_selected.jpg","","112","main_expt",""
"","bandit","192","550482","0.0-153.0-0.0","59758203","wem/bandit_either_3","A1NUKP1UCT2R2R","either","5","648","","","","","","","0","0","1","0.7467975424","","0.2","0.6","0.4","0.8","","","","","0.7467975424","0.3211503982","0.1150632514","0.3389202036","","","","","","","","72","H","0","img/none_selected.jpg","","113","main_expt",""
"","bandit","193","552785","0.0-154.0-0.0","59758203","wem/bandit_either_3","A1NUKP1UCT2R2R","either","5","792","","","","","","","0","0","1","","0.7797220863","0.2","0.6","0.4","0.8","0.7797220863","0.3067152309","0.1491479201","0.3122185675","","","","","","","","","","","","72","H","0","img/none_selected.jpg","","114","main_expt",""
"","bandit","194","554688","0.0-155.0-0.0","59758203","wem/bandit_either_3","A1NUKP1UCT2R2R","either","5","392","","","","","","","0","1","0","","0.8152411921","0.2","0.6","0.4","0.8","0.8152411921","0.3274584286","0.08304421353","0.2431064996","","","","","","","","","","","","72","H","0","img/none_selected.jpg","","115","main_expt",""
"","bandit","195","556387","0.0-156.0-0.0","59758203","wem/bandit_either_3","A1NUKP1UCT2R2R","either","5","186","","","","","","","0","0","1","0.1391191417","","0.2","0.6","0.4","0.8","","","","","0.7362727539","0.2491959293","0.1391191417","0.2225404561","","","","","","","","75","K","2","","","116","main_expt",""
"","bandit","196","557961","0.0-157.0-0.0","59758203","wem/bandit_either_3","A1NUKP1UCT2R2R","either","5","61","","","","","","","0","0","1","0.1425156065","","0.2","0.6","0.4","0.8","","","","","0.7051771602","0.1425156065","0.1689833708","0.2891792411","","","","","","","","74","J","1","","","117","main_expt",""
"","bandit","197","560012","0.0-158.0-0.0","59758203","wem/bandit_either_3","A1NUKP1UCT2R2R","either","5","540","","","","","","","1","0","0","0.1550025764","","0.2","0.6","0.4","0.8","","","","","0.7099604309","0.1550025764","0.1341186766","0.3147139712","","","","","","","","74","J","1","","","118","main_expt",""
"","bandit","198","561986","0.0-159.0-0.0","59758203","wem/bandit_either_3","A1NUKP1UCT2R2R","either","5","458","","","","","","","0","0","1","","0.1733664784","0.2","0.6","0.4","0.8","0.6633752461","0.1733664784","0.1211065448","0.4890071061","","","","","","","","","","","","74","J","1","","","119","main_expt",""
"","bandit","199","563961","0.0-160.0-0.0","59758203","wem/bandit_either_3","A1NUKP1UCT2R2R","either","5","460","","","","","","","0","0","1","0.2091577514","","0.2","0.6","0.4","0.8","","","","","0.6748815414","0.2091577514","0.1317257861","0.5238994176","","","","","","","","74","J","1","","","120","main_expt",""
"","bandit","200","566664","0.0-161.0-0.0","59758203","wem/bandit_either_3","A1NUKP1UCT2R2R","either","5","1190","","","","","","","0","0","1","","0.2038206067","0.2","0.6","0.4","0.8","0.694041989","0.2038206067","0.08851148741","0.4821854017","","","","","","","","","","","","74","J","1","","","121","main_expt",""
"","bandit","201","569384","0.0-162.0-0.0","59758203","wem/bandit_either_3","A1NUKP1UCT2R2R","either","5","1206","","","","","","","0","0","1","0.1646827865","","0.2","0.6","0.4","0.8","","","","","0.7808088803","0.1646827865","0.1313095228","0.5695824443","","","","","","","","74","J","1","","","122","main_expt",""
"","bandit","202","571348","0.0-163.0-0.0","59758203","wem/bandit_either_3","A1NUKP1UCT2R2R","either","5","450","","","","","","","0","0","1","0.08951947698","","0.2","0.6","0.4","0.8","","","","","0.7513243775","0.08951947698","0.1990721176","0.5884468641","","","","","","","","74","J","1","","","123","main_expt",""
"","bandit","203","575300","0.0-164.0-0.0","59758203","wem/bandit_either_3","A1NUKP1UCT2R2R","either","5","2438","","","","","","","0","1","0","","0.3510587203","0.2","0.6","0.4","0.8","0.7095593687","0.09676311751","0.3510587203","0.6578864121","","","","","","","","","","","","75","K","2","","","124","main_expt",""
"","bandit","204","577777","0.0-165.0-0.0","59758203","wem/bandit_either_3","A1NUKP1UCT2R2R","either","5","964","","","","","","","0","0","1","0.6610648035","","0.2","0.6","0.4","0.8","","","","","0.6464373278","0.08914634913","0.2829787335","0.6610648035","","","","","","","","76","L","3","","","125","main_expt",""
"","bandit","205","579752","0.0-166.0-0.0","59758203","wem/bandit_either_3","A1NUKP1UCT2R2R","either","5","464","","","","","","","0","0","1","0.6745370829","","0.2","0.6","0.4","0.8","","","","","0.69855693","0.1104844084","0.3253732313","0.6745370829","","","","","","","","76","L","3","","","126","main_expt",""
"","bandit","206","581682","0.0-167.0-0.0","59758203","wem/bandit_either_3","A1NUKP1UCT2R2R","either","5","412","","","","","","","0","1","0","","0.6357656308","0.2","0.6","0.4","0.8","0.6394960802","0.1302598269","0.2969307539","0.6357656308","","","","","","","","","","","","76","L","3","","","127","main_expt",""
"","bandit","207","583616","0.0-168.0-0.0","59758203","wem/bandit_either_3","A1NUKP1UCT2R2R","either","5","424","","","","","","","0","1","0","","0.5912569563","0.2","0.6","0.4","0.8","0.5912569563","0.1739983423","0.3862322559","0.6746479632","","","","","","","","","","","","72","H","0","img/none_selected.jpg","","128","main_expt",""
"","bandit","208","585672","0.0-169.0-0.0","59758203","wem/bandit_either_3","A1NUKP1UCT2R2R","either","5","542","","","","","","","0","1","0","","0.6408154383","0.2","0.6","0.4","0.8","0.6408154383","0.2144078185","0.3399993615","0.609360971","","","","","","","","","","","","72","H","0","img/none_selected.jpg","","129","main_expt",""
"","bandit","209","587311","0.0-170.0-0.0","59758203","wem/bandit_either_3","A1NUKP1UCT2R2R","either","5","125","","","","","","","0","0","1","","0.2133227205","0.2","0.6","0.4","0.8","0.6160079471","0.2133227205","0.4343217783","0.5791775941","","","","","","","","","","","","74","J","1","","","130","main_expt",""
"","bandit","210","589383","0.0-171.0-0.0","59758203","wem/bandit_either_3","A1NUKP1UCT2R2R","either","5","562","","","","","","","0","0","1","0.3009586135","","0.2","0.6","0.4","0.8","","","","","0.6639311205","0.3009586135","0.4116870082","0.6039133906","","","","","","","","74","J","1","","","131","main_expt",""
"","bandit","211","591255","0.0-172.0-0.0","59758203","wem/bandit_either_3","A1NUKP1UCT2R2R","either","5","360","","","","","","","0","0","1","0.3257006372","","0.2","0.6","0.4","0.8","","","","","0.7314418876","0.3257006372","0.3235444519","0.5564977279","","","","","","","","74","J","1","","","132","main_expt",""
"","bandit","212","593156","0.0-173.0-0.0","59758203","wem/bandit_either_3","A1NUKP1UCT2R2R","either","5","386","","","","","","","0","0","1","","0.4204005917","0.2","0.6","0.4","0.8","0.7343064015","0.3286432436","0.4204005917","0.5453182718","","","","","","","","","","","","75","K","2","","","133","main_expt",""
"","bandit","213","595279","0.0-174.0-0.0","59758203","wem/bandit_either_3","A1NUKP1UCT2R2R","either","5","614","","","","","","","0","0","1","0.5326734174","","0.2","0.6","0.4","0.8","","","","","0.6345074403","0.3343575241","0.5326734174","0.5557967555","","","","","","","","75","K","2","","","134","main_expt",""
"","bandit","214","597641","0.0-175.0-0.0","59758203","wem/bandit_either_3","A1NUKP1UCT2R2R","either","5","848","","","","","","","0","0","1","0.6096825818","","0.2","0.6","0.4","0.8","","","","","0.752921597","0.2917270645","0.6096825818","0.5719827955","","","","","","","","75","K","2","","","135","main_expt",""
"","bandit","215","599415","0.0-176.0-0.0","59758203","wem/bandit_either_3","A1NUKP1UCT2R2R","either","5","264","","","","","","","0","0","1","","0.4756276611","0.2","0.6","0.4","0.8","0.7642539739","0.3972485531","0.6827328332","0.4756276611","","","","","","","","","","","","76","L","3","","","136","main_expt",""
"","bandit","216","601442","0.0-177.0-0.0","59758203","wem/bandit_either_3","A1NUKP1UCT2R2R","either","5","512","","","","","","","0","0","1","","0.5078949877","0.2","0.6","0.4","0.8","0.7166238274","0.4294090248","0.6604068036","0.5078949877","","","","","","","","","","","","76","L","3","","","137","main_expt",""
"","bandit","217","603794","0.0-178.0-0.0","59758203","wem/bandit_either_3","A1NUKP1UCT2R2R","either","5","839","","","","","","","0","1","0","","0.4938131475","0.2","0.6","0.4","0.8","0.713549589","0.5009988565","0.653661868","0.4938131475","","","","","","","","","","","","76","L","3","","","138","main_expt",""
"","bandit","218","606903","0.0-179.0-0.0","59758203","wem/bandit_either_3","A1NUKP1UCT2R2R","either","5","1596","","","","","","","0","0","1","","0.6905374229","0.2","0.6","0.4","0.8","0.6905374229","0.4993746949","0.6169918179","0.654612375","","","","","","","","","","","","72","H","0","img/none_selected.jpg","","139","main_expt",""
"","bandit","219","608425","0.0-180.0-0.0","59758203","wem/bandit_either_3","A1NUKP1UCT2R2R","either","5","2","","","","","","","0","0","1","","0.6614813372","0.2","0.6","0.4","0.8","0.6614813372","0.5448973659","0.6657435074","0.52663091","","","","","","","","","","","","72","H","0","img/none_selected.jpg","","140","main_expt",""
"","bandit","220","610298","0.0-181.0-0.0","59758203","wem/bandit_either_3","A1NUKP1UCT2R2R","either","5","359","","","","","","","0","1","0","","0.7024355817","0.2","0.6","0.4","0.8","0.7024355817","0.4829720837","0.6349341703","0.5976356642","","","","","","","","","","","","72","H","0","img/none_selected.jpg","","141","main_expt",""
"","bandit","221","611920","0.0-182.0-0.0","59758203","wem/bandit_either_3","A1NUKP1UCT2R2R","either","5","108","","","","","","","0","1","0","","0.5402580016","0.2","0.6","0.4","0.8","0.7185929435","0.5402580016","0.6379356982","0.5956183516","","","","","","","","","","","","74","J","1","","","142","main_expt",""
"","bandit","222","613463","0.0-183.0-0.0","59758203","wem/bandit_either_3","A1NUKP1UCT2R2R","either","5","32","","","","","","","1","0","0","0.6022688156","","0.2","0.6","0.4","0.8","","","","","0.6240660549","0.5478015274","0.6022688156","0.6432894639","","","","","","","","75","K","2","","","143","main_expt",""
"","bandit","223","615251","0.0-184.0-0.0","59758203","wem/bandit_either_3","A1NUKP1UCT2R2R","either","5","277","","","","","","","0","0","1","","0.5806731621","0.2","0.6","0.4","0.8","0.5797935966","0.5189832842","0.5806731621","0.6691106198","","","","","","","","","","","","75","K","2","","","144","main_expt",""
"","bandit","224","617048","0.0-185.0-0.0","59758203","wem/bandit_either_3","A1NUKP1UCT2R2R","either","5","280","","","","","","","0","1","0","","0.5512406412","0.2","0.6","0.4","0.8","0.520403766","0.4556604905","0.5512406412","0.677031803","","","","","","","","","","","","75","K","2","","","145","main_expt",""
"","bandit","225","618920","0.0-186.0-0.0","59758203","wem/bandit_either_3","A1NUKP1UCT2R2R","either","5","356","","","","","","","1","0","0","0.6697886415","","0.2","0.6","0.4","0.8","","","","","0.5330345992","0.48011385","0.6055708535","0.6697886415","","","","","","","","76","L","3","","","146","main_expt",""
"","bandit","226","620631","0.0-187.0-0.0","59758203","wem/bandit_either_3","A1NUKP1UCT2R2R","either","5","200","","","","","","","1","0","0","0.7101623398","","0.2","0.6","0.4","0.8","","","","","0.5692896821","0.5363471167","0.5711328773","0.7101623398","","","","","","","","76","L","3","","","147","main_expt",""
"","bandit","227","622423","0.0-188.0-0.0","59758203","wem/bandit_either_3","A1NUKP1UCT2R2R","either","5","282","","","","","","","0","1","0","","0.733230793","0.2","0.6","0.4","0.8","0.4877368026","0.4929714004","0.4258462921","0.733230793","","","","","","","","","","","","76","L","3","","","148","main_expt",""
"","bandit","228","624209","0.0-189.0-0.0","59758203","wem/bandit_either_3","A1NUKP1UCT2R2R","either","5","274","","","","","","","1","0","0","0.5936336812","","0.2","0.6","0.4","0.8","","","","","0.5936336812","0.4356177925","0.327967402","0.7010449773","","","","","","","","72","H","0","img/none_selected.jpg","","149","main_expt",""
"","bandit","229","625874","0.0-190.0-0.0","59758203","wem/bandit_either_3","A1NUKP1UCT2R2R","either","5","150","","","","","","","0","1","0","","0.7027445866","0.2","0.6","0.4","0.8","0.7027445866","0.4054894896","0.4343474627","0.6668672445","","","","","","","","","","","","72","H","0","img/none_selected.jpg","","150","main_expt",""
"","bandit","230","627591","0.0-191.0-0.0","59758203","wem/bandit_either_3","A1NUKP1UCT2R2R","either","5","203","","","","","","","0","0","1","","0.5283130311","0.2","0.6","0.4","0.8","0.7690633033","0.5283130311","0.5382828223","0.5612636021","","","","","","","","","","","","74","J","1","","","151","main_expt",""
"","bandit","231","629232","0.0-192.0-0.0","59758203","wem/bandit_either_3","A1NUKP1UCT2R2R","either","5","130","","","","","","","1","0","0","0.6323123958","","0.2","0.6","0.4","0.8","","","","","0.5989969619","0.6323123958","0.6572277468","0.7032448324","","","","","","","","74","J","1","","","152","main_expt",""
"","bandit","232","631082","0.0-193.0-0.0","59758203","wem/bandit_either_3","A1NUKP1UCT2R2R","either","5","337","","","","","","","0","1","0","","0.5847243132","0.2","0.6","0.4","0.8","0.6126787421","0.5847243132","0.668560183","0.6918543646","","","","","","","","","","","","74","J","1","","","153","main_expt",""
"","bandit","233","632961","0.0-194.0-0.0","59758203","wem/bandit_either_3","A1NUKP1UCT2R2R","either","5","365","","","","","","","0","0","1","0.6954524596","","0.2","0.6","0.4","0.8","","","","","0.5461115941","0.4285456013","0.6954524596","0.647195156","","","","","","","","75","K","2","","","154","main_expt",""
"","bandit","234","634887","0.0-195.0-0.0","59758203","wem/bandit_either_3","A1NUKP1UCT2R2R","either","5","415","","","","","","","0","0","1","0.5684527538","","0.2","0.6","0.4","0.8","","","","","0.5456348337","0.4772645207","0.5684527538","0.6135998722","","","","","","","","75","K","2","","","155","main_expt",""
"","bandit","235","636780","0.0-196.0-0.0","59758203","wem/bandit_either_3","A1NUKP1UCT2R2R","either","5","381","","","","","","","0","1","0","","0.6034375159","0.2","0.6","0.4","0.8","0.4782917504","0.4982711843","0.6034375159","0.5591033916","","","","","","","","","","","","75","K","2","","","156","main_expt",""
"","bandit","236","638696","0.0-197.0-0.0","59758203","wem/bandit_either_3","A1NUKP1UCT2R2R","either","5","401","","","","","","","0","0","1","0.5090787948","","0.2","0.6","0.4","0.8","","","","","0.4868537485","0.5275183668","0.5835723018","0.5090787948","","","","","","","","76","L","3","","","157","main_expt",""
"","bandit","237","641169","0.0-198.0-0.0","59758203","wem/bandit_either_3","A1NUKP1UCT2R2R","either","5","960","","","","","","","1","0","0","0.6087372924","","0.2","0.6","0.4","0.8","","","","","0.5361642224","0.4489423754","0.5234712835","0.6087372924","","","","","","","","76","L","3","","","158","main_expt",""
"","bandit","238","643005","0.0-199.0-0.0","59758203","wem/bandit_either_3","A1NUKP1UCT2R2R","either","5","321","","","","","","","1","0","0","0.6064578463","","0.2","0.6","0.4","0.8","","","","","0.4947944436","0.4933275403","0.5636881177","0.6064578463","","","","","","","","76","L","3","","","159","main_expt",""
"","bandit","239","644874","0.0-200.0-0.0","59758203","wem/bandit_either_3","A1NUKP1UCT2R2R","either","5","353","","","","","","","1","0","0","0.6951258233","","0.2","0.6","0.4","0.8","","","","","0.5106889885","0.4521998099","0.4785340868","0.6951258233","","","","","","","","76","L","3","","","160","main_expt",""
"","bandit","240","646673","0.0-201.0-0.0","59758203","wem/bandit_either_3","A1NUKP1UCT2R2R","either","5","288","","","","","","","1","0","0","0.7129510734","","0.2","0.6","0.4","0.8","","","","","0.4566704777","0.5114636712","0.5038962889","0.7129510734","","","","","","","","76","L","3","","","161","main_expt",""
"","bandit","241","648422","0.0-202.0-0.0","59758203","wem/bandit_either_3","A1NUKP1UCT2R2R","either","5","236","","","","","","","0","0","1","0.7028034005","","0.2","0.6","0.4","0.8","","","","","0.3259271754","0.5242674757","0.4448395692","0.7028034005","","","","","","","","76","L","3","","","162","main_expt",""
"","bandit","242","652072","0.0-203.0-0.0","59758203","wem/bandit_either_3","A1NUKP1UCT2R2R","either","5","2138","","","","","","","1","0","0","0.6293758899","","0.2","0.6","0.4","0.8","","","","","0.2806734392","0.5687322637","0.471982621","0.6293758899","","","","","","","","76","L","3","","","163","main_expt",""
"","bandit","243","653925","0.0-204.0-0.0","59758203","wem/bandit_either_3","A1NUKP1UCT2R2R","either","5","337","","","","","","","0","0","1","0.6813427096","","0.2","0.6","0.4","0.8","","","","","0.2973163189","0.5635146256","0.6517066897","0.6813427096","","","","","","","","76","L","3","","","164","main_expt",""
"","bandit","244","655546","0.0-205.0-0.0","59758203","wem/bandit_either_3","A1NUKP1UCT2R2R","either","5","107","","","","","","","0","0","1","0.7231406025","","0.2","0.6","0.4","0.8","","","","","0.2872552927","0.6588968294","0.6339143586","0.7231406025","","","","","","","","76","L","3","","","165","main_expt",""
"","bandit","245","657353","0.0-206.0-0.0","59758203","wem/bandit_either_3","A1NUKP1UCT2R2R","either","5","290","","","","","","","1","0","0","0.6274448994","","0.2","0.6","0.4","0.8","","","","","0.325395791","0.74872254","0.6507743373","0.6274448994","","","","","","","","76","L","3","","","166","main_expt",""
"","bandit","246","659341","0.0-207.0-0.0","59758203","wem/bandit_either_3","A1NUKP1UCT2R2R","either","5","474","","","","","","","0","0","1","0.6778384319","","0.2","0.6","0.4","0.8","","","","","0.3307719744","0.7741304825","0.6753437353","0.6778384319","","","","","","","","76","L","3","","","167","main_expt",""
"","bandit","247","660865","0.0-208.0-0.0","59758203","wem/bandit_either_3","A1NUKP1UCT2R2R","either","5","9","","","","","","","0","1","0","","0.6928942004","0.2","0.6","0.4","0.8","0.4033689778","0.8873722237","0.6308788189","0.6928942004","","","","","","","","","","","","76","L","3","","","168","main_expt",""
"","bandit","248","662632","0.0-209.0-0.0","59758203","wem/bandit_either_3","A1NUKP1UCT2R2R","either","5","256","","","","","","","0","1","0","","0.4089274666","0.2","0.6","0.4","0.8","0.4089274666","0.8649989169","0.6289357746","0.6181376835","","","","","","","","","","","","72","H","0","img/none_selected.jpg","","169","main_expt",""
"","bandit","249","664579","0.0-210.0-0.0","59758203","wem/bandit_either_3","A1NUKP1UCT2R2R","either","5","433","","","","","","","0","0","1","","0.8634323334","0.2","0.6","0.4","0.8","0.4033631647","0.8634323334","0.6308829817","0.6539136718","","","","","","","","","","","","74","J","1","","","170","main_expt",""
"","bandit","250","666363","0.0-211.0-0.0","59758203","wem/bandit_either_3","A1NUKP1UCT2R2R","either","5","265","","","","","","","0","1","0","","0.8050812792","0.2","0.6","0.4","0.8","0.3743415885","0.8050812792","0.6008061885","0.7935188527","","","","","","","","","","","","74","J","1","","","171","main_expt",""
"","bandit","251","668354","0.0-212.0-0.0","59758203","wem/bandit_either_3","A1NUKP1UCT2R2R","either","5","476","","","","","","","0","1","0","","0.6498855282","0.2","0.6","0.4","0.8","0.4145867416","0.7635000848","0.6498855282","0.7959482017","","","","","","","","","","","","75","K","2","","","172","main_expt",""
"","bandit","252","670334","0.0-213.0-0.0","59758203","wem/bandit_either_3","A1NUKP1UCT2R2R","either","5","464","","","","","","","0","1","0","","0.7720377381","0.2","0.6","0.4","0.8","0.4421490518","0.7793560846","0.6361658802","0.7720377381","","","","","","","","","","","","76","L","3","","","173","main_expt",""
"","bandit","253","672162","0.0-214.0-0.0","59758203","wem/bandit_either_3","A1NUKP1UCT2R2R","either","5","314","","","","","","","0","0","1","","0.373112653","0.2","0.6","0.4","0.8","0.373112653","0.7290013271","0.5494915933","0.7751150559","","","","","","","","","","","","72","H","0","img/none_selected.jpg","","174","main_expt",""
"","bandit","254","673728","0.0-215.0-0.0","59758203","wem/bandit_either_3","A1NUKP1UCT2R2R","either","5","50","","","","","","","0","1","0","","0.372221374","0.2","0.6","0.4","0.8","0.372221374","0.8353873757","0.6292002022","0.7699246652","","","","","","","","","","","","72","H","0","img/none_selected.jpg","","175","main_expt",""
"","bandit","255","675593","0.0-216.0-0.0","59758203","wem/bandit_either_3","A1NUKP1UCT2R2R","either","5","354","","","","","","","0","0","1","0.8589437223","","0.2","0.6","0.4","0.8","","","","","0.3594456443","0.8589437223","0.4999600136","0.8092821718","","","","","","","","74","J","1","","","176","main_expt",""
"","bandit","256","677564","0.0-217.0-0.0","59758203","wem/bandit_either_3","A1NUKP1UCT2R2R","either","5","456","","","","","","","0","1","0","","0.8824379228","0.2","0.6","0.4","0.8","0.3705823864","0.8824379228","0.4500304274","0.7728258073","","","","","","","","","","","","74","J","1","","","177","main_expt",""
"","bandit","257","679517","0.0-218.0-0.0","59758203","wem/bandit_either_3","A1NUKP1UCT2R2R","either","5","434","","","","","","","1","0","0","0.4626099748","","0.2","0.6","0.4","0.8","","","","","0.3042584581","0.8862787626","0.4626099748","0.8128952128","","","","","","","","75","K","2","","","178","main_expt",""
"","bandit","258","681427","0.0-219.0-0.0","59758203","wem/bandit_either_3","A1NUKP1UCT2R2R","either","5","394","","","","","","","0","0","1","0.3074659707","","0.2","0.6","0.4","0.8","","","","","0.3056645996","0.8851661012","0.3074659707","0.7878088044","","","","","","","","75","K","2","","","179","main_expt",""
"","bandit","259","684633","0.0-220.0-0.0","59758203","wem/bandit_either_3","A1NUKP1UCT2R2R","either","5","1692","","","","","","","0","0","1","","0.2445312817","0.2","0.6","0.4","0.8","0.3124458775","0.8623840347","0.2445312817","0.7626215198","","","","","","","","","","","","75","K","2","","","180","main_expt",""
"","bandit","260","686755","0.0-221.0-0.0","59758203","wem/bandit_either_3","A1NUKP1UCT2R2R","either","5","608","","","","","","","0","0","1","0.2284870313","","0.2","0.6","0.4","0.8","","","","","0.2597333415","0.8815853427","0.2284870313","0.7059637017","","","","","","","","75","K","2","","","181","main_expt",""
"","bandit","261","689305","0.0-222.0-0.0","59758203","wem/bandit_either_3","A1NUKP1UCT2R2R","either","5","1035","","","","","","","0","0","1","0.2195648065","","0.2","0.6","0.4","0.8","","","","","0.2117009826","0.8955826305","0.2195648065","0.6691747745","","","","","","","","75","K","2","","","182","main_expt",""
"","bandit","262","691355","0.0-223.0-0.0","59758203","wem/bandit_either_3","A1NUKP1UCT2R2R","either","5","536","","","","","","","1","0","0","0.2327716204","","0.2","0.6","0.4","0.8","","","","","0.2327762041","0.9362873759","0.2327716204","0.5523838876","","","","","","","","75","K","2","","","183","main_expt",""
"","bandit","263","692940","0.0-224.0-0.0","59758203","wem/bandit_either_3","A1NUKP1UCT2R2R","either","5","68","","","","","","","0","1","0","","0.3207903029","0.2","0.6","0.4","0.8","0.2750618684","0.9484326647","0.3207903029","0.5451875246","","","","","","","","","","","","75","K","2","","","184","main_expt",""
"","bandit","264","694712","0.0-225.0-0.0","59758203","wem/bandit_either_3","A1NUKP1UCT2R2R","either","5","258","","","","","","","1","0","0","0.6090771744","","0.2","0.6","0.4","0.8","","","","","0.2305846964","0.9660783121","0.3609723674","0.6090771744","","","","","","","","76","L","3","","","185","main_expt",""
"","bandit","265","696833","0.0-226.0-0.0","59758203","wem/bandit_either_3","A1NUKP1UCT2R2R","either","5","607","","","","","","","0","0","1","0.5810996076","","0.2","0.6","0.4","0.8","","","","","0.2597669424","0.9665376101","0.4442397518","0.5810996076","","","","","","","","76","L","3","","","186","main_expt",""
"","bandit","266","698482","0.0-227.0-0.0","59758203","wem/bandit_either_3","A1NUKP1UCT2R2R","either","5","134","","","","","","","0","0","1","0.4445572548","","0.2","0.6","0.4","0.8","","","","","0.2143742246","0.9644184371","0.4478442549","0.4445572548","","","","","","","","76","L","3","","","187","main_expt",""
"","bandit","267","700042","0.0-228.0-0.0","59758203","wem/bandit_either_3","A1NUKP1UCT2R2R","either","5","40","","","","","","","0","0","1","0.4113554433","","0.2","0.6","0.4","0.8","","","","","0.2294707647","0.9731237162","0.4026396634","0.4113554433","","","","","","","","76","L","3","","","188","main_expt",""
"","bandit","268","701962","0.0-229.0-0.0","59758203","wem/bandit_either_3","A1NUKP1UCT2R2R","either","5","405","","","","","","","1","0","0","0.4053553249","","0.2","0.6","0.4","0.8","","","","","0.2469430613","0.9787475226","0.5072589837","0.4053553249","","","","","","","","76","L","3","","","189","main_expt",""
"","bandit","269","703781","0.0-230.0-0.0","59758203","wem/bandit_either_3","A1NUKP1UCT2R2R","either","5","303","","","","","","","1","0","0","0.4927633492","","0.2","0.6","0.4","0.8","","","","","0.2437728268","0.9847816181","0.5234843415","0.4927633492","","","","","","","","76","L","3","","","190","main_expt",""
"","bandit","270","705328","0.0-231.0-0.0","59758203","wem/bandit_either_3","A1NUKP1UCT2R2R","either","5","32","","","","","","","1","0","0","0.428678546","","0.2","0.6","0.4","0.8","","","","","0.1655579887","0.9713064587","0.5054414672","0.428678546","","","","","","","","76","L","3","","","191","main_expt",""
"","bandit","271","707898","0.0-232.0-0.0","59758203","wem/bandit_either_3","A1NUKP1UCT2R2R","either","5","1051","","","","","","","0","0","1","0.3358015867","","0.2","0.6","0.4","0.8","","","","","0.1501427492","0.9558555722","0.7037613703","0.3358015867","","","","","","","","76","L","3","","","192","main_expt",""
"","bandit","272","709650","0.0-233.0-0.0","59758203","wem/bandit_either_3","A1NUKP1UCT2R2R","either","5","238","","","","","","","0","0","1","0.2816430679","","0.2","0.6","0.4","0.8","","","","","0.2062706367","0.9443800135","0.5980286963","0.2816430679","","","","","","","","76","L","3","","","193","main_expt",""
"","bandit","273","711456","0.0-234.0-0.0","59758203","wem/bandit_either_3","A1NUKP1UCT2R2R","either","5","290","","","","","","","1","0","0","0.2951519504","","0.2","0.6","0.4","0.8","","","","","0.2782937815","0.947825408","0.5607231578","0.2951519504","","","","","","","","76","L","3","","","194","main_expt",""
"","bandit","274","713263","0.0-235.0-0.0","59758203","wem/bandit_either_3","A1NUKP1UCT2R2R","either","5","293","","","","","","","0","0","1","0.2482291913","","0.2","0.6","0.4","0.8","","","","","0.2393938873","0.9531013361","0.6222063369","0.2482291913","","","","","","","","76","L","3","","","195","main_expt",""
"","bandit","275","715059","0.0-236.0-0.0","59758203","wem/bandit_either_3","A1NUKP1UCT2R2R","either","5","280","","","","","","","0","1","0","","0.2548661126","0.2","0.6","0.4","0.8","0.3385483064","0.9653581558","0.7092042058","0.2548661126","","","","","","","","","","","","76","L","3","","","196","main_expt",""
"","bandit","276","716671","0.0-237.0-0.0","59758203","wem/bandit_either_3","A1NUKP1UCT2R2R","either","5","99","","","","","","","1","0","0","0.3474357388","","0.2","0.6","0.4","0.8","","","","","0.3474357388","0.9774234012","0.7397780251","0.2789697966","","","","","","","","72","H","0","img/none_selected.jpg","","197","main_expt",""
"","bandit","277","718545","0.0-238.0-0.0","59758203","wem/bandit_either_3","A1NUKP1UCT2R2R","either","5","360","","","","","","","0","0","1","","0.4511600961","0.2","0.6","0.4","0.8","0.4511600961","0.9866112083","0.6977166648","0.2893473624","","","","","","","","","","","","72","H","0","img/none_selected.jpg","","198","main_expt",""
"","bandit","278","720322","0.0-239.0-0.0","59758203","wem/bandit_either_3","A1NUKP1UCT2R2R","either","5","262","","","","","","","0","0","1","0.4387406867","","0.2","0.6","0.4","0.8","","","","","0.4387406867","0.9889390623","0.591703898","0.2499124536","","","","","","","","72","H","0","img/none_selected.jpg","","199","main_expt",""
"","bandit","279","722960","0.0-240.0-0.0","59758203","wem/bandit_either_3","A1NUKP1UCT2R2R","either","5","1124","","","","","","","0","0","1","","0.4368135332","0.2","0.6","0.4","0.8","0.4368135332","0.9894921125","0.5107967375","0.2643429758","","","","","","","","","","","","72","H","0","img/none_selected.jpg","","200","main_expt",""
"","bandit","280","724807","0.0-241.0-0.0","59758203","wem/bandit_either_3","A1NUKP1UCT2R2R","either","5","334","","","","","","","0","1","0","","0.989248002","0.2","0.6","0.4","0.8","0.3070084091","0.989248002","0.6528148869","0.2382870841","","","","","","","","","","","","74","J","1","","","201","main_expt",""
"","bandit","281","726570","0.0-242.0-0.0","59758203","wem/bandit_either_3","A1NUKP1UCT2R2R","either","5","250","","","","","","","0","1","0","","0.6892998309","0.2","0.6","0.4","0.8","0.3603585946","0.9957983392","0.6892998309","0.1604624283","","","","","","","","","","","","75","K","2","","","202","main_expt",""
"","bandit","282","728356","0.0-243.0-0.0","59758203","wem/bandit_either_3","A1NUKP1UCT2R2R","either","5","268","","","","","","","0","0","1","","0.1407610566","0.2","0.6","0.4","0.8","0.260320329","0.9958893","0.6989476798","0.1407610566","","","","","","","","","","","","76","L","3","","","203","main_expt",""
"","bandit","283","730208","0.0-244.0-0.0","59758203","wem/bandit_either_3","A1NUKP1UCT2R2R","either","5","331","","","","","","","0","0","1","0.1343245238","","0.2","0.6","0.4","0.8","","","","","0.2003029851","0.9955962674","0.772264117","0.1343245238","","","","","","","","76","L","3","","","204","main_expt",""
"","bandit","284","732072","0.0-245.0-0.0","59758203","wem/bandit_either_3","A1NUKP1UCT2R2R","either","5","349","","","","","","","0","0","1","0.1715400642","","0.2","0.6","0.4","0.8","","","","","0.1922312923","0.9943432705","0.7366863645","0.1715400642","","","","","","","","76","L","3","","","205","main_expt",""
"","bandit","285","733922","0.0-246.0-0.0","59758203","wem/bandit_either_3","A1NUKP1UCT2R2R","either","5","334","","","","","","","0","0","1","","0.1936085521","0.2","0.6","0.4","0.8","0.1936085521","0.9982320458","0.7477287432","0.117617648","","","","","","","","","","","","72","H","0","img/none_selected.jpg","","206","main_expt",""
"","bandit","286","735820","0.0-247.0-0.0","59758203","wem/bandit_either_3","A1NUKP1UCT2R2R","either","5","378","","","","","","","0","0","1","","0.1821705986","0.2","0.6","0.4","0.8","0.1821705986","0.9976530308","0.8185776196","0.1182717864","","","","","","","","","","","","72","H","0","img/none_selected.jpg","","207","main_expt",""
"","bandit","287","737343","0.0-248.0-0.0","59758203","wem/bandit_either_3","A1NUKP1UCT2R2R","either","5","0","","","","","","","0","0","1","","0.1145050302","0.2","0.6","0.4","0.8","0.1145050302","0.9961811318","0.8161769506","0.1445047472","","","","","","","","","","","","72","H","0","img/none_selected.jpg","","208","main_expt",""
"","bandit","288","739184","0.0-249.0-0.0","59758203","wem/bandit_either_3","A1NUKP1UCT2R2R","either","5","325","","","","","","","0","1","0","","0.9977639941","0.2","0.6","0.4","0.8","0.1206637037","0.9977639941","0.8224464957","0.1264159314","","","","","","","","","","","","74","J","1","","","209","main_expt",""
"","bandit","289","740991","0.0-250.0-0.0","59758203","wem/bandit_either_3","A1NUKP1UCT2R2R","either","5","292","","","","","","","0","1","0","","0.7392866018","0.2","0.6","0.4","0.8","0.1422927172","0.9953783407","0.7392866018","0.1208777168","","","","","","","","","","","","75","K","2","","","210","main_expt",""
"","bandit","290","742769","0.0-251.0-0.0","59758203","wem/bandit_either_3","A1NUKP1UCT2R2R","either","5","263","","","","","","","1","0","0","0.1733448518","","0.2","0.6","0.4","0.8","","","","","0.1811219169","0.9976351195","0.7125411919","0.1733448518","","","","","","","","76","L","3","","","211","main_expt",""
"","bandit","291","744687","0.0-252.0-0.0","59758203","wem/bandit_either_3","A1NUKP1UCT2R2R","either","5","401","","","","","","","0","0","1","","0.1085262221","0.2","0.6","0.4","0.8","0.1982527665","0.9983589292","0.7191881067","0.1085262221","","","","","","","","","","","","76","L","3","","","212","main_expt",""
"","bandit","292","746592","0.0-253.0-0.0","59758203","wem/bandit_either_3","A1NUKP1UCT2R2R","either","5","390","","","","","","","0","0","1","0.08145678985","","0.2","0.6","0.4","0.8","","","","","0.124448309","0.9960427138","0.7523845147","0.08145678985","","","","","","","","76","L","3","","","213","main_expt",""
"","bandit","293","748300","0.0-254.0-0.0","59758203","wem/bandit_either_3","A1NUKP1UCT2R2R","either","5","193","","","","","","","0","0","1","","0.05725631888","0.2","0.6","0.4","0.8","0.1036015692","0.9924650588","0.7193420906","0.05725631888","","","","","","","","","","","","76","L","3","","","214","main_expt",""
"","bandit","294","750217","0.0-255.0-0.0","59758203","wem/bandit_either_3","A1NUKP1UCT2R2R","either","5","402","","","","","","","0","0","1","","0.14458031","0.2","0.6","0.4","0.8","0.14458031","0.9858211903","0.6784461291","0.04356988172","","","","","","","","","","","","72","H","0","img/none_selected.jpg","","215","main_expt",""
"","bandit","295","752144","0.0-256.0-0.0","59758203","wem/bandit_either_3","A1NUKP1UCT2R2R","either","5","410","","","","","","","0","0","1","","0.2094876981","0.2","0.6","0.4","0.8","0.2094876981","0.9915289077","0.5658185063","0.04316154837","","","","","","","","","","","","72","H","0","img/none_selected.jpg","","216","main_expt",""
"","bandit","296","754079","0.0-257.0-0.0","59758203","wem/bandit_either_3","A1NUKP1UCT2R2R","either","5","404","","","","","","","0","1","0","","0.24936904","0.2","0.6","0.4","0.8","0.24936904","0.9929544916","0.4886301847","0.03453558383","","","","","","","","","","","","72","H","0","img/none_selected.jpg","","217","main_expt",""
"","bandit","297","755856","0.0-258.0-0.0","59758203","wem/bandit_either_3","A1NUKP1UCT2R2R","either","5","258","","","","","","","0","1","0","","0.9741721496","0.2","0.6","0.4","0.8","0.2006789107","0.9741721496","0.5674985979","0.03800932399","","","","","","","","","","","","74","J","1","","","218","main_expt",""
"","bandit","298","757884","0.0-259.0-0.0","59758203","wem/bandit_either_3","A1NUKP1UCT2R2R","either","5","509","","","","","","","0","0","1","0.6088772151","","0.2","0.6","0.4","0.8","","","","","0.2118480588","0.9413517393","0.6088772151","0.07914639327","","","","","","","","75","K","2","","","219","main_expt",""
"","bandit","299","759805","0.0-260.0-0.0","59758203","wem/bandit_either_3","A1NUKP1UCT2R2R","either","5","406","","","","","","","0","0","1","","0.5856238885","0.2","0.6","0.4","0.8","0.2159213458","0.9230346446","0.5856238885","0.07044987786","","","","","","","","","","","","75","K","2","","","220","main_expt",""
"","bandit","300","761943","0.0-261.0-0.0","59758203","wem/bandit_either_3","A1NUKP1UCT2R2R","either","5","622","","","","","","","0","1","0","","0.6601978635","0.2","0.6","0.4","0.8","0.2097338805","0.9216350241","0.6601978635","0.1351506501","","","","","","","","","","","","75","K","2","","","221","main_expt",""
"","bandit","301","763738","0.0-262.0-0.0","59758203","wem/bandit_either_3","A1NUKP1UCT2R2R","either","5","278","","","","","","","0","0","1","0.2099108548","","0.2","0.6","0.4","0.8","","","","","0.1468233299","0.9093406134","0.6540659739","0.2099108548","","","","","","","","76","L","3","","","222","main_expt",""
"","bandit","302","765696","0.0-263.0-0.0","59758203","wem/bandit_either_3","A1NUKP1UCT2R2R","either","5","443","","","","","","","0","0","1","0.2971693323","","0.2","0.6","0.4","0.8","","","","","0.1379540926","0.8361447498","0.7010542315","0.2971693323","","","","","","","","76","L","3","","","223","main_expt",""
"","bandit","303","768909","0.0-264.0-0.0","59758203","wem/bandit_either_3","A1NUKP1UCT2R2R","either","5","1691","","","","","","","0","0","1","0.2754671199","","0.2","0.6","0.4","0.8","","","","","0.1943723139","0.8626161161","0.7972730751","0.2754671199","","","","","","","","76","L","3","","","224","main_expt",""
"","bandit","304","770873","0.0-265.0-0.0","59758203","wem/bandit_either_3","A1NUKP1UCT2R2R","either","5","435","","","","","","","0","0","1","","0.2949344278","0.2","0.6","0.4","0.8","0.2949344278","0.9176165053","0.8726314772","0.2483133052","","","","","","","","","","","","72","H","0","img/none_selected.jpg","","225","main_expt",""
"","bandit","305","772721","0.0-266.0-0.0","59758203","wem/bandit_either_3","A1NUKP1UCT2R2R","either","5","332","","","","","","","0","1","0","","0.4040967375","0.2","0.6","0.4","0.8","0.4040967375","0.9516545376","0.8569150835","0.2945032007","","","","","","","","","","","","72","H","0","img/none_selected.jpg","","226","main_expt",""
"","bandit","306","774791","0.0-267.0-0.0","59758203","wem/bandit_either_3","A1NUKP1UCT2R2R","either","5","556","","","","","","","0","1","0","","0.9448551655","0.2","0.6","0.4","0.8","0.4369809926","0.9448551655","0.8773762417","0.2544933329","","","","","","","","","","","","74","J","1","","","227","main_expt",""
"","bandit","307","776711","0.0-268.0-0.0","59758203","wem/bandit_either_3","A1NUKP1UCT2R2R","either","5","406","","","","","","","1","0","0","0.8514828757","","0.2","0.6","0.4","0.8","","","","","0.4228749262","0.9298030406","0.8514828757","0.22227057","","","","","","","","75","K","2","","","228","main_expt",""
"","bandit","308","778848","0.0-269.0-0.0","59758203","wem/bandit_either_3","A1NUKP1UCT2R2R","either","5","620","","","","","","","0","1","0","","0.893786405","0.2","0.6","0.4","0.8","0.4953143479","0.9022116856","0.893786405","0.2319557967","","","","","","","","","","","","75","K","2","","","229","main_expt",""
"","bandit","309","780744","0.0-270.0-0.0","59758203","wem/bandit_either_3","A1NUKP1UCT2R2R","either","5","364","","","","","","","0","0","1","0.3107577299","","0.2","0.6","0.4","0.8","","","","","0.4752889979","0.8934587516","0.9350514117","0.3107577299","","","","","","","","76","L","3","","","230","main_expt",""
"","bandit","310","782540","0.0-271.0-0.0","59758203","wem/bandit_either_3","A1NUKP1UCT2R2R","either","5","277","","","","","","","0","0","1","0.3046703461","","0.2","0.6","0.4","0.8","","","","","0.4887049862","0.8403693225","0.9139197991","0.3046703461","","","","","","","","76","L","3","","","231","main_expt",""
"","bandit","311","784193","0.0-272.0-0.0","59758203","wem/bandit_either_3","A1NUKP1UCT2R2R","either","5","134","","","","","","","0","0","1","0.4259459217","","0.2","0.6","0.4","0.8","","","","","0.6065944358","0.7373772703","0.8753904063","0.4259459217","","","","","","","","76","L","3","","","232","main_expt",""
"","bandit","312","786042","0.0-273.0-0.0","59758203","wem/bandit_either_3","A1NUKP1UCT2R2R","either","5","332","","","","","","","1","0","0","0.5320380184","","0.2","0.6","0.4","0.8","","","","","0.5320380184","0.7275490615","0.807664976","0.3391655585","","","","","","","","72","H","0","img/none_selected.jpg","","233","main_expt",""
"","bandit","313","788400","0.0-274.0-0.0","59758203","wem/bandit_either_3","A1NUKP1UCT2R2R","either","5","843","","","","","","","0","1","0","","0.5845689413","0.2","0.6","0.4","0.8","0.5845689413","0.6910989812","0.817303243","0.3380141995","","","","","","","","","","","","72","H","0","img/none_selected.jpg","","234","main_expt",""
"","bandit","314","790281","0.0-275.0-0.0","59758203","wem/bandit_either_3","A1NUKP1UCT2R2R","either","5","364","","","","","","","0","1","0","","0.6506848601","0.2","0.6","0.4","0.8","0.4424117598","0.6506848601","0.8320050337","0.2949514339","","","","","","","","","","","","74","J","1","","","235","main_expt",""
"","bandit","315","792161","0.0-276.0-0.0","59758203","wem/bandit_either_3","A1NUKP1UCT2R2R","either","5","364","","","","","","","0","0","1","","0.8539654836","0.2","0.6","0.4","0.8","0.4411324282","0.589166471","0.8539654836","0.2575094814","","","","","","","","","","","","75","K","2","","","236","main_expt",""
"","bandit","316","794107","0.0-277.0-0.0","59758203","wem/bandit_either_3","A1NUKP1UCT2R2R","either","5","430","","","","","","","0","1","0","","0.8151920012","0.2","0.6","0.4","0.8","0.5792865955","0.5475273787","0.8151920012","0.3298960346","","","","","","","","","","","","75","K","2","","","237","main_expt",""
"","bandit","317","796953","0.0-278.0-0.0","59758203","wem/bandit_either_3","A1NUKP1UCT2R2R","either","5","1330","","","","","","","0","0","1","0.3922637729","","0.2","0.6","0.4","0.8","","","","","0.6435093149","0.5644141111","0.8724257749","0.3922637729","","","","","","","","76","L","3","","","238","main_expt",""
"","bandit","318","798881","0.0-279.0-0.0","59758203","wem/bandit_either_3","A1NUKP1UCT2R2R","either","5","410","","","","","","","0","0","1","0.3200188668","","0.2","0.6","0.4","0.8","","","","","0.571754567","0.557522906","0.8232187668","0.3200188668","","","","","","","","76","L","3","","","239","main_expt",""
"","bandit","319","801040","0.0-280.0-0.0","59758203","wem/bandit_either_3","A1NUKP1UCT2R2R","either","5","643","","","","","","","0","0","1","0.3427015143","","0.2","0.6","0.4","0.8","","","","","0.6642130709","0.603497511","0.8306623225","0.3427015143","","","","","","","","76","L","3","","","240","main_expt",""
"","bandit","320","802841","0.0-281.0-0.0","59758203","wem/bandit_either_3","A1NUKP1UCT2R2R","either","5","285","","","","","","","0","0","1","","0.702894688","0.2","0.6","0.4","0.8","0.702894688","0.5998739494","0.7592816599","0.3027961335","","","","","","","","","","","","72","H","0","img/none_selected.jpg","","241","main_expt",""
"","bandit","321","805580","0.0-282.0-0.0","59758203","wem/bandit_either_3","A1NUKP1UCT2R2R","either","5","1222","","","","","","","0","0","1","","0.6468691102","0.2","0.6","0.4","0.8","0.6468691102","0.5674661637","0.8354326854","0.2916945226","","","","","","","","","","","","72","H","0","img/none_selected.jpg","","242","main_expt",""
"","bandit","322","807864","0.0-283.0-0.0","59758203","wem/bandit_either_3","A1NUKP1UCT2R2R","either","5","766","","","","","","","0","0","1","0.7073159297","","0.2","0.6","0.4","0.8","","","","","0.7073159297","0.620083209","0.8387573723","0.2703759756","","","","","","","","72","H","0","img/none_selected.jpg","","243","main_expt",""
"","bandit","323","809890","0.0-284.0-0.0","59758203","wem/bandit_either_3","A1NUKP1UCT2R2R","either","5","510","","","","","","","1","0","0","0.7089992968","","0.2","0.6","0.4","0.8","","","","","0.6719420595","0.7089992968","0.8683205951","0.2055036404","","","","","","","","74","J","1","","","244","main_expt",""
"","bandit","324","812135","0.0-285.0-0.0","59758203","wem/bandit_either_3","A1NUKP1UCT2R2R","either","5","732","","","","","","","0","1","0","","0.6816226354","0.2","0.6","0.4","0.8","0.7396289485","0.6816226354","0.7825192054","0.2458168489","","","","","","","","","","","","74","J","1","","","245","main_expt",""
