"consent","trial_type","trial_index","time_elapsed","internal_node_id","subjID","study","MID","cond","drift","rt","responses","key_press","expt_phase","like","value","connected","gems","bombs","no_reward","GemPrChosen","BombPrChosen","GainOverPainPr_0","GainOverPainPr_1","GainOverPainPr_2","GainOverPainPr_3","LosePr_0","LosePr_1","LosePr_2","LosePr_3","WinPr_0","WinPr_1","WinPr_2","WinPr_3","Q0","Q1","Q2","gender","age","ethnicity","target","respCharCode","respKey","respChoiceNum","respChoice","practice","trial_counter","trial_label","button_pressed"
"INL_behavioral_consent_30min_online.html","consent","0","29884","0.0-0.0","60632881","wem/bandit_either_3","A3LJ2FHESYV9QQ","either","8","","","","","","","","","","","","","","","","","","","","","","","","","","","","","","","","","","","","","","",""
"","survey-text","1","36827","0.0-1.0","60632881","wem/bandit_either_3","A3LJ2FHESYV9QQ","either","8","5935","{""Q0"":""A3LJ2FHESYV9QQ""}","","","","","","","","","","","","","","","","","","","","","","","","","","","","","","","","","","","","",""
"","text","2","51994","0.0-2.0","60632881","wem/bandit_either_3","A3LJ2FHESYV9QQ","either","8","14164","","32","","","","","","","","","","","","","","","","","","","","","","","","","","","","","","","","","","","",""
"","text","3","57918","0.0-3.0","60632881","wem/bandit_either_3","A3LJ2FHESYV9QQ","either","8","5923","","32","","","","","","","","","","","","","","","","","","","","","","","","","","","","","","","","","","","",""
"","text","4","63791","0.0-4.0","60632881","wem/bandit_either_3","A3LJ2FHESYV9QQ","either","8","5873","","32","","","","","","","","","","","","","","","","","","","","","","","","","","","","","","","","","","","",""
"","text","5","91173","0.0-5.0","60632881","wem/bandit_either_3","A3LJ2FHESYV9QQ","either","8","27380","","32","","","","","","","","","","","","","","","","","","","","","","","","","","","","","","","","","","","",""
"","text","6","107325","0.0-6.0","60632881","wem/bandit_either_3","A3LJ2FHESYV9QQ","either","8","16152","","32","","","","","","","","","","","","","","","","","","","","","","","","","","","","","","","","","","","",""
"","text","7","114334","0.0-7.0","60632881","wem/bandit_either_3","A3LJ2FHESYV9QQ","either","8","7006","","32","","","","","","","","","","","","","","","","","","","","","","","","","","","","","","","","","","","",""
"","text","8","119782","0.0-8.0","60632881","wem/bandit_either_3","A3LJ2FHESYV9QQ","either","8","5446","","32","","","","","","","","","","","","","","","","","","","","","","","","","","","","","","","","","","","",""
"","identification","9","147225","0.0-9.0-0.0","60632881","wem/bandit_either_3","A3LJ2FHESYV9QQ","either","8","27429","","","","3","6","3","","","","","","","","","","","","","","","","","","","","","","","","the village of Zur","","","","","","","",""
"","identification","10","165149","0.0-9.0-1.0","60632881","wem/bandit_either_3","A3LJ2FHESYV9QQ","either","8","16911","","","","1","3","0","","","","","","","","","","","","","","","","","","","","","","","","the village of Nyx","","","","","","","",""
"","text","11","175244","0.0-10.0","60632881","wem/bandit_either_3","A3LJ2FHESYV9QQ","either","8","9091","","32","","","","","","","","","","","","","","","","","","","","","","","","","","","","","","","","","","","",""
"","text","12","179098","0.0-11.0","60632881","wem/bandit_either_3","A3LJ2FHESYV9QQ","either","8","3853","","32","","","","","","","","","","","","","","","","","","","","","","","","","","","","","","","","","","","",""
"","text","13","181610","0.0-12.0","60632881","wem/bandit_either_3","A3LJ2FHESYV9QQ","either","8","2510","","32","","","","","","","","","","","","","","","","","","","","","","","","","","","","","","","","","","","",""
"","text","14","185396","0.0-13.0","60632881","wem/bandit_either_3","A3LJ2FHESYV9QQ","either","8","3784","","32","","","","","","","","","","","","","","","","","","","","","","","","","","","","","","","","","","","",""
"","bandit","15","191162","0.0-14.0-0.0","60632881","wem/bandit_either_3","A3LJ2FHESYV9QQ","either","8","4260","","","","","","","0","0","1","0","0","","","","","0","","","","0","","","","","","","","","","","74","J","0","img/none_selected_demo.jpg","true","0","",""
"","bandit","16","194577","0.0-15.0-0.0","60632881","wem/bandit_either_3","A3LJ2FHESYV9QQ","either","8","1909","","","","","","","0","0","1","0","0","","","","","0","","","","0","","","","","","","","","","","75","K","0","img/none_selected_demo.jpg","true","0","",""
"","text","17","203314","0.0-16.0","60632881","wem/bandit_either_3","A3LJ2FHESYV9QQ","either","8","8735","","32","","","","","","","","","","","","","","","","","","","","","","","","","","","","","","","","","","","",""
"","text","18","223657","0.0-17.0","60632881","wem/bandit_either_3","A3LJ2FHESYV9QQ","either","8","20342","","32","","","","","","","","","","","","","","","","","","","","","","","","","","","","","","","","","","","",""
"","text","19","231624","0.0-18.0","60632881","wem/bandit_either_3","A3LJ2FHESYV9QQ","either","8","7966","","32","","","","","","","","","","","","","","","","","","","","","","","","","","","","","","","","","","","",""
"","text","20","235266","0.0-19.0","60632881","wem/bandit_either_3","A3LJ2FHESYV9QQ","either","8","3641","","32","","","","","","","","","","","","","","","","","","","","","","","","","","","","","","","","","","","",""
"","bandit","21","237799","0.0-20.0-0.0","60632881","wem/bandit_either_3","A3LJ2FHESYV9QQ","either","8","1028","","","","","","","1","0","0","0.8","","0.5","0.5","","","","","","","0.8","0.2","","","","","","","","","","74","J","0","img/none_selected_demo.jpg","true","0","80_20_practice",""
"","bandit","22","239879","0.0-20.0-1.0","60632881","wem/bandit_either_3","A3LJ2FHESYV9QQ","either","8","574","","","","","","","0","1","0","","0.8","0.5","0.5","","","0.8","0.2","","","","","","","","","","","","","","74","J","0","img/none_selected_demo.jpg","true","0","80_20_practice",""
"","bandit","23","242655","0.0-20.0-2.0","60632881","wem/bandit_either_3","A3LJ2FHESYV9QQ","either","8","1270","","","","","","","0","1","0","","0.8","0.5","0.5","","","0.8","0.2","","","","","","","","","","","","","","74","J","0","img/none_selected_demo.jpg","true","0","80_20_practice",""
"","bandit","24","245687","0.0-20.0-3.0","60632881","wem/bandit_either_3","A3LJ2FHESYV9QQ","either","8","1526","","","","","","","0","0","1","","0.2","0.5","0.5","","","0.8","0.2","","","","","","","","","","","","","","75","K","1","","true","0","80_20_practice",""
"","bandit","25","247647","0.0-20.0-4.0","60632881","wem/bandit_either_3","A3LJ2FHESYV9QQ","either","8","455","","","","","","","0","0","1","0.2","","0.5","0.5","","","","","","","0.8","0.2","","","","","","","","","","75","K","1","","true","0","80_20_practice",""
"","bandit","26","249463","0.0-20.0-5.0","60632881","wem/bandit_either_3","A3LJ2FHESYV9QQ","either","8","310","","","","","","","0","0","1","0.8","","0.5","0.5","","","","","","","0.8","0.2","","","","","","","","","","74","J","0","img/none_selected_demo.jpg","true","0","80_20_practice",""
"","bandit","27","251289","0.0-20.0-6.0","60632881","wem/bandit_either_3","A3LJ2FHESYV9QQ","either","8","318","","","","","","","1","0","0","0.8","","0.5","0.5","","","","","","","0.8","0.2","","","","","","","","","","74","J","0","img/none_selected_demo.jpg","true","0","80_20_practice",""
"","bandit","28","253191","0.0-20.0-7.0","60632881","wem/bandit_either_3","A3LJ2FHESYV9QQ","either","8","394","","","","","","","0","0","1","","0.2","0.5","0.5","","","0.8","0.2","","","","","","","","","","","","","","75","K","1","","true","0","80_20_practice",""
"","bandit","29","255014","0.0-20.0-8.0","60632881","wem/bandit_either_3","A3LJ2FHESYV9QQ","either","8","317","","","","","","","0","1","0","","0.8","0.5","0.5","","","0.8","0.2","","","","","","","","","","","","","","74","J","0","img/none_selected_demo.jpg","true","0","80_20_practice",""
"","bandit","30","256974","0.0-20.0-9.0","60632881","wem/bandit_either_3","A3LJ2FHESYV9QQ","either","8","454","","","","","","","1","0","0","0.8","","0.5","0.5","","","","","","","0.8","0.2","","","","","","","","","","74","J","0","img/none_selected_demo.jpg","true","0","80_20_practice",""
"","bandit","31","258777","0.0-20.0-10.0","60632881","wem/bandit_either_3","A3LJ2FHESYV9QQ","either","8","296","","","","","","","0","1","0","","0.8","0.5","0.5","","","0.8","0.2","","","","","","","","","","","","","","74","J","0","img/none_selected_demo.jpg","true","0","80_20_practice",""
"","bandit","32","260559","0.0-20.0-11.0","60632881","wem/bandit_either_3","A3LJ2FHESYV9QQ","either","8","276","","","","","","","0","1","0","","0.8","0.5","0.5","","","0.8","0.2","","","","","","","","","","","","","","74","J","0","img/none_selected_demo.jpg","true","0","80_20_practice",""
"","bandit","33","262390","0.0-20.0-12.0","60632881","wem/bandit_either_3","A3LJ2FHESYV9QQ","either","8","325","","","","","","","0","1","0","","0.8","0.5","0.5","","","0.8","0.2","","","","","","","","","","","","","","74","J","0","img/none_selected_demo.jpg","true","0","80_20_practice",""
"","bandit","34","264151","0.0-20.0-13.0","60632881","wem/bandit_either_3","A3LJ2FHESYV9QQ","either","8","255","","","","","","","0","1","0","","0.8","0.5","0.5","","","0.8","0.2","","","","","","","","","","","","","","74","J","0","img/none_selected_demo.jpg","true","0","80_20_practice",""
"","bandit","35","265958","0.0-20.0-14.0","60632881","wem/bandit_either_3","A3LJ2FHESYV9QQ","either","8","301","","","","","","","0","0","1","0.2","","0.5","0.5","","","","","","","0.8","0.2","","","","","","","","","","75","K","1","","true","0","80_20_practice",""
"","bandit","36","267741","0.0-20.0-15.0","60632881","wem/bandit_either_3","A3LJ2FHESYV9QQ","either","8","278","","","","","","","0","1","0","","0.2","0.5","0.5","","","0.8","0.2","","","","","","","","","","","","","","75","K","1","","true","0","80_20_practice",""
"","bandit","37","269615","0.0-20.0-16.0","60632881","wem/bandit_either_3","A3LJ2FHESYV9QQ","either","8","367","","","","","","","0","0","1","0.2","","0.5","0.5","","","","","","","0.8","0.2","","","","","","","","","","75","K","1","","true","0","80_20_practice",""
"","bandit","38","271309","0.0-20.0-17.0","60632881","wem/bandit_either_3","A3LJ2FHESYV9QQ","either","8","189","","","","","","","0","1","0","","0.8","0.5","0.5","","","0.8","0.2","","","","","","","","","","","","","","74","J","0","img/none_selected_demo.jpg","true","0","80_20_practice",""
"","bandit","39","273127","0.0-20.0-18.0","60632881","wem/bandit_either_3","A3LJ2FHESYV9QQ","either","8","311","","","","","","","0","1","0","","0.8","0.5","0.5","","","0.8","0.2","","","","","","","","","","","","","","74","J","0","img/none_selected_demo.jpg","true","0","80_20_practice",""
"","bandit","40","274990","0.0-20.0-19.0","60632881","wem/bandit_either_3","A3LJ2FHESYV9QQ","either","8","357","","","","","","","1","0","0","0.8","","0.5","0.5","","","","","","","0.8","0.2","","","","","","","","","","74","J","0","img/none_selected_demo.jpg","true","0","80_20_practice",""
"","text","41","282479","0.0-21.0","60632881","wem/bandit_either_3","A3LJ2FHESYV9QQ","either","8","7487","","32","","","","","","","","","","","","","","","","","","","","","","","","","","","","","","","","","","","",""
"","bandit","42","285301","0.0-22.0-0.0","60632881","wem/bandit_either_3","A3LJ2FHESYV9QQ","either","8","1317","","","","","","","1","0","0","1","0","","","","","0","1","","","1","0","","","","","","","","","","74","J","0","img/none_selected_demo.jpg","true","0","",""
"","text","43","295303","0.0-23.0","60632881","wem/bandit_either_3","A3LJ2FHESYV9QQ","either","8","10000","","32","","","","","","","","","","","","","","","","","","","","","","","","","","","","","","","","","","","",""
"","text","44","299038","0.0-24.0","60632881","wem/bandit_either_3","A3LJ2FHESYV9QQ","either","8","3733","","32","","","","","","","","","","","","","","","","","","","","","","","","","","","","","","","","","","","",""
"","text","45","301742","0.0-25.0","60632881","wem/bandit_either_3","A3LJ2FHESYV9QQ","either","8","2702","","32","","","","","","","","","","","","","","","","","","","","","","","","","","","","","","","","","","","",""
"","text","46","304837","0.0-26.0","60632881","wem/bandit_either_3","A3LJ2FHESYV9QQ","either","8","3093","","32","","","","","","","","","","","","","","","","","","","","","","","","","","","","","","","","","","","",""
"","text","47","313935","0.0-27.0","60632881","wem/bandit_either_3","A3LJ2FHESYV9QQ","either","8","9096","","32","","","","","","","","","","","","","","","","","","","","","","","","","","","","","","","","","","","",""
"","text","48","316486","0.0-28.0","60632881","wem/bandit_either_3","A3LJ2FHESYV9QQ","either","8","2549","","32","","","","","","","","","","","","","","","","","","","","","","","","","","","","","","","","","","","",""
"","text","49","319445","0.0-29.0","60632881","wem/bandit_either_3","A3LJ2FHESYV9QQ","either","8","2957","","32","","","","","","","","","","","","","","","","","","","","","","","","","","","","","","","","","","","",""
"","text","50","322373","0.0-30.0","60632881","wem/bandit_either_3","A3LJ2FHESYV9QQ","either","8","2926","","32","","","","","","","","","","","","","","","","","","","","","","","","","","","","","","","","","","","",""
"","text","51","327750","0.0-31.0","60632881","wem/bandit_either_3","A3LJ2FHESYV9QQ","either","8","5375","","32","","","","","","","","","","","","","","","","","","","","","","","","","","","","","","","","","","","",""
"","text","52","330269","0.0-32.0","60632881","wem/bandit_either_3","A3LJ2FHESYV9QQ","either","8","2517","","32","","","","","","","","","","","","","","","","","","","","","","","","","","","","","","","","","","","",""
"","text","53","334988","0.0-33.0","60632881","wem/bandit_either_3","A3LJ2FHESYV9QQ","either","8","4718","","32","","","","","","","","","","","","","","","","","","","","","","","","","","","","","","","","","","","",""
"","bandit","54","337211","0.0-34.0-0.0","60632881","wem/bandit_either_3","A3LJ2FHESYV9QQ","either","8","717","","","","","","","1","0","0","0.8","","0.5","0.5","0.5","0.5","","","","","0.8","0.2","0.6","0.2","","","","","","","","72","H","0","img/none_selected.jpg","true","0","full_practice",""
"","bandit","55","339181","0.0-34.0-1.0","60632881","wem/bandit_either_3","A3LJ2FHESYV9QQ","either","8","462","","","","","","","0","1","0","","0.8","0.5","0.5","0.5","0.5","0.8","0.2","0.6","0.2","","","","","","","","","","","","72","H","0","img/none_selected.jpg","true","0","full_practice",""
"","bandit","56","341117","0.0-34.0-2.0","60632881","wem/bandit_either_3","A3LJ2FHESYV9QQ","either","8","427","","","","","","","0","0","1","0.8","","0.5","0.5","0.5","0.5","","","","","0.8","0.2","0.6","0.2","","","","","","","","72","H","0","img/none_selected.jpg","true","0","full_practice",""
"","bandit","57","343011","0.0-34.0-3.0","60632881","wem/bandit_either_3","A3LJ2FHESYV9QQ","either","8","387","","","","","","","0","0","1","","0.2","0.5","0.5","0.5","0.5","0.8","0.2","0.6","0.2","","","","","","","","","","","","74","J","1","","true","0","full_practice",""
"","bandit","58","344931","0.0-34.0-4.0","60632881","wem/bandit_either_3","A3LJ2FHESYV9QQ","either","8","414","","","","","","","0","0","1","0.2","","0.5","0.5","0.5","0.5","","","","","0.8","0.2","0.6","0.2","","","","","","","","76","L","3","","true","0","full_practice",""
"","bandit","59","346859","0.0-34.0-5.0","60632881","wem/bandit_either_3","A3LJ2FHESYV9QQ","either","8","421","","","","","","","0","0","1","0.6","","0.5","0.5","0.5","0.5","","","","","0.8","0.2","0.6","0.2","","","","","","","","75","K","2","","true","0","full_practice",""
"","bandit","60","348690","0.0-34.0-6.0","60632881","wem/bandit_either_3","A3LJ2FHESYV9QQ","either","8","325","","","","","","","1","0","0","0.8","","0.5","0.5","0.5","0.5","","","","","0.8","0.2","0.6","0.2","","","","","","","","72","H","0","img/none_selected.jpg","true","0","full_practice",""
"","bandit","61","350523","0.0-34.0-7.0","60632881","wem/bandit_either_3","A3LJ2FHESYV9QQ","either","8","326","","","","","","","0","1","0","","0.8","0.5","0.5","0.5","0.5","0.8","0.2","0.6","0.2","","","","","","","","","","","","72","H","0","img/none_selected.jpg","true","0","full_practice",""
"","bandit","62","352341","0.0-34.0-8.0","60632881","wem/bandit_either_3","A3LJ2FHESYV9QQ","either","8","310","","","","","","","1","0","0","0.8","","0.5","0.5","0.5","0.5","","","","","0.8","0.2","0.6","0.2","","","","","","","","72","H","0","img/none_selected.jpg","true","0","full_practice",""
"","bandit","63","354099","0.0-34.0-9.0","60632881","wem/bandit_either_3","A3LJ2FHESYV9QQ","either","8","251","","","","","","","0","1","0","","0.8","0.5","0.5","0.5","0.5","0.8","0.2","0.6","0.2","","","","","","","","","","","","72","H","0","img/none_selected.jpg","true","0","full_practice",""
"","bandit","64","355890","0.0-34.0-10.0","60632881","wem/bandit_either_3","A3LJ2FHESYV9QQ","either","8","285","","","","","","","0","0","1","0.8","","0.5","0.5","0.5","0.5","","","","","0.8","0.2","0.6","0.2","","","","","","","","72","H","0","img/none_selected.jpg","true","0","full_practice",""
"","bandit","65","357764","0.0-34.0-11.0","60632881","wem/bandit_either_3","A3LJ2FHESYV9QQ","either","8","368","","","","","","","0","0","1","0.2","","0.5","0.5","0.5","0.5","","","","","0.8","0.2","0.6","0.2","","","","","","","","74","J","1","","true","0","full_practice",""
"","bandit","66","359507","0.0-34.0-12.0","60632881","wem/bandit_either_3","A3LJ2FHESYV9QQ","either","8","235","","","","","","","0","0","1","","0.6","0.5","0.5","0.5","0.5","0.8","0.2","0.6","0.2","","","","","","","","","","","","75","K","2","","true","0","full_practice",""
"","bandit","67","361299","0.0-34.0-13.0","60632881","wem/bandit_either_3","A3LJ2FHESYV9QQ","either","8","284","","","","","","","1","0","0","0.8","","0.5","0.5","0.5","0.5","","","","","0.8","0.2","0.6","0.2","","","","","","","","72","H","0","img/none_selected.jpg","true","0","full_practice",""
"","bandit","68","363099","0.0-34.0-14.0","60632881","wem/bandit_either_3","A3LJ2FHESYV9QQ","either","8","294","","","","","","","1","0","0","0.8","","0.5","0.5","0.5","0.5","","","","","0.8","0.2","0.6","0.2","","","","","","","","72","H","0","img/none_selected.jpg","true","0","full_practice",""
"","bandit","69","364826","0.0-34.0-15.0","60632881","wem/bandit_either_3","A3LJ2FHESYV9QQ","either","8","221","","","","","","","1","0","0","0.8","","0.5","0.5","0.5","0.5","","","","","0.8","0.2","0.6","0.2","","","","","","","","72","H","0","img/none_selected.jpg","true","0","full_practice",""
"","bandit","70","366611","0.0-34.0-16.0","60632881","wem/bandit_either_3","A3LJ2FHESYV9QQ","either","8","274","","","","","","","1","0","0","0.8","","0.5","0.5","0.5","0.5","","","","","0.8","0.2","0.6","0.2","","","","","","","","72","H","0","img/none_selected.jpg","true","0","full_practice",""
"","bandit","71","368409","0.0-34.0-17.0","60632881","wem/bandit_either_3","A3LJ2FHESYV9QQ","either","8","292","","","","","","","1","0","0","0.8","","0.5","0.5","0.5","0.5","","","","","0.8","0.2","0.6","0.2","","","","","","","","72","H","0","img/none_selected.jpg","true","0","full_practice",""
"","bandit","72","370170","0.0-34.0-18.0","60632881","wem/bandit_either_3","A3LJ2FHESYV9QQ","either","8","254","","","","","","","1","0","0","0.8","","0.5","0.5","0.5","0.5","","","","","0.8","0.2","0.6","0.2","","","","","","","","72","H","0","img/none_selected.jpg","true","0","full_practice",""
"","bandit","73","371938","0.0-34.0-19.0","60632881","wem/bandit_either_3","A3LJ2FHESYV9QQ","either","8","261","","","","","","","1","0","0","0.8","","0.5","0.5","0.5","0.5","","","","","0.8","0.2","0.6","0.2","","","","","","","","72","H","0","img/none_selected.jpg","true","0","full_practice",""
"","text","74","376444","0.0-35.0","60632881","wem/bandit_either_3","A3LJ2FHESYV9QQ","either","8","4500","","32","","","","","","","","","","","","","","","","","","","","","","","","","","","","","","","","","","","",""
"","text","75","388684","0.0-36.0","60632881","wem/bandit_either_3","A3LJ2FHESYV9QQ","either","8","11236","","32","","","","","","","","","","","","","","","","","","","","","","","","","","","","","","","","","","","",""
"","text","76","400652","0.0-37.0","60632881","wem/bandit_either_3","A3LJ2FHESYV9QQ","either","8","11966","","32","","","","","","","","","","","","","","","","","","","","","","","","","","","","","","","","","","","",""
"","text","77","408131","0.0-38.0","60632881","wem/bandit_either_3","A3LJ2FHESYV9QQ","either","8","7477","","32","","","","","","","","","","","","","","","","","","","","","","","","","","","","","","","","","","","",""
"","text","78","412883","0.0-39.0","60632881","wem/bandit_either_3","A3LJ2FHESYV9QQ","either","8","4749","","32","","","","","","","","","","","","","","","","","","","","","","","","","","","","","","","","","","","",""
"","text","79","417953","0.0-40.0","60632881","wem/bandit_either_3","A3LJ2FHESYV9QQ","either","8","5068","","32","","","","","","","","","","","","","","","","","","","","","","","","","","","","","","","","","","","",""
"","bandit","80","420313","0.0-41.0-0.0","60632881","wem/bandit_either_3","A3LJ2FHESYV9QQ","either","8","853","","","","","","","0","0","1","","0.3040937467","0.4","0.2","0.8","0.6","0.3040937467","0.6337563202","0.4468950172","0.2428949588","","","","","","","","","","","","72","H","0","img/none_selected.jpg","","1","main_expt",""
"","bandit","81","422128","0.0-42.0-0.0","60632881","wem/bandit_either_3","A3LJ2FHESYV9QQ","either","8","309","","","","","","","0","0","1","0.248961424","","0.4","0.2","0.8","0.6","","","","","0.2687625136","0.7380673114","0.3846124694","0.248961424","","","","","","","","76","L","3","","","2","main_expt",""
"","bandit","82","423807","0.0-43.0-0.0","60632881","wem/bandit_either_3","A3LJ2FHESYV9QQ","either","8","173","","","","","","","1","0","0","0.3885967974","","0.4","0.2","0.8","0.6","","","","","0.3017919557","0.7715549737","0.3885967974","0.1878604038","","","","","","","","75","K","2","","","3","main_expt",""
"","bandit","83","425594","0.0-44.0-0.0","60632881","wem/bandit_either_3","A3LJ2FHESYV9QQ","either","8","279","","","","","","","0","0","1","0.2891644394","","0.4","0.2","0.8","0.6","","","","","0.3388517529","0.8257013646","0.2891644394","0.1194049449","","","","","","","","75","K","2","","","4","main_expt",""
"","bandit","84","427784","0.0-45.0-0.0","60632881","wem/bandit_either_3","A3LJ2FHESYV9QQ","either","8","683","","","","","","","0","1","0","","0.8617886559","0.4","0.2","0.8","0.6","0.389096829","0.8617886559","0.2654579937","0.197046458","","","","","","","","","","","","74","J","1","","","5","main_expt",""
"","bandit","85","429623","0.0-46.0-0.0","60632881","wem/bandit_either_3","A3LJ2FHESYV9QQ","either","8","331","","","","","","","0","1","0","","0.8452125903","0.4","0.2","0.8","0.6","0.4799636182","0.8452125903","0.355160999","0.2312720201","","","","","","","","","","","","74","J","1","","","6","main_expt",""
"","bandit","86","431424","0.0-47.0-0.0","60632881","wem/bandit_either_3","A3LJ2FHESYV9QQ","either","8","293","","","","","","","1","0","0","0.8765288384","","0.4","0.2","0.8","0.6","","","","","0.5316557606","0.8765288384","0.4733904832","0.3255591742","","","","","","","","74","J","1","","","7","main_expt",""
"","bandit","87","433239","0.0-48.0-0.0","60632881","wem/bandit_either_3","A3LJ2FHESYV9QQ","either","8","308","","","","","","","0","1","0","","0.8625068071","0.4","0.2","0.8","0.6","0.4935712437","0.8625068071","0.4900136729","0.163151729","","","","","","","","","","","","74","J","1","","","8","main_expt",""
"","bandit","88","435066","0.0-49.0-0.0","60632881","wem/bandit_either_3","A3LJ2FHESYV9QQ","either","8","318","","","","","","","0","1","0","","0.8385781597","0.4","0.2","0.8","0.6","0.5400450001","0.8385781597","0.4543552171","0.1671639775","","","","","","","","","","","","74","J","1","","","9","main_expt",""
"","bandit","89","436786","0.0-50.0-0.0","60632881","wem/bandit_either_3","A3LJ2FHESYV9QQ","either","8","212","","","","","","","0","1","0","","0.833356221","0.4","0.2","0.8","0.6","0.6510952772","0.833356221","0.4523920981","0.1315225434","","","","","","","","","","","","74","J","1","","","10","main_expt",""
"","bandit","90","438592","0.0-51.0-0.0","60632881","wem/bandit_either_3","A3LJ2FHESYV9QQ","either","8","300","","","","","","","0","1","0","","0.9030756702","0.4","0.2","0.8","0.6","0.6117649901","0.9030756702","0.4053083118","0.1287002637","","","","","","","","","","","","74","J","1","","","11","main_expt",""
"","bandit","91","440384","0.0-52.0-0.0","60632881","wem/bandit_either_3","A3LJ2FHESYV9QQ","either","8","284","","","","","","","0","1","0","","0.9129290363","0.4","0.2","0.8","0.6","0.6360746298","0.9129290363","0.4059907931","0.1026596936","","","","","","","","","","","","74","J","1","","","12","main_expt",""
"","bandit","92","442143","0.0-53.0-0.0","60632881","wem/bandit_either_3","A3LJ2FHESYV9QQ","either","8","252","","","","","","","0","1","0","","0.8638417716","0.4","0.2","0.8","0.6","0.5673960652","0.8638417716","0.2934167972","0.1287514256","","","","","","","","","","","","74","J","1","","","13","main_expt",""
"","bandit","93","443880","0.0-54.0-0.0","60632881","wem/bandit_either_3","A3LJ2FHESYV9QQ","either","8","230","","","","","","","1","0","0","0.787806988","","0.4","0.2","0.8","0.6","","","","","0.6747725803","0.787806988","0.3260927596","0.1786171179","","","","","","","","74","J","1","","","14","main_expt",""
"","bandit","94","445673","0.0-55.0-0.0","60632881","wem/bandit_either_3","A3LJ2FHESYV9QQ","either","8","285","","","","","","","1","0","0","0.7254212376","","0.4","0.2","0.8","0.6","","","","","0.6277188345","0.7254212376","0.3355382734","0.1459410532","","","","","","","","74","J","1","","","15","main_expt",""
"","bandit","95","447417","0.0-56.0-0.0","60632881","wem/bandit_either_3","A3LJ2FHESYV9QQ","either","8","237","","","","","","","0","1","0","","0.7238415528","0.4","0.2","0.8","0.6","0.5435568235","0.7238415528","0.3040928121","0.2255600906","","","","","","","","","","","","74","J","1","","","16","main_expt",""
"","bandit","96","449167","0.0-57.0-0.0","60632881","wem/bandit_either_3","A3LJ2FHESYV9QQ","either","8","241","","","","","","","1","0","0","0.7796243455","","0.4","0.2","0.8","0.6","","","","","0.4180161478","0.7796243455","0.2730366263","0.2052013943","","","","","","","","74","J","1","","","17","main_expt",""
"","bandit","97","450816","0.0-58.0-0.0","60632881","wem/bandit_either_3","A3LJ2FHESYV9QQ","either","8","141","","","","","","","1","0","0","0.6928902724","","0.4","0.2","0.8","0.6","","","","","0.4961111773","0.6928902724","0.4105298721","0.1780354615","","","","","","","","74","J","1","","","18","main_expt",""
"","bandit","98","452472","0.0-59.0-0.0","60632881","wem/bandit_either_3","A3LJ2FHESYV9QQ","either","8","148","","","","","","","0","0","1","","0.7658630901","0.4","0.2","0.8","0.6","0.445530788","0.7658630901","0.3586923344","0.1576496117","","","","","","","","","","","","74","J","1","","","19","main_expt",""
"","bandit","99","454737","0.0-60.0-0.0","60632881","wem/bandit_either_3","A3LJ2FHESYV9QQ","either","8","752","","","","","","","1","0","0","0.3220075653","","0.4","0.2","0.8","0.6","","","","","0.3443163705","0.7584200513","0.3220075653","0.1618752313","","","","","","","","75","K","2","","","20","main_expt",""
"","bandit","100","456575","0.0-61.0-0.0","60632881","wem/bandit_either_3","A3LJ2FHESYV9QQ","either","8","330","","","","","","","0","1","0","","0.2729660799","0.4","0.2","0.8","0.6","0.3012808647","0.7727038765","0.2729660799","0.2152187387","","","","","","","","","","","","75","K","2","","","21","main_expt",""
"","bandit","101","458375","0.0-62.0-0.0","60632881","wem/bandit_either_3","A3LJ2FHESYV9QQ","either","8","293","","","","","","","1","0","0","0.2712352107","","0.4","0.2","0.8","0.6","","","","","0.2882062485","0.8152565923","0.2712352107","0.3547982299","","","","","","","","75","K","2","","","22","main_expt",""
"","bandit","102","460167","0.0-63.0-0.0","60632881","wem/bandit_either_3","A3LJ2FHESYV9QQ","either","8","284","","","","","","","0","0","1","0.3390855774","","0.4","0.2","0.8","0.6","","","","","0.2113421372","0.7537075358","0.3390855774","0.323805638","","","","","","","","75","K","2","","","23","main_expt",""
"","bandit","103","461991","0.0-64.0-0.0","60632881","wem/bandit_either_3","A3LJ2FHESYV9QQ","either","8","314","","","","","","","0","0","1","0.3588909826","","0.4","0.2","0.8","0.6","","","","","0.2201805416","0.7108822858","0.3483259141","0.3588909826","","","","","","","","76","L","3","","","24","main_expt",""
"","bandit","104","463774","0.0-65.0-0.0","60632881","wem/bandit_either_3","A3LJ2FHESYV9QQ","either","8","276","","","","","","","0","1","0","","0.2580956466","0.4","0.2","0.8","0.6","0.2580956466","0.6930515954","0.3416976173","0.3885553436","","","","","","","","","","","","72","H","0","img/none_selected.jpg","","25","main_expt",""
"","bandit","105","465631","0.0-66.0-0.0","60632881","wem/bandit_either_3","A3LJ2FHESYV9QQ","either","8","350","","","","","","","0","0","1","","0.2153432854","0.4","0.2","0.8","0.6","0.2153432854","0.6905393417","0.4243476322","0.4871556374","","","","","","","","","","","","72","H","0","img/none_selected.jpg","","26","main_expt",""
"","bandit","106","467448","0.0-67.0-0.0","60632881","wem/bandit_either_3","A3LJ2FHESYV9QQ","either","8","308","","","","","","","0","0","1","0.4934119911","","0.4","0.2","0.8","0.6","","","","","0.1727955236","0.7531652131","0.5257754898","0.4934119911","","","","","","","","76","L","3","","","27","main_expt",""
"","bandit","107","469367","0.0-68.0-0.0","60632881","wem/bandit_either_3","A3LJ2FHESYV9QQ","either","8","411","","","","","","","1","0","0","0.5246232361","","0.4","0.2","0.8","0.6","","","","","0.1894296703","0.8001777041","0.5246232361","0.4322092846","","","","","","","","75","K","2","","","28","main_expt",""
"","bandit","108","471151","0.0-69.0-0.0","60632881","wem/bandit_either_3","A3LJ2FHESYV9QQ","either","8","274","","","","","","","0","0","1","","0.375994784","0.4","0.2","0.8","0.6","0.2128919211","0.8118404327","0.375994784","0.3459113699","","","","","","","","","","","","75","K","2","","","29","main_expt",""
"","bandit","109","472846","0.0-70.0-0.0","60632881","wem/bandit_either_3","A3LJ2FHESYV9QQ","either","8","188","","","","","","","0","0","1","","0.7839534503","0.4","0.2","0.8","0.6","0.206056468","0.7839534503","0.2936890161","0.280789843","","","","","","","","","","","","74","J","1","","","30","main_expt",""
"","bandit","110","474919","0.0-71.0-0.0","60632881","wem/bandit_either_3","A3LJ2FHESYV9QQ","either","8","565","","","","","","","0","0","1","","0.1725623241","0.4","0.2","0.8","0.6","0.1725623241","0.8066372971","0.2878812258","0.2613810438","","","","","","","","","","","","72","H","0","img/none_selected.jpg","","31","main_expt",""
"","bandit","111","477054","0.0-72.0-0.0","60632881","wem/bandit_either_3","A3LJ2FHESYV9QQ","either","8","627","","","","","","","0","0","1","","0.2451492808","0.4","0.2","0.8","0.6","0.1629883914","0.8049259064","0.2451492808","0.3821585683","","","","","","","","","","","","75","K","2","","","32","main_expt",""
"","bandit","112","478880","0.0-73.0-0.0","60632881","wem/bandit_either_3","A3LJ2FHESYV9QQ","either","8","317","","","","","","","0","1","0","","0.2714925976","0.4","0.2","0.8","0.6","0.2107911223","0.7891664673","0.2802113289","0.2714925976","","","","","","","","","","","","76","L","3","","","33","main_expt",""
"","bandit","113","480648","0.0-74.0-0.0","60632881","wem/bandit_either_3","A3LJ2FHESYV9QQ","either","8","260","","","","","","","0","0","1","0.2755575364","","0.4","0.2","0.8","0.6","","","","","0.1025901997","0.7854278051","0.2892342718","0.2755575364","","","","","","","","76","L","3","","","34","main_expt",""
"","bandit","114","482855","0.0-75.0-0.0","60632881","wem/bandit_either_3","A3LJ2FHESYV9QQ","either","8","698","","","","","","","0","1","0","","0.7260182018","0.4","0.2","0.8","0.6","0.1289879153","0.7260182018","0.2486893666","0.2697856654","","","","","","","","","","","","74","J","1","","","35","main_expt",""
"","bandit","115","484679","0.0-76.0-0.0","60632881","wem/bandit_either_3","A3LJ2FHESYV9QQ","either","8","317","","","","","","","0","1","0","","0.7910957192","0.4","0.2","0.8","0.6","0.1645491317","0.7910957192","0.3536408983","0.2483646443","","","","","","","","","","","","74","J","1","","","36","main_expt",""
"","bandit","116","486591","0.0-77.0-0.0","60632881","wem/bandit_either_3","A3LJ2FHESYV9QQ","either","8","404","","","","","","","1","0","0","0.7996551039","","0.4","0.2","0.8","0.6","","","","","0.1698046746","0.7996551039","0.2493566902","0.2103950957","","","","","","","","74","J","1","","","37","main_expt",""
"","bandit","117","488488","0.0-78.0-0.0","60632881","wem/bandit_either_3","A3LJ2FHESYV9QQ","either","8","388","","","","","","","1","0","0","0.6717479894","","0.4","0.2","0.8","0.6","","","","","0.2281502886","0.6717479894","0.2948354516","0.2128944509","","","","","","","","74","J","1","","","38","main_expt",""
"","bandit","118","490305","0.0-79.0-0.0","60632881","wem/bandit_either_3","A3LJ2FHESYV9QQ","either","8","307","","","","","","","0","0","1","","0.7121128808","0.4","0.2","0.8","0.6","0.1561271762","0.7121128808","0.3373274679","0.2965153327","","","","","","","","","","","","74","J","1","","","39","main_expt",""
"","bandit","119","492448","0.0-80.0-0.0","60632881","wem/bandit_either_3","A3LJ2FHESYV9QQ","either","8","634","","","","","","","0","0","1","","0.4138768052","0.4","0.2","0.8","0.6","0.1543620621","0.7157410044","0.4138768052","0.4447532253","","","","","","","","","","","","75","K","2","","","40","main_expt",""
"","bandit","120","494583","0.0-81.0-0.0","60632881","wem/bandit_either_3","A3LJ2FHESYV9QQ","either","8","628","","","","","","","1","0","0","0.681196038","","0.4","0.2","0.8","0.6","","","","","0.2271499981","0.681196038","0.438096834","0.5330008696","","","","","","","","74","J","1","","","41","main_expt",""
"","bandit","121","496407","0.0-82.0-0.0","60632881","wem/bandit_either_3","A3LJ2FHESYV9QQ","either","8","310","","","","","","","0","0","1","","0.6504320647","0.4","0.2","0.8","0.6","0.2882452936","0.6504320647","0.4185173612","0.573861049","","","","","","","","","","","","74","J","1","","","42","main_expt",""
"","bandit","122","498407","0.0-83.0-0.0","60632881","wem/bandit_either_3","A3LJ2FHESYV9QQ","either","8","491","","","","","","","1","0","0","0.7369830744","","0.4","0.2","0.8","0.6","","","","","0.298522686","0.7369830744","0.3796335567","0.6654349765","","","","","","","","74","J","1","","","43","main_expt",""
"","bandit","123","500247","0.0-84.0-0.0","60632881","wem/bandit_either_3","A3LJ2FHESYV9QQ","either","8","332","","","","","","","0","1","0","","0.6797935378","0.4","0.2","0.8","0.6","0.3188886026","0.6797935378","0.31766129","0.691198465","","","","","","","","","","","","74","J","1","","","44","main_expt",""
"","bandit","124","502079","0.0-85.0-0.0","60632881","wem/bandit_either_3","A3LJ2FHESYV9QQ","either","8","323","","","","","","","0","0","1","","0.6507473666","0.4","0.2","0.8","0.6","0.2705760174","0.6507473666","0.4047397141","0.7652674903","","","","","","","","","","","","74","J","1","","","45","main_expt",""
"","bandit","125","504120","0.0-86.0-0.0","60632881","wem/bandit_either_3","A3LJ2FHESYV9QQ","either","8","533","","","","","","","0","0","1","0.2506880939","","0.4","0.2","0.8","0.6","","","","","0.2506880939","0.6334510787","0.4961613307","0.8065230058","","","","","","","","72","H","0","img/none_selected.jpg","","46","main_expt",""
"","bandit","126","505870","0.0-87.0-0.0","60632881","wem/bandit_either_3","A3LJ2FHESYV9QQ","either","8","242","","","","","","","0","1","0","","0.7774474893","0.4","0.2","0.8","0.6","0.2491585872","0.6143175143","0.4624468315","0.7774474893","","","","","","","","","","","","76","L","3","","","47","main_expt",""
"","bandit","127","507679","0.0-88.0-0.0","60632881","wem/bandit_either_3","A3LJ2FHESYV9QQ","either","8","300","","","","","","","0","1","0","","0.7693176975","0.4","0.2","0.8","0.6","0.1997021219","0.6404512611","0.4886537242","0.7693176975","","","","","","","","","","","","76","L","3","","","48","main_expt",""
"","bandit","128","509687","0.0-89.0-0.0","60632881","wem/bandit_either_3","A3LJ2FHESYV9QQ","either","8","500","","","","","","","1","0","0","0.807419373","","0.4","0.2","0.8","0.6","","","","","0.2119577724","0.6758621215","0.4270302022","0.807419373","","","","","","","","76","L","3","","","49","main_expt",""
"","bandit","129","511750","0.0-90.0-0.0","60632881","wem/bandit_either_3","A3LJ2FHESYV9QQ","either","8","556","","","","","","","0","0","1","","0.8562769227","0.4","0.2","0.8","0.6","0.2615271711","0.6873234502","0.5151345658","0.8562769227","","","","","","","","","","","","76","L","3","","","50","main_expt",""
"","bandit","130","513557","0.0-91.0-0.0","60632881","wem/bandit_either_3","A3LJ2FHESYV9QQ","either","8","300","","","","","","","0","0","1","0.5134524181","","0.4","0.2","0.8","0.6","","","","","0.2764427577","0.7776044395","0.5134524181","0.8705114925","","","","","","","","75","K","2","","","51","main_expt",""
"","bandit","131","515576","0.0-92.0-0.0","60632881","wem/bandit_either_3","A3LJ2FHESYV9QQ","either","8","508","","","","","","","1","0","0","0.8403410939","","0.4","0.2","0.8","0.6","","","","","0.3833776697","0.8403410939","0.4842684999","0.9310361031","","","","","","","","74","J","1","","","52","main_expt",""
"","bandit","132","517455","0.0-93.0-0.0","60632881","wem/bandit_either_3","A3LJ2FHESYV9QQ","either","8","371","","","","","","","0","0","1","","0.8151983534","0.4","0.2","0.8","0.6","0.4356502318","0.8151983534","0.4412850773","0.905794742","","","","","","","","","","","","74","J","1","","","53","main_expt",""
"","bandit","133","519326","0.0-94.0-0.0","60632881","wem/bandit_either_3","A3LJ2FHESYV9QQ","either","8","363","","","","","","","1","0","0","0.9391541593","","0.4","0.2","0.8","0.6","","","","","0.4120588364","0.8081222638","0.4397693946","0.9391541593","","","","","","","","76","L","3","","","54","main_expt",""
"","bandit","134","521157","0.0-95.0-0.0","60632881","wem/bandit_either_3","A3LJ2FHESYV9QQ","either","8","323","","","","","","","0","1","0","","0.9596285882","0.4","0.2","0.8","0.6","0.2714296105","0.742009976","0.3928202278","0.9596285882","","","","","","","","","","","","76","L","3","","","55","main_expt",""
"","bandit","135","523038","0.0-96.0-0.0","60632881","wem/bandit_either_3","A3LJ2FHESYV9QQ","either","8","372","","","","","","","1","0","0","0.9565658233","","0.4","0.2","0.8","0.6","","","","","0.2122311877","0.7065076074","0.4593665993","0.9565658233","","","","","","","","76","L","3","","","56","main_expt",""
"","bandit","136","524862","0.0-97.0-0.0","60632881","wem/bandit_either_3","A3LJ2FHESYV9QQ","either","8","316","","","","","","","0","1","0","","0.9681540372","0.4","0.2","0.8","0.6","0.2282278588","0.6860695476","0.4006145211","0.9681540372","","","","","","","","","","","","76","L","3","","","57","main_expt",""
"","bandit","137","526695","0.0-98.0-0.0","60632881","wem/bandit_either_3","A3LJ2FHESYV9QQ","either","8","324","","","","","","","1","0","0","0.9207083952","","0.4","0.2","0.8","0.6","","","","","0.1392076118","0.742301155","0.4597890412","0.9207083952","","","","","","","","76","L","3","","","58","main_expt",""
"","bandit","138","528725","0.0-99.0-0.0","60632881","wem/bandit_either_3","A3LJ2FHESYV9QQ","either","8","522","","","","","","","0","1","0","","0.9178227258","0.4","0.2","0.8","0.6","0.1706239206","0.5291004622","0.4232266093","0.9178227258","","","","","","","","","","","","76","L","3","","","59","main_expt",""
"","bandit","139","530599","0.0-100.0-0.0","60632881","wem/bandit_either_3","A3LJ2FHESYV9QQ","either","8","364","","","","","","","1","0","0","0.8951285427","","0.4","0.2","0.8","0.6","","","","","0.1674269281","0.6348838793","0.3565880291","0.8951285427","","","","","","","","76","L","3","","","60","main_expt",""
"","bandit","140","532637","0.0-101.0-0.0","60632881","wem/bandit_either_3","A3LJ2FHESYV9QQ","either","8","530","","","","","","","0","1","0","","0.8506814954","0.4","0.2","0.8","0.6","0.2182313474","0.6796423313","0.3663276413","0.8506814954","","","","","","","","","","","","76","L","3","","","61","main_expt",""
"","bandit","141","534501","0.0-102.0-0.0","60632881","wem/bandit_either_3","A3LJ2FHESYV9QQ","either","8","356","","","","","","","0","1","0","","0.8513854559","0.4","0.2","0.8","0.6","0.2949218256","0.6928172916","0.3193005293","0.8513854559","","","","","","","","","","","","76","L","3","","","62","main_expt",""
"","bandit","142","536413","0.0-103.0-0.0","60632881","wem/bandit_either_3","A3LJ2FHESYV9QQ","either","8","402","","","","","","","0","1","0","","0.8927579502","0.4","0.2","0.8","0.6","0.3170222383","0.6996506825","0.1562068481","0.8927579502","","","","","","","","","","","","76","L","3","","","63","main_expt",""
"","bandit","143","538239","0.0-104.0-0.0","60632881","wem/bandit_either_3","A3LJ2FHESYV9QQ","either","8","318","","","","","","","0","1","0","","0.9217936765","0.4","0.2","0.8","0.6","0.3033511374","0.7294442249","0.2300477965","0.9217936765","","","","","","","","","","","","76","L","3","","","64","main_expt",""
"","bandit","144","540189","0.0-105.0-0.0","60632881","wem/bandit_either_3","A3LJ2FHESYV9QQ","either","8","441","","","","","","","1","0","0","0.9357047413","","0.4","0.2","0.8","0.6","","","","","0.3973690147","0.6605354899","0.2869838185","0.9357047413","","","","","","","","76","L","3","","","65","main_expt",""
"","bandit","145","541939","0.0-106.0-0.0","60632881","wem/bandit_either_3","A3LJ2FHESYV9QQ","either","8","242","","","","","","","1","0","0","0.910343843","","0.4","0.2","0.8","0.6","","","","","0.4320294497","0.6959621059","0.3287476356","0.910343843","","","","","","","","76","L","3","","","66","main_expt",""
"","bandit","146","543822","0.0-107.0-0.0","60632881","wem/bandit_either_3","A3LJ2FHESYV9QQ","either","8","370","","","","","","","1","0","0","0.9022080512","","0.4","0.2","0.8","0.6","","","","","0.3208465419","0.653899752","0.3018365728","0.9022080512","","","","","","","","76","L","3","","","67","main_expt",""
"","bandit","147","545725","0.0-108.0-0.0","60632881","wem/bandit_either_3","A3LJ2FHESYV9QQ","either","8","394","","","","","","","1","0","0","0.8492414063","","0.4","0.2","0.8","0.6","","","","","0.3570730799","0.6517851336","0.3208616414","0.8492414063","","","","","","","","76","L","3","","","68","main_expt",""
"","bandit","148","547876","0.0-109.0-0.0","60632881","wem/bandit_either_3","A3LJ2FHESYV9QQ","either","8","642","","","","","","","1","0","0","0.768219052","","0.4","0.2","0.8","0.6","","","","","0.3451514791","0.7011615004","0.386863802","0.768219052","","","","","","","","76","L","3","","","69","main_expt",""
"","bandit","149","549909","0.0-110.0-0.0","60632881","wem/bandit_either_3","A3LJ2FHESYV9QQ","either","8","525","","","","","","","0","0","1","","0.7996218848","0.4","0.2","0.8","0.6","0.3127714871","0.6278947594","0.3628244161","0.7996218848","","","","","","","","","","","","76","L","3","","","70","main_expt",""
"","bandit","150","551859","0.0-111.0-0.0","60632881","wem/bandit_either_3","A3LJ2FHESYV9QQ","either","8","442","","","","","","","1","0","0","0.9130189757","","0.4","0.2","0.8","0.6","","","","","0.3855297895","0.688517509","0.2969295023","0.9130189757","","","","","","","","76","L","3","","","71","main_expt",""
"","bandit","151","553964","0.0-112.0-0.0","60632881","wem/bandit_either_3","A3LJ2FHESYV9QQ","either","8","596","","","","","","","1","0","0","0.9016843832","","0.4","0.2","0.8","0.6","","","","","0.3555010044","0.6125440106","0.3512325323","0.9016843832","","","","","","","","76","L","3","","","72","main_expt",""
"","bandit","152","555972","0.0-113.0-0.0","60632881","wem/bandit_either_3","A3LJ2FHESYV9QQ","either","8","499","","","","","","","1","0","0","0.9166584401","","0.4","0.2","0.8","0.6","","","","","0.3278360739","0.4884410468","0.3845321254","0.9166584401","","","","","","","","76","L","3","","","73","main_expt",""
"","bandit","153","557915","0.0-114.0-0.0","60632881","wem/bandit_either_3","A3LJ2FHESYV9QQ","either","8","435","","","","","","","0","1","0","","0.8699410266","0.4","0.2","0.8","0.6","0.3275161349","0.5800760741","0.3760614253","0.8699410266","","","","","","","","","","","","76","L","3","","","74","main_expt",""
"","bandit","154","559812","0.0-115.0-0.0","60632881","wem/bandit_either_3","A3LJ2FHESYV9QQ","either","8","388","","","","","","","1","0","0","0.8192171788","","0.4","0.2","0.8","0.6","","","","","0.3454333807","0.6614390465","0.370831352","0.8192171788","","","","","","","","76","L","3","","","75","main_expt",""
"","bandit","155","561838","0.0-116.0-0.0","60632881","wem/bandit_either_3","A3LJ2FHESYV9QQ","either","8","516","","","","","","","1","0","0","0.8990587115","","0.4","0.2","0.8","0.6","","","","","0.4213924804","0.6861570843","0.4008199491","0.8990587115","","","","","","","","76","L","3","","","76","main_expt",""
"","bandit","156","563668","0.0-117.0-0.0","60632881","wem/bandit_either_3","A3LJ2FHESYV9QQ","either","8","321","","","","","","","0","0","1","0.9062137116","","0.4","0.2","0.8","0.6","","","","","0.439510692","0.5980737028","0.3928984844","0.9062137116","","","","","","","","76","L","3","","","77","main_expt",""
"","bandit","157","565548","0.0-118.0-0.0","60632881","wem/bandit_either_3","A3LJ2FHESYV9QQ","either","8","371","","","","","","","0","1","0","","0.9215914722","0.4","0.2","0.8","0.6","0.4419424199","0.6754083514","0.4709058574","0.9215914722","","","","","","","","","","","","76","L","3","","","78","main_expt",""
"","bandit","158","567459","0.0-119.0-0.0","60632881","wem/bandit_either_3","A3LJ2FHESYV9QQ","either","8","403","","","","","","","1","0","0","0.895443078","","0.4","0.2","0.8","0.6","","","","","0.5056762283","0.7012934339","0.4971614577","0.895443078","","","","","","","","76","L","3","","","79","main_expt",""
"","bandit","159","569334","0.0-120.0-0.0","60632881","wem/bandit_either_3","A3LJ2FHESYV9QQ","either","8","364","","","","","","","1","0","0","0.7789772955","","0.4","0.2","0.8","0.6","","","","","0.4558190996","0.7067798052","0.4828267768","0.7789772955","","","","","","","","76","L","3","","","80","main_expt",""
"","bandit","160","571236","0.0-121.0-0.0","60632881","wem/bandit_either_3","A3LJ2FHESYV9QQ","either","8","393","","","","","","","0","0","1","0.755426824","","0.4","0.2","0.8","0.6","","","","","0.4774921548","0.7259433061","0.4280570329","0.755426824","","","","","","","","76","L","3","","","81","main_expt",""
"","bandit","161","573084","0.0-122.0-0.0","60632881","wem/bandit_either_3","A3LJ2FHESYV9QQ","either","8","340","","","","","","","0","1","0","","0.8356426425","0.4","0.2","0.8","0.6","0.3611036613","0.7022130872","0.486136241","0.8356426425","","","","","","","","","","","","76","L","3","","","82","main_expt",""
"","bandit","162","575042","0.0-123.0-0.0","60632881","wem/bandit_either_3","A3LJ2FHESYV9QQ","either","8","449","","","","","","","0","1","0","","0.8783145762","0.4","0.2","0.8","0.6","0.3341354767","0.75927227","0.3539143083","0.8783145762","","","","","","","","","","","","76","L","3","","","83","main_expt",""
"","bandit","163","576866","0.0-124.0-0.0","60632881","wem/bandit_either_3","A3LJ2FHESYV9QQ","either","8","316","","","","","","","1","0","0","0.9087743635","","0.4","0.2","0.8","0.6","","","","","0.288479151","0.8556046088","0.374811954","0.9087743635","","","","","","","","76","L","3","","","84","main_expt",""
"","bandit","164","578700","0.0-125.0-0.0","60632881","wem/bandit_either_3","A3LJ2FHESYV9QQ","either","8","324","","","","","","","0","1","0","","0.8632011641","0.4","0.2","0.8","0.6","0.3061923995","0.7835234447","0.4518264681","0.8632011641","","","","","","","","","","","","76","L","3","","","85","main_expt",""
"","bandit","165","580587","0.0-126.0-0.0","60632881","wem/bandit_either_3","A3LJ2FHESYV9QQ","either","8","377","","","","","","","1","0","0","0.8341253046","","0.4","0.2","0.8","0.6","","","","","0.3370204437","0.7037548709","0.461936863","0.8341253046","","","","","","","","76","L","3","","","86","main_expt",""
"","bandit","166","582433","0.0-127.0-0.0","60632881","wem/bandit_either_3","A3LJ2FHESYV9QQ","either","8","337","","","","","","","0","1","0","","0.8728746981","0.4","0.2","0.8","0.6","0.3900809043","0.6903674631","0.3681660755","0.8728746981","","","","","","","","","","","","76","L","3","","","87","main_expt",""
"","bandit","167","584332","0.0-128.0-0.0","60632881","wem/bandit_either_3","A3LJ2FHESYV9QQ","either","8","389","","","","","","","0","0","1","0.8408980459","","0.4","0.2","0.8","0.6","","","","","0.4296615172","0.5883284312","0.3788462328","0.8408980459","","","","","","","","76","L","3","","","88","main_expt",""
"","bandit","168","586226","0.0-129.0-0.0","60632881","wem/bandit_either_3","A3LJ2FHESYV9QQ","either","8","382","","","","","","","0","1","0","","0.8585781628","0.4","0.2","0.8","0.6","0.4636560077","0.5258490985","0.3316952272","0.8585781628","","","","","","","","","","","","76","L","3","","","89","main_expt",""
"","bandit","169","588090","0.0-130.0-0.0","60632881","wem/bandit_either_3","A3LJ2FHESYV9QQ","either","8","355","","","","","","","0","0","1","0.925840658","","0.4","0.2","0.8","0.6","","","","","0.4463585346","0.6395041767","0.438068917","0.925840658","","","","","","","","76","L","3","","","90","main_expt",""
"","bandit","170","589923","0.0-131.0-0.0","60632881","wem/bandit_either_3","A3LJ2FHESYV9QQ","either","8","324","","","","","","","1","0","0","0.9201841885","","0.4","0.2","0.8","0.6","","","","","0.4734463503","0.6931091445","0.5158843935","0.9201841885","","","","","","","","76","L","3","","","91","main_expt",""
"","bandit","171","591795","0.0-132.0-0.0","60632881","wem/bandit_either_3","A3LJ2FHESYV9QQ","either","8","363","","","","","","","1","0","0","0.8508076908","","0.4","0.2","0.8","0.6","","","","","0.5248255385","0.6725373887","0.5182757575","0.8508076908","","","","","","","","76","L","3","","","92","main_expt",""
"","bandit","172","593612","0.0-133.0-0.0","60632881","wem/bandit_either_3","A3LJ2FHESYV9QQ","either","8","307","","","","","","","1","0","0","0.8106711147","","0.4","0.2","0.8","0.6","","","","","0.3386726181","0.7388835399","0.5498130742","0.8106711147","","","","","","","","76","L","3","","","93","main_expt",""
"","bandit","173","595363","0.0-134.0-0.0","60632881","wem/bandit_either_3","A3LJ2FHESYV9QQ","either","8","244","","","","","","","0","1","0","","0.8543263914","0.4","0.2","0.8","0.6","0.3718894848","0.697373586","0.6049407638","0.8543263914","","","","","","","","","","","","76","L","3","","","94","main_expt",""
"","bandit","174","597166","0.0-135.0-0.0","60632881","wem/bandit_either_3","A3LJ2FHESYV9QQ","either","8","288","","","","","","","1","0","0","0.8387782901","","0.4","0.2","0.8","0.6","","","","","0.4005278521","0.7550322224","0.6604115927","0.8387782901","","","","","","","","76","L","3","","","95","main_expt",""
"","bandit","175","598946","0.0-136.0-0.0","60632881","wem/bandit_either_3","A3LJ2FHESYV9QQ","either","8","270","","","","","","","0","1","0","","0.8208071174","0.4","0.2","0.8","0.6","0.3694595514","0.6576962358","0.7003847986","0.8208071174","","","","","","","","","","","","76","L","3","","","96","main_expt",""
"","bandit","176","600755","0.0-137.0-0.0","60632881","wem/bandit_either_3","A3LJ2FHESYV9QQ","either","8","300","","","","","","","0","1","0","","0.765358829","0.4","0.2","0.8","0.6","0.3186037095","0.6802484638","0.6793148949","0.765358829","","","","","","","","","","","","76","L","3","","","97","main_expt",""
"","bandit","177","602787","0.0-138.0-0.0","60632881","wem/bandit_either_3","A3LJ2FHESYV9QQ","either","8","523","","","","","","","0","0","1","0.7823463211","","0.4","0.2","0.8","0.6","","","","","0.2786717818","0.7042077447","0.6204607354","0.7823463211","","","","","","","","76","L","3","","","98","main_expt",""
"","bandit","178","604609","0.0-139.0-0.0","60632881","wem/bandit_either_3","A3LJ2FHESYV9QQ","either","8","314","","","","","","","0","1","0","","0.7523003034","0.4","0.2","0.8","0.6","0.32929866","0.7355617892","0.6166262367","0.7523003034","","","","","","","","","","","","76","L","3","","","99","main_expt",""
"","bandit","179","606427","0.0-140.0-0.0","60632881","wem/bandit_either_3","A3LJ2FHESYV9QQ","either","8","309","","","","","","","1","0","0","0.7174790615","","0.4","0.2","0.8","0.6","","","","","0.3115323478","0.7117411671","0.5347115766","0.7174790615","","","","","","","","76","L","3","","","100","main_expt",""
"","bandit","180","608281","0.0-141.0-0.0","60632881","wem/bandit_either_3","A3LJ2FHESYV9QQ","either","8","347","","","","","","","0","0","1","","0.7660578318","0.4","0.2","0.8","0.6","0.4221749579","0.7263903312","0.3418016043","0.7660578318","","","","","","","","","","","","76","L","3","","","101","main_expt",""
"","bandit","181","610203","0.0-142.0-0.0","60632881","wem/bandit_either_3","A3LJ2FHESYV9QQ","either","8","411","","","","","","","0","0","1","0.7201180075","","0.4","0.2","0.8","0.6","","","","","0.2718078598","0.7357346189","0.2550922237","0.7201180075","","","","","","","","76","L","3","","","102","main_expt",""
"","bandit","182","612057","0.0-143.0-0.0","60632881","wem/bandit_either_3","A3LJ2FHESYV9QQ","either","8","345","","","","","","","0","0","1","","0.3011307106","0.4","0.2","0.8","0.6","0.3011307106","0.7026134783","0.3181696353","0.8452780714","","","","","","","","","","","","72","H","0","img/none_selected.jpg","","103","main_expt",""
"","bandit","183","613897","0.0-144.0-0.0","60632881","wem/bandit_either_3","A3LJ2FHESYV9QQ","either","8","332","","","","","","","1","0","0","0.7236924273","","0.4","0.2","0.8","0.6","","","","","0.3659291838","0.8073666152","0.3383579412","0.7236924273","","","","","","","","76","L","3","","","104","main_expt",""
"","bandit","184","615825","0.0-145.0-0.0","60632881","wem/bandit_either_3","A3LJ2FHESYV9QQ","either","8","418","","","","","","","0","1","0","","0.743719778","0.4","0.2","0.8","0.6","0.3499435223","0.824483439","0.2354673658","0.743719778","","","","","","","","","","","","76","L","3","","","105","main_expt",""
"","bandit","185","617636","0.0-146.0-0.0","60632881","wem/bandit_either_3","A3LJ2FHESYV9QQ","either","8","300","","","","","","","1","0","0","0.7985687284","","0.4","0.2","0.8","0.6","","","","","0.3602262465","0.9208810438","0.159398249","0.7985687284","","","","","","","","76","L","3","","","106","main_expt",""
"","bandit","186","619459","0.0-147.0-0.0","60632881","wem/bandit_either_3","A3LJ2FHESYV9QQ","either","8","313","","","","","","","0","0","1","0.799345197","","0.4","0.2","0.8","0.6","","","","","0.3252215163","0.8911910097","0.1295169146","0.799345197","","","","","","","","76","L","3","","","107","main_expt",""
"","bandit","187","621377","0.0-148.0-0.0","60632881","wem/bandit_either_3","A3LJ2FHESYV9QQ","either","8","408","","","","","","","0","1","0","","0.8681690713","0.4","0.2","0.8","0.6","0.2812406992","0.8450149587","0.07754053308","0.8681690713","","","","","","","","","","","","76","L","3","","","108","main_expt",""
"","bandit","188","623201","0.0-149.0-0.0","60632881","wem/bandit_either_3","A3LJ2FHESYV9QQ","either","8","317","","","","","","","0","1","0","","0.8556732204","0.4","0.2","0.8","0.6","0.2559497519","0.868327257","0.06591215473","0.8556732204","","","","","","","","","","","","76","L","3","","","109","main_expt",""
"","bandit","189","625033","0.0-150.0-0.0","60632881","wem/bandit_either_3","A3LJ2FHESYV9QQ","either","8","324","","","","","","","0","1","0","","0.8669893864","0.4","0.2","0.8","0.6","0.2817400418","0.8868335222","0.1189546392","0.8669893864","","","","","","","","","","","","76","L","3","","","110","main_expt",""
"","bandit","190","626881","0.0-151.0-0.0","60632881","wem/bandit_either_3","A3LJ2FHESYV9QQ","either","8","338","","","","","","","0","1","0","","0.799383849","0.4","0.2","0.8","0.6","0.2773620367","0.8770728171","0.09523351692","0.799383849","","","","","","","","","","","","76","L","3","","","111","main_expt",""
"","bandit","191","628769","0.0-152.0-0.0","60632881","wem/bandit_either_3","A3LJ2FHESYV9QQ","either","8","380","","","","","","","0","0","1","0.859799476","","0.4","0.2","0.8","0.6","","","","","0.2833316415","0.8481710002","0.107489667","0.859799476","","","","","","","","76","L","3","","","112","main_expt",""
"","bandit","192","630618","0.0-153.0-0.0","60632881","wem/bandit_either_3","A3LJ2FHESYV9QQ","either","8","339","","","","","","","1","0","0","0.7932436089","","0.4","0.2","0.8","0.6","","","","","0.3433702059","0.8573528835","0.1026187258","0.7932436089","","","","","","","","76","L","3","","","113","main_expt",""
"","bandit","193","632523","0.0-154.0-0.0","60632881","wem/bandit_either_3","A3LJ2FHESYV9QQ","either","8","393","","","","","","","1","0","0","0.849407262","","0.4","0.2","0.8","0.6","","","","","0.4828882278","0.8291807482","0.1044839951","0.849407262","","","","","","","","76","L","3","","","114","main_expt",""
"","bandit","194","634472","0.0-155.0-0.0","60632881","wem/bandit_either_3","A3LJ2FHESYV9QQ","either","8","441","","","","","","","0","0","1","0.8882716547","","0.4","0.2","0.8","0.6","","","","","0.54932579","0.761972944","0.1213931844","0.8882716547","","","","","","","","76","L","3","","","115","main_expt",""
"","bandit","195","636298","0.0-156.0-0.0","60632881","wem/bandit_either_3","A3LJ2FHESYV9QQ","either","8","316","","","","","","","0","1","0","","0.8741354715","0.4","0.2","0.8","0.6","0.6971345968","0.786197192","0.1184144227","0.8741354715","","","","","","","","","","","","76","L","3","","","116","main_expt",""
"","bandit","196","638161","0.0-157.0-0.0","60632881","wem/bandit_either_3","A3LJ2FHESYV9QQ","either","8","353","","","","","","","0","0","1","0.8083823922","","0.4","0.2","0.8","0.6","","","","","0.5396272374","0.7834453561","0.1983931569","0.8083823922","","","","","","","","76","L","3","","","117","main_expt",""
"","bandit","197","640098","0.0-158.0-0.0","60632881","wem/bandit_either_3","A3LJ2FHESYV9QQ","either","8","428","","","","","","","0","0","1","0.2840039584","","0.4","0.2","0.8","0.6","","","","","0.5544567993","0.6742380839","0.2840039584","0.868525306","","","","","","","","75","K","2","","","118","main_expt",""
"","bandit","198","641969","0.0-159.0-0.0","60632881","wem/bandit_either_3","A3LJ2FHESYV9QQ","either","8","361","","","","","","","0","0","1","0.5504896642","","0.4","0.2","0.8","0.6","","","","","0.5504896642","0.7350700153","0.3563325119","0.8386471998","","","","","","","","72","H","0","img/none_selected.jpg","","119","main_expt",""
"","bandit","199","643776","0.0-160.0-0.0","60632881","wem/bandit_either_3","A3LJ2FHESYV9QQ","either","8","298","","","","","","","0","0","1","0.70601835","","0.4","0.2","0.8","0.6","","","","","0.5812137135","0.70601835","0.5682387565","0.8103559508","","","","","","","","74","J","1","","","120","main_expt",""
"","bandit","200","645605","0.0-161.0-0.0","60632881","wem/bandit_either_3","A3LJ2FHESYV9QQ","either","8","316","","","","","","","1","0","0","0.8193015173","","0.4","0.2","0.8","0.6","","","","","0.6033058466","0.7347719752","0.5189107771","0.8193015173","","","","","","","","76","L","3","","","121","main_expt",""
"","bandit","201","647456","0.0-162.0-0.0","60632881","wem/bandit_either_3","A3LJ2FHESYV9QQ","either","8","341","","","","","","","1","0","0","0.8025146027","","0.4","0.2","0.8","0.6","","","","","0.6102220397","0.8270923978","0.4428493372","0.8025146027","","","","","","","","76","L","3","","","122","main_expt",""
"","bandit","202","649386","0.0-163.0-0.0","60632881","wem/bandit_either_3","A3LJ2FHESYV9QQ","either","8","419","","","","","","","1","0","0","0.8121847492","","0.4","0.2","0.8","0.6","","","","","0.6108151959","0.7980631313","0.472724465","0.8121847492","","","","","","","","76","L","3","","","123","main_expt",""
"","bandit","203","651338","0.0-164.0-0.0","60632881","wem/bandit_either_3","A3LJ2FHESYV9QQ","either","8","443","","","","","","","1","0","0","0.8299418439","","0.4","0.2","0.8","0.6","","","","","0.7117385939","0.7369852887","0.4799585558","0.8299418439","","","","","","","","76","L","3","","","124","main_expt",""
"","bandit","204","653233","0.0-165.0-0.0","60632881","wem/bandit_either_3","A3LJ2FHESYV9QQ","either","8","386","","","","","","","0","0","1","","0.825688343","0.4","0.2","0.8","0.6","0.7554186078","0.7465944313","0.5080184993","0.825688343","","","","","","","","","","","","76","L","3","","","125","main_expt",""
"","bandit","205","655137","0.0-166.0-0.0","60632881","wem/bandit_either_3","A3LJ2FHESYV9QQ","either","8","395","","","","","","","1","0","0","0.8372054396","","0.4","0.2","0.8","0.6","","","","","0.8855751833","0.7596834852","0.4555098289","0.8372054396","","","","","","","","76","L","3","","","126","main_expt",""
"","bandit","206","657015","0.0-167.0-0.0","60632881","wem/bandit_either_3","A3LJ2FHESYV9QQ","either","8","370","","","","","","","1","0","0","0.7906689898","","0.4","0.2","0.8","0.6","","","","","0.8003015049","0.7398299979","0.5475411796","0.7906689898","","","","","","","","76","L","3","","","127","main_expt",""
"","bandit","207","658927","0.0-168.0-0.0","60632881","wem/bandit_either_3","A3LJ2FHESYV9QQ","either","8","402","","","","","","","1","0","0","0.8008571507","","0.4","0.2","0.8","0.6","","","","","0.8403113951","0.7764866849","0.612647382","0.8008571507","","","","","","","","76","L","3","","","128","main_expt",""
"","bandit","208","660777","0.0-169.0-0.0","60632881","wem/bandit_either_3","A3LJ2FHESYV9QQ","either","8","339","","","","","","","0","0","1","0.7829297973","","0.4","0.2","0.8","0.6","","","","","0.8826872071","0.6435675963","0.7128970287","0.7829297973","","","","","","","","76","L","3","","","129","main_expt",""
"","bandit","209","662587","0.0-170.0-0.0","60632881","wem/bandit_either_3","A3LJ2FHESYV9QQ","either","8","299","","","","","","","0","1","0","","0.6898445721","0.4","0.2","0.8","0.6","0.8641000085","0.7030252038","0.7309911721","0.6898445721","","","","","","","","","","","","76","L","3","","","130","main_expt",""
"","bandit","210","664384","0.0-171.0-0.0","60632881","wem/bandit_either_3","A3LJ2FHESYV9QQ","either","8","288","","","","","","","1","0","0","0.5864867529","","0.4","0.2","0.8","0.6","","","","","0.8752037592","0.6829232191","0.73180147","0.5864867529","","","","","","","","76","L","3","","","131","main_expt",""
"","bandit","211","666208","0.0-172.0-0.0","60632881","wem/bandit_either_3","A3LJ2FHESYV9QQ","either","8","314","","","","","","","0","0","1","0.560122833","","0.4","0.2","0.8","0.6","","","","","0.8279556795","0.7406452387","0.8467134838","0.560122833","","","","","","","","76","L","3","","","132","main_expt",""
"","bandit","212","668047","0.0-173.0-0.0","60632881","wem/bandit_either_3","A3LJ2FHESYV9QQ","either","8","332","","","","","","","0","0","1","0.48439517","","0.4","0.2","0.8","0.6","","","","","0.8194722428","0.6666234363","0.8481264083","0.48439517","","","","","","","","76","L","3","","","133","main_expt",""
"","bandit","213","669928","0.0-174.0-0.0","60632881","wem/bandit_either_3","A3LJ2FHESYV9QQ","either","8","371","","","","","","","0","1","0","","0.3919863126","0.4","0.2","0.8","0.6","0.8037084922","0.680542061","0.8771050955","0.3919863126","","","","","","","","","","","","76","L","3","","","134","main_expt",""
"","bandit","214","671768","0.0-175.0-0.0","60632881","wem/bandit_either_3","A3LJ2FHESYV9QQ","either","8","331","","","","","","","0","1","0","","0.5174750093","0.4","0.2","0.8","0.6","0.8155916457","0.7006187635","0.9103241533","0.5174750093","","","","","","","","","","","","76","L","3","","","135","main_expt",""
"","bandit","215","673633","0.0-176.0-0.0","60632881","wem/bandit_either_3","A3LJ2FHESYV9QQ","either","8","353","","","","","","","0","0","1","0.4264762493","","0.4","0.2","0.8","0.6","","","","","0.8281957705","0.6936815578","0.9126032517","0.4264762493","","","","","","","","76","L","3","","","136","main_expt",""
"","bandit","216","675462","0.0-177.0-0.0","60632881","wem/bandit_either_3","A3LJ2FHESYV9QQ","either","8","318","","","","","","","0","0","1","0.5351999402","","0.4","0.2","0.8","0.6","","","","","0.7055403129","0.6531428085","0.8983360858","0.5351999402","","","","","","","","76","L","3","","","137","main_expt",""
"","bandit","217","677759","0.0-178.0-0.0","60632881","wem/bandit_either_3","A3LJ2FHESYV9QQ","either","8","787","","","","","","","1","0","0","0.8851370462","","0.4","0.2","0.8","0.6","","","","","0.6884351598","0.6769758131","0.8851370462","0.4758748922","","","","","","","","75","K","2","","","138","main_expt",""
"","bandit","218","679592","0.0-179.0-0.0","60632881","wem/bandit_either_3","A3LJ2FHESYV9QQ","either","8","322","","","","","","","1","0","0","0.8662270416","","0.4","0.2","0.8","0.6","","","","","0.6090423031","0.7649589049","0.8662270416","0.4039793023","","","","","","","","75","K","2","","","139","main_expt",""
"","bandit","219","681414","0.0-180.0-0.0","60632881","wem/bandit_either_3","A3LJ2FHESYV9QQ","either","8","313","","","","","","","1","0","0","0.8345767194","","0.4","0.2","0.8","0.6","","","","","0.7000077187","0.7674202191","0.8345767194","0.384774136","","","","","","","","75","K","2","","","140","main_expt",""
"","bandit","220","683208","0.0-181.0-0.0","60632881","wem/bandit_either_3","A3LJ2FHESYV9QQ","either","8","284","","","","","","","1","0","0","0.8783670964","","0.4","0.2","0.8","0.6","","","","","0.6643185619","0.8575114448","0.8783670964","0.327254859","","","","","","","","75","K","2","","","141","main_expt",""
"","bandit","221","685064","0.0-182.0-0.0","60632881","wem/bandit_either_3","A3LJ2FHESYV9QQ","either","8","344","","","","","","","0","1","0","","0.8895828315","0.4","0.2","0.8","0.6","0.7079845674","0.8134430427","0.8895828315","0.4536641492","","","","","","","","","","","","75","K","2","","","142","main_expt",""
"","bandit","222","686854","0.0-183.0-0.0","60632881","wem/bandit_either_3","A3LJ2FHESYV9QQ","either","8","280","","","","","","","1","0","0","0.9053928798","","0.4","0.2","0.8","0.6","","","","","0.6624187643","0.8345505038","0.9053928798","0.4348486293","","","","","","","","75","K","2","","","143","main_expt",""
"","bandit","223","688680","0.0-184.0-0.0","60632881","wem/bandit_either_3","A3LJ2FHESYV9QQ","either","8","314","","","","","","","0","1","0","","0.9033088386","0.4","0.2","0.8","0.6","0.6779247185","0.7482817554","0.9033088386","0.4086594597","","","","","","","","","","","","75","K","2","","","144","main_expt",""
"","bandit","224","690462","0.0-185.0-0.0","60632881","wem/bandit_either_3","A3LJ2FHESYV9QQ","either","8","274","","","","","","","0","0","1","0.8572864227","","0.4","0.2","0.8","0.6","","","","","0.7216102374","0.7400387939","0.8572864227","0.4420772456","","","","","","","","75","K","2","","","145","main_expt",""
"","bandit","225","692239","0.0-186.0-0.0","60632881","wem/bandit_either_3","A3LJ2FHESYV9QQ","either","8","267","","","","","","","0","1","0","","0.8687508917","0.4","0.2","0.8","0.6","0.7837267619","0.795971973","0.8687508917","0.508741462","","","","","","","","","","","","75","K","2","","","146","main_expt",""
"","bandit","226","694015","0.0-187.0-0.0","60632881","wem/bandit_either_3","A3LJ2FHESYV9QQ","either","8","266","","","","","","","1","0","0","0.8657621525","","0.4","0.2","0.8","0.6","","","","","0.7652264833","0.7503502301","0.8657621525","0.4624398998","","","","","","","","75","K","2","","","147","main_expt",""
"","bandit","227","695823","0.0-188.0-0.0","60632881","wem/bandit_either_3","A3LJ2FHESYV9QQ","either","8","298","","","","","","","1","0","0","0.8362891365","","0.4","0.2","0.8","0.6","","","","","0.7358716413","0.8200474043","0.8362891365","0.4062589849","","","","","","","","75","K","2","","","148","main_expt",""
"","bandit","228","697654","0.0-189.0-0.0","60632881","wem/bandit_either_3","A3LJ2FHESYV9QQ","either","8","320","","","","","","","0","0","1","","0.8144386017","0.4","0.2","0.8","0.6","0.7129200786","0.8509010271","0.8144386017","0.4895331913","","","","","","","","","","","","75","K","2","","","149","main_expt",""
"","bandit","229","699478","0.0-190.0-0.0","60632881","wem/bandit_either_3","A3LJ2FHESYV9QQ","either","8","315","","","","","","","1","0","0","0.6948055455","","0.4","0.2","0.8","0.6","","","","","0.705531668","0.8298908313","0.6948055455","0.4704746919","","","","","","","","75","K","2","","","150","main_expt",""
"","bandit","230","701302","0.0-191.0-0.0","60632881","wem/bandit_either_3","A3LJ2FHESYV9QQ","either","8","313","","","","","","","1","0","0","0.6231991314","","0.4","0.2","0.8","0.6","","","","","0.5744604188","0.7362749002","0.6231991314","0.4725745774","","","","","","","","75","K","2","","","151","main_expt",""
"","bandit","231","703143","0.0-192.0-0.0","60632881","wem/bandit_either_3","A3LJ2FHESYV9QQ","either","8","330","","","","","","","0","1","0","","0.7045057733","0.4","0.2","0.8","0.6","0.5372669321","0.7601791643","0.7045057733","0.4943906398","","","","","","","","","","","","75","K","2","","","152","main_expt",""
"","bandit","232","704975","0.0-193.0-0.0","60632881","wem/bandit_either_3","A3LJ2FHESYV9QQ","either","8","322","","","","","","","1","0","0","0.5331338622","","0.4","0.2","0.8","0.6","","","","","0.5447545218","0.7590648118","0.5331338622","0.4639524782","","","","","","","","75","K","2","","","153","main_expt",""
"","bandit","233","706783","0.0-194.0-0.0","60632881","wem/bandit_either_3","A3LJ2FHESYV9QQ","either","8","299","","","","","","","0","0","1","0.5096720896","","0.4","0.2","0.8","0.6","","","","","0.4191749193","0.7805387907","0.5096720896","0.3935792086","","","","","","","","75","K","2","","","154","main_expt",""
"","bandit","234","708630","0.0-195.0-0.0","60632881","wem/bandit_either_3","A3LJ2FHESYV9QQ","either","8","336","","","","","","","0","0","1","0.4719011365","","0.4","0.2","0.8","0.6","","","","","0.4269770229","0.8450805748","0.4719011365","0.4127348605","","","","","","","","75","K","2","","","155","main_expt",""
"","bandit","235","710445","0.0-196.0-0.0","60632881","wem/bandit_either_3","A3LJ2FHESYV9QQ","either","8","304","","","","","","","0","0","1","0.5818713095","","0.4","0.2","0.8","0.6","","","","","0.4589862704","0.8513110265","0.5818713095","0.3697675558","","","","","","","","75","K","2","","","156","main_expt",""
"","bandit","236","712359","0.0-197.0-0.0","60632881","wem/bandit_either_3","A3LJ2FHESYV9QQ","either","8","402","","","","","","","0","0","1","","0.3604398023","0.4","0.2","0.8","0.6","0.5370818316","0.8226236001","0.5804022203","0.3604398023","","","","","","","","","","","","76","L","3","","","157","main_expt",""
"","bandit","237","714223","0.0-198.0-0.0","60632881","wem/bandit_either_3","A3LJ2FHESYV9QQ","either","8","353","","","","","","","0","0","1","","0.8843141367","0.4","0.2","0.8","0.6","0.4757376888","0.8843141367","0.4773166223","0.4061750625","","","","","","","","","","","","74","J","1","","","158","main_expt",""
"","bandit","238","716038","0.0-199.0-0.0","60632881","wem/bandit_either_3","A3LJ2FHESYV9QQ","either","8","307","","","","","","","0","0","1","","0.4887287223","0.4","0.2","0.8","0.6","0.4887287223","0.8078798749","0.419048585","0.4696417586","","","","","","","","","","","","72","H","0","img/none_selected.jpg","","159","main_expt",""
"","bandit","239","717895","0.0-200.0-0.0","60632881","wem/bandit_either_3","A3LJ2FHESYV9QQ","either","8","347","","","","","","","0","0","1","","0.4588489809","0.4","0.2","0.8","0.6","0.4588489809","0.7689164465","0.4672574386","0.4659569923","","","","","","","","","","","","72","H","0","img/none_selected.jpg","","160","main_expt",""
"","bandit","240","719727","0.0-201.0-0.0","60632881","wem/bandit_either_3","A3LJ2FHESYV9QQ","either","8","321","","","","","","","0","0","1","0.5612985374","","0.4","0.2","0.8","0.6","","","","","0.4920004413","0.7863156869","0.5612985374","0.3947207546","","","","","","","","75","K","2","","","161","main_expt",""
"","bandit","241","721615","0.0-202.0-0.0","60632881","wem/bandit_either_3","A3LJ2FHESYV9QQ","either","8","376","","","","","","","0","1","0","","0.8098475403","0.4","0.2","0.8","0.6","0.5389881207","0.8098475403","0.5288680036","0.2460097942","","","","","","","","","","","","74","J","1","","","162","main_expt",""
"","bandit","242","723494","0.0-203.0-0.0","60632881","wem/bandit_either_3","A3LJ2FHESYV9QQ","either","8","368","","","","","","","0","1","0","","0.8222712862","0.4","0.2","0.8","0.6","0.6040136001","0.8222712862","0.6096883849","0.3603606056","","","","","","","","","","","","74","J","1","","","163","main_expt",""
"","bandit","243","725312","0.0-204.0-0.0","60632881","wem/bandit_either_3","A3LJ2FHESYV9QQ","either","8","306","","","","","","","0","1","0","","0.7876031225","0.4","0.2","0.8","0.6","0.623756827","0.7876031225","0.4868922288","0.2507209727","","","","","","","","","","","","74","J","1","","","164","main_expt",""
"","bandit","244","727141","0.0-205.0-0.0","60632881","wem/bandit_either_3","A3LJ2FHESYV9QQ","either","8","320","","","","","","","0","0","1","","0.7435052823","0.4","0.2","0.8","0.6","0.6164515281","0.7435052823","0.4055552053","0.2162043423","","","","","","","","","","","","74","J","1","","","165","main_expt",""
"","bandit","245","728934","0.0-206.0-0.0","60632881","wem/bandit_either_3","A3LJ2FHESYV9QQ","either","8","284","","","","","","","0","1","0","","0.6545739251","0.4","0.2","0.8","0.6","0.4660222187","0.6545739251","0.4748236382","0.2573409732","","","","","","","","","","","","74","J","1","","","166","main_expt",""
"","bandit","246","730743","0.0-207.0-0.0","60632881","wem/bandit_either_3","A3LJ2FHESYV9QQ","either","8","297","","","","","","","0","0","1","0.6645907447","","0.4","0.2","0.8","0.6","","","","","0.3336058786","0.6645907447","0.4725242185","0.4016088623","","","","","","","","74","J","1","","","167","main_expt",""
"","bandit","247","732558","0.0-208.0-0.0","60632881","wem/bandit_either_3","A3LJ2FHESYV9QQ","either","8","303","","","","","","","0","1","0","","0.7243751722","0.4","0.2","0.8","0.6","0.2887723434","0.7243751722","0.4775208721","0.5522858252","","","","","","","","","","","","74","J","1","","","168","main_expt",""
"","bandit","248","734404","0.0-209.0-0.0","60632881","wem/bandit_either_3","A3LJ2FHESYV9QQ","either","8","337","","","","","","","0","1","0","","0.6453105543","0.4","0.2","0.8","0.6","0.3357056981","0.6453105543","0.4682732781","0.5461138513","","","","","","","","","","","","74","J","1","","","169","main_expt",""
"","bandit","249","736213","0.0-210.0-0.0","60632881","wem/bandit_either_3","A3LJ2FHESYV9QQ","either","8","299","","","","","","","0","0","1","","0.5334010147","0.4","0.2","0.8","0.6","0.4179693295","0.5334010147","0.4246621539","0.4402798015","","","","","","","","","","","","74","J","1","","","170","main_expt",""
"","bandit","250","738053","0.0-211.0-0.0","60632881","wem/bandit_either_3","A3LJ2FHESYV9QQ","either","8","329","","","","","","","0","1","0","","0.498122785","0.4","0.2","0.8","0.6","0.3050406521","0.498122785","0.2843380906","0.450294849","","","","","","","","","","","","74","J","1","","","171","main_expt",""
"","bandit","251","739878","0.0-212.0-0.0","60632881","wem/bandit_either_3","A3LJ2FHESYV9QQ","either","8","316","","","","","","","0","0","1","0.4356988635","","0.4","0.2","0.8","0.6","","","","","0.3364500029","0.4356988635","0.2668952485","0.6475755847","","","","","","","","74","J","1","","","172","main_expt",""
"","bandit","252","741710","0.0-213.0-0.0","60632881","wem/bandit_either_3","A3LJ2FHESYV9QQ","either","8","320","","","","","","","0","0","1","0.3964199688","","0.4","0.2","0.8","0.6","","","","","0.421339117","0.3964199688","0.3802819164","0.6095255177","","","","","","","","74","J","1","","","173","main_expt",""
"","bandit","253","743509","0.0-214.0-0.0","60632881","wem/bandit_either_3","A3LJ2FHESYV9QQ","either","8","289","","","","","","","1","0","0","0.4913704717","","0.4","0.2","0.8","0.6","","","","","0.4913704717","0.3194345802","0.4042455133","0.5003628493","","","","","","","","72","H","0","img/none_selected.jpg","","174","main_expt",""
"","bandit","254","745323","0.0-215.0-0.0","60632881","wem/bandit_either_3","A3LJ2FHESYV9QQ","either","8","305","","","","","","","0","0","1","0.5882611891","","0.4","0.2","0.8","0.6","","","","","0.5882611891","0.2865230234","0.4393989914","0.5576212716","","","","","","","","72","H","0","img/none_selected.jpg","","175","main_expt",""
"","bandit","255","747286","0.0-216.0-0.0","60632881","wem/bandit_either_3","A3LJ2FHESYV9QQ","either","8","451","","","","","","","0","1","0","","0.6313830356","0.4","0.2","0.8","0.6","0.6313830356","0.3352692614","0.4705173801","0.6230679906","","","","","","","","","","","","72","H","0","img/none_selected.jpg","","176","main_expt",""
"","bandit","256","749117","0.0-217.0-0.0","60632881","wem/bandit_either_3","A3LJ2FHESYV9QQ","either","8","321","","","","","","","0","0","1","","0.5531265137","0.4","0.2","0.8","0.6","0.5531265137","0.3389264817","0.4698597734","0.6501784685","","","","","","","","","","","","72","H","0","img/none_selected.jpg","","177","main_expt",""
"","bandit","257","750998","0.0-218.0-0.0","60632881","wem/bandit_either_3","A3LJ2FHESYV9QQ","either","8","370","","","","","","","0","1","0","","0.4621004187","0.4","0.2","0.8","0.6","0.4621004187","0.3709673039","0.3570804947","0.6334155083","","","","","","","","","","","","72","H","0","img/none_selected.jpg","","178","main_expt",""
"","bandit","258","752838","0.0-219.0-0.0","60632881","wem/bandit_either_3","A3LJ2FHESYV9QQ","either","8","327","","","","","","","0","1","0","","0.512884041","0.4","0.2","0.8","0.6","0.512884041","0.2940579202","0.3441184995","0.7548338289","","","","","","","","","","","","72","H","0","img/none_selected.jpg","","179","main_expt",""
"","bandit","259","754636","0.0-220.0-0.0","60632881","wem/bandit_either_3","A3LJ2FHESYV9QQ","either","8","288","","","","","","","1","0","0","0.506744284","","0.4","0.2","0.8","0.6","","","","","0.506744284","0.3218724025","0.3646136501","0.8074073351","","","","","","","","72","H","0","img/none_selected.jpg","","180","main_expt",""
"","bandit","260","756492","0.0-221.0-0.0","60632881","wem/bandit_either_3","A3LJ2FHESYV9QQ","either","8","345","","","","","","","0","1","0","","0.4556494723","0.4","0.2","0.8","0.6","0.4556494723","0.3633286182","0.3777688814","0.780721516","","","","","","","","","","","","72","H","0","img/none_selected.jpg","","181","main_expt",""
"","bandit","261","758341","0.0-222.0-0.0","60632881","wem/bandit_either_3","A3LJ2FHESYV9QQ","either","8","339","","","","","","","0","0","1","","0.4494525508","0.4","0.2","0.8","0.6","0.4494525508","0.3324048704","0.4578236703","0.7647415088","","","","","","","","","","","","72","H","0","img/none_selected.jpg","","182","main_expt",""
"","bandit","262","760181","0.0-223.0-0.0","60632881","wem/bandit_either_3","A3LJ2FHESYV9QQ","either","8","328","","","","","","","0","0","1","","0.5189143621","0.4","0.2","0.8","0.6","0.5189143621","0.3092830871","0.4244895098","0.7349307529","","","","","","","","","","","","72","H","0","img/none_selected.jpg","","183","main_expt",""
"","bandit","263","761966","0.0-224.0-0.0","60632881","wem/bandit_either_3","A3LJ2FHESYV9QQ","either","8","273","","","","","","","1","0","0","0.5167606333","","0.4","0.2","0.8","0.6","","","","","0.5167606333","0.3905692936","0.3566779322","0.8298088288","","","","","","","","72","H","0","img/none_selected.jpg","","184","main_expt",""
"","bandit","264","763782","0.0-225.0-0.0","60632881","wem/bandit_either_3","A3LJ2FHESYV9QQ","either","8","303","","","","","","","0","1","0","","0.5270237034","0.4","0.2","0.8","0.6","0.5270237034","0.4626192444","0.3737416658","0.7894193193","","","","","","","","","","","","72","H","0","img/none_selected.jpg","","185","main_expt",""
"","bandit","265","765548","0.0-226.0-0.0","60632881","wem/bandit_either_3","A3LJ2FHESYV9QQ","either","8","254","","","","","","","0","0","1","","0.5556036571","0.4","0.2","0.8","0.6","0.5556036571","0.6061762586","0.3120176694","0.7665022487","","","","","","","","","","","","72","H","0","img/none_selected.jpg","","186","main_expt",""
"","bandit","266","767371","0.0-227.0-0.0","60632881","wem/bandit_either_3","A3LJ2FHESYV9QQ","either","8","312","","","","","","","0","0","1","0.4134691065","","0.4","0.2","0.8","0.6","","","","","0.5865134094","0.530958695","0.4134691065","0.7394266891","","","","","","","","75","K","2","","","187","main_expt",""
"","bandit","267","769100","0.0-228.0-0.0","60632881","wem/bandit_either_3","A3LJ2FHESYV9QQ","either","8","217","","","","","","","0","1","0","","0.6567361442","0.4","0.2","0.8","0.6","0.5034866795","0.380024655","0.4637770407","0.6567361442","","","","","","","","","","","","76","L","3","","","188","main_expt",""
"","bandit","268","770957","0.0-229.0-0.0","60632881","wem/bandit_either_3","A3LJ2FHESYV9QQ","either","8","343","","","","","","","0","0","1","","0.6572443956","0.4","0.2","0.8","0.6","0.5761715841","0.4563575644","0.5739034088","0.6572443956","","","","","","","","","","","","76","L","3","","","189","main_expt",""
"","bandit","269","772789","0.0-230.0-0.0","60632881","wem/bandit_either_3","A3LJ2FHESYV9QQ","either","8","322","","","","","","","1","0","0","0.4540853102","","0.4","0.2","0.8","0.6","","","","","0.5325489933","0.4540853102","0.5859504021","0.6735764162","","","","","","","","74","J","1","","","190","main_expt",""
"","bandit","270","774613","0.0-231.0-0.0","60632881","wem/bandit_either_3","A3LJ2FHESYV9QQ","either","8","312","","","","","","","0","0","1","0.4328006462","","0.4","0.2","0.8","0.6","","","","","0.5614919892","0.4328006462","0.5325822721","0.5997518312","","","","","","","","74","J","1","","","191","main_expt",""
"","bandit","271","776459","0.0-232.0-0.0","60632881","wem/bandit_either_3","A3LJ2FHESYV9QQ","either","8","331","","","","","","","0","1","0","","0.4979354652","0.4","0.2","0.8","0.6","0.5972832049","0.4979354652","0.4622441745","0.6582178794","","","","","","","","","","","","74","J","1","","","192","main_expt",""
"","bandit","272","778350","0.0-233.0-0.0","60632881","wem/bandit_either_3","A3LJ2FHESYV9QQ","either","8","378","","","","","","","0","0","1","","0.4887187701","0.4","0.2","0.8","0.6","0.6997951875","0.4887187701","0.4765036663","0.7246172867","","","","","","","","","","","","74","J","1","","","193","main_expt",""
"","bandit","273","780196","0.0-234.0-0.0","60632881","wem/bandit_either_3","A3LJ2FHESYV9QQ","either","8","336","","","","","","","0","1","0","","0.7511051992","0.4","0.2","0.8","0.6","0.7511051992","0.4993882896","0.4504155567","0.7721250451","","","","","","","","","","","","72","H","0","img/none_selected.jpg","","194","main_expt",""
"","bandit","274","782029","0.0-235.0-0.0","60632881","wem/bandit_either_3","A3LJ2FHESYV9QQ","either","8","321","","","","","","","0","0","1","","0.8281457055","0.4","0.2","0.8","0.6","0.8281457055","0.5011331455","0.4354252764","0.8366496483","","","","","","","","","","","","72","H","0","img/none_selected.jpg","","195","main_expt",""
"","bandit","275","783862","0.0-236.0-0.0","60632881","wem/bandit_either_3","A3LJ2FHESYV9QQ","either","8","322","","","","","","","0","1","0","","0.8248544968","0.4","0.2","0.8","0.6","0.8248544968","0.4487960683","0.4170899215","0.8484646997","","","","","","","","","","","","72","H","0","img/none_selected.jpg","","196","main_expt",""
"","bandit","276","785630","0.0-237.0-0.0","60632881","wem/bandit_either_3","A3LJ2FHESYV9QQ","either","8","255","","","","","","","1","0","0","0.8532714289","","0.4","0.2","0.8","0.6","","","","","0.8532714289","0.3975590019","0.4149059055","0.8734060335","","","","","","","","72","H","0","img/none_selected.jpg","","197","main_expt",""
"","bandit","277","787510","0.0-238.0-0.0","60632881","wem/bandit_either_3","A3LJ2FHESYV9QQ","either","8","365","","","","","","","0","0","1","0.7587337752","","0.4","0.2","0.8","0.6","","","","","0.7587337752","0.4161601929","0.4737306044","0.8515360685","","","","","","","","72","H","0","img/none_selected.jpg","","198","main_expt",""
"","bandit","278","789318","0.0-239.0-0.0","60632881","wem/bandit_either_3","A3LJ2FHESYV9QQ","either","8","295","","","","","","","1","0","0","0.8124408481","","0.4","0.2","0.8","0.6","","","","","0.8124408481","0.4483979408","0.4541760911","0.8805923715","","","","","","","","72","H","0","img/none_selected.jpg","","199","main_expt",""
"","bandit","279","791165","0.0-240.0-0.0","60632881","wem/bandit_either_3","A3LJ2FHESYV9QQ","either","8","335","","","","","","","1","0","0","0.7935778268","","0.4","0.2","0.8","0.6","","","","","0.7935778268","0.5303380975","0.3964714959","0.9645818821","","","","","","","","72","H","0","img/none_selected.jpg","","200","main_expt",""
"","bandit","280","792948","0.0-241.0-0.0","60632881","wem/bandit_either_3","A3LJ2FHESYV9QQ","either","8","272","","","","","","","0","0","1","","0.736942723","0.4","0.2","0.8","0.6","0.736942723","0.4014045657","0.3815447649","0.9689478708","","","","","","","","","","","","72","H","0","img/none_selected.jpg","","201","main_expt",""
"","bandit","281","794717","0.0-242.0-0.0","60632881","wem/bandit_either_3","A3LJ2FHESYV9QQ","either","8","258","","","","","","","0","0","1","","0.7001951276","0.4","0.2","0.8","0.6","0.7001951276","0.5115169607","0.3726367513","0.9678291885","","","","","","","","","","","","72","H","0","img/none_selected.jpg","","202","main_expt",""
"","bandit","282","796493","0.0-243.0-0.0","60632881","wem/bandit_either_3","A3LJ2FHESYV9QQ","either","8","263","","","","","","","1","0","0","0.3062653216","","0.4","0.2","0.8","0.6","","","","","0.7209300446","0.5026191452","0.3062653216","0.9633244117","","","","","","","","75","K","2","","","203","main_expt",""
"","bandit","283","798275","0.0-244.0-0.0","60632881","wem/bandit_either_3","A3LJ2FHESYV9QQ","either","8","271","","","","","","","0","0","1","0.2848501254","","0.4","0.2","0.8","0.6","","","","","0.8574132932","0.4736298566","0.2848501254","0.9730812582","","","","","","","","75","K","2","","","204","main_expt",""
"","bandit","284","800276","0.0-245.0-0.0","60632881","wem/bandit_either_3","A3LJ2FHESYV9QQ","either","8","489","","","","","","","0","0","1","","0.3457586416","0.4","0.2","0.8","0.6","0.9038760074","0.6121858428","0.3457586416","0.9521206422","","","","","","","","","","","","75","K","2","","","205","main_expt",""
"","bandit","285","802076","0.0-246.0-0.0","60632881","wem/bandit_either_3","A3LJ2FHESYV9QQ","either","8","288","","","","","","","0","1","0","","0.6377028942","0.4","0.2","0.8","0.6","0.9273356803","0.6377028942","0.4609097875","0.9614764056","","","","","","","","","","","","74","J","1","","","206","main_expt",""
"","bandit","286","803901","0.0-247.0-0.0","60632881","wem/bandit_either_3","A3LJ2FHESYV9QQ","either","8","313","","","","","","","0","1","0","","0.5700483165","0.4","0.2","0.8","0.6","0.9502037039","0.5700483165","0.4980316736","0.9625830716","","","","","","","","","","","","74","J","1","","","207","main_expt",""
"","bandit","287","805708","0.0-248.0-0.0","60632881","wem/bandit_either_3","A3LJ2FHESYV9QQ","either","8","297","","","","","","","0","0","1","","0.624428721","0.4","0.2","0.8","0.6","0.944094639","0.624428721","0.4537691537","0.9359306517","","","","","","","","","","","","74","J","1","","","208","main_expt",""
"","bandit","288","807500","0.0-249.0-0.0","60632881","wem/bandit_either_3","A3LJ2FHESYV9QQ","either","8","281","","","","","","","0","1","0","","0.4475842875","0.4","0.2","0.8","0.6","0.9070839441","0.4861871301","0.4475842875","0.9632917203","","","","","","","","","","","","75","K","2","","","209","main_expt",""
"","bandit","289","809322","0.0-250.0-0.0","60632881","wem/bandit_either_3","A3LJ2FHESYV9QQ","either","8","311","","","","","","","0","0","1","0.4803454055","","0.4","0.2","0.8","0.6","","","","","0.8960653589","0.3956361612","0.4803454055","0.9633226214","","","","","","","","75","K","2","","","210","main_expt",""
"","bandit","290","811123","0.0-251.0-0.0","60632881","wem/bandit_either_3","A3LJ2FHESYV9QQ","either","8","289","","","","","","","1","0","0","0.9719781217","","0.4","0.2","0.8","0.6","","","","","0.9155455821","0.3599204452","0.4126443349","0.9719781217","","","","","","","","76","L","3","","","211","main_expt",""
"","bandit","291","812956","0.0-252.0-0.0","60632881","wem/bandit_either_3","A3LJ2FHESYV9QQ","either","8","321","","","","","","","0","1","0","","0.9700781686","0.4","0.2","0.8","0.6","0.9087954588","0.3349000901","0.3384802849","0.9700781686","","","","","","","","","","","","76","L","3","","","212","main_expt",""
"","bandit","292","814804","0.0-253.0-0.0","60632881","wem/bandit_either_3","A3LJ2FHESYV9QQ","either","8","336","","","","","","","1","0","0","0.971165811","","0.4","0.2","0.8","0.6","","","","","0.8528540962","0.3183344176","0.3039242722","0.971165811","","","","","","","","76","L","3","","","213","main_expt",""
"","bandit","293","816683","0.0-254.0-0.0","60632881","wem/bandit_either_3","A3LJ2FHESYV9QQ","either","8","360","","","","","","","1","0","0","0.9627117","","0.4","0.2","0.8","0.6","","","","","0.8506041988","0.2390758011","0.4541530846","0.9627117","","","","","","","","76","L","3","","","214","main_expt",""
"","bandit","294","818612","0.0-255.0-0.0","60632881","wem/bandit_either_3","A3LJ2FHESYV9QQ","either","8","416","","","","","","","0","1","0","","0.9552130497","0.4","0.2","0.8","0.6","0.8001829978","0.1997060473","0.5101749692","0.9552130497","","","","","","","","","","","","76","L","3","","","215","main_expt",""
"","bandit","295","820459","0.0-256.0-0.0","60632881","wem/bandit_either_3","A3LJ2FHESYV9QQ","either","8","336","","","","","","","1","0","0","0.9220350188","","0.4","0.2","0.8","0.6","","","","","0.733614842","0.2326539104","0.5580520347","0.9220350188","","","","","","","","76","L","3","","","216","main_expt",""
"","bandit","296","822292","0.0-257.0-0.0","60632881","wem/bandit_either_3","A3LJ2FHESYV9QQ","either","8","321","","","","","","","0","1","0","","0.8736667029","0.4","0.2","0.8","0.6","0.7479737912","0.2319826337","0.4368451062","0.8736667029","","","","","","","","","","","","76","L","3","","","217","main_expt",""
"","bandit","297","824124","0.0-258.0-0.0","60632881","wem/bandit_either_3","A3LJ2FHESYV9QQ","either","8","319","","","","","","","1","0","0","0.7602784417","","0.4","0.2","0.8","0.6","","","","","0.7713398237","0.3143382807","0.3963441813","0.7602784417","","","","","","","","76","L","3","","","218","main_expt",""
"","bandit","298","825931","0.0-259.0-0.0","60632881","wem/bandit_either_3","A3LJ2FHESYV9QQ","either","8","297","","","","","","","1","0","0","0.7643050859","","0.4","0.2","0.8","0.6","","","","","0.8077055691","0.3304972923","0.4809426617","0.7643050859","","","","","","","","76","L","3","","","219","main_expt",""
"","bandit","299","827963","0.0-260.0-0.0","60632881","wem/bandit_either_3","A3LJ2FHESYV9QQ","either","8","521","","","","","","","1","0","0","0.7793587236","","0.4","0.2","0.8","0.6","","","","","0.7778114837","0.2866104843","0.397759556","0.7793587236","","","","","","","","76","L","3","","","220","main_expt",""
"","bandit","300","829795","0.0-261.0-0.0","60632881","wem/bandit_either_3","A3LJ2FHESYV9QQ","either","8","319","","","","","","","1","0","0","0.82086311","","0.4","0.2","0.8","0.6","","","","","0.7214198583","0.3602561646","0.4087677593","0.82086311","","","","","","","","76","L","3","","","221","main_expt",""
"","bandit","301","831634","0.0-262.0-0.0","60632881","wem/bandit_either_3","A3LJ2FHESYV9QQ","either","8","327","","","","","","","0","1","0","","0.8543662658","0.4","0.2","0.8","0.6","0.8091526303","0.3228749062","0.4561280915","0.8543662658","","","","","","","","","","","","76","L","3","","","222","main_expt",""
"","bandit","302","833467","0.0-263.0-0.0","60632881","wem/bandit_either_3","A3LJ2FHESYV9QQ","either","8","322","","","","","","","0","1","0","","0.8599459829","0.4","0.2","0.8","0.6","0.8240838469","0.2549485676","0.4419858618","0.8599459829","","","","","","","","","","","","76","L","3","","","223","main_expt",""
"","bandit","303","835307","0.0-264.0-0.0","60632881","wem/bandit_either_3","A3LJ2FHESYV9QQ","either","8","327","","","","","","","0","1","0","","0.8747991669","0.4","0.2","0.8","0.6","0.7670685714","0.2389333491","0.494409337","0.8747991669","","","","","","","","","","","","76","L","3","","","224","main_expt",""
"","bandit","304","837356","0.0-265.0-0.0","60632881","wem/bandit_either_3","A3LJ2FHESYV9QQ","either","8","536","","","","","","","0","1","0","","0.7910409491","0.4","0.2","0.8","0.6","0.8775689376","0.1517307125","0.3713348049","0.7910409491","","","","","","","","","","","","76","L","3","","","225","main_expt",""
"","bandit","305","839188","0.0-266.0-0.0","60632881","wem/bandit_either_3","A3LJ2FHESYV9QQ","either","8","321","","","","","","","0","1","0","","0.7212928749","0.4","0.2","0.8","0.6","0.8846504348","0.1002450003","0.4013452417","0.7212928749","","","","","","","","","","","","76","L","3","","","226","main_expt",""
"","bandit","306","841107","0.0-267.0-0.0","60632881","wem/bandit_either_3","A3LJ2FHESYV9QQ","either","8","408","","","","","","","1","0","0","0.7090989562","","0.4","0.2","0.8","0.6","","","","","0.851087938","0.1049945928","0.393451628","0.7090989562","","","","","","","","76","L","3","","","227","main_expt",""
"","bandit","307","843009","0.0-268.0-0.0","60632881","wem/bandit_either_3","A3LJ2FHESYV9QQ","either","8","392","","","","","","","1","0","0","0.6606736223","","0.4","0.2","0.8","0.6","","","","","0.9074720337","0.03915988122","0.4175844788","0.6606736223","","","","","","","","76","L","3","","","228","main_expt",""
"","bandit","308","844881","0.0-269.0-0.0","60632881","wem/bandit_either_3","A3LJ2FHESYV9QQ","either","8","361","","","","","","","0","0","1","0.6893924153","","0.4","0.2","0.8","0.6","","","","","0.872332114","0.03767516843","0.408368909","0.6893924153","","","","","","","","76","L","3","","","229","main_expt",""
"","bandit","309","846744","0.0-270.0-0.0","60632881","wem/bandit_either_3","A3LJ2FHESYV9QQ","either","8","352","","","","","","","0","1","0","","0.6067604319","0.4","0.2","0.8","0.6","0.7967167456","0.05804790214","0.4777699032","0.6067604319","","","","","","","","","","","","76","L","3","","","230","main_expt",""
"","bandit","310","848634","0.0-271.0-0.0","60632881","wem/bandit_either_3","A3LJ2FHESYV9QQ","either","8","377","","","","","","","1","0","0","0.5037419277","","0.4","0.2","0.8","0.6","","","","","0.7760618079","0.04963095007","0.4935442242","0.5037419277","","","","","","","","76","L","3","","","231","main_expt",""
"","bandit","311","850498","0.0-272.0-0.0","60632881","wem/bandit_either_3","A3LJ2FHESYV9QQ","either","8","353","","","","","","","1","0","0","0.4339479185","","0.4","0.2","0.8","0.6","","","","","0.7765467853","0.03759782928","0.4889590317","0.4339479185","","","","","","","","76","L","3","","","232","main_expt",""
"","bandit","312","852305","0.0-273.0-0.0","60632881","wem/bandit_either_3","A3LJ2FHESYV9QQ","either","8","296","","","","","","","0","0","1","0.4525546635","","0.4","0.2","0.8","0.6","","","","","0.7895219362","0.03147013274","0.5212294662","0.4525546635","","","","","","","","76","L","3","","","233","main_expt",""
"","bandit","313","854081","0.0-274.0-0.0","60632881","wem/bandit_either_3","A3LJ2FHESYV9QQ","either","8","263","","","","","","","0","0","1","","0.3680080929","0.4","0.2","0.8","0.6","0.7491899586","0.03547440544","0.4420617392","0.3680080929","","","","","","","","","","","","76","L","3","","","234","main_expt",""
"","bandit","314","855832","0.0-275.0-0.0","60632881","wem/bandit_either_3","A3LJ2FHESYV9QQ","either","8","240","","","","","","","0","1","0","","0.3416373547","0.4","0.2","0.8","0.6","0.7397351474","0.04486782706","0.4816955248","0.3416373547","","","","","","","","","","","","76","L","3","","","235","main_expt",""
"","bandit","315","857673","0.0-276.0-0.0","60632881","wem/bandit_either_3","A3LJ2FHESYV9QQ","either","8","327","","","","","","","0","0","1","0.3722877153","","0.4","0.2","0.8","0.6","","","","","0.6587673302","0.03122339122","0.3028121716","0.3722877153","","","","","","","","76","L","3","","","236","main_expt",""
"","bandit","316","859482","0.0-277.0-0.0","60632881","wem/bandit_either_3","A3LJ2FHESYV9QQ","either","8","296","","","","","","","0","1","0","","0.7534934878","0.4","0.2","0.8","0.6","0.7534934878","0.04191117605","0.3802502189","0.3081002542","","","","","","","","","","","","72","H","0","img/none_selected.jpg","","237","main_expt",""
"","bandit","317","861282","0.0-278.0-0.0","60632881","wem/bandit_either_3","A3LJ2FHESYV9QQ","either","8","289","","","","","","","1","0","0","0.8023031038","","0.4","0.2","0.8","0.6","","","","","0.8023031038","0.06367740527","0.4160754302","0.2546656634","","","","","","","","72","H","0","img/none_selected.jpg","","238","main_expt",""
"","bandit","318","863105","0.0-279.0-0.0","60632881","wem/bandit_either_3","A3LJ2FHESYV9QQ","either","8","310","","","","","","","1","0","0","0.8333986962","","0.4","0.2","0.8","0.6","","","","","0.8333986962","0.06315957527","0.3510440385","0.3038323055","","","","","","","","72","H","0","img/none_selected.jpg","","239","main_expt",""
"","bandit","319","864961","0.0-280.0-0.0","60632881","wem/bandit_either_3","A3LJ2FHESYV9QQ","either","8","344","","","","","","","0","1","0","","0.840768508","0.4","0.2","0.8","0.6","0.840768508","0.05324295338","0.4182550587","0.291884511","","","","","","","","","","","","72","H","0","img/none_selected.jpg","","240","main_expt",""
"","bandit","320","866794","0.0-281.0-0.0","60632881","wem/bandit_either_3","A3LJ2FHESYV9QQ","either","8","317","","","","","","","0","1","0","","0.823006268","0.4","0.2","0.8","0.6","0.823006268","0.04641095239","0.5037088371","0.3124975621","","","","","","","","","","","","72","H","0","img/none_selected.jpg","","241","main_expt",""
"","bandit","321","868634","0.0-282.0-0.0","60632881","wem/bandit_either_3","A3LJ2FHESYV9QQ","either","8","326","","","","","","","0","1","0","","0.8152254121","0.4","0.2","0.8","0.6","0.8152254121","0.04954190216","0.4877747003","0.3637146884","","","","","","","","","","","","72","H","0","img/none_selected.jpg","","242","main_expt",""
"","bandit","322","870424","0.0-283.0-0.0","60632881","wem/bandit_either_3","A3LJ2FHESYV9QQ","either","8","279","","","","","","","1","0","0","0.8377493118","","0.4","0.2","0.8","0.6","","","","","0.8377493118","0.05592390002","0.5007011316","0.3304840913","","","","","","","","72","H","0","img/none_selected.jpg","","243","main_expt",""
"","bandit","323","872322","0.0-284.0-0.0","60632881","wem/bandit_either_3","A3LJ2FHESYV9QQ","either","8","386","","","","","","","0","1","0","","0.8258586067","0.4","0.2","0.8","0.6","0.8258586067","0.03808637997","0.5730304632","0.4067767971","","","","","","","","","","","","72","H","0","img/none_selected.jpg","","244","main_expt",""
"","bandit","324","874161","0.0-285.0-0.0","60632881","wem/bandit_either_3","A3LJ2FHESYV9QQ","either","8","327","","","","","","","0","1","0","","0.7889424323","0.4","0.2","0.8","0.6","0.7889424323","0.02077199453","0.6096531262","0.4091901929","","","","","","","","","","","","72","H","0","img/none_selected.jpg","","245","main_expt",""
