"consent","trial_type","trial_index","time_elapsed","internal_node_id","subjID","study","MID","cond","drift","rt","responses","key_press","expt_phase","like","value","connected","gems","bombs","no_reward","GemPrChosen","BombPrChosen","GainOverPainPr_0","GainOverPainPr_1","GainOverPainPr_2","GainOverPainPr_3","LosePr_0","LosePr_1","LosePr_2","LosePr_3","WinPr_0","WinPr_1","WinPr_2","WinPr_3","Q0","Q1","Q2","gender","age","ethnicity","target","respCharCode","respKey","respChoiceNum","respChoice","practice","trial_counter","trial_label","button_pressed"
"INL_behavioral_consent_30min_online.html","consent","0","6223","0.0-0.0","64134160","wem/bandit_either_3","A2SF0TUK6XTPCO","either","5","","","","","","","","","","","","","","","","","","","","","","","","","","","","","","","","","","","","","","",""
"","survey-text","1","8819","0.0-1.0","64134160","wem/bandit_either_3","A2SF0TUK6XTPCO","either","5","1555","{""Q0"":""A2SF0TUK6XTPCO""}","","","","","","","","","","","","","","","","","","","","","","","","","","","","","","","","","","","","",""
"","text","2","53220","0.0-2.0","64134160","wem/bandit_either_3","A2SF0TUK6XTPCO","either","5","43357","","32","","","","","","","","","","","","","","","","","","","","","","","","","","","","","","","","","","","",""
"","text","3","57774","0.0-3.0","64134160","wem/bandit_either_3","A2SF0TUK6XTPCO","either","5","4547","","32","","","","","","","","","","","","","","","","","","","","","","","","","","","","","","","","","","","",""
"","text","4","59415","0.0-4.0","64134160","wem/bandit_either_3","A2SF0TUK6XTPCO","either","5","1632","","32","","","","","","","","","","","","","","","","","","","","","","","","","","","","","","","","","","","",""
"","text","5","62239","0.0-5.0","64134160","wem/bandit_either_3","A2SF0TUK6XTPCO","either","5","2816","","32","","","","","","","","","","","","","","","","","","","","","","","","","","","","","","","","","","","",""
"","text","6","66638","0.0-6.0","64134160","wem/bandit_either_3","A2SF0TUK6XTPCO","either","5","4392","","32","","","","","","","","","","","","","","","","","","","","","","","","","","","","","","","","","","","",""
"","text","7","67488","0.0-7.0","64134160","wem/bandit_either_3","A2SF0TUK6XTPCO","either","5","843","","32","","","","","","","","","","","","","","","","","","","","","","","","","","","","","","","","","","","",""
"","text","8","68139","0.0-8.0","64134160","wem/bandit_either_3","A2SF0TUK6XTPCO","either","5","646","","32","","","","","","","","","","","","","","","","","","","","","","","","","","","","","","","","","","","",""
"","identification","9","74171","0.0-9.0-0.0","64134160","wem/bandit_either_3","A2SF0TUK6XTPCO","either","5","5980","","","","5","4","4","","","","","","","","","","","","","","","","","","","","","","","","the village of Zur","","","","","","","",""
"","identification","10","78804","0.0-9.0-1.0","64134160","wem/bandit_either_3","A2SF0TUK6XTPCO","either","5","3554","","","","3","2","4","","","","","","","","","","","","","","","","","","","","","","","","the village of Nyx","","","","","","","",""
"","text","11","111158","0.0-10.0","64134160","wem/bandit_either_3","A2SF0TUK6XTPCO","either","5","31337","","32","","","","","","","","","","","","","","","","","","","","","","","","","","","","","","","","","","","",""
"","text","12","111760","0.0-11.0","64134160","wem/bandit_either_3","A2SF0TUK6XTPCO","either","5","596","","32","","","","","","","","","","","","","","","","","","","","","","","","","","","","","","","","","","","",""
"","text","13","112182","0.0-12.0","64134160","wem/bandit_either_3","A2SF0TUK6XTPCO","either","5","415","","32","","","","","","","","","","","","","","","","","","","","","","","","","","","","","","","","","","","",""
"","text","14","112487","0.0-13.0","64134160","wem/bandit_either_3","A2SF0TUK6XTPCO","either","5","298","","32","","","","","","","","","","","","","","","","","","","","","","","","","","","","","","","","","","","",""
"","bandit","15","116062","0.0-14.0-0.0","64134160","wem/bandit_either_3","A2SF0TUK6XTPCO","either","5","2028","","","","","","","0","0","1","0","0","","","","","0","","","","0","","","","","","","","","","","74","J","0","img/none_selected_demo.jpg","true","0","",""
"","bandit","16","119585","0.0-15.0-0.0","64134160","wem/bandit_either_3","A2SF0TUK6XTPCO","either","5","1973","","","","","","","0","0","1","0","0","","","","","0","","","","0","","","","","","","","","","","75","K","0","img/none_selected_demo.jpg","true","0","",""
"","text","17","178173","0.0-16.0","64134160","wem/bandit_either_3","A2SF0TUK6XTPCO","either","5","58566","","32","","","","","","","","","","","","","","","","","","","","","","","","","","","","","","","","","","","",""
"","text","18","179102","0.0-17.0","64134160","wem/bandit_either_3","A2SF0TUK6XTPCO","either","5","920","","32","","","","","","","","","","","","","","","","","","","","","","","","","","","","","","","","","","","",""
"","text","19","184420","0.0-18.0","64134160","wem/bandit_either_3","A2SF0TUK6XTPCO","either","5","5311","","32","","","","","","","","","","","","","","","","","","","","","","","","","","","","","","","","","","","",""
"","text","20","184904","0.0-19.0","64134160","wem/bandit_either_3","A2SF0TUK6XTPCO","either","5","477","","32","","","","","","","","","","","","","","","","","","","","","","","","","","","","","","","","","","","",""
"","bandit","21","189329","0.0-20.0-0.0","64134160","wem/bandit_either_3","A2SF0TUK6XTPCO","either","5","2852","","","","","","","0","0","1","","0.2","0.5","0.5","","","0.8","0.2","","","","","","","","","","","","","","75","K","1","","true","0","80_20_practice",""
"","bandit","22","192387","0.0-20.0-1.0","64134160","wem/bandit_either_3","A2SF0TUK6XTPCO","either","5","1516","","","","","","","0","0","1","","0.2","0.5","0.5","","","0.8","0.2","","","","","","","","","","","","","","75","K","1","","true","0","80_20_practice",""
"","bandit","23","195451","0.0-20.0-2.0","64134160","wem/bandit_either_3","A2SF0TUK6XTPCO","either","5","1517","","","","","","","1","0","0","0.8","","0.5","0.5","","","","","","","0.8","0.2","","","","","","","","","","74","J","0","img/none_selected_demo.jpg","true","0","80_20_practice",""
"","bandit","24","198113","0.0-20.0-3.0","64134160","wem/bandit_either_3","A2SF0TUK6XTPCO","either","5","1112","","","","","","","1","0","0","0.8","","0.5","0.5","","","","","","","0.8","0.2","","","","","","","","","","74","J","0","img/none_selected_demo.jpg","true","0","80_20_practice",""
"","bandit","25","200656","0.0-20.0-4.0","64134160","wem/bandit_either_3","A2SF0TUK6XTPCO","either","5","984","","","","","","","0","1","0","","0.8","0.5","0.5","","","0.8","0.2","","","","","","","","","","","","","","74","J","0","img/none_selected_demo.jpg","true","0","80_20_practice",""
"","bandit","26","203219","0.0-20.0-5.0","64134160","wem/bandit_either_3","A2SF0TUK6XTPCO","either","5","1006","","","","","","","0","1","0","","0.8","0.5","0.5","","","0.8","0.2","","","","","","","","","","","","","","74","J","0","img/none_selected_demo.jpg","true","0","80_20_practice",""
"","bandit","27","205092","0.0-20.0-6.0","64134160","wem/bandit_either_3","A2SF0TUK6XTPCO","either","5","320","","","","","","","0","0","1","0.2","","0.5","0.5","","","","","","","0.8","0.2","","","","","","","","","","75","K","1","","true","0","80_20_practice",""
"","bandit","28","206668","0.0-20.0-7.0","64134160","wem/bandit_either_3","A2SF0TUK6XTPCO","either","5","29","","","","","","","0","1","0","","0.8","0.5","0.5","","","0.8","0.2","","","","","","","","","","","","","","74","J","0","img/none_selected_demo.jpg","true","0","80_20_practice",""
"","bandit","29","208832","0.0-20.0-8.0","64134160","wem/bandit_either_3","A2SF0TUK6XTPCO","either","5","614","","","","","","","0","1","0","","0.8","0.5","0.5","","","0.8","0.2","","","","","","","","","","","","","","74","J","0","img/none_selected_demo.jpg","true","0","80_20_practice",""
"","bandit","30","210844","0.0-20.0-9.0","64134160","wem/bandit_either_3","A2SF0TUK6XTPCO","either","5","455","","","","","","","0","0","1","0.2","","0.5","0.5","","","","","","","0.8","0.2","","","","","","","","","","75","K","1","","true","0","80_20_practice",""
"","bandit","31","213271","0.0-20.0-10.0","64134160","wem/bandit_either_3","A2SF0TUK6XTPCO","either","5","862","","","","","","","0","0","1","","0.8","0.5","0.5","","","0.8","0.2","","","","","","","","","","","","","","74","J","0","img/none_selected_demo.jpg","true","0","80_20_practice",""
"","bandit","32","216934","0.0-20.0-11.0","64134160","wem/bandit_either_3","A2SF0TUK6XTPCO","either","5","2114","","","","","","","0","1","0","","0.8","0.5","0.5","","","0.8","0.2","","","","","","","","","","","","","","74","J","0","img/none_selected_demo.jpg","true","0","80_20_practice",""
"","bandit","33","225012","0.0-20.0-12.0","64134160","wem/bandit_either_3","A2SF0TUK6XTPCO","either","5","6527","","","","","","","0","1","0","","0.8","0.5","0.5","","","0.8","0.2","","","","","","","","","","","","","","74","J","0","img/none_selected_demo.jpg","true","0","80_20_practice",""
"","bandit","34","226615","0.0-20.0-13.0","64134160","wem/bandit_either_3","A2SF0TUK6XTPCO","either","5","67","","","","","","","0","0","1","0.2","","0.5","0.5","","","","","","","0.8","0.2","","","","","","","","","","75","K","1","","true","0","80_20_practice",""
"","bandit","35","229289","0.0-20.0-14.0","64134160","wem/bandit_either_3","A2SF0TUK6XTPCO","either","5","1124","","","","","","","0","0","1","","0.2","0.5","0.5","","","0.8","0.2","","","","","","","","","","","","","","75","K","1","","true","0","80_20_practice",""
"","bandit","36","239467","0.0-20.0-15.0","64134160","wem/bandit_either_3","A2SF0TUK6XTPCO","either","5","8619","","","","","","","0","0","1","0.2","","0.5","0.5","","","","","","","0.8","0.2","","","","","","","","","","75","K","1","","true","0","80_20_practice",""
"","bandit","37","245468","0.0-20.0-16.0","64134160","wem/bandit_either_3","A2SF0TUK6XTPCO","either","5","4426","","","","","","","0","0","1","0.2","","0.5","0.5","","","","","","","0.8","0.2","","","","","","","","","","75","K","1","","true","0","80_20_practice",""
"","bandit","38","248578","0.0-20.0-17.0","64134160","wem/bandit_either_3","A2SF0TUK6XTPCO","either","5","1535","","","","","","","0","1","0","","0.8","0.5","0.5","","","0.8","0.2","","","","","","","","","","","","","","74","J","0","img/none_selected_demo.jpg","true","0","80_20_practice",""
"","bandit","39","250632","0.0-20.0-18.0","64134160","wem/bandit_either_3","A2SF0TUK6XTPCO","either","5","469","","","","","","","0","1","0","","0.8","0.5","0.5","","","0.8","0.2","","","","","","","","","","","","","","74","J","0","img/none_selected_demo.jpg","true","0","80_20_practice",""
"","bandit","40","253058","0.0-20.0-19.0","64134160","wem/bandit_either_3","A2SF0TUK6XTPCO","either","5","861","","","","","","","1","0","0","0.8","","0.5","0.5","","","","","","","0.8","0.2","","","","","","","","","","74","J","0","img/none_selected_demo.jpg","true","0","80_20_practice",""
"","text","41","261006","0.0-21.0","64134160","wem/bandit_either_3","A2SF0TUK6XTPCO","either","5","7934","","32","","","","","","","","","","","","","","","","","","","","","","","","","","","","","","","","","","","",""
"","bandit","42","264744","0.0-22.0-0.0","64134160","wem/bandit_either_3","A2SF0TUK6XTPCO","either","5","2187","","","","","","","1","0","0","1","0","","","","","0","1","","","1","0","","","","","","","","","","74","J","0","img/none_selected_demo.jpg","true","0","",""
"","text","43","269409","0.0-23.0","64134160","wem/bandit_either_3","A2SF0TUK6XTPCO","either","5","4641","","32","","","","","","","","","","","","","","","","","","","","","","","","","","","","","","","","","","","",""
"","text","44","271893","0.0-24.0","64134160","wem/bandit_either_3","A2SF0TUK6XTPCO","either","5","2475","","32","","","","","","","","","","","","","","","","","","","","","","","","","","","","","","","","","","","",""
"","text","45","274636","0.0-25.0","64134160","wem/bandit_either_3","A2SF0TUK6XTPCO","either","5","2734","","32","","","","","","","","","","","","","","","","","","","","","","","","","","","","","","","","","","","",""
"","text","46","276299","0.0-26.0","64134160","wem/bandit_either_3","A2SF0TUK6XTPCO","either","5","1655","","32","","","","","","","","","","","","","","","","","","","","","","","","","","","","","","","","","","","",""
"","text","47","279853","0.0-27.0","64134160","wem/bandit_either_3","A2SF0TUK6XTPCO","either","5","3543","","32","","","","","","","","","","","","","","","","","","","","","","","","","","","","","","","","","","","",""
"","text","48","280422","0.0-28.0","64134160","wem/bandit_either_3","A2SF0TUK6XTPCO","either","5","561","","32","","","","","","","","","","","","","","","","","","","","","","","","","","","","","","","","","","","",""
"","text","49","280768","0.0-29.0","64134160","wem/bandit_either_3","A2SF0TUK6XTPCO","either","5","335","","32","","","","","","","","","","","","","","","","","","","","","","","","","","","","","","","","","","","",""
"","text","50","281094","0.0-30.0","64134160","wem/bandit_either_3","A2SF0TUK6XTPCO","either","5","319","","32","","","","","","","","","","","","","","","","","","","","","","","","","","","","","","","","","","","",""
"","text","51","281453","0.0-31.0","64134160","wem/bandit_either_3","A2SF0TUK6XTPCO","either","5","353","","32","","","","","","","","","","","","","","","","","","","","","","","","","","","","","","","","","","","",""
"","text","52","281769","0.0-32.0","64134160","wem/bandit_either_3","A2SF0TUK6XTPCO","either","5","309","","32","","","","","","","","","","","","","","","","","","","","","","","","","","","","","","","","","","","",""
"","text","53","282097","0.0-33.0","64134160","wem/bandit_either_3","A2SF0TUK6XTPCO","either","5","321","","32","","","","","","","","","","","","","","","","","","","","","","","","","","","","","","","","","","","",""
"","bandit","54","284949","0.0-34.0-0.0","64134160","wem/bandit_either_3","A2SF0TUK6XTPCO","either","5","1324","","","","","","","1","0","0","0.8","","0.5","0.5","0.5","0.5","","","","","0.8","0.2","0.6","0.2","","","","","","","","72","H","0","img/none_selected.jpg","true","0","full_practice",""
"","bandit","55","287413","0.0-34.0-1.0","64134160","wem/bandit_either_3","A2SF0TUK6XTPCO","either","5","912","","","","","","","0","1","0","","0.8","0.5","0.5","0.5","0.5","0.8","0.2","0.6","0.2","","","","","","","","","","","","72","H","0","img/none_selected.jpg","true","0","full_practice",""
"","bandit","56","289822","0.0-34.0-2.0","64134160","wem/bandit_either_3","A2SF0TUK6XTPCO","either","5","870","","","","","","","0","0","1","0.2","","0.5","0.5","0.5","0.5","","","","","0.8","0.2","0.6","0.2","","","","","","","","74","J","1","","true","0","full_practice",""
"","bandit","57","291910","0.0-34.0-3.0","64134160","wem/bandit_either_3","A2SF0TUK6XTPCO","either","5","545","","","","","","","0","1","0","","0.6","0.5","0.5","0.5","0.5","0.8","0.2","0.6","0.2","","","","","","","","","","","","75","K","2","","true","0","full_practice",""
"","bandit","58","293786","0.0-34.0-4.0","64134160","wem/bandit_either_3","A2SF0TUK6XTPCO","either","5","334","","","","","","","0","0","1","0.2","","0.5","0.5","0.5","0.5","","","","","0.8","0.2","0.6","0.2","","","","","","","","76","L","3","","true","0","full_practice",""
"","bandit","59","297019","0.0-34.0-5.0","64134160","wem/bandit_either_3","A2SF0TUK6XTPCO","either","5","1677","","","","","","","1","0","0","0.8","","0.5","0.5","0.5","0.5","","","","","0.8","0.2","0.6","0.2","","","","","","","","72","H","0","img/none_selected.jpg","true","0","full_practice",""
"","bandit","60","299013","0.0-34.0-6.0","64134160","wem/bandit_either_3","A2SF0TUK6XTPCO","either","5","472","","","","","","","0","0","1","0.2","","0.5","0.5","0.5","0.5","","","","","0.8","0.2","0.6","0.2","","","","","","","","74","J","1","","true","0","full_practice",""
"","bandit","61","300823","0.0-34.0-7.0","64134160","wem/bandit_either_3","A2SF0TUK6XTPCO","either","5","254","","","","","","","0","0","1","","0.6","0.5","0.5","0.5","0.5","0.8","0.2","0.6","0.2","","","","","","","","","","","","75","K","2","","true","0","full_practice",""
"","bandit","62","302664","0.0-34.0-8.0","64134160","wem/bandit_either_3","A2SF0TUK6XTPCO","either","5","293","","","","","","","0","0","1","0.2","","0.5","0.5","0.5","0.5","","","","","0.8","0.2","0.6","0.2","","","","","","","","76","L","3","","true","0","full_practice",""
"","bandit","63","304944","0.0-34.0-9.0","64134160","wem/bandit_either_3","A2SF0TUK6XTPCO","either","5","727","","","","","","","0","0","1","","0.8","0.5","0.5","0.5","0.5","0.8","0.2","0.6","0.2","","","","","","","","","","","","72","H","0","img/none_selected.jpg","true","0","full_practice",""
"","bandit","64","306789","0.0-34.0-10.0","64134160","wem/bandit_either_3","A2SF0TUK6XTPCO","either","5","294","","","","","","","0","1","0","","0.2","0.5","0.5","0.5","0.5","0.8","0.2","0.6","0.2","","","","","","","","","","","","74","J","1","","true","0","full_practice",""
"","bandit","65","308569","0.0-34.0-11.0","64134160","wem/bandit_either_3","A2SF0TUK6XTPCO","either","5","244","","","","","","","0","0","1","0.6","","0.5","0.5","0.5","0.5","","","","","0.8","0.2","0.6","0.2","","","","","","","","75","K","2","","true","0","full_practice",""
"","bandit","66","310239","0.0-34.0-12.0","64134160","wem/bandit_either_3","A2SF0TUK6XTPCO","either","5","101","","","","","","","0","0","1","0.2","","0.5","0.5","0.5","0.5","","","","","0.8","0.2","0.6","0.2","","","","","","","","76","L","3","","true","0","full_practice",""
"","bandit","67","312139","0.0-34.0-13.0","64134160","wem/bandit_either_3","A2SF0TUK6XTPCO","either","5","331","","","","","","","0","1","0","","0.8","0.5","0.5","0.5","0.5","0.8","0.2","0.6","0.2","","","","","","","","","","","","72","H","0","img/none_selected.jpg","true","0","full_practice",""
"","bandit","68","314286","0.0-34.0-14.0","64134160","wem/bandit_either_3","A2SF0TUK6XTPCO","either","5","614","","","","","","","0","0","1","","0.2","0.5","0.5","0.5","0.5","0.8","0.2","0.6","0.2","","","","","","","","","","","","74","J","1","","true","0","full_practice",""
"","bandit","69","316192","0.0-34.0-15.0","64134160","wem/bandit_either_3","A2SF0TUK6XTPCO","either","5","357","","","","","","","0","1","0","","0.6","0.5","0.5","0.5","0.5","0.8","0.2","0.6","0.2","","","","","","","","","","","","75","K","2","","true","0","full_practice",""
"","bandit","70","317905","0.0-34.0-16.0","64134160","wem/bandit_either_3","A2SF0TUK6XTPCO","either","5","122","","","","","","","0","0","1","","0.2","0.5","0.5","0.5","0.5","0.8","0.2","0.6","0.2","","","","","","","","","","","","76","L","3","","true","0","full_practice",""
"","bandit","71","319869","0.0-34.0-17.0","64134160","wem/bandit_either_3","A2SF0TUK6XTPCO","either","5","408","","","","","","","0","1","0","","0.8","0.5","0.5","0.5","0.5","0.8","0.2","0.6","0.2","","","","","","","","","","","","72","H","0","img/none_selected.jpg","true","0","full_practice",""
"","bandit","72","321675","0.0-34.0-18.0","64134160","wem/bandit_either_3","A2SF0TUK6XTPCO","either","5","286","","","","","","","0","0","1","","0.2","0.5","0.5","0.5","0.5","0.8","0.2","0.6","0.2","","","","","","","","","","","","74","J","1","","true","0","full_practice",""
"","bandit","73","323613","0.0-34.0-19.0","64134160","wem/bandit_either_3","A2SF0TUK6XTPCO","either","5","417","","","","","","","1","0","0","0.6","","0.5","0.5","0.5","0.5","","","","","0.8","0.2","0.6","0.2","","","","","","","","75","K","2","","true","0","full_practice",""
"","text","74","327912","0.0-35.0","64134160","wem/bandit_either_3","A2SF0TUK6XTPCO","either","5","4281","","32","","","","","","","","","","","","","","","","","","","","","","","","","","","","","","","","","","","",""
"","text","75","338343","0.0-36.0","64134160","wem/bandit_either_3","A2SF0TUK6XTPCO","either","5","9400","","32","","","","","","","","","","","","","","","","","","","","","","","","","","","","","","","","","","","",""
"","text","76","338652","0.0-37.0","64134160","wem/bandit_either_3","A2SF0TUK6XTPCO","either","5","299","","32","","","","","","","","","","","","","","","","","","","","","","","","","","","","","","","","","","","",""
"","text","77","338905","0.0-38.0","64134160","wem/bandit_either_3","A2SF0TUK6XTPCO","either","5","246","","32","","","","","","","","","","","","","","","","","","","","","","","","","","","","","","","","","","","",""
"","text","78","339145","0.0-39.0","64134160","wem/bandit_either_3","A2SF0TUK6XTPCO","either","5","233","","32","","","","","","","","","","","","","","","","","","","","","","","","","","","","","","","","","","","",""
"","text","79","339385","0.0-40.0","64134160","wem/bandit_either_3","A2SF0TUK6XTPCO","either","5","231","","32","","","","","","","","","","","","","","","","","","","","","","","","","","","","","","","","","","","",""
"","bandit","80","342374","0.0-41.0-0.0","64134160","wem/bandit_either_3","A2SF0TUK6XTPCO","either","5","1432","","","","","","","1","0","0","0.4909711759","","0.2","0.6","0.8","0.4","","","","","0.32692793","0.4909711759","0.4253928501","0.6131215568","","","","","","","","74","J","1","","","1","main_expt",""
"","bandit","81","344364","0.0-42.0-0.0","64134160","wem/bandit_either_3","A2SF0TUK6XTPCO","either","5","407","","","","","","","0","1","0","","0.5447097682","0.2","0.6","0.8","0.4","0.3068321923","0.5514346198","0.5447097682","0.6783759564","","","","","","","","","","","","75","K","2","","","2","main_expt",""
"","bandit","82","345988","0.0-43.0-0.0","64134160","wem/bandit_either_3","A2SF0TUK6XTPCO","either","5","70","","","","","","","0","0","1","","0.6535049038","0.2","0.6","0.8","0.4","0.2871808385","0.5966913043","0.5631376832","0.6535049038","","","","","","","","","","","","76","L","3","","","3","main_expt",""
"","bandit","83","347622","0.0-44.0-0.0","64134160","wem/bandit_either_3","A2SF0TUK6XTPCO","either","5","107","","","","","","","0","1","0","","0.3062311279","0.2","0.6","0.8","0.4","0.3062311279","0.6236804691","0.5889355808","0.5433476707","","","","","","","","","","","","72","H","0","img/none_selected.jpg","","4","main_expt",""
"","bandit","84","349898","0.0-45.0-0.0","64134160","wem/bandit_either_3","A2SF0TUK6XTPCO","either","5","733","","","","","","","0","0","1","","0.5844938386","0.2","0.6","0.8","0.4","0.2453374439","0.5844938386","0.6125363118","0.4256320799","","","","","","","","","","","","74","J","1","","","5","main_expt",""
"","bandit","85","351609","0.0-46.0-0.0","64134160","wem/bandit_either_3","A2SF0TUK6XTPCO","either","5","173","","","","","","","1","0","0","0.5204159956","","0.2","0.6","0.8","0.4","","","","","0.2258644136","0.4929788692","0.5204159956","0.4097031487","","","","","","","","75","K","2","","","6","main_expt",""
"","bandit","86","353540","0.0-47.0-0.0","64134160","wem/bandit_either_3","A2SF0TUK6XTPCO","either","5","372","","","","","","","0","0","1","","0.4614862243","0.2","0.6","0.8","0.4","0.2251512132","0.3978044106","0.5949894572","0.4614862243","","","","","","","","","","","","76","L","3","","","7","main_expt",""
"","bandit","87","355568","0.0-48.0-0.0","64134160","wem/bandit_either_3","A2SF0TUK6XTPCO","either","5","482","","","","","","","0","0","1","0.1597376121","","0.2","0.6","0.8","0.4","","","","","0.1597376121","0.5080346622","0.7043393759","0.4305419438","","","","","","","","72","H","0","img/none_selected.jpg","","8","main_expt",""
"","bandit","88","357408","0.0-49.0-0.0","64134160","wem/bandit_either_3","A2SF0TUK6XTPCO","either","5","290","","","","","","","0","0","1","0.440708512","","0.2","0.6","0.8","0.4","","","","","0.1395884133","0.440708512","0.6866437556","0.6000641755","","","","","","","","74","J","1","","","9","main_expt",""
"","bandit","89","359130","0.0-50.0-0.0","64134160","wem/bandit_either_3","A2SF0TUK6XTPCO","either","5","154","","","","","","","0","0","1","0.6743415364","","0.2","0.6","0.8","0.4","","","","","0.1529628815","0.4862198985","0.6743415364","0.66675231","","","","","","","","75","K","2","","","10","main_expt",""
"","bandit","90","360960","0.0-51.0-0.0","64134160","wem/bandit_either_3","A2SF0TUK6XTPCO","either","5","284","","","","","","","1","0","0","0.538431352","","0.2","0.6","0.8","0.4","","","","","0.1918890603","0.4942886423","0.6907290289","0.538431352","","","","","","","","76","L","3","","","11","main_expt",""
"","bandit","91","363325","0.0-52.0-0.0","64134160","wem/bandit_either_3","A2SF0TUK6XTPCO","either","5","795","","","","","","","0","0","1","","0.1412308375","0.2","0.6","0.8","0.4","0.1412308375","0.4999864232","0.7254617755","0.5683478731","","","","","","","","","","","","72","H","0","img/none_selected.jpg","","12","main_expt",""
"","bandit","92","365206","0.0-53.0-0.0","64134160","wem/bandit_either_3","A2SF0TUK6XTPCO","either","5","321","","","","","","","1","0","0","0.3945724157","","0.2","0.6","0.8","0.4","","","","","0.1854965676","0.3945724157","0.7533793381","0.5870071372","","","","","","","","74","J","1","","","13","main_expt",""
"","bandit","93","367178","0.0-54.0-0.0","64134160","wem/bandit_either_3","A2SF0TUK6XTPCO","either","5","405","","","","","","","0","1","0","","0.6909187676","0.2","0.6","0.8","0.4","0.2200151947","0.458684297","0.6909187676","0.3389967741","","","","","","","","","","","","75","K","2","","","14","main_expt",""
"","bandit","94","368825","0.0-55.0-0.0","64134160","wem/bandit_either_3","A2SF0TUK6XTPCO","either","5","97","","","","","","","0","0","1","0.2927381815","","0.2","0.6","0.8","0.4","","","","","0.1497743902","0.5338449271","0.7916820586","0.2927381815","","","","","","","","76","L","3","","","15","main_expt",""
"","bandit","95","371334","0.0-56.0-0.0","64134160","wem/bandit_either_3","A2SF0TUK6XTPCO","either","5","966","","","","","","","0","0","1","","0.1767244745","0.2","0.6","0.8","0.4","0.1767244745","0.6821016448","0.7991661796","0.2268478953","","","","","","","","","","","","72","H","0","img/none_selected.jpg","","16","main_expt",""
"","bandit","96","373270","0.0-57.0-0.0","64134160","wem/bandit_either_3","A2SF0TUK6XTPCO","either","5","396","","","","","","","0","1","0","","0.6963612506","0.2","0.6","0.8","0.4","0.1953364786","0.6963612506","0.7352739439","0.2364877179","","","","","","","","","","","","74","J","1","","","17","main_expt",""
"","bandit","97","375131","0.0-58.0-0.0","64134160","wem/bandit_either_3","A2SF0TUK6XTPCO","either","5","292","","","","","","","0","1","0","","0.6911569498","0.2","0.6","0.8","0.4","0.139355503","0.7035779666","0.6911569498","0.280777314","","","","","","","","","","","","75","K","2","","","18","main_expt",""
"","bandit","98","377052","0.0-59.0-0.0","64134160","wem/bandit_either_3","A2SF0TUK6XTPCO","either","5","369","","","","","","","0","1","0","","0.3280428268","0.2","0.6","0.8","0.4","0.129677489","0.677086514","0.6372159304","0.3280428268","","","","","","","","","","","","76","L","3","","","19","main_expt",""
"","bandit","99","379038","0.0-60.0-0.0","64134160","wem/bandit_either_3","A2SF0TUK6XTPCO","either","5","439","","","","","","","0","0","1","","0.1584506979","0.2","0.6","0.8","0.4","0.1584506979","0.5211019236","0.5917564331","0.213865824","","","","","","","","","","","","72","H","0","img/none_selected.jpg","","20","main_expt",""
"","bandit","100","380970","0.0-61.0-0.0","64134160","wem/bandit_either_3","A2SF0TUK6XTPCO","either","5","372","","","","","","","0","0","1","0.6040081297","","0.2","0.6","0.8","0.4","","","","","0.1934985877","0.6040081297","0.6351733259","0.2755747612","","","","","","","","74","J","1","","","21","main_expt",""
"","bandit","101","383005","0.0-62.0-0.0","64134160","wem/bandit_either_3","A2SF0TUK6XTPCO","either","5","466","","","","","","","1","0","0","0.57448168","","0.2","0.6","0.8","0.4","","","","","0.1184813826","0.5276460007","0.57448168","0.3096891892","","","","","","","","75","K","2","","","22","main_expt",""
"","bandit","102","385172","0.0-63.0-0.0","64134160","wem/bandit_either_3","A2SF0TUK6XTPCO","either","5","607","","","","","","","0","0","1","0.1855444332","","0.2","0.6","0.8","0.4","","","","","0.1387482349","0.4373756081","0.532235281","0.1855444332","","","","","","","","76","L","3","","","23","main_expt",""
"","bandit","103","388177","0.0-64.0-0.0","64134160","wem/bandit_either_3","A2SF0TUK6XTPCO","either","5","1447","","","","","","","0","0","1","","0.1275075135","0.2","0.6","0.8","0.4","0.1275075135","0.4051577966","0.4695599312","0.2026045625","","","","","","","","","","","","72","H","0","img/none_selected.jpg","","24","main_expt",""
"","bandit","104","391868","0.0-65.0-0.0","64134160","wem/bandit_either_3","A2SF0TUK6XTPCO","either","5","2142","","","","","","","1","0","0","0.3583026632","","0.2","0.6","0.8","0.4","","","","","0.1324238285","0.3583026632","0.3710761786","0.2610081957","","","","","","","","74","J","1","","","25","main_expt",""
"","bandit","105","394260","0.0-66.0-0.0","64134160","wem/bandit_either_3","A2SF0TUK6XTPCO","either","5","833","","","","","","","0","0","1","0.3104834237","","0.2","0.6","0.8","0.4","","","","","0.2222282692","0.4070676783","0.3104834237","0.2068764453","","","","","","","","75","K","2","","","26","main_expt",""
"","bandit","106","396476","0.0-67.0-0.0","64134160","wem/bandit_either_3","A2SF0TUK6XTPCO","either","5","654","","","","","","","0","0","1","","0.1387354037","0.2","0.6","0.8","0.4","0.2367528544","0.3962805628","0.4250638914","0.1387354037","","","","","","","","","","","","76","L","3","","","27","main_expt",""
"","bandit","107","401913","0.0-68.0-0.0","64134160","wem/bandit_either_3","A2SF0TUK6XTPCO","either","5","3886","","","","","","","0","0","1","","0.1581712713","0.2","0.6","0.8","0.4","0.1581712713","0.3381264529","0.3738912408","0.2065421522","","","","","","","","","","","","72","H","0","img/none_selected.jpg","","28","main_expt",""
"","bandit","108","404360","0.0-69.0-0.0","64134160","wem/bandit_either_3","A2SF0TUK6XTPCO","either","5","889","","","","","","","0","0","1","0.3405446746","","0.2","0.6","0.8","0.4","","","","","0.2361440946","0.3405446746","0.411092256","0.2452437498","","","","","","","","74","J","1","","","29","main_expt",""
"","bandit","109","405968","0.0-70.0-0.0","64134160","wem/bandit_either_3","A2SF0TUK6XTPCO","either","5","63","","","","","","","0","0","1","0.306262239","","0.2","0.6","0.8","0.4","","","","","0.3051502752","0.3536414415","0.306262239","0.3076129501","","","","","","","","75","K","2","","","30","main_expt",""
"","bandit","110","407742","0.0-71.0-0.0","64134160","wem/bandit_either_3","A2SF0TUK6XTPCO","either","5","230","","","","","","","0","1","0","","0.275744379","0.2","0.6","0.8","0.4","0.3588845582","0.3201297868","0.2846857217","0.275744379","","","","","","","","","","","","76","L","3","","","31","main_expt",""
"","bandit","111","413289","0.0-72.0-0.0","64134160","wem/bandit_either_3","A2SF0TUK6XTPCO","either","5","3977","","","","","","","1","0","0","0.3351264969","","0.2","0.6","0.8","0.4","","","","","0.3351264969","0.414050106","0.260797537","0.1582224348","","","","","","","","72","H","0","img/none_selected.jpg","","32","main_expt",""
"","bandit","112","417105","0.0-73.0-0.0","64134160","wem/bandit_either_3","A2SF0TUK6XTPCO","either","5","2285","","","","","","","1","0","0","0.4846208784","","0.2","0.6","0.8","0.4","","","","","0.3369799553","0.4846208784","0.3108282978","0.07234251762","","","","","","","","74","J","1","","","33","main_expt",""
"","bandit","113","422151","0.0-74.0-0.0","64134160","wem/bandit_either_3","A2SF0TUK6XTPCO","either","5","3516","","","","","","","1","0","0","0.3996464291","","0.2","0.6","0.8","0.4","","","","","0.3040676539","0.4250330595","0.3996464291","0.07244310326","","","","","","","","75","K","2","","","34","main_expt",""
"","bandit","114","426855","0.0-75.0-0.0","64134160","wem/bandit_either_3","A2SF0TUK6XTPCO","either","5","3174","","","","","","","0","0","1","0.07140094546","","0.2","0.6","0.8","0.4","","","","","0.2974236485","0.499329675","0.4368131495","0.07140094546","","","","","","","","76","L","3","","","35","main_expt",""
"","bandit","115","429069","0.0-76.0-0.0","64134160","wem/bandit_either_3","A2SF0TUK6XTPCO","either","5","659","","","","","","","0","0","1","","0.3892953339","0.2","0.6","0.8","0.4","0.310238309","0.3892953339","0.3396719642","0.08624361683","","","","","","","","","","","","74","J","1","","","36","main_expt",""
"","bandit","116","434574","0.0-77.0-0.0","64134160","wem/bandit_either_3","A2SF0TUK6XTPCO","either","5","3949","","","","","","","1","0","0","0.4409026667","","0.2","0.6","0.8","0.4","","","","","0.2818719109","0.3680424748","0.4409026667","0.07543251018","","","","","","","","75","K","2","","","37","main_expt",""
"","bandit","117","438139","0.0-78.0-0.0","64134160","wem/bandit_either_3","A2SF0TUK6XTPCO","either","5","2002","","","","","","","0","0","1","0.489392614","","0.2","0.6","0.8","0.4","","","","","0.2925765749","0.4909804269","0.489392614","0.1324785543","","","","","","","","75","K","2","","","38","main_expt",""
"","bandit","118","439938","0.0-79.0-0.0","64134160","wem/bandit_either_3","A2SF0TUK6XTPCO","either","5","250","","","","","","","0","0","1","","0.4403114744","0.2","0.6","0.8","0.4","0.3033582507","0.5165168671","0.4403114744","0.1824024676","","","","","","","","","","","","75","K","2","","","39","main_expt",""
"","bandit","119","442741","0.0-80.0-0.0","64134160","wem/bandit_either_3","A2SF0TUK6XTPCO","either","5","1230","","","","","","","0","0","1","0.09861269436","","0.2","0.6","0.8","0.4","","","","","0.2371445562","0.6036007873","0.343221944","0.09861269436","","","","","","","","76","L","3","","","40","main_expt",""
"","bandit","120","445673","0.0-81.0-0.0","64134160","wem/bandit_either_3","A2SF0TUK6XTPCO","either","5","1361","","","","","","","0","0","1","0.6078828369","","0.2","0.6","0.8","0.4","","","","","0.2072661203","0.6078828369","0.450343793","0.1028082326","","","","","","","","74","J","1","","","41","main_expt",""
"","bandit","121","449189","0.0-82.0-0.0","64134160","wem/bandit_either_3","A2SF0TUK6XTPCO","either","5","1936","","","","","","","1","0","0","0.5757077757","","0.2","0.6","0.8","0.4","","","","","0.1850700716","0.5757077757","0.4422822993","0.1326350751","","","","","","","","74","J","1","","","42","main_expt",""
"","bandit","122","453279","0.0-83.0-0.0","64134160","wem/bandit_either_3","A2SF0TUK6XTPCO","either","5","2551","","","","","","","0","1","0","","0.504524575","0.2","0.6","0.8","0.4","0.1700345657","0.504524575","0.4755437476","0.1591685393","","","","","","","","","","","","74","J","1","","","43","main_expt",""
"","bandit","123","455551","0.0-84.0-0.0","64134160","wem/bandit_either_3","A2SF0TUK6XTPCO","either","5","717","","","","","","","0","0","1","","0.3354744533","0.2","0.6","0.8","0.4","0.150922449","0.3354744533","0.6211160782","0.1558361793","","","","","","","","","","","","74","J","1","","","44","main_expt",""
"","bandit","124","458340","0.0-85.0-0.0","64134160","wem/bandit_either_3","A2SF0TUK6XTPCO","either","5","1227","","","","","","","1","0","0","0.5950963145","","0.2","0.6","0.8","0.4","","","","","0.08792573626","0.2259933845","0.5950963145","0.08224127908","","","","","","","","75","K","2","","","45","main_expt",""
"","bandit","125","461112","0.0-86.0-0.0","64134160","wem/bandit_either_3","A2SF0TUK6XTPCO","either","5","1199","","","","","","","0","0","1","","0.1991815266","0.2","0.6","0.8","0.4","0.05210962111","0.1991815266","0.600883672","0.05681632526","","","","","","","","","","","","74","J","1","","","46","main_expt",""
"","bandit","126","463877","0.0-87.0-0.0","64134160","wem/bandit_either_3","A2SF0TUK6XTPCO","either","5","1209","","","","","","","1","0","0","0.6018426621","","0.2","0.6","0.8","0.4","","","","","0.1658512007","0.1821259253","0.6018426621","0.02046531905","","","","","","","","75","K","2","","","47","main_expt",""
"","bandit","127","475229","0.0-88.0-0.0","64134160","wem/bandit_either_3","A2SF0TUK6XTPCO","either","5","9784","","","","","","","0","0","1","","0.1850219792","0.2","0.6","0.8","0.4","0.2171730843","0.1850219792","0.6719149388","0.02793369594","","","","","","","","","","","","74","J","1","","","48","main_expt",""
"","bandit","128","478399","0.0-89.0-0.0","64134160","wem/bandit_either_3","A2SF0TUK6XTPCO","either","5","1615","","","","","","","1","0","0","0.5824093935","","0.2","0.6","0.8","0.4","","","","","0.2545874694","0.2843491098","0.5824093935","0.01520235592","","","","","","","","75","K","2","","","49","main_expt",""
"","bandit","129","480486","0.0-90.0-0.0","64134160","wem/bandit_either_3","A2SF0TUK6XTPCO","either","5","533","","","","","","","0","0","1","0.008868670712","","0.2","0.6","0.8","0.4","","","","","0.1971443839","0.2385085868","0.5697547833","0.008868670712","","","","","","","","76","L","3","","","50","main_expt",""
"","bandit","130","483020","0.0-91.0-0.0","64134160","wem/bandit_either_3","A2SF0TUK6XTPCO","either","5","995","","","","","","","0","0","1","","0.2762119933","0.2","0.6","0.8","0.4","0.1743954459","0.2762119933","0.5875551098","0.004668439046","","","","","","","","","","","","74","J","1","","","51","main_expt",""
"","bandit","131","487285","0.0-92.0-0.0","64134160","wem/bandit_either_3","A2SF0TUK6XTPCO","either","5","2706","","","","","","","0","0","1","","0.2350807626","0.2","0.6","0.8","0.4","0.1007451992","0.2350807626","0.691822337","0.003090075005","","","","","","","","","","","","74","J","1","","","52","main_expt",""
"","bandit","132","489962","0.0-93.0-0.0","64134160","wem/bandit_either_3","A2SF0TUK6XTPCO","either","5","1126","","","","","","","0","0","1","0.7363191169","","0.2","0.6","0.8","0.4","","","","","0.1648918076","0.2301492847","0.7363191169","0.003474758773","","","","","","","","75","K","2","","","53","main_expt",""
"","bandit","133","491990","0.0-94.0-0.0","64134160","wem/bandit_either_3","A2SF0TUK6XTPCO","either","5","477","","","","","","","0","0","1","0.003279238457","","0.2","0.6","0.8","0.4","","","","","0.1761014763","0.2779325162","0.7639548597","0.003279238457","","","","","","","","76","L","3","","","54","main_expt",""
"","bandit","134","493838","0.0-95.0-0.0","64134160","wem/bandit_either_3","A2SF0TUK6XTPCO","either","5","292","","","","","","","1","0","0","0.2882189161","","0.2","0.6","0.8","0.4","","","","","0.1460392243","0.2882189161","0.7264154962","0.001847339967","","","","","","","","74","J","1","","","55","main_expt",""
"","bandit","135","495843","0.0-96.0-0.0","64134160","wem/bandit_either_3","A2SF0TUK6XTPCO","either","5","455","","","","","","","0","1","0","","0.1882527018","0.2","0.6","0.8","0.4","0.1882527018","0.2646822794","0.7511403137","0.001186331615","","","","","","","","","","","","72","H","0","img/none_selected.jpg","","56","main_expt",""
"","bandit","136","497918","0.0-97.0-0.0","64134160","wem/bandit_either_3","A2SF0TUK6XTPCO","either","5","541","","","","","","","0","0","1","0.3080117871","","0.2","0.6","0.8","0.4","","","","","0.1836596221","0.3080117871","0.6292194553","0.001917609755","","","","","","","","74","J","1","","","57","main_expt",""
"","bandit","137","499708","0.0-98.0-0.0","64134160","wem/bandit_either_3","A2SF0TUK6XTPCO","either","5","239","","","","","","","1","0","0","0.5622591622","","0.2","0.6","0.8","0.4","","","","","0.2259562874","0.2609020091","0.5622591622","0.004115025419","","","","","","","","75","K","2","","","58","main_expt",""
"","bandit","138","501557","0.0-99.0-0.0","64134160","wem/bandit_either_3","A2SF0TUK6XTPCO","either","5","292","","","","","","","1","0","0","0.6394190939","","0.2","0.6","0.8","0.4","","","","","0.1673227733","0.3014652953","0.6394190939","0.007083433589","","","","","","","","75","K","2","","","59","main_expt",""
"","bandit","139","503421","0.0-100.0-0.0","64134160","wem/bandit_either_3","A2SF0TUK6XTPCO","either","5","299","","","","","","","0","0","1","","0.0100473459","0.2","0.6","0.8","0.4","0.1404143731","0.2872544729","0.502148976","0.0100473459","","","","","","","","","","","","76","L","3","","","60","main_expt",""
"","bandit","140","505937","0.0-101.0-0.0","64134160","wem/bandit_either_3","A2SF0TUK6XTPCO","either","5","960","","","","","","","0","0","1","","0.1087230511","0.2","0.6","0.8","0.4","0.1087230511","0.2347068593","0.5541662771","0.02288810402","","","","","","","","","","","","72","H","0","img/none_selected.jpg","","61","main_expt",""
"","bandit","141","508463","0.0-102.0-0.0","64134160","wem/bandit_either_3","A2SF0TUK6XTPCO","either","5","972","","","","","","","0","0","1","","0.1786743828","0.2","0.6","0.8","0.4","0.1173770395","0.1786743828","0.6016144889","0.04890713094","","","","","","","","","","","","74","J","1","","","62","main_expt",""
"","bandit","142","510317","0.0-103.0-0.0","64134160","wem/bandit_either_3","A2SF0TUK6XTPCO","either","5","304","","","","","","","1","0","0","0.6306423252","","0.2","0.6","0.8","0.4","","","","","0.1173961002","0.1627017484","0.6306423252","0.06015841579","","","","","","","","75","K","2","","","63","main_expt",""
"","bandit","143","512342","0.0-104.0-0.0","64134160","wem/bandit_either_3","A2SF0TUK6XTPCO","either","5","470","","","","","","","0","0","1","","0.0697324588","0.2","0.6","0.8","0.4","0.1093057248","0.2220220934","0.5963496952","0.0697324588","","","","","","","","","","","","76","L","3","","","64","main_expt",""
"","bandit","144","515794","0.0-105.0-0.0","64134160","wem/bandit_either_3","A2SF0TUK6XTPCO","either","5","1868","","","","","","","0","1","0","","0.1437581537","0.2","0.6","0.8","0.4","0.1437581537","0.1387290973","0.5835424673","0.03955641554","","","","","","","","","","","","72","H","0","img/none_selected.jpg","","65","main_expt",""
"","bandit","145","517592","0.0-106.0-0.0","64134160","wem/bandit_either_3","A2SF0TUK6XTPCO","either","5","254","","","","","","","0","0","1","","0.1481952943","0.2","0.6","0.8","0.4","0.1321246006","0.1481952943","0.5789137396","0.04104317144","","","","","","","","","","","","74","J","1","","","66","main_expt",""
"","bandit","146","520714","0.0-107.0-0.0","64134160","wem/bandit_either_3","A2SF0TUK6XTPCO","either","5","1560","","","","","","","1","0","0","0.6503196648","","0.2","0.6","0.8","0.4","","","","","0.1441415222","0.1354395346","0.6503196648","0.07749417123","","","","","","","","75","K","2","","","67","main_expt",""
"","bandit","147","522905","0.0-108.0-0.0","64134160","wem/bandit_either_3","A2SF0TUK6XTPCO","either","5","625","","","","","","","0","0","1","","0.1606162296","0.2","0.6","0.8","0.4","0.1794787892","0.09431815687","0.7295955131","0.1606162296","","","","","","","","","","","","76","L","3","","","68","main_expt",""
"","bandit","148","526059","0.0-109.0-0.0","64134160","wem/bandit_either_3","A2SF0TUK6XTPCO","either","5","1602","","","","","","","0","0","1","","0.2467892919","0.2","0.6","0.8","0.4","0.2467892919","0.09491494314","0.7924649224","0.1458723802","","","","","","","","","","","","72","H","0","img/none_selected.jpg","","69","main_expt",""
"","bandit","149","527881","0.0-110.0-0.0","64134160","wem/bandit_either_3","A2SF0TUK6XTPCO","either","5","281","","","","","","","0","0","1","","0.144379617","0.2","0.6","0.8","0.4","0.2683381141","0.144379617","0.7104550926","0.09936082334","","","","","","","","","","","","74","J","1","","","70","main_expt",""
"","bandit","150","530068","0.0-111.0-0.0","64134160","wem/bandit_either_3","A2SF0TUK6XTPCO","either","5","631","","","","","","","0","1","0","","0.6350436987","0.2","0.6","0.8","0.4","0.3513633517","0.1522740794","0.6350436987","0.08487306657","","","","","","","","","","","","75","K","2","","","71","main_expt",""
"","bandit","151","532011","0.0-112.0-0.0","64134160","wem/bandit_either_3","A2SF0TUK6XTPCO","either","5","399","","","","","","","0","1","0","","0.08819471669","0.2","0.6","0.8","0.4","0.2914052368","0.1668466162","0.5987872161","0.08819471669","","","","","","","","","","","","76","L","3","","","72","main_expt",""
"","bandit","152","534938","0.0-113.0-0.0","64134160","wem/bandit_either_3","A2SF0TUK6XTPCO","either","5","1360","","","","","","","0","0","1","","0.2877488323","0.2","0.6","0.8","0.4","0.2877488323","0.1896474075","0.5985066563","0.1283432424","","","","","","","","","","","","72","H","0","img/none_selected.jpg","","73","main_expt",""
"","bandit","153","537106","0.0-114.0-0.0","64134160","wem/bandit_either_3","A2SF0TUK6XTPCO","either","5","585","","","","","","","1","0","0","0.2374421278","","0.2","0.6","0.8","0.4","","","","","0.2562899571","0.2374421278","0.6384302553","0.09379917772","","","","","","","","74","J","1","","","74","main_expt",""
"","bandit","154","539770","0.0-115.0-0.0","64134160","wem/bandit_either_3","A2SF0TUK6XTPCO","either","5","1059","","","","","","","0","0","1","0.5658832615","","0.2","0.6","0.8","0.4","","","","","0.2733605005","0.2083661751","0.5658832615","0.09049970266","","","","","","","","75","K","2","","","75","main_expt",""
"","bandit","155","541808","0.0-116.0-0.0","64134160","wem/bandit_either_3","A2SF0TUK6XTPCO","either","5","471","","","","","","","0","0","1","","0.08721668036","0.2","0.6","0.8","0.4","0.3937912108","0.2438220339","0.6242699585","0.08721668036","","","","","","","","","","","","76","L","3","","","76","main_expt",""
"","bandit","156","545268","0.0-117.0-0.0","64134160","wem/bandit_either_3","A2SF0TUK6XTPCO","either","5","1931","","","","","","","0","0","1","","0.2317864895","0.2","0.6","0.8","0.4","0.2317864895","0.2688374605","0.5744400186","0.06435523183","","","","","","","","","","","","72","H","0","img/none_selected.jpg","","77","main_expt",""
"","bandit","157","547216","0.0-118.0-0.0","64134160","wem/bandit_either_3","A2SF0TUK6XTPCO","either","5","404","","","","","","","0","1","0","","0.354885782","0.2","0.6","0.8","0.4","0.1809738678","0.354885782","0.5888420407","0.0482567949","","","","","","","","","","","","74","J","1","","","78","main_expt",""
"","bandit","158","549692","0.0-119.0-0.0","64134160","wem/bandit_either_3","A2SF0TUK6XTPCO","either","5","914","","","","","","","1","0","0","0.6367332082","","0.2","0.6","0.8","0.4","","","","","0.1139783564","0.3618930149","0.6367332082","0.0437210955","","","","","","","","75","K","2","","","79","main_expt",""
"","bandit","159","551809","0.0-120.0-0.0","64134160","wem/bandit_either_3","A2SF0TUK6XTPCO","either","5","564","","","","","","","0","0","1","","0.02877808334","0.2","0.6","0.8","0.4","0.08785846653","0.2656346555","0.6870764151","0.02877808334","","","","","","","","","","","","76","L","3","","","80","main_expt",""
"","bandit","160","554952","0.0-121.0-0.0","64134160","wem/bandit_either_3","A2SF0TUK6XTPCO","either","5","1612","","","","","","","0","1","0","","0.09113866108","0.2","0.6","0.8","0.4","0.09113866108","0.4245431589","0.594282643","0.01921293631","","","","","","","","","","","","72","H","0","img/none_selected.jpg","","81","main_expt",""
"","bandit","161","557205","0.0-122.0-0.0","64134160","wem/bandit_either_3","A2SF0TUK6XTPCO","either","5","702","","","","","","","0","0","1","0.4469352605","","0.2","0.6","0.8","0.4","","","","","0.1055231707","0.4469352605","0.6134463007","0.04933803159","","","","","","","","74","J","1","","","82","main_expt",""
"","bandit","162","560247","0.0-123.0-0.0","64134160","wem/bandit_either_3","A2SF0TUK6XTPCO","either","5","1476","","","","","","","0","0","1","","0.03134335394","0.2","0.6","0.8","0.4","0.09865920741","0.4492602846","0.573719985","0.03134335394","","","","","","","","","","","","76","L","3","","","83","main_expt",""
"","bandit","163","562790","0.0-124.0-0.0","64134160","wem/bandit_either_3","A2SF0TUK6XTPCO","either","5","982","","","","","","","0","0","1","","0.06745845416","0.2","0.6","0.8","0.4","0.06745845416","0.4800113203","0.5666188995","0.08181594064","","","","","","","","","","","","72","H","0","img/none_selected.jpg","","84","main_expt",""
"","bandit","164","565323","0.0-125.0-0.0","64134160","wem/bandit_either_3","A2SF0TUK6XTPCO","either","5","957","","","","","","","0","0","1","","0.53417275","0.2","0.6","0.8","0.4","0.05723787215","0.53417275","0.5161506384","0.09326949564","","","","","","","","","","","","74","J","1","","","85","main_expt",""
"","bandit","165","567130","0.0-126.0-0.0","64134160","wem/bandit_either_3","A2SF0TUK6XTPCO","either","5","236","","","","","","","1","0","0","0.4408304524","","0.2","0.6","0.8","0.4","","","","","0.04283717318","0.4431594274","0.4408304524","0.1365856799","","","","","","","","75","K","2","","","86","main_expt",""
"","bandit","166","569353","0.0-127.0-0.0","64134160","wem/bandit_either_3","A2SF0TUK6XTPCO","either","5","641","","","","","","","0","0","1","0.1845868617","","0.2","0.6","0.8","0.4","","","","","0.04801612347","0.4135642243","0.4926691315","0.1845868617","","","","","","","","76","L","3","","","87","main_expt",""
"","bandit","167","572684","0.0-128.0-0.0","64134160","wem/bandit_either_3","A2SF0TUK6XTPCO","either","5","1770","","","","","","","0","0","1","","0.1154775412","0.2","0.6","0.8","0.4","0.1154775412","0.4785462387","0.6047228172","0.2304222619","","","","","","","","","","","","72","H","0","img/none_selected.jpg","","88","main_expt",""
"","bandit","168","574564","0.0-129.0-0.0","64134160","wem/bandit_either_3","A2SF0TUK6XTPCO","either","5","327","","","","","","","0","1","0","","0.6395163219","0.2","0.6","0.8","0.4","0.1308375778","0.6395163219","0.5311406509","0.1408060154","","","","","","","","","","","","74","J","1","","","89","main_expt",""
"","bandit","169","576490","0.0-130.0-0.0","64134160","wem/bandit_either_3","A2SF0TUK6XTPCO","either","5","388","","","","","","","0","1","0","","0.6262376813","0.2","0.6","0.8","0.4","0.07282967421","0.6143207643","0.6262376813","0.1870966622","","","","","","","","","","","","75","K","2","","","90","main_expt",""
"","bandit","170","578328","0.0-131.0-0.0","64134160","wem/bandit_either_3","A2SF0TUK6XTPCO","either","5","272","","","","","","","0","0","1","","0.192698437","0.2","0.6","0.8","0.4","0.07599207753","0.446485487","0.690423555","0.192698437","","","","","","","","","","","","76","L","3","","","91","main_expt",""
"","bandit","171","580259","0.0-132.0-0.0","64134160","wem/bandit_either_3","A2SF0TUK6XTPCO","either","5","368","","","","","","","0","1","0","","0.5169677416","0.2","0.6","0.8","0.4","0.04323911508","0.5169677416","0.6517149298","0.1683480261","","","","","","","","","","","","74","J","1","","","92","main_expt",""
"","bandit","172","582134","0.0-133.0-0.0","64134160","wem/bandit_either_3","A2SF0TUK6XTPCO","either","5","325","","","","","","","0","0","1","","0.04253576945","0.2","0.6","0.8","0.4","0.04253576945","0.4242737166","0.5656193004","0.1330499919","","","","","","","","","","","","72","H","0","img/none_selected.jpg","","93","main_expt",""
"","bandit","173","583942","0.0-134.0-0.0","64134160","wem/bandit_either_3","A2SF0TUK6XTPCO","either","5","258","","","","","","","0","0","1","0.3479993201","","0.2","0.6","0.8","0.4","","","","","0.04534385772","0.3479993201","0.4344563295","0.1880917327","","","","","","","","74","J","1","","","94","main_expt",""
"","bandit","174","585860","0.0-135.0-0.0","64134160","wem/bandit_either_3","A2SF0TUK6XTPCO","either","5","365","","","","","","","1","0","0","0.5651083109","","0.2","0.6","0.8","0.4","","","","","0.03318992591","0.3701135783","0.5651083109","0.1867575465","","","","","","","","75","K","2","","","95","main_expt",""
"","bandit","175","587719","0.0-136.0-0.0","64134160","wem/bandit_either_3","A2SF0TUK6XTPCO","either","5","296","","","","","","","0","0","1","","0.2231999883","0.2","0.6","0.8","0.4","0.03408771876","0.3430407586","0.5348041914","0.2231999883","","","","","","","","","","","","76","L","3","","","96","main_expt",""
"","bandit","176","589323","0.0-137.0-0.0","64134160","wem/bandit_either_3","A2SF0TUK6XTPCO","either","5","64","","","","","","","0","0","1","","0.05013144164","0.2","0.6","0.8","0.4","0.05013144164","0.2876443713","0.5627844697","0.2149045243","","","","","","","","","","","","72","H","0","img/none_selected.jpg","","97","main_expt",""
"","bandit","177","591008","0.0-138.0-0.0","64134160","wem/bandit_either_3","A2SF0TUK6XTPCO","either","5","128","","","","","","","0","0","1","0.3310412313","","0.2","0.6","0.8","0.4","","","","","0.03739082544","0.3310412313","0.6177525637","0.1963416079","","","","","","","","74","J","1","","","98","main_expt",""
"","bandit","178","592570","0.0-139.0-0.0","64134160","wem/bandit_either_3","A2SF0TUK6XTPCO","either","5","18","","","","","","","0","1","0","","0.7429557604","0.2","0.6","0.8","0.4","0.1018336486","0.3893078888","0.7429557604","0.1659387142","","","","","","","","","","","","75","K","2","","","99","main_expt",""
"","bandit","179","594379","0.0-140.0-0.0","64134160","wem/bandit_either_3","A2SF0TUK6XTPCO","either","5","250","","","","","","","0","0","1","","0.145948344","0.2","0.6","0.8","0.4","0.1398961818","0.4049224607","0.6717563967","0.145948344","","","","","","","","","","","","76","L","3","","","100","main_expt",""
"","bandit","180","596244","0.0-141.0-0.0","64134160","wem/bandit_either_3","A2SF0TUK6XTPCO","either","5","302","","","","","","","0","0","1","","0.3259939159","0.2","0.6","0.8","0.4","0.1830356504","0.3259939159","0.6929666651","0.1366695263","","","","","","","","","","","","74","J","1","","","101","main_expt",""
"","bandit","181","597861","0.0-142.0-0.0","64134160","wem/bandit_either_3","A2SF0TUK6XTPCO","either","5","61","","","","","","","0","0","1","","0.1396005595","0.2","0.6","0.8","0.4","0.1396005595","0.3598161211","0.6827494989","0.1543059156","","","","","","","","","","","","72","H","0","img/none_selected.jpg","","102","main_expt",""
"","bandit","182","599875","0.0-143.0-0.0","64134160","wem/bandit_either_3","A2SF0TUK6XTPCO","either","5","446","","","","","","","0","0","1","0.7315485361","","0.2","0.6","0.8","0.4","","","","","0.0853830874","0.3385951472","0.7315485361","0.1484193465","","","","","","","","75","K","2","","","103","main_expt",""
"","bandit","183","601449","0.0-144.0-0.0","64134160","wem/bandit_either_3","A2SF0TUK6XTPCO","either","5","2","","","","","","","0","0","1","0.1516288854","","0.2","0.6","0.8","0.4","","","","","0.09317924201","0.4881545817","0.6852971926","0.1516288854","","","","","","","","76","L","3","","","104","main_expt",""
"","bandit","184","603268","0.0-145.0-0.0","64134160","wem/bandit_either_3","A2SF0TUK6XTPCO","either","5","254","","","","","","","0","0","1","","0.4790883063","0.2","0.6","0.8","0.4","0.08203708102","0.4790883063","0.693594393","0.1283123627","","","","","","","","","","","","74","J","1","","","105","main_expt",""
"","bandit","185","604998","0.0-146.0-0.0","64134160","wem/bandit_either_3","A2SF0TUK6XTPCO","either","5","165","","","","","","","0","0","1","","0.07160056992","0.2","0.6","0.8","0.4","0.07160056992","0.4354998123","0.6101065231","0.2016068708","","","","","","","","","","","","72","H","0","img/none_selected.jpg","","106","main_expt",""
"","bandit","186","606662","0.0-147.0-0.0","64134160","wem/bandit_either_3","A2SF0TUK6XTPCO","either","5","98","","","","","","","0","1","0","","0.5549317608","0.2","0.6","0.8","0.4","0.09799112372","0.4789065637","0.5549317608","0.2344181992","","","","","","","","","","","","75","K","2","","","107","main_expt",""
"","bandit","187","608604","0.0-148.0-0.0","64134160","wem/bandit_either_3","A2SF0TUK6XTPCO","either","5","389","","","","","","","0","0","1","","0.2234564856","0.2","0.6","0.8","0.4","0.1101799882","0.2921896665","0.5753690117","0.2234564856","","","","","","","","","","","","76","L","3","","","108","main_expt",""
"","bandit","188","610538","0.0-149.0-0.0","64134160","wem/bandit_either_3","A2SF0TUK6XTPCO","either","5","385","","","","","","","0","0","1","","0.07189968831","0.2","0.6","0.8","0.4","0.07189968831","0.3545905428","0.5748544728","0.2494485671","","","","","","","","","","","","72","H","0","img/none_selected.jpg","","109","main_expt",""
"","bandit","189","612718","0.0-150.0-0.0","64134160","wem/bandit_either_3","A2SF0TUK6XTPCO","either","5","606","","","","","","","0","0","1","0.3110769573","","0.2","0.6","0.8","0.4","","","","","0.06101418375","0.3110769573","0.6473038793","0.2804015825","","","","","","","","74","J","1","","","110","main_expt",""
"","bandit","190","616956","0.0-151.0-0.0","64134160","wem/bandit_either_3","A2SF0TUK6XTPCO","either","5","2705","","","","","","","0","0","1","0.254644275","","0.2","0.6","0.8","0.4","","","","","0.1032726654","0.3673577619","0.6296147118","0.254644275","","","","","","","","76","L","3","","","111","main_expt",""
"","bandit","191","624411","0.0-152.0-0.0","64134160","wem/bandit_either_3","A2SF0TUK6XTPCO","either","5","5903","","","","","","","0","1","0","","0.6174722021","0.2","0.6","0.8","0.4","0.1061240248","0.3439961468","0.6174722021","0.2686709136","","","","","","","","","","","","75","K","2","","","112","main_expt",""
"","bandit","192","626370","0.0-153.0-0.0","64134160","wem/bandit_either_3","A2SF0TUK6XTPCO","either","5","387","","","","","","","1","0","0","0.7467975424","","0.2","0.6","0.8","0.4","","","","","0.1150632514","0.3389202036","0.7467975424","0.3211503982","","","","","","","","75","K","2","","","113","main_expt",""
"","bandit","193","628347","0.0-154.0-0.0","64134160","wem/bandit_either_3","A2SF0TUK6XTPCO","either","5","412","","","","","","","0","0","1","","0.3122185675","0.2","0.6","0.8","0.4","0.1491479201","0.3122185675","0.7797220863","0.3067152309","","","","","","","","","","","","74","J","1","","","114","main_expt",""
"","bandit","194","630146","0.0-155.0-0.0","64134160","wem/bandit_either_3","A2SF0TUK6XTPCO","either","5","244","","","","","","","0","0","1","","0.08304421353","0.2","0.6","0.8","0.4","0.08304421353","0.2431064996","0.8152411921","0.3274584286","","","","","","","","","","","","72","H","0","img/none_selected.jpg","","115","main_expt",""
"","bandit","195","631729","0.0-156.0-0.0","64134160","wem/bandit_either_3","A2SF0TUK6XTPCO","either","5","3","","","","","","","0","0","1","0.2225404561","","0.2","0.6","0.8","0.4","","","","","0.1391191417","0.2225404561","0.7362727539","0.2491959293","","","","","","","","74","J","1","","","116","main_expt",""
"","bandit","196","633368","0.0-157.0-0.0","64134160","wem/bandit_either_3","A2SF0TUK6XTPCO","either","5","79","","","","","","","1","0","0","0.7051771602","","0.2","0.6","0.8","0.4","","","","","0.1689833708","0.2891792411","0.7051771602","0.1425156065","","","","","","","","75","K","2","","","117","main_expt",""
"","bandit","197","634951","0.0-158.0-0.0","64134160","wem/bandit_either_3","A2SF0TUK6XTPCO","either","5","46","","","","","","","0","0","1","","0.1550025764","0.2","0.6","0.8","0.4","0.1341186766","0.3147139712","0.7099604309","0.1550025764","","","","","","","","","","","","76","L","3","","","118","main_expt",""
"","bandit","198","636828","0.0-159.0-0.0","64134160","wem/bandit_either_3","A2SF0TUK6XTPCO","either","5","323","","","","","","","0","0","1","","0.1211065448","0.2","0.6","0.8","0.4","0.1211065448","0.4890071061","0.6633752461","0.1733664784","","","","","","","","","","","","72","H","0","img/none_selected.jpg","","119","main_expt",""
"","bandit","199","638443","0.0-160.0-0.0","64134160","wem/bandit_either_3","A2SF0TUK6XTPCO","either","5","72","","","","","","","0","0","1","0.5238994176","","0.2","0.6","0.8","0.4","","","","","0.1317257861","0.5238994176","0.6748815414","0.2091577514","","","","","","","","74","J","1","","","120","main_expt",""
"","bandit","200","640130","0.0-161.0-0.0","64134160","wem/bandit_either_3","A2SF0TUK6XTPCO","either","5","130","","","","","","","1","0","0","0.694041989","","0.2","0.6","0.8","0.4","","","","","0.08851148741","0.4821854017","0.694041989","0.2038206067","","","","","","","","75","K","2","","","121","main_expt",""
"","bandit","201","642012","0.0-162.0-0.0","64134160","wem/bandit_either_3","A2SF0TUK6XTPCO","either","5","324","","","","","","","0","0","1","0.1646827865","","0.2","0.6","0.8","0.4","","","","","0.1313095228","0.5695824443","0.7808088803","0.1646827865","","","","","","","","76","L","3","","","122","main_expt",""
"","bandit","202","643661","0.0-163.0-0.0","64134160","wem/bandit_either_3","A2SF0TUK6XTPCO","either","5","77","","","","","","","0","0","1","0.1990721176","","0.2","0.6","0.8","0.4","","","","","0.1990721176","0.5884468641","0.7513243775","0.08951947698","","","","","","","","72","H","0","img/none_selected.jpg","","123","main_expt",""
"","bandit","203","645484","0.0-164.0-0.0","64134160","wem/bandit_either_3","A2SF0TUK6XTPCO","either","5","261","","","","","","","0","1","0","","0.6578864121","0.2","0.6","0.8","0.4","0.3510587203","0.6578864121","0.7095593687","0.09676311751","","","","","","","","","","","","74","J","1","","","124","main_expt",""
"","bandit","204","647293","0.0-165.0-0.0","64134160","wem/bandit_either_3","A2SF0TUK6XTPCO","either","5","239","","","","","","","0","0","1","0.6464373278","","0.2","0.6","0.8","0.4","","","","","0.2829787335","0.6610648035","0.6464373278","0.08914634913","","","","","","","","75","K","2","","","125","main_expt",""
"","bandit","205","649147","0.0-166.0-0.0","64134160","wem/bandit_either_3","A2SF0TUK6XTPCO","either","5","297","","","","","","","0","0","1","","0.1104844084","0.2","0.6","0.8","0.4","0.3253732313","0.6745370829","0.69855693","0.1104844084","","","","","","","","","","","","76","L","3","","","126","main_expt",""
"","bandit","206","650916","0.0-167.0-0.0","64134160","wem/bandit_either_3","A2SF0TUK6XTPCO","either","5","212","","","","","","","1","0","0","0.2969307539","","0.2","0.6","0.8","0.4","","","","","0.2969307539","0.6357656308","0.6394960802","0.1302598269","","","","","","","","72","H","0","img/none_selected.jpg","","127","main_expt",""
"","bandit","207","652799","0.0-168.0-0.0","64134160","wem/bandit_either_3","A2SF0TUK6XTPCO","either","5","301","","","","","","","0","1","0","","0.6746479632","0.2","0.6","0.8","0.4","0.3862322559","0.6746479632","0.5912569563","0.1739983423","","","","","","","","","","","","74","J","1","","","128","main_expt",""
"","bandit","208","654599","0.0-169.0-0.0","64134160","wem/bandit_either_3","A2SF0TUK6XTPCO","either","5","244","","","","","","","0","1","0","","0.6408154383","0.2","0.6","0.8","0.4","0.3399993615","0.609360971","0.6408154383","0.2144078185","","","","","","","","","","","","75","K","2","","","129","main_expt",""
"","bandit","209","656480","0.0-170.0-0.0","64134160","wem/bandit_either_3","A2SF0TUK6XTPCO","either","5","323","","","","","","","0","1","0","","0.2133227205","0.2","0.6","0.8","0.4","0.4343217783","0.5791775941","0.6160079471","0.2133227205","","","","","","","","","","","","76","L","3","","","130","main_expt",""
"","bandit","210","658536","0.0-171.0-0.0","64134160","wem/bandit_either_3","A2SF0TUK6XTPCO","either","5","492","","","","","","","0","0","1","0.4116870082","","0.2","0.6","0.8","0.4","","","","","0.4116870082","0.6039133906","0.6639311205","0.3009586135","","","","","","","","72","H","0","img/none_selected.jpg","","131","main_expt",""
"","bandit","211","660196","0.0-172.0-0.0","64134160","wem/bandit_either_3","A2SF0TUK6XTPCO","either","5","134","","","","","","","0","0","1","0.5564977279","","0.2","0.6","0.8","0.4","","","","","0.3235444519","0.5564977279","0.7314418876","0.3257006372","","","","","","","","74","J","1","","","132","main_expt",""
"","bandit","212","662522","0.0-173.0-0.0","64134160","wem/bandit_either_3","A2SF0TUK6XTPCO","either","5","795","","","","","","","1","0","0","0.5453182718","","0.2","0.6","0.8","0.4","","","","","0.4204005917","0.5453182718","0.7343064015","0.3286432436","","","","","","","","74","J","1","","","133","main_expt",""
"","bandit","213","665393","0.0-174.0-0.0","64134160","wem/bandit_either_3","A2SF0TUK6XTPCO","either","5","1302","","","","","","","0","1","0","","0.6345074403","0.2","0.6","0.8","0.4","0.5326734174","0.5557967555","0.6345074403","0.3343575241","","","","","","","","","","","","75","K","2","","","134","main_expt",""
"","bandit","214","667490","0.0-175.0-0.0","64134160","wem/bandit_either_3","A2SF0TUK6XTPCO","either","5","534","","","","","","","0","0","1","","0.2917270645","0.2","0.6","0.8","0.4","0.6096825818","0.5719827955","0.752921597","0.2917270645","","","","","","","","","","","","76","L","3","","","135","main_expt",""
"","bandit","215","669160","0.0-176.0-0.0","64134160","wem/bandit_either_3","A2SF0TUK6XTPCO","either","5","131","","","","","","","0","0","1","","0.6827328332","0.2","0.6","0.8","0.4","0.6827328332","0.4756276611","0.7642539739","0.3972485531","","","","","","","","","","","","72","H","0","img/none_selected.jpg","","136","main_expt",""
"","bandit","216","670916","0.0-177.0-0.0","64134160","wem/bandit_either_3","A2SF0TUK6XTPCO","either","5","221","","","","","","","0","0","1","","0.5078949877","0.2","0.6","0.8","0.4","0.6604068036","0.5078949877","0.7166238274","0.4294090248","","","","","","","","","","","","74","J","1","","","137","main_expt",""
"","bandit","217","672828","0.0-178.0-0.0","64134160","wem/bandit_either_3","A2SF0TUK6XTPCO","either","5","373","","","","","","","0","0","1","0.713549589","","0.2","0.6","0.8","0.4","","","","","0.653661868","0.4938131475","0.713549589","0.5009988565","","","","","","","","75","K","2","","","138","main_expt",""
"","bandit","218","675132","0.0-179.0-0.0","64134160","wem/bandit_either_3","A2SF0TUK6XTPCO","either","5","774","","","","","","","1","0","0","0.6905374229","","0.2","0.6","0.8","0.4","","","","","0.6169918179","0.654612375","0.6905374229","0.4993746949","","","","","","","","75","K","2","","","139","main_expt",""
"","bandit","219","677027","0.0-180.0-0.0","64134160","wem/bandit_either_3","A2SF0TUK6XTPCO","either","5","362","","","","","","","0","0","1","","0.5448973659","0.2","0.6","0.8","0.4","0.6657435074","0.52663091","0.6614813372","0.5448973659","","","","","","","","","","","","76","L","3","","","140","main_expt",""
"","bandit","220","678914","0.0-181.0-0.0","64134160","wem/bandit_either_3","A2SF0TUK6XTPCO","either","5","336","","","","","","","0","1","0","","0.6349341703","0.2","0.6","0.8","0.4","0.6349341703","0.5976356642","0.7024355817","0.4829720837","","","","","","","","","","","","72","H","0","img/none_selected.jpg","","141","main_expt",""
"","bandit","221","682136","0.0-182.0-0.0","64134160","wem/bandit_either_3","A2SF0TUK6XTPCO","either","5","1685","","","","","","","0","1","0","","0.7185929435","0.2","0.6","0.8","0.4","0.6379356982","0.5956183516","0.7185929435","0.5402580016","","","","","","","","","","","","75","K","2","","","142","main_expt",""
"","bandit","222","684611","0.0-183.0-0.0","64134160","wem/bandit_either_3","A2SF0TUK6XTPCO","either","5","943","","","","","","","0","1","0","","0.6432894639","0.2","0.6","0.8","0.4","0.6022688156","0.6432894639","0.6240660549","0.5478015274","","","","","","","","","","","","74","J","1","","","143","main_expt",""
"","bandit","223","686334","0.0-184.0-0.0","64134160","wem/bandit_either_3","A2SF0TUK6XTPCO","either","5","193","","","","","","","0","1","0","","0.5806731621","0.2","0.6","0.8","0.4","0.5806731621","0.6691106198","0.5797935966","0.5189832842","","","","","","","","","","","","72","H","0","img/none_selected.jpg","","144","main_expt",""
"","bandit","224","688776","0.0-185.0-0.0","64134160","wem/bandit_either_3","A2SF0TUK6XTPCO","either","5","916","","","","","","","0","1","0","","0.677031803","0.2","0.6","0.8","0.4","0.5512406412","0.677031803","0.520403766","0.4556604905","","","","","","","","","","","","74","J","1","","","145","main_expt",""
"","bandit","225","690307","0.0-186.0-0.0","64134160","wem/bandit_either_3","A2SF0TUK6XTPCO","either","5","2","","","","","","","0","1","0","","0.6697886415","0.2","0.6","0.8","0.4","0.6055708535","0.6697886415","0.5330345992","0.48011385","","","","","","","","","","","","74","J","1","","","146","main_expt",""
"","bandit","226","692257","0.0-187.0-0.0","64134160","wem/bandit_either_3","A2SF0TUK6XTPCO","either","5","423","","","","","","","1","0","0","0.5692896821","","0.2","0.6","0.8","0.4","","","","","0.5711328773","0.7101623398","0.5692896821","0.5363471167","","","","","","","","75","K","2","","","147","main_expt",""
"","bandit","227","694235","0.0-188.0-0.0","64134160","wem/bandit_either_3","A2SF0TUK6XTPCO","either","5","435","","","","","","","0","0","1","","0.4877368026","0.2","0.6","0.8","0.4","0.4258462921","0.733230793","0.4877368026","0.4929714004","","","","","","","","","","","","75","K","2","","","148","main_expt",""
"","bandit","228","696560","0.0-189.0-0.0","64134160","wem/bandit_either_3","A2SF0TUK6XTPCO","either","5","742","","","","","","","0","1","0","","0.4356177925","0.2","0.6","0.8","0.4","0.327967402","0.7010449773","0.5936336812","0.4356177925","","","","","","","","","","","","76","L","3","","","149","main_expt",""
"","bandit","229","698408","0.0-190.0-0.0","64134160","wem/bandit_either_3","A2SF0TUK6XTPCO","either","5","287","","","","","","","0","0","1","","0.4343474627","0.2","0.6","0.8","0.4","0.4343474627","0.6668672445","0.7027445866","0.4054894896","","","","","","","","","","","","72","H","0","img/none_selected.jpg","","150","main_expt",""
"","bandit","230","700262","0.0-191.0-0.0","64134160","wem/bandit_either_3","A2SF0TUK6XTPCO","either","5","288","","","","","","","0","0","1","","0.5612636021","0.2","0.6","0.8","0.4","0.5382828223","0.5612636021","0.7690633033","0.5283130311","","","","","","","","","","","","74","J","1","","","151","main_expt",""
"","bandit","231","702127","0.0-192.0-0.0","64134160","wem/bandit_either_3","A2SF0TUK6XTPCO","either","5","290","","","","","","","1","0","0","0.5989969619","","0.2","0.6","0.8","0.4","","","","","0.6572277468","0.7032448324","0.5989969619","0.6323123958","","","","","","","","75","K","2","","","152","main_expt",""
"","bandit","232","704057","0.0-193.0-0.0","64134160","wem/bandit_either_3","A2SF0TUK6XTPCO","either","5","353","","","","","","","0","0","1","0.5847243132","","0.2","0.6","0.8","0.4","","","","","0.668560183","0.6918543646","0.6126787421","0.5847243132","","","","","","","","76","L","3","","","153","main_expt",""
"","bandit","233","706440","0.0-194.0-0.0","64134160","wem/bandit_either_3","A2SF0TUK6XTPCO","either","5","830","","","","","","","0","0","1","","0.6954524596","0.2","0.6","0.8","0.4","0.6954524596","0.647195156","0.5461115941","0.4285456013","","","","","","","","","","","","72","H","0","img/none_selected.jpg","","154","main_expt",""
"","bandit","234","708333","0.0-195.0-0.0","64134160","wem/bandit_either_3","A2SF0TUK6XTPCO","either","5","339","","","","","","","1","0","0","0.6135998722","","0.2","0.6","0.8","0.4","","","","","0.5684527538","0.6135998722","0.5456348337","0.4772645207","","","","","","","","74","J","1","","","155","main_expt",""
"","bandit","235","709885","0.0-196.0-0.0","64134160","wem/bandit_either_3","A2SF0TUK6XTPCO","either","5","11","","","","","","","0","1","0","","0.4782917504","0.2","0.6","0.8","0.4","0.6034375159","0.5591033916","0.4782917504","0.4982711843","","","","","","","","","","","","75","K","2","","","156","main_expt",""
"","bandit","236","712988","0.0-197.0-0.0","64134160","wem/bandit_either_3","A2SF0TUK6XTPCO","either","5","1553","","","","","","","0","1","0","","0.5275183668","0.2","0.6","0.8","0.4","0.5835723018","0.5090787948","0.4868537485","0.5275183668","","","","","","","","","","","","76","L","3","","","157","main_expt",""
"","bandit","237","714624","0.0-198.0-0.0","64134160","wem/bandit_either_3","A2SF0TUK6XTPCO","either","5","82","","","","","","","0","1","0","","0.5234712835","0.2","0.6","0.8","0.4","0.5234712835","0.6087372924","0.5361642224","0.4489423754","","","","","","","","","","","","72","H","0","img/none_selected.jpg","","158","main_expt",""
"","bandit","238","717589","0.0-199.0-0.0","64134160","wem/bandit_either_3","A2SF0TUK6XTPCO","either","5","1409","","","","","","","0","1","0","","0.6064578463","0.2","0.6","0.8","0.4","0.5636881177","0.6064578463","0.4947944436","0.4933275403","","","","","","","","","","","","74","J","1","","","159","main_expt",""
"","bandit","239","720099","0.0-200.0-0.0","64134160","wem/bandit_either_3","A2SF0TUK6XTPCO","either","5","936","","","","","","","0","1","0","","0.5106889885","0.2","0.6","0.8","0.4","0.4785340868","0.6951258233","0.5106889885","0.4521998099","","","","","","","","","","","","75","K","2","","","160","main_expt",""
"","bandit","240","722472","0.0-201.0-0.0","64134160","wem/bandit_either_3","A2SF0TUK6XTPCO","either","5","823","","","","","","","0","0","1","0.5114636712","","0.2","0.6","0.8","0.4","","","","","0.5038962889","0.7129510734","0.4566704777","0.5114636712","","","","","","","","76","L","3","","","161","main_expt",""
"","bandit","241","725322","0.0-202.0-0.0","64134160","wem/bandit_either_3","A2SF0TUK6XTPCO","either","5","1289","","","","","","","0","0","1","","0.4448395692","0.2","0.6","0.8","0.4","0.4448395692","0.7028034005","0.3259271754","0.5242674757","","","","","","","","","","","","72","H","0","img/none_selected.jpg","","162","main_expt",""
"","bandit","242","728114","0.0-203.0-0.0","64134160","wem/bandit_either_3","A2SF0TUK6XTPCO","either","5","1258","","","","","","","0","0","1","0.6293758899","","0.2","0.6","0.8","0.4","","","","","0.471982621","0.6293758899","0.2806734392","0.5687322637","","","","","","","","74","J","1","","","163","main_expt",""
"","bandit","243","730609","0.0-204.0-0.0","64134160","wem/bandit_either_3","A2SF0TUK6XTPCO","either","5","953","","","","","","","1","0","0","0.2973163189","","0.2","0.6","0.8","0.4","","","","","0.6517066897","0.6813427096","0.2973163189","0.5635146256","","","","","","","","75","K","2","","","164","main_expt",""
"","bandit","244","733174","0.0-205.0-0.0","64134160","wem/bandit_either_3","A2SF0TUK6XTPCO","either","5","994","","","","","","","1","0","0","0.6588968294","","0.2","0.6","0.8","0.4","","","","","0.6339143586","0.7231406025","0.2872552927","0.6588968294","","","","","","","","76","L","3","","","165","main_expt",""
"","bandit","245","737066","0.0-206.0-0.0","64134160","wem/bandit_either_3","A2SF0TUK6XTPCO","either","5","2356","","","","","","","0","1","0","","0.6507743373","0.2","0.6","0.8","0.4","0.6507743373","0.6274448994","0.325395791","0.74872254","","","","","","","","","","","","72","H","0","img/none_selected.jpg","","166","main_expt",""
"","bandit","246","739571","0.0-207.0-0.0","64134160","wem/bandit_either_3","A2SF0TUK6XTPCO","either","5","972","","","","","","","0","0","1","0.6778384319","","0.2","0.6","0.8","0.4","","","","","0.6753437353","0.6778384319","0.3307719744","0.7741304825","","","","","","","","74","J","1","","","167","main_expt",""
"","bandit","247","741716","0.0-208.0-0.0","64134160","wem/bandit_either_3","A2SF0TUK6XTPCO","either","5","600","","","","","","","0","0","1","0.4033689778","","0.2","0.6","0.8","0.4","","","","","0.6308788189","0.6928942004","0.4033689778","0.8873722237","","","","","","","","75","K","2","","","168","main_expt",""
"","bandit","248","744413","0.0-209.0-0.0","64134160","wem/bandit_either_3","A2SF0TUK6XTPCO","either","5","1144","","","","","","","0","1","0","","0.4089274666","0.2","0.6","0.8","0.4","0.6289357746","0.6181376835","0.4089274666","0.8649989169","","","","","","","","","","","","75","K","2","","","169","main_expt",""
"","bandit","249","746441","0.0-210.0-0.0","64134160","wem/bandit_either_3","A2SF0TUK6XTPCO","either","5","487","","","","","","","0","1","0","","0.8634323334","0.2","0.6","0.8","0.4","0.6308829817","0.6539136718","0.4033631647","0.8634323334","","","","","","","","","","","","76","L","3","","","170","main_expt",""
"","bandit","250","748329","0.0-211.0-0.0","64134160","wem/bandit_either_3","A2SF0TUK6XTPCO","either","5","325","","","","","","","0","0","1","","0.6008061885","0.2","0.6","0.8","0.4","0.6008061885","0.7935188527","0.3743415885","0.8050812792","","","","","","","","","","","","72","H","0","img/none_selected.jpg","","171","main_expt",""
"","bandit","251","757242","0.0-212.0-0.0","64134160","wem/bandit_either_3","A2SF0TUK6XTPCO","either","5","7376","","","","","","","0","1","0","","0.6498855282","0.2","0.6","0.8","0.4","0.6498855282","0.7959482017","0.4145867416","0.7635000848","","","","","","","","","","","","72","H","0","img/none_selected.jpg","","172","main_expt",""
"","bandit","252","759013","0.0-213.0-0.0","64134160","wem/bandit_either_3","A2SF0TUK6XTPCO","either","5","222","","","","","","","0","0","1","0.7720377381","","0.2","0.6","0.8","0.4","","","","","0.6361658802","0.7720377381","0.4421490518","0.7793560846","","","","","","","","74","J","1","","","173","main_expt",""
"","bandit","253","761058","0.0-214.0-0.0","64134160","wem/bandit_either_3","A2SF0TUK6XTPCO","either","5","473","","","","","","","0","1","0","","0.373112653","0.2","0.6","0.8","0.4","0.5494915933","0.7751150559","0.373112653","0.7290013271","","","","","","","","","","","","75","K","2","","","174","main_expt",""
"","bandit","254","1175787","0.0-215.0-0.0","64134160","wem/bandit_either_3","A2SF0TUK6XTPCO","either","5","413118","","","","","","","0","0","1","","0.6292002022","0.2","0.6","0.8","0.4","0.6292002022","0.7699246652","0.372221374","0.8353873757","","","","","","","","","","","","72","H","0","img/none_selected.jpg","","175","main_expt",""
"","bandit","255","1197481","0.0-216.0-0.0","64134160","wem/bandit_either_3","A2SF0TUK6XTPCO","either","5","20100","","","","","","","0","1","0","","0.4999600136","0.2","0.6","0.8","0.4","0.4999600136","0.8092821718","0.3594456443","0.8589437223","","","","","","","","","","","","72","H","0","img/none_selected.jpg","","176","main_expt",""
"","bandit","256","1200148","0.0-217.0-0.0","64134160","wem/bandit_either_3","A2SF0TUK6XTPCO","either","5","1069","","","","","","","1","0","0","0.7728258073","","0.2","0.6","0.8","0.4","","","","","0.4500304274","0.7728258073","0.3705823864","0.8824379228","","","","","","","","74","J","1","","","177","main_expt",""
"","bandit","257","1203221","0.0-218.0-0.0","64134160","wem/bandit_either_3","A2SF0TUK6XTPCO","either","5","1505","","","","","","","0","0","1","","0.8128952128","0.2","0.6","0.8","0.4","0.4626099748","0.8128952128","0.3042584581","0.8862787626","","","","","","","","","","","","74","J","1","","","178","main_expt",""
"","bandit","258","1210038","0.0-219.0-0.0","64134160","wem/bandit_either_3","A2SF0TUK6XTPCO","either","5","5241","","","","","","","0","1","0","","0.8851661012","0.2","0.6","0.8","0.4","0.3074659707","0.7878088044","0.3056645996","0.8851661012","","","","","","","","","","","","76","L","3","","","179","main_expt",""
"","bandit","259","1218799","0.0-220.0-0.0","64134160","wem/bandit_either_3","A2SF0TUK6XTPCO","either","5","7206","","","","","","","0","0","1","","0.2445312817","0.2","0.6","0.8","0.4","0.2445312817","0.7626215198","0.3124458775","0.8623840347","","","","","","","","","","","","72","H","0","img/none_selected.jpg","","180","main_expt",""
"","bandit","260","1231710","0.0-221.0-0.0","64134160","wem/bandit_either_3","A2SF0TUK6XTPCO","either","5","11342","","","","","","","0","0","1","","0.2284870313","0.2","0.6","0.8","0.4","0.2284870313","0.7059637017","0.2597333415","0.8815853427","","","","","","","","","","","","72","H","0","img/none_selected.jpg","","181","main_expt",""
"","bandit","261","1236405","0.0-222.0-0.0","64134160","wem/bandit_either_3","A2SF0TUK6XTPCO","either","5","3110","","","","","","","0","1","0","","0.6691747745","0.2","0.6","0.8","0.4","0.2195648065","0.6691747745","0.2117009826","0.8955826305","","","","","","","","","","","","74","J","1","","","182","main_expt",""
"","bandit","262","1240040","0.0-223.0-0.0","64134160","wem/bandit_either_3","A2SF0TUK6XTPCO","either","5","2049","","","","","","","0","0","1","0.2327716204","","0.2","0.6","0.8","0.4","","","","","0.2327716204","0.5523838876","0.2327762041","0.9362873759","","","","","","","","72","H","0","img/none_selected.jpg","","183","main_expt",""
"","bandit","263","1250159","0.0-224.0-0.0","64134160","wem/bandit_either_3","A2SF0TUK6XTPCO","either","5","8554","","","","","","","0","0","1","0.3207903029","","0.2","0.6","0.8","0.4","","","","","0.3207903029","0.5451875246","0.2750618684","0.9484326647","","","","","","","","72","H","0","img/none_selected.jpg","","184","main_expt",""
"","bandit","264","1274105","0.0-225.0-0.0","64134160","wem/bandit_either_3","A2SF0TUK6XTPCO","either","5","22385","","","","","","","0","0","1","","0.3609723674","0.2","0.6","0.8","0.4","0.3609723674","0.6090771744","0.2305846964","0.9660783121","","","","","","","","","","","","72","H","0","img/none_selected.jpg","","185","main_expt",""
"","bandit","265","1277497","0.0-226.0-0.0","64134160","wem/bandit_either_3","A2SF0TUK6XTPCO","either","5","1834","","","","","","","0","1","0","","0.2597669424","0.2","0.6","0.8","0.4","0.4442397518","0.5810996076","0.2597669424","0.9665376101","","","","","","","","","","","","75","K","2","","","186","main_expt",""
"","bandit","266","1279271","0.0-227.0-0.0","64134160","wem/bandit_either_3","A2SF0TUK6XTPCO","either","5","215","","","","","","","1","0","0","0.9644184371","","0.2","0.6","0.8","0.4","","","","","0.4478442549","0.4445572548","0.2143742246","0.9644184371","","","","","","","","76","L","3","","","187","main_expt",""
"","bandit","267","1280906","0.0-228.0-0.0","64134160","wem/bandit_either_3","A2SF0TUK6XTPCO","either","5","66","","","","","","","0","1","0","","0.2294707647","0.2","0.6","0.8","0.4","0.4026396634","0.4113554433","0.2294707647","0.9731237162","","","","","","","","","","","","75","K","2","","","188","main_expt",""
"","bandit","268","1282946","0.0-229.0-0.0","64134160","wem/bandit_either_3","A2SF0TUK6XTPCO","either","5","456","","","","","","","0","0","1","","0.4053553249","0.2","0.6","0.8","0.4","0.5072589837","0.4053553249","0.2469430613","0.9787475226","","","","","","","","","","","","74","J","1","","","189","main_expt",""
"","bandit","269","1284781","0.0-230.0-0.0","64134160","wem/bandit_either_3","A2SF0TUK6XTPCO","either","5","288","","","","","","","0","0","1","0.5234843415","","0.2","0.6","0.8","0.4","","","","","0.5234843415","0.4927633492","0.2437728268","0.9847816181","","","","","","","","72","H","0","img/none_selected.jpg","","190","main_expt",""
"","bandit","270","1286586","0.0-231.0-0.0","64134160","wem/bandit_either_3","A2SF0TUK6XTPCO","either","5","250","","","","","","","0","0","1","0.1655579887","","0.2","0.6","0.8","0.4","","","","","0.5054414672","0.428678546","0.1655579887","0.9713064587","","","","","","","","75","K","2","","","191","main_expt",""
"","bandit","271","1288168","0.0-232.0-0.0","64134160","wem/bandit_either_3","A2SF0TUK6XTPCO","either","5","3","","","","","","","0","1","0","","0.9558555722","0.2","0.6","0.8","0.4","0.7037613703","0.3358015867","0.1501427492","0.9558555722","","","","","","","","","","","","76","L","3","","","192","main_expt",""
"","bandit","272","1291149","0.0-233.0-0.0","64134160","wem/bandit_either_3","A2SF0TUK6XTPCO","either","5","1412","","","","","","","0","0","1","0.2816430679","","0.2","0.6","0.8","0.4","","","","","0.5980286963","0.2816430679","0.2062706367","0.9443800135","","","","","","","","74","J","1","","","193","main_expt",""
"","bandit","273","1294432","0.0-234.0-0.0","64134160","wem/bandit_either_3","A2SF0TUK6XTPCO","either","5","1718","","","","","","","0","1","0","","0.5607231578","0.2","0.6","0.8","0.4","0.5607231578","0.2951519504","0.2782937815","0.947825408","","","","","","","","","","","","72","H","0","img/none_selected.jpg","","194","main_expt",""
"","bandit","274","1295978","0.0-235.0-0.0","64134160","wem/bandit_either_3","A2SF0TUK6XTPCO","either","5","1","","","","","","","0","0","1","0.2482291913","","0.2","0.6","0.8","0.4","","","","","0.6222063369","0.2482291913","0.2393938873","0.9531013361","","","","","","","","74","J","1","","","195","main_expt",""
"","bandit","275","1297932","0.0-236.0-0.0","64134160","wem/bandit_either_3","A2SF0TUK6XTPCO","either","5","397","","","","","","","0","0","1","0.3385483064","","0.2","0.6","0.8","0.4","","","","","0.7092042058","0.2548661126","0.3385483064","0.9653581558","","","","","","","","75","K","2","","","196","main_expt",""
"","bandit","276","1299710","0.0-237.0-0.0","64134160","wem/bandit_either_3","A2SF0TUK6XTPCO","either","5","220","","","","","","","1","0","0","0.9774234012","","0.2","0.6","0.8","0.4","","","","","0.7397780251","0.2789697966","0.3474357388","0.9774234012","","","","","","","","76","L","3","","","197","main_expt",""
"","bandit","277","1301694","0.0-238.0-0.0","64134160","wem/bandit_either_3","A2SF0TUK6XTPCO","either","5","410","","","","","","","0","1","0","","0.9866112083","0.2","0.6","0.8","0.4","0.6977166648","0.2893473624","0.4511600961","0.9866112083","","","","","","","","","","","","76","L","3","","","198","main_expt",""
"","bandit","278","1303569","0.0-239.0-0.0","64134160","wem/bandit_either_3","A2SF0TUK6XTPCO","either","5","304","","","","","","","1","0","0","0.4387406867","","0.2","0.6","0.8","0.4","","","","","0.591703898","0.2499124536","0.4387406867","0.9889390623","","","","","","","","75","K","2","","","199","main_expt",""
"","bandit","279","1305206","0.0-240.0-0.0","64134160","wem/bandit_either_3","A2SF0TUK6XTPCO","either","5","71","","","","","","","0","1","0","","0.5107967375","0.2","0.6","0.8","0.4","0.5107967375","0.2643429758","0.4368135332","0.9894921125","","","","","","","","","","","","72","H","0","img/none_selected.jpg","","200","main_expt",""
"","bandit","280","1307028","0.0-241.0-0.0","64134160","wem/bandit_either_3","A2SF0TUK6XTPCO","either","5","234","","","","","","","0","0","1","0.2382870841","","0.2","0.6","0.8","0.4","","","","","0.6528148869","0.2382870841","0.3070084091","0.989248002","","","","","","","","74","J","1","","","201","main_expt",""
"","bandit","281","1308895","0.0-242.0-0.0","64134160","wem/bandit_either_3","A2SF0TUK6XTPCO","either","5","298","","","","","","","0","0","1","0.3603585946","","0.2","0.6","0.8","0.4","","","","","0.6892998309","0.1604624283","0.3603585946","0.9957983392","","","","","","","","75","K","2","","","202","main_expt",""
"","bandit","282","1310851","0.0-243.0-0.0","64134160","wem/bandit_either_3","A2SF0TUK6XTPCO","either","5","383","","","","","","","1","0","0","0.9958893","","0.2","0.6","0.8","0.4","","","","","0.6989476798","0.1407610566","0.260320329","0.9958893","","","","","","","","76","L","3","","","203","main_expt",""
"","bandit","283","1312811","0.0-244.0-0.0","64134160","wem/bandit_either_3","A2SF0TUK6XTPCO","either","5","379","","","","","","","1","0","0","0.9955962674","","0.2","0.6","0.8","0.4","","","","","0.772264117","0.1343245238","0.2003029851","0.9955962674","","","","","","","","76","L","3","","","204","main_expt",""
"","bandit","284","1314629","0.0-245.0-0.0","64134160","wem/bandit_either_3","A2SF0TUK6XTPCO","either","5","247","","","","","","","0","0","1","0.1922312923","","0.2","0.6","0.8","0.4","","","","","0.7366863645","0.1715400642","0.1922312923","0.9943432705","","","","","","","","75","K","2","","","205","main_expt",""
"","bandit","285","1316858","0.0-246.0-0.0","64134160","wem/bandit_either_3","A2SF0TUK6XTPCO","either","5","656","","","","","","","0","0","1","","0.1936085521","0.2","0.6","0.8","0.4","0.7477287432","0.117617648","0.1936085521","0.9982320458","","","","","","","","","","","","75","K","2","","","206","main_expt",""
"","bandit","286","1319443","0.0-247.0-0.0","64134160","wem/bandit_either_3","A2SF0TUK6XTPCO","either","5","1027","","","","","","","1","0","0","0.9976530308","","0.2","0.6","0.8","0.4","","","","","0.8185776196","0.1182717864","0.1821705986","0.9976530308","","","","","","","","76","L","3","","","207","main_expt",""
"","bandit","287","1320999","0.0-248.0-0.0","64134160","wem/bandit_either_3","A2SF0TUK6XTPCO","either","5","1","","","","","","","1","0","0","0.8161769506","","0.2","0.6","0.8","0.4","","","","","0.8161769506","0.1445047472","0.1145050302","0.9961811318","","","","","","","","72","H","0","img/none_selected.jpg","","208","main_expt",""
"","bandit","288","1322961","0.0-249.0-0.0","64134160","wem/bandit_either_3","A2SF0TUK6XTPCO","either","5","416","","","","","","","0","0","1","","0.1264159314","0.2","0.6","0.8","0.4","0.8224464957","0.1264159314","0.1206637037","0.9977639941","","","","","","","","","","","","74","J","1","","","209","main_expt",""
"","bandit","289","1326245","0.0-250.0-0.0","64134160","wem/bandit_either_3","A2SF0TUK6XTPCO","either","5","1727","","","","","","","1","0","0","0.9953783407","","0.2","0.6","0.8","0.4","","","","","0.7392866018","0.1208777168","0.1422927172","0.9953783407","","","","","","","","76","L","3","","","210","main_expt",""
"","bandit","290","1328498","0.0-251.0-0.0","64134160","wem/bandit_either_3","A2SF0TUK6XTPCO","either","5","681","","","","","","","1","0","0","0.1811219169","","0.2","0.6","0.8","0.4","","","","","0.7125411919","0.1733448518","0.1811219169","0.9976351195","","","","","","","","75","K","2","","","211","main_expt",""
"","bandit","291","1331189","0.0-252.0-0.0","64134160","wem/bandit_either_3","A2SF0TUK6XTPCO","either","5","1119","","","","","","","0","0","1","0.7191881067","","0.2","0.6","0.8","0.4","","","","","0.7191881067","0.1085262221","0.1982527665","0.9983589292","","","","","","","","72","H","0","img/none_selected.jpg","","212","main_expt",""
"","bandit","292","1334239","0.0-253.0-0.0","64134160","wem/bandit_either_3","A2SF0TUK6XTPCO","either","5","1463","","","","","","","0","0","1","","0.08145678985","0.2","0.6","0.8","0.4","0.7523845147","0.08145678985","0.124448309","0.9960427138","","","","","","","","","","","","74","J","1","","","213","main_expt",""
"","bandit","293","1335943","0.0-254.0-0.0","64134160","wem/bandit_either_3","A2SF0TUK6XTPCO","either","5","137","","","","","","","0","0","1","","0.1036015692","0.2","0.6","0.8","0.4","0.7193420906","0.05725631888","0.1036015692","0.9924650588","","","","","","","","","","","","75","K","2","","","214","main_expt",""
"","bandit","294","1338154","0.0-255.0-0.0","64134160","wem/bandit_either_3","A2SF0TUK6XTPCO","either","5","652","","","","","","","1","0","0","0.9858211903","","0.2","0.6","0.8","0.4","","","","","0.6784461291","0.04356988172","0.14458031","0.9858211903","","","","","","","","76","L","3","","","215","main_expt",""
"","bandit","295","1340646","0.0-256.0-0.0","64134160","wem/bandit_either_3","A2SF0TUK6XTPCO","either","5","913","","","","","","","0","0","1","","0.04316154837","0.2","0.6","0.8","0.4","0.5658185063","0.04316154837","0.2094876981","0.9915289077","","","","","","","","","","","","74","J","1","","","216","main_expt",""
"","bandit","296","1343229","0.0-257.0-0.0","64134160","wem/bandit_either_3","A2SF0TUK6XTPCO","either","5","1008","","","","","","","0","1","0","","0.4886301847","0.2","0.6","0.8","0.4","0.4886301847","0.03453558383","0.24936904","0.9929544916","","","","","","","","","","","","72","H","0","img/none_selected.jpg","","217","main_expt",""
"","bandit","297","1345529","0.0-258.0-0.0","64134160","wem/bandit_either_3","A2SF0TUK6XTPCO","either","5","727","","","","","","","0","0","1","0.03800932399","","0.2","0.6","0.8","0.4","","","","","0.5674985979","0.03800932399","0.2006789107","0.9741721496","","","","","","","","74","J","1","","","218","main_expt",""
"","bandit","298","1348180","0.0-259.0-0.0","64134160","wem/bandit_either_3","A2SF0TUK6XTPCO","either","5","1095","","","","","","","1","0","0","0.2118480588","","0.2","0.6","0.8","0.4","","","","","0.6088772151","0.07914639327","0.2118480588","0.9413517393","","","","","","","","75","K","2","","","219","main_expt",""
"","bandit","299","1351531","0.0-260.0-0.0","64134160","wem/bandit_either_3","A2SF0TUK6XTPCO","either","5","1790","","","","","","","0","0","1","0.07044987786","","0.2","0.6","0.8","0.4","","","","","0.5856238885","0.07044987786","0.2159213458","0.9230346446","","","","","","","","74","J","1","","","220","main_expt",""
"","bandit","300","1353151","0.0-261.0-0.0","64134160","wem/bandit_either_3","A2SF0TUK6XTPCO","either","5","58","","","","","","","0","0","1","0.1351506501","","0.2","0.6","0.8","0.4","","","","","0.6601978635","0.1351506501","0.2097338805","0.9216350241","","","","","","","","74","J","1","","","221","main_expt",""
"","bandit","301","1356099","0.0-262.0-0.0","64134160","wem/bandit_either_3","A2SF0TUK6XTPCO","either","5","1380","","","","","","","1","0","0","0.2099108548","","0.2","0.6","0.8","0.4","","","","","0.6540659739","0.2099108548","0.1468233299","0.9093406134","","","","","","","","74","J","1","","","222","main_expt",""
"","bandit","302","1358954","0.0-263.0-0.0","64134160","wem/bandit_either_3","A2SF0TUK6XTPCO","either","5","1264","","","","","","","0","0","1","0.1379540926","","0.2","0.6","0.8","0.4","","","","","0.7010542315","0.2971693323","0.1379540926","0.8361447498","","","","","","","","75","K","2","","","223","main_expt",""
"","bandit","303","1360793","0.0-264.0-0.0","64134160","wem/bandit_either_3","A2SF0TUK6XTPCO","either","5","280","","","","","","","0","0","1","0.1943723139","","0.2","0.6","0.8","0.4","","","","","0.7972730751","0.2754671199","0.1943723139","0.8626161161","","","","","","","","75","K","2","","","224","main_expt",""
"","bandit","304","1364123","0.0-265.0-0.0","64134160","wem/bandit_either_3","A2SF0TUK6XTPCO","either","5","1753","","","","","","","0","1","0","","0.8726314772","0.2","0.6","0.8","0.4","0.8726314772","0.2483133052","0.2949344278","0.9176165053","","","","","","","","","","","","72","H","0","img/none_selected.jpg","","225","main_expt",""
"","bandit","305","1367390","0.0-266.0-0.0","64134160","wem/bandit_either_3","A2SF0TUK6XTPCO","either","5","1685","","","","","","","0","0","1","","0.2945032007","0.2","0.6","0.8","0.4","0.8569150835","0.2945032007","0.4040967375","0.9516545376","","","","","","","","","","","","74","J","1","","","226","main_expt",""
"","bandit","306","1368979","0.0-267.0-0.0","64134160","wem/bandit_either_3","A2SF0TUK6XTPCO","either","5","3","","","","","","","0","0","1","0.4369809926","","0.2","0.6","0.8","0.4","","","","","0.8773762417","0.2544933329","0.4369809926","0.9448551655","","","","","","","","75","K","2","","","227","main_expt",""
"","bandit","307","1372083","0.0-268.0-0.0","64134160","wem/bandit_either_3","A2SF0TUK6XTPCO","either","5","1533","","","","","","","1","0","0","0.8514828757","","0.2","0.6","0.8","0.4","","","","","0.8514828757","0.22227057","0.4228749262","0.9298030406","","","","","","","","72","H","0","img/none_selected.jpg","","228","main_expt",""
"","bandit","308","1373668","0.0-269.0-0.0","64134160","wem/bandit_either_3","A2SF0TUK6XTPCO","either","5","26","","","","","","","0","1","0","","0.893786405","0.2","0.6","0.8","0.4","0.893786405","0.2319557967","0.4953143479","0.9022116856","","","","","","","","","","","","72","H","0","img/none_selected.jpg","","229","main_expt",""
"","bandit","309","1375849","0.0-270.0-0.0","64134160","wem/bandit_either_3","A2SF0TUK6XTPCO","either","5","593","","","","","","","0","0","1","","0.3107577299","0.2","0.6","0.8","0.4","0.9350514117","0.3107577299","0.4752889979","0.8934587516","","","","","","","","","","","","74","J","1","","","230","main_expt",""
"","bandit","310","1378556","0.0-271.0-0.0","64134160","wem/bandit_either_3","A2SF0TUK6XTPCO","either","5","1164","","","","","","","1","0","0","0.4887049862","","0.2","0.6","0.8","0.4","","","","","0.9139197991","0.3046703461","0.4887049862","0.8403693225","","","","","","","","75","K","2","","","231","main_expt",""
"","bandit","311","1381350","0.0-272.0-0.0","64134160","wem/bandit_either_3","A2SF0TUK6XTPCO","either","5","1212","","","","","","","0","1","0","","0.6065944358","0.2","0.6","0.8","0.4","0.8753904063","0.4259459217","0.6065944358","0.7373772703","","","","","","","","","","","","75","K","2","","","232","main_expt",""
"","bandit","312","1383583","0.0-273.0-0.0","64134160","wem/bandit_either_3","A2SF0TUK6XTPCO","either","5","655","","","","","","","1","0","0","0.3391655585","","0.2","0.6","0.8","0.4","","","","","0.807664976","0.3391655585","0.5320380184","0.7275490615","","","","","","","","74","J","1","","","233","main_expt",""
"","bandit","313","1385712","0.0-274.0-0.0","64134160","wem/bandit_either_3","A2SF0TUK6XTPCO","either","5","556","","","","","","","1","0","0","0.5845689413","","0.2","0.6","0.8","0.4","","","","","0.817303243","0.3380141995","0.5845689413","0.6910989812","","","","","","","","75","K","2","","","234","main_expt",""
"","bandit","314","1388245","0.0-275.0-0.0","64134160","wem/bandit_either_3","A2SF0TUK6XTPCO","either","5","919","","","","","","","1","0","0","0.4424117598","","0.2","0.6","0.8","0.4","","","","","0.8320050337","0.2949514339","0.4424117598","0.6506848601","","","","","","","","75","K","2","","","235","main_expt",""
"","bandit","315","1390729","0.0-276.0-0.0","64134160","wem/bandit_either_3","A2SF0TUK6XTPCO","either","5","902","","","","","","","1","0","0","0.8539654836","","0.2","0.6","0.8","0.4","","","","","0.8539654836","0.2575094814","0.4411324282","0.589166471","","","","","","","","72","H","0","img/none_selected.jpg","","236","main_expt",""
"","bandit","316","1394228","0.0-277.0-0.0","64134160","wem/bandit_either_3","A2SF0TUK6XTPCO","either","5","1937","","","","","","","0","1","0","","0.8151920012","0.2","0.6","0.8","0.4","0.8151920012","0.3298960346","0.5792865955","0.5475273787","","","","","","","","","","","","72","H","0","img/none_selected.jpg","","237","main_expt",""
"","bandit","317","1396497","0.0-278.0-0.0","64134160","wem/bandit_either_3","A2SF0TUK6XTPCO","either","5","690","","","","","","","0","0","1","","0.3922637729","0.2","0.6","0.8","0.4","0.8724257749","0.3922637729","0.6435093149","0.5644141111","","","","","","","","","","","","74","J","1","","","238","main_expt",""
"","bandit","318","1399066","0.0-279.0-0.0","64134160","wem/bandit_either_3","A2SF0TUK6XTPCO","either","5","982","","","","","","","0","1","0","","0.571754567","0.2","0.6","0.8","0.4","0.8232187668","0.3200188668","0.571754567","0.557522906","","","","","","","","","","","","75","K","2","","","239","main_expt",""
"","bandit","319","1401248","0.0-280.0-0.0","64134160","wem/bandit_either_3","A2SF0TUK6XTPCO","either","5","584","","","","","","","0","0","1","0.3427015143","","0.2","0.6","0.8","0.4","","","","","0.8306623225","0.3427015143","0.6642130709","0.603497511","","","","","","","","74","J","1","","","240","main_expt",""
"","bandit","320","1403379","0.0-281.0-0.0","64134160","wem/bandit_either_3","A2SF0TUK6XTPCO","either","5","567","","","","","","","1","0","0","0.7592816599","","0.2","0.6","0.8","0.4","","","","","0.7592816599","0.3027961335","0.702894688","0.5998739494","","","","","","","","72","H","0","img/none_selected.jpg","","241","main_expt",""
"","bandit","321","1405319","0.0-282.0-0.0","64134160","wem/bandit_either_3","A2SF0TUK6XTPCO","either","5","372","","","","","","","0","1","0","","0.2916945226","0.2","0.6","0.8","0.4","0.8354326854","0.2916945226","0.6468691102","0.5674661637","","","","","","","","","","","","74","J","1","","","242","main_expt",""
"","bandit","322","1407662","0.0-283.0-0.0","64134160","wem/bandit_either_3","A2SF0TUK6XTPCO","either","5","790","","","","","","","1","0","0","0.7073159297","","0.2","0.6","0.8","0.4","","","","","0.8387573723","0.2703759756","0.7073159297","0.620083209","","","","","","","","75","K","2","","","243","main_expt",""
"","bandit","323","1409959","0.0-284.0-0.0","64134160","wem/bandit_either_3","A2SF0TUK6XTPCO","either","5","761","","","","","","","1","0","0","0.6719420595","","0.2","0.6","0.8","0.4","","","","","0.8683205951","0.2055036404","0.6719420595","0.7089992968","","","","","","","","75","K","2","","","244","main_expt",""
