"consent","trial_type","trial_index","time_elapsed","internal_node_id","subjID","study","MID","cond","drift","rt","responses","key_press","expt_phase","like","value","connected","gems","bombs","no_reward","GemPrChosen","BombPrChosen","GainOverPainPr_0","GainOverPainPr_1","GainOverPainPr_2","GainOverPainPr_3","LosePr_0","LosePr_1","LosePr_2","LosePr_3","WinPr_0","WinPr_1","WinPr_2","WinPr_3","Q0","Q1","Q2","gender","age","ethnicity","target","respCharCode","respKey","respChoiceNum","respChoice","practice","trial_counter","trial_label","button_pressed"
"INL_behavioral_consent_30min_online.html","consent","0","7920","0.0-0.0","64638148","wem/bandit_either_3","A1271V1YNO76YA","either","7","","","","","","","","","","","","","","","","","","","","","","","","","","","","","","","","","","","","","","",""
"","survey-text","1","14716","0.0-1.0","64638148","wem/bandit_either_3","A1271V1YNO76YA","either","7","5771","{""Q0"":""A1271V1YNO76YA""}","","","","","","","","","","","","","","","","","","","","","","","","","","","","","","","","","","","","",""
"","text","2","43499","0.0-2.0","64638148","wem/bandit_either_3","A1271V1YNO76YA","either","7","27774","","32","","","","","","","","","","","","","","","","","","","","","","","","","","","","","","","","","","","",""
"","text","3","52066","0.0-3.0","64638148","wem/bandit_either_3","A1271V1YNO76YA","either","7","8560","","32","","","","","","","","","","","","","","","","","","","","","","","","","","","","","","","","","","","",""
"","text","4","74157","0.0-4.0","64638148","wem/bandit_either_3","A1271V1YNO76YA","either","7","22083","","32","","","","","","","","","","","","","","","","","","","","","","","","","","","","","","","","","","","",""
"","text","5","92422","0.0-5.0","64638148","wem/bandit_either_3","A1271V1YNO76YA","either","7","18261","","32","","","","","","","","","","","","","","","","","","","","","","","","","","","","","","","","","","","",""
"","text","6","116768","0.0-6.0","64638148","wem/bandit_either_3","A1271V1YNO76YA","either","7","24342","","32","","","","","","","","","","","","","","","","","","","","","","","","","","","","","","","","","","","",""
"","text","7","124463","0.0-7.0","64638148","wem/bandit_either_3","A1271V1YNO76YA","either","7","7692","","32","","","","","","","","","","","","","","","","","","","","","","","","","","","","","","","","","","","",""
"","text","8","128711","0.0-8.0","64638148","wem/bandit_either_3","A1271V1YNO76YA","either","7","4243","","32","","","","","","","","","","","","","","","","","","","","","","","","","","","","","","","","","","","",""
"","identification","9","135278","0.0-9.0-0.0","64638148","wem/bandit_either_3","A1271V1YNO76YA","either","7","6540","","","","3","4","4","","","","","","","","","","","","","","","","","","","","","","","","the village of Zur","","","","","","","",""
"","identification","10","140430","0.0-9.0-1.0","64638148","wem/bandit_either_3","A1271V1YNO76YA","either","7","4104","","","","2","2","2","","","","","","","","","","","","","","","","","","","","","","","","the village of Nyx","","","","","","","",""
"","text","11","147406","0.0-10.0","64638148","wem/bandit_either_3","A1271V1YNO76YA","either","7","5971","","32","","","","","","","","","","","","","","","","","","","","","","","","","","","","","","","","","","","",""
"","text","12","152206","0.0-11.0","64638148","wem/bandit_either_3","A1271V1YNO76YA","either","7","4797","","32","","","","","","","","","","","","","","","","","","","","","","","","","","","","","","","","","","","",""
"","text","13","154517","0.0-12.0","64638148","wem/bandit_either_3","A1271V1YNO76YA","either","7","2310","","32","","","","","","","","","","","","","","","","","","","","","","","","","","","","","","","","","","","",""
"","text","14","159222","0.0-13.0","64638148","wem/bandit_either_3","A1271V1YNO76YA","either","7","4702","","32","","","","","","","","","","","","","","","","","","","","","","","","","","","","","","","","","","","",""
"","bandit","15","164880","0.0-14.0-0.0","64638148","wem/bandit_either_3","A1271V1YNO76YA","either","7","4123","","","","","","","0","0","1","0","0","","","","","0","","","","0","","","","","","","","","","","74","J","0","img/none_selected_demo.jpg","true","0","",""
"","bandit","16","168255","0.0-15.0-0.0","64638148","wem/bandit_either_3","A1271V1YNO76YA","either","7","1853","","","","","","","0","0","1","0","0","","","","","0","","","","0","","","","","","","","","","","75","K","0","img/none_selected_demo.jpg","true","0","",""
"","text","17","177214","0.0-16.0","64638148","wem/bandit_either_3","A1271V1YNO76YA","either","7","8956","","32","","","","","","","","","","","","","","","","","","","","","","","","","","","","","","","","","","","",""
"","text","18","191026","0.0-17.0","64638148","wem/bandit_either_3","A1271V1YNO76YA","either","7","13806","","32","","","","","","","","","","","","","","","","","","","","","","","","","","","","","","","","","","","",""
"","text","19","197136","0.0-18.0","64638148","wem/bandit_either_3","A1271V1YNO76YA","either","7","6102","","32","","","","","","","","","","","","","","","","","","","","","","","","","","","","","","","","","","","",""
"","text","20","203671","0.0-19.0","64638148","wem/bandit_either_3","A1271V1YNO76YA","either","7","6529","","32","","","","","","","","","","","","","","","","","","","","","","","","","","","","","","","","","","","",""
"","bandit","21","206419","0.0-20.0-0.0","64638148","wem/bandit_either_3","A1271V1YNO76YA","either","7","1193","","","","","","","0","0","1","","0.8","0.5","0.5","","","0.8","0.2","","","","","","","","","","","","","","74","J","0","img/none_selected_demo.jpg","true","0","80_20_practice",""
"","bandit","22","208846","0.0-20.0-1.0","64638148","wem/bandit_either_3","A1271V1YNO76YA","either","7","861","","","","","","","0","0","1","","0.2","0.5","0.5","","","0.8","0.2","","","","","","","","","","","","","","75","K","1","","true","0","80_20_practice",""
"","bandit","23","212669","0.0-20.0-2.0","64638148","wem/bandit_either_3","A1271V1YNO76YA","either","7","2289","","","","","","","0","0","1","0.2","","0.5","0.5","","","","","","","0.8","0.2","","","","","","","","","","75","K","1","","true","0","80_20_practice",""
"","bandit","24","215502","0.0-20.0-3.0","64638148","wem/bandit_either_3","A1271V1YNO76YA","either","7","1303","","","","","","","0","1","0","","0.2","0.5","0.5","","","0.8","0.2","","","","","","","","","","","","","","75","K","1","","true","0","80_20_practice",""
"","bandit","25","218461","0.0-20.0-4.0","64638148","wem/bandit_either_3","A1271V1YNO76YA","either","7","1425","","","","","","","0","1","0","","0.8","0.5","0.5","","","0.8","0.2","","","","","","","","","","","","","","74","J","0","img/none_selected_demo.jpg","true","0","80_20_practice",""
"","bandit","26","221143","0.0-20.0-5.0","64638148","wem/bandit_either_3","A1271V1YNO76YA","either","7","1152","","","","","","","0","1","0","","0.8","0.5","0.5","","","0.8","0.2","","","","","","","","","","","","","","74","J","0","img/none_selected_demo.jpg","true","0","80_20_practice",""
"","bandit","27","224103","0.0-20.0-6.0","64638148","wem/bandit_either_3","A1271V1YNO76YA","either","7","1415","","","","","","","0","1","0","","0.8","0.5","0.5","","","0.8","0.2","","","","","","","","","","","","","","74","J","0","img/none_selected_demo.jpg","true","0","80_20_practice",""
"","bandit","28","226272","0.0-20.0-7.0","64638148","wem/bandit_either_3","A1271V1YNO76YA","either","7","647","","","","","","","0","0","1","0.8","","0.5","0.5","","","","","","","0.8","0.2","","","","","","","","","","74","J","0","img/none_selected_demo.jpg","true","0","80_20_practice",""
"","bandit","29","228419","0.0-20.0-8.0","64638148","wem/bandit_either_3","A1271V1YNO76YA","either","7","620","","","","","","","0","1","0","","0.8","0.5","0.5","","","0.8","0.2","","","","","","","","","","","","","","74","J","0","img/none_selected_demo.jpg","true","0","80_20_practice",""
"","bandit","30","230742","0.0-20.0-9.0","64638148","wem/bandit_either_3","A1271V1YNO76YA","either","7","791","","","","","","","1","0","0","0.8","","0.5","0.5","","","","","","","0.8","0.2","","","","","","","","","","74","J","0","img/none_selected_demo.jpg","true","0","80_20_practice",""
"","bandit","31","232846","0.0-20.0-10.0","64638148","wem/bandit_either_3","A1271V1YNO76YA","either","7","563","","","","","","","0","0","1","0.8","","0.5","0.5","","","","","","","0.8","0.2","","","","","","","","","","74","J","0","img/none_selected_demo.jpg","true","0","80_20_practice",""
"","bandit","32","234839","0.0-20.0-11.0","64638148","wem/bandit_either_3","A1271V1YNO76YA","either","7","471","","","","","","","0","1","0","","0.8","0.5","0.5","","","0.8","0.2","","","","","","","","","","","","","","74","J","0","img/none_selected_demo.jpg","true","0","80_20_practice",""
"","bandit","33","237099","0.0-20.0-12.0","64638148","wem/bandit_either_3","A1271V1YNO76YA","either","7","735","","","","","","","0","0","1","0.2","","0.5","0.5","","","","","","","0.8","0.2","","","","","","","","","","75","K","1","","true","0","80_20_practice",""
"","bandit","34","239179","0.0-20.0-13.0","64638148","wem/bandit_either_3","A1271V1YNO76YA","either","7","537","","","","","","","0","0","1","0.2","","0.5","0.5","","","","","","","0.8","0.2","","","","","","","","","","75","K","1","","true","0","80_20_practice",""
"","bandit","35","241208","0.0-20.0-14.0","64638148","wem/bandit_either_3","A1271V1YNO76YA","either","7","509","","","","","","","1","0","0","0.8","","0.5","0.5","","","","","","","0.8","0.2","","","","","","","","","","74","J","0","img/none_selected_demo.jpg","true","0","80_20_practice",""
"","bandit","36","243278","0.0-20.0-15.0","64638148","wem/bandit_either_3","A1271V1YNO76YA","either","7","553","","","","","","","0","1","0","","0.8","0.5","0.5","","","0.8","0.2","","","","","","","","","","","","","","74","J","0","img/none_selected_demo.jpg","true","0","80_20_practice",""
"","bandit","37","245235","0.0-20.0-16.0","64638148","wem/bandit_either_3","A1271V1YNO76YA","either","7","415","","","","","","","0","1","0","","0.8","0.5","0.5","","","0.8","0.2","","","","","","","","","","","","","","74","J","0","img/none_selected_demo.jpg","true","0","80_20_practice",""
"","bandit","38","249703","0.0-20.0-17.0","64638148","wem/bandit_either_3","A1271V1YNO76YA","either","7","2890","","","","","","","0","1","0","","0.8","0.5","0.5","","","0.8","0.2","","","","","","","","","","","","","","74","J","0","img/none_selected_demo.jpg","true","0","80_20_practice",""
"","bandit","39","251564","0.0-20.0-18.0","64638148","wem/bandit_either_3","A1271V1YNO76YA","either","7","345","","","","","","","0","1","0","","0.8","0.5","0.5","","","0.8","0.2","","","","","","","","","","","","","","74","J","0","img/none_selected_demo.jpg","true","0","80_20_practice",""
"","bandit","40","253408","0.0-20.0-19.0","64638148","wem/bandit_either_3","A1271V1YNO76YA","either","7","303","","","","","","","1","0","0","0.8","","0.5","0.5","","","","","","","0.8","0.2","","","","","","","","","","74","J","0","img/none_selected_demo.jpg","true","0","80_20_practice",""
"","text","41","255646","0.0-21.0","64638148","wem/bandit_either_3","A1271V1YNO76YA","either","7","2235","","32","","","","","","","","","","","","","","","","","","","","","","","","","","","","","","","","","","","",""
"","bandit","42","257950","0.0-22.0-0.0","64638148","wem/bandit_either_3","A1271V1YNO76YA","either","7","774","","","","","","","1","0","0","1","0","","","","","0","1","","","1","0","","","","","","","","","","74","J","0","img/none_selected_demo.jpg","true","0","",""
"","text","43","261513","0.0-23.0","64638148","wem/bandit_either_3","A1271V1YNO76YA","either","7","3556","","32","","","","","","","","","","","","","","","","","","","","","","","","","","","","","","","","","","","",""
"","text","44","266303","0.0-24.0","64638148","wem/bandit_either_3","A1271V1YNO76YA","either","7","4784","","32","","","","","","","","","","","","","","","","","","","","","","","","","","","","","","","","","","","",""
"","text","45","269096","0.0-25.0","64638148","wem/bandit_either_3","A1271V1YNO76YA","either","7","2782","","32","","","","","","","","","","","","","","","","","","","","","","","","","","","","","","","","","","","",""
"","text","46","271999","0.0-26.0","64638148","wem/bandit_either_3","A1271V1YNO76YA","either","7","2893","","32","","","","","","","","","","","","","","","","","","","","","","","","","","","","","","","","","","","",""
"","text","47","279473","0.0-27.0","64638148","wem/bandit_either_3","A1271V1YNO76YA","either","7","7464","","32","","","","","","","","","","","","","","","","","","","","","","","","","","","","","","","","","","","",""
"","text","48","284265","0.0-28.0","64638148","wem/bandit_either_3","A1271V1YNO76YA","either","7","4778","","32","","","","","","","","","","","","","","","","","","","","","","","","","","","","","","","","","","","",""
"","text","49","289486","0.0-29.0","64638148","wem/bandit_either_3","A1271V1YNO76YA","either","7","5212","","32","","","","","","","","","","","","","","","","","","","","","","","","","","","","","","","","","","","",""
"","text","50","292461","0.0-30.0","64638148","wem/bandit_either_3","A1271V1YNO76YA","either","7","2968","","32","","","","","","","","","","","","","","","","","","","","","","","","","","","","","","","","","","","",""
"","text","51","298812","0.0-31.0","64638148","wem/bandit_either_3","A1271V1YNO76YA","either","7","6347","","32","","","","","","","","","","","","","","","","","","","","","","","","","","","","","","","","","","","",""
"","text","52","300757","0.0-32.0","64638148","wem/bandit_either_3","A1271V1YNO76YA","either","7","1941","","32","","","","","","","","","","","","","","","","","","","","","","","","","","","","","","","","","","","",""
"","text","53","304399","0.0-33.0","64638148","wem/bandit_either_3","A1271V1YNO76YA","either","7","3638","","32","","","","","","","","","","","","","","","","","","","","","","","","","","","","","","","","","","","",""
"","bandit","54","306652","0.0-34.0-0.0","64638148","wem/bandit_either_3","A1271V1YNO76YA","either","7","703","","","","","","","0","1","0","","0.8","0.5","0.5","0.5","0.5","0.8","0.2","0.6","0.2","","","","","","","","","","","","72","H","0","img/none_selected.jpg","true","0","full_practice",""
"","bandit","55","311501","0.0-34.0-1.0","64638148","wem/bandit_either_3","A1271V1YNO76YA","either","7","3316","","","","","","","0","0","1","","0.2","0.5","0.5","0.5","0.5","0.8","0.2","0.6","0.2","","","","","","","","","","","","74","J","1","","true","0","full_practice",""
"","bandit","56","313771","0.0-34.0-2.0","64638148","wem/bandit_either_3","A1271V1YNO76YA","either","7","740","","","","","","","0","0","1","","0.6","0.5","0.5","0.5","0.5","0.8","0.2","0.6","0.2","","","","","","","","","","","","75","K","2","","true","0","full_practice",""
"","bandit","57","315858","0.0-34.0-3.0","64638148","wem/bandit_either_3","A1271V1YNO76YA","either","7","554","","","","","","","0","0","1","0.2","","0.5","0.5","0.5","0.5","","","","","0.8","0.2","0.6","0.2","","","","","","","","76","L","3","","true","0","full_practice",""
"","bandit","58","318081","0.0-34.0-4.0","64638148","wem/bandit_either_3","A1271V1YNO76YA","either","7","697","","","","","","","1","0","0","0.8","","0.5","0.5","0.5","0.5","","","","","0.8","0.2","0.6","0.2","","","","","","","","72","H","0","img/none_selected.jpg","true","0","full_practice",""
"","bandit","59","320691","0.0-34.0-5.0","64638148","wem/bandit_either_3","A1271V1YNO76YA","either","7","1076","","","","","","","1","0","0","0.2","","0.5","0.5","0.5","0.5","","","","","0.8","0.2","0.6","0.2","","","","","","","","74","J","1","","true","0","full_practice",""
"","bandit","60","322728","0.0-34.0-6.0","64638148","wem/bandit_either_3","A1271V1YNO76YA","either","7","505","","","","","","","0","1","0","","0.6","0.5","0.5","0.5","0.5","0.8","0.2","0.6","0.2","","","","","","","","","","","","75","K","2","","true","0","full_practice",""
"","bandit","61","324712","0.0-34.0-7.0","64638148","wem/bandit_either_3","A1271V1YNO76YA","either","7","448","","","","","","","1","0","0","0.2","","0.5","0.5","0.5","0.5","","","","","0.8","0.2","0.6","0.2","","","","","","","","76","L","3","","true","0","full_practice",""
"","bandit","62","327114","0.0-34.0-8.0","64638148","wem/bandit_either_3","A1271V1YNO76YA","either","7","861","","","","","","","0","1","0","","0.8","0.5","0.5","0.5","0.5","0.8","0.2","0.6","0.2","","","","","","","","","","","","72","H","0","img/none_selected.jpg","true","0","full_practice",""
"","bandit","63","329132","0.0-34.0-9.0","64638148","wem/bandit_either_3","A1271V1YNO76YA","either","7","491","","","","","","","0","0","1","","0.2","0.5","0.5","0.5","0.5","0.8","0.2","0.6","0.2","","","","","","","","","","","","74","J","1","","true","0","full_practice",""
"","bandit","64","331064","0.0-34.0-10.0","64638148","wem/bandit_either_3","A1271V1YNO76YA","either","7","398","","","","","","","0","1","0","","0.6","0.5","0.5","0.5","0.5","0.8","0.2","0.6","0.2","","","","","","","","","","","","75","K","2","","true","0","full_practice",""
"","bandit","65","333210","0.0-34.0-11.0","64638148","wem/bandit_either_3","A1271V1YNO76YA","either","7","588","","","","","","","0","0","1","","0.2","0.5","0.5","0.5","0.5","0.8","0.2","0.6","0.2","","","","","","","","","","","","76","L","3","","true","0","full_practice",""
"","bandit","66","335889","0.0-34.0-12.0","64638148","wem/bandit_either_3","A1271V1YNO76YA","either","7","1135","","","","","","","0","1","0","","0.6","0.5","0.5","0.5","0.5","0.8","0.2","0.6","0.2","","","","","","","","","","","","75","K","2","","true","0","full_practice",""
"","bandit","67","338247","0.0-34.0-13.0","64638148","wem/bandit_either_3","A1271V1YNO76YA","either","7","810","","","","","","","1","0","0","0.8","","0.5","0.5","0.5","0.5","","","","","0.8","0.2","0.6","0.2","","","","","","","","72","H","0","img/none_selected.jpg","true","0","full_practice",""
"","bandit","68","340719","0.0-34.0-14.0","64638148","wem/bandit_either_3","A1271V1YNO76YA","either","7","930","","","","","","","1","0","0","0.8","","0.5","0.5","0.5","0.5","","","","","0.8","0.2","0.6","0.2","","","","","","","","72","H","0","img/none_selected.jpg","true","0","full_practice",""
"","bandit","69","342982","0.0-34.0-15.0","64638148","wem/bandit_either_3","A1271V1YNO76YA","either","7","715","","","","","","","0","0","1","","0.2","0.5","0.5","0.5","0.5","0.8","0.2","0.6","0.2","","","","","","","","","","","","76","L","3","","true","0","full_practice",""
"","bandit","70","345950","0.0-34.0-16.0","64638148","wem/bandit_either_3","A1271V1YNO76YA","either","7","1412","","","","","","","0","1","0","","0.6","0.5","0.5","0.5","0.5","0.8","0.2","0.6","0.2","","","","","","","","","","","","75","K","2","","true","0","full_practice",""
"","bandit","71","347986","0.0-34.0-17.0","64638148","wem/bandit_either_3","A1271V1YNO76YA","either","7","475","","","","","","","1","0","0","0.6","","0.5","0.5","0.5","0.5","","","","","0.8","0.2","0.6","0.2","","","","","","","","75","K","2","","true","0","full_practice",""
"","bandit","72","350135","0.0-34.0-18.0","64638148","wem/bandit_either_3","A1271V1YNO76YA","either","7","603","","","","","","","0","0","1","0.6","","0.5","0.5","0.5","0.5","","","","","0.8","0.2","0.6","0.2","","","","","","","","75","K","2","","true","0","full_practice",""
"","bandit","73","351667","0.0-34.0-19.0","64638148","wem/bandit_either_3","A1271V1YNO76YA","either","7","4","","","","","","","1","0","0","0.8","","0.5","0.5","0.5","0.5","","","","","0.8","0.2","0.6","0.2","","","","","","","","72","H","0","img/none_selected.jpg","true","0","full_practice",""
"","text","74","354780","0.0-35.0","64638148","wem/bandit_either_3","A1271V1YNO76YA","either","7","3105","","32","","","","","","","","","","","","","","","","","","","","","","","","","","","","","","","","","","","",""
"","text","75","369049","0.0-36.0","64638148","wem/bandit_either_3","A1271V1YNO76YA","either","7","13250","","32","","","","","","","","","","","","","","","","","","","","","","","","","","","","","","","","","","","",""
"","text","76","381881","0.0-37.0","64638148","wem/bandit_either_3","A1271V1YNO76YA","either","7","12818","","32","","","","","","","","","","","","","","","","","","","","","","","","","","","","","","","","","","","",""
"","text","77","387592","0.0-38.0","64638148","wem/bandit_either_3","A1271V1YNO76YA","either","7","5696","","32","","","","","","","","","","","","","","","","","","","","","","","","","","","","","","","","","","","",""
"","text","78","394133","0.0-39.0","64638148","wem/bandit_either_3","A1271V1YNO76YA","either","7","6532","","32","","","","","","","","","","","","","","","","","","","","","","","","","","","","","","","","","","","",""
"","text","79","398580","0.0-40.0","64638148","wem/bandit_either_3","A1271V1YNO76YA","either","7","4439","","32","","","","","","","","","","","","","","","","","","","","","","","","","","","","","","","","","","","",""
"","bandit","80","402026","0.0-41.0-0.0","64638148","wem/bandit_either_3","A1271V1YNO76YA","either","7","1893","","","","","","","0","0","1","","0.1731741302","0.8","0.2","0.6","0.4","0.1731741302","0.7088318221","0.5514722813","0.2888626749","","","","","","","","","","","","72","H","0","img/none_selected.jpg","","1","main_expt",""
"","bandit","81","404053","0.0-42.0-0.0","64638148","wem/bandit_either_3","A1271V1YNO76YA","either","7","490","","","","","","","0","1","0","","0.6292935488","0.8","0.2","0.6","0.4","0.2874485847","0.6292935488","0.5039303977","0.3999538902","","","","","","","","","","","","74","J","1","","","2","main_expt",""
"","bandit","82","406152","0.0-43.0-0.0","64638148","wem/bandit_either_3","A1271V1YNO76YA","either","7","542","","","","","","","1","0","0","0.5527877924","","0.8","0.2","0.6","0.4","","","","","0.2683250969","0.5285482983","0.5527877924","0.4126831114","","","","","","","","75","K","2","","","3","main_expt",""
"","bandit","83","408077","0.0-44.0-0.0","64638148","wem/bandit_either_3","A1271V1YNO76YA","either","7","364","","","","","","","1","0","0","0.3923803367","","0.8","0.2","0.6","0.4","","","","","0.3988631097","0.6744491701","0.6336700584","0.3923803367","","","","","","","","76","L","3","","","4","main_expt",""
"","bandit","84","413257","0.0-45.0-0.0","64638148","wem/bandit_either_3","A1271V1YNO76YA","either","7","3631","","","","","","","0","0","1","0.7922285807","","0.8","0.2","0.6","0.4","","","","","0.3568799457","0.7922285807","0.6340088104","0.3803283439","","","","","","","","74","J","1","","","5","main_expt",""
"","bandit","85","415176","0.0-46.0-0.0","64638148","wem/bandit_either_3","A1271V1YNO76YA","either","7","368","","","","","","","0","0","1","0.5784181907","","0.8","0.2","0.6","0.4","","","","","0.3188731731","0.7459441126","0.5784181907","0.4214296899","","","","","","","","75","K","2","","","6","main_expt",""
"","bandit","86","417156","0.0-47.0-0.0","64638148","wem/bandit_either_3","A1271V1YNO76YA","either","7","430","","","","","","","0","1","0","","0.4755968838","0.8","0.2","0.6","0.4","0.4574196012","0.7681481668","0.6727083857","0.4755968838","","","","","","","","","","","","76","L","3","","","7","main_expt",""
"","bandit","87","419201","0.0-48.0-0.0","64638148","wem/bandit_either_3","A1271V1YNO76YA","either","7","488","","","","","","","1","0","0","0.5353568537","","0.8","0.2","0.6","0.4","","","","","0.5037884951","0.7251609313","0.7574508858","0.5353568537","","","","","","","","76","L","3","","","8","main_expt",""
"","bandit","88","421390","0.0-49.0-0.0","64638148","wem/bandit_either_3","A1271V1YNO76YA","either","7","629","","","","","","","0","0","1","0.6246831942","","0.8","0.2","0.6","0.4","","","","","0.5750013994","0.7403055102","0.8280759311","0.6246831942","","","","","","","","76","L","3","","","9","main_expt",""
"","bandit","89","423695","0.0-50.0-0.0","64638148","wem/bandit_either_3","A1271V1YNO76YA","either","7","764","","","","","","","1","0","0","0.5399040382","","0.8","0.2","0.6","0.4","","","","","0.5399040382","0.722944265","0.859726102","0.4475954046","","","","","","","","72","H","0","img/none_selected.jpg","","10","main_expt",""
"","bandit","90","425748","0.0-51.0-0.0","64638148","wem/bandit_either_3","A1271V1YNO76YA","either","7","526","","","","","","","0","0","1","0.5181098662","","0.8","0.2","0.6","0.4","","","","","0.5181098662","0.6833847698","0.877956501","0.4514702697","","","","","","","","72","H","0","img/none_selected.jpg","","11","main_expt",""
"","bandit","91","427971","0.0-52.0-0.0","64638148","wem/bandit_either_3","A1271V1YNO76YA","either","7","693","","","","","","","0","1","0","","0.689227163","0.8","0.2","0.6","0.4","0.5489165229","0.689227163","0.8883669707","0.4873058782","","","","","","","","","","","","74","J","1","","","12","main_expt",""
"","bandit","92","430061","0.0-53.0-0.0","64638148","wem/bandit_either_3","A1271V1YNO76YA","either","7","557","","","","","","","0","1","0","","0.5178623456","0.8","0.2","0.6","0.4","0.6186986429","0.5178623456","0.817149195","0.4862469224","","","","","","","","","","","","74","J","1","","","13","main_expt",""
"","bandit","93","432190","0.0-54.0-0.0","64638148","wem/bandit_either_3","A1271V1YNO76YA","either","7","587","","","","","","","0","1","0","","0.4768489018","0.8","0.2","0.6","0.4","0.4944095791","0.4768489018","0.8589139609","0.360908092","","","","","","","","","","","","74","J","1","","","14","main_expt",""
"","bandit","94","434135","0.0-55.0-0.0","64638148","wem/bandit_either_3","A1271V1YNO76YA","either","7","392","","","","","","","0","0","1","","0.5201849276","0.8","0.2","0.6","0.4","0.4820951366","0.5201849276","0.7955781648","0.4126647893","","","","","","","","","","","","74","J","1","","","15","main_expt",""
"","bandit","95","435736","0.0-56.0-0.0","64638148","wem/bandit_either_3","A1271V1YNO76YA","either","7","46","","","","","","","0","1","0","","0.8864445785","0.8","0.2","0.6","0.4","0.4888848296","0.6862231469","0.8864445785","0.4930686601","","","","","","","","","","","","75","K","2","","","16","main_expt",""
"","bandit","96","437817","0.0-57.0-0.0","64638148","wem/bandit_either_3","A1271V1YNO76YA","either","7","533","","","","","","","0","0","1","0.8746062981","","0.8","0.2","0.6","0.4","","","","","0.381306026","0.7297328357","0.8746062981","0.5162343008","","","","","","","","75","K","2","","","17","main_expt",""
"","bandit","97","439899","0.0-58.0-0.0","64638148","wem/bandit_either_3","A1271V1YNO76YA","either","7","529","","","","","","","0","0","1","","0.5627456494","0.8","0.2","0.6","0.4","0.3537135189","0.6686287009","0.8910236512","0.5627456494","","","","","","","","","","","","76","L","3","","","18","main_expt",""
"","bandit","98","442142","0.0-59.0-0.0","64638148","wem/bandit_either_3","A1271V1YNO76YA","either","7","704","","","","","","","0","1","0","","0.8932054573","0.8","0.2","0.6","0.4","0.4891458502","0.7885428456","0.8932054573","0.4478227807","","","","","","","","","","","","75","K","2","","","19","main_expt",""
"","bandit","99","445060","0.0-60.0-0.0","64638148","wem/bandit_either_3","A1271V1YNO76YA","either","7","1362","","","","","","","0","0","1","","0.5440957398","0.8","0.2","0.6","0.4","0.5440957398","0.7442236049","0.8900063933","0.5306796692","","","","","","","","","","","","72","H","0","img/none_selected.jpg","","20","main_expt",""
"","bandit","100","447056","0.0-61.0-0.0","64638148","wem/bandit_either_3","A1271V1YNO76YA","either","7","428","","","","","","","0","1","0","","0.7908218503","0.8","0.2","0.6","0.4","0.5621313733","0.7908218503","0.8748704397","0.5423611418","","","","","","","","","","","","74","J","1","","","21","main_expt",""
"","bandit","101","449077","0.0-62.0-0.0","64638148","wem/bandit_either_3","A1271V1YNO76YA","either","7","493","","","","","","","1","0","0","0.7163236006","","0.8","0.2","0.6","0.4","","","","","0.5296345876","0.7163236006","0.8498769136","0.4190568807","","","","","","","","74","J","1","","","22","main_expt",""
"","bandit","102","451026","0.0-63.0-0.0","64638148","wem/bandit_either_3","A1271V1YNO76YA","either","7","411","","","","","","","0","0","1","","0.7061190667","0.8","0.2","0.6","0.4","0.5187107172","0.7061190667","0.8357449374","0.4329937009","","","","","","","","","","","","74","J","1","","","23","main_expt",""
"","bandit","103","452685","0.0-64.0-0.0","64638148","wem/bandit_either_3","A1271V1YNO76YA","either","7","134","","","","","","","0","0","1","0.8431908073","","0.8","0.2","0.6","0.4","","","","","0.6000521927","0.7470556917","0.8431908073","0.4298879426","","","","","","","","75","K","2","","","24","main_expt",""
"","bandit","104","454694","0.0-65.0-0.0","64638148","wem/bandit_either_3","A1271V1YNO76YA","either","7","475","","","","","","","0","1","0","","0.2992323157","0.8","0.2","0.6","0.4","0.5443047256","0.8154180688","0.8741885854","0.2992323157","","","","","","","","","","","","76","L","3","","","25","main_expt",""
"","bandit","105","457073","0.0-66.0-0.0","64638148","wem/bandit_either_3","A1271V1YNO76YA","either","7","844","","","","","","","0","0","1","0.3857263224","","0.8","0.2","0.6","0.4","","","","","0.592493964","0.8395379789","0.8940719671","0.3857263224","","","","","","","","76","L","3","","","26","main_expt",""
"","bandit","106","459145","0.0-67.0-0.0","64638148","wem/bandit_either_3","A1271V1YNO76YA","either","7","524","","","","","","","0","1","0","","0.8023078409","0.8","0.2","0.6","0.4","0.5779569403","0.8023078409","0.8733378856","0.3715251318","","","","","","","","","","","","74","J","1","","","27","main_expt",""
"","bandit","107","461143","0.0-68.0-0.0","64638148","wem/bandit_either_3","A1271V1YNO76YA","either","7","446","","","","","","","0","1","0","","0.8248968235","0.8","0.2","0.6","0.4","0.7077223562","0.8248968235","0.8695586723","0.3387808014","","","","","","","","","","","","74","J","1","","","28","main_expt",""
"","bandit","108","463080","0.0-69.0-0.0","64638148","wem/bandit_either_3","A1271V1YNO76YA","either","7","390","","","","","","","0","1","0","","0.8621011303","0.8","0.2","0.6","0.4","0.7070353494","0.8621011303","0.7908290088","0.3737397218","","","","","","","","","","","","74","J","1","","","29","main_expt",""
"","bandit","109","465098","0.0-70.0-0.0","64638148","wem/bandit_either_3","A1271V1YNO76YA","either","7","487","","","","","","","0","1","0","","0.8873668535","0.8","0.2","0.6","0.4","0.6585428656","0.8873668535","0.8518997755","0.3232047389","","","","","","","","","","","","74","J","1","","","30","main_expt",""
"","bandit","110","467059","0.0-71.0-0.0","64638148","wem/bandit_either_3","A1271V1YNO76YA","either","7","388","","","","","","","1","0","0","0.9318975106","","0.8","0.2","0.6","0.4","","","","","0.6724088618","0.9318975106","0.8509842625","0.4130267239","","","","","","","","74","J","1","","","31","main_expt",""
"","bandit","111","468958","0.0-72.0-0.0","64638148","wem/bandit_either_3","A1271V1YNO76YA","either","7","347","","","","","","","0","1","0","","0.9013609786","0.8","0.2","0.6","0.4","0.6416581209","0.9013609786","0.872996121","0.4167758813","","","","","","","","","","","","74","J","1","","","32","main_expt",""
"","bandit","112","470842","0.0-73.0-0.0","64638148","wem/bandit_either_3","A1271V1YNO76YA","either","7","348","","","","","","","0","1","0","","0.9041531295","0.8","0.2","0.6","0.4","0.7055802426","0.9041531295","0.8571046391","0.4546052232","","","","","","","","","","","","74","J","1","","","33","main_expt",""
"","bandit","113","472678","0.0-74.0-0.0","64638148","wem/bandit_either_3","A1271V1YNO76YA","either","7","309","","","","","","","0","1","0","","0.9386104272","0.8","0.2","0.6","0.4","0.7554114371","0.9386104272","0.9175819521","0.5231803088","","","","","","","","","","","","74","J","1","","","34","main_expt",""
"","bandit","114","474833","0.0-75.0-0.0","64638148","wem/bandit_either_3","A1271V1YNO76YA","either","7","600","","","","","","","0","1","0","","0.9180645683","0.8","0.2","0.6","0.4","0.8008095759","0.9180645683","0.9503165686","0.4661188593","","","","","","","","","","","","74","J","1","","","35","main_expt",""
"","bandit","115","476761","0.0-76.0-0.0","64638148","wem/bandit_either_3","A1271V1YNO76YA","either","7","398","","","","","","","0","1","0","","0.9095107155","0.8","0.2","0.6","0.4","0.6925109639","0.9095107155","0.9327615424","0.4106027186","","","","","","","","","","","","74","J","1","","","36","main_expt",""
"","bandit","116","478759","0.0-77.0-0.0","64638148","wem/bandit_either_3","A1271V1YNO76YA","either","7","456","","","","","","","0","0","1","","0.9405648028","0.8","0.2","0.6","0.4","0.7764255689","0.9405648028","0.9196494001","0.5021263718","","","","","","","","","","","","74","J","1","","","37","main_expt",""
"","bandit","117","481079","0.0-78.0-0.0","64638148","wem/bandit_either_3","A1271V1YNO76YA","either","7","732","","","","","","","0","1","0","","0.928530414","0.8","0.2","0.6","0.4","0.8392953971","0.9058459248","0.928530414","0.5065313343","","","","","","","","","","","","75","K","2","","","38","main_expt",""
"","bandit","118","483341","0.0-79.0-0.0","64638148","wem/bandit_either_3","A1271V1YNO76YA","either","7","712","","","","","","","1","0","0","0.9001545702","","0.8","0.2","0.6","0.4","","","","","0.7614495855","0.8784462517","0.9001545702","0.6098243774","","","","","","","","75","K","2","","","39","main_expt",""
"","bandit","119","485569","0.0-80.0-0.0","64638148","wem/bandit_either_3","A1271V1YNO76YA","either","7","684","","","","","","","1","0","0","0.8432481254","","0.8","0.2","0.6","0.4","","","","","0.8060705796","0.8408568766","0.8432481254","0.679699592","","","","","","","","75","K","2","","","40","main_expt",""
"","bandit","120","487708","0.0-81.0-0.0","64638148","wem/bandit_either_3","A1271V1YNO76YA","either","7","602","","","","","","","0","1","0","","0.8326479564","0.8","0.2","0.6","0.4","0.7539991053","0.811342849","0.8326479564","0.616488607","","","","","","","","","","","","75","K","2","","","41","main_expt",""
"","bandit","121","489905","0.0-82.0-0.0","64638148","wem/bandit_either_3","A1271V1YNO76YA","either","7","658","","","","","","","0","1","0","","0.8602810298","0.8","0.2","0.6","0.4","0.7717369324","0.8058808774","0.8602810298","0.6307104111","","","","","","","","","","","","75","K","2","","","42","main_expt",""
"","bandit","122","491926","0.0-83.0-0.0","64638148","wem/bandit_either_3","A1271V1YNO76YA","either","7","463","","","","","","","0","1","0","","0.894365654","0.8","0.2","0.6","0.4","0.7625968551","0.7899844578","0.894365654","0.554567591","","","","","","","","","","","","75","K","2","","","43","main_expt",""
"","bandit","123","494050","0.0-84.0-0.0","64638148","wem/bandit_either_3","A1271V1YNO76YA","either","7","573","","","","","","","1","0","0","0.9033664713","","0.8","0.2","0.6","0.4","","","","","0.8488621298","0.7654486741","0.9033664713","0.5281861223","","","","","","","","75","K","2","","","44","main_expt",""
"","bandit","124","496108","0.0-85.0-0.0","64638148","wem/bandit_either_3","A1271V1YNO76YA","either","7","500","","","","","","","1","0","0","0.8829964613","","0.8","0.2","0.6","0.4","","","","","0.8522077325","0.7674111825","0.8829964613","0.5043334007","","","","","","","","75","K","2","","","45","main_expt",""
"","bandit","125","498035","0.0-86.0-0.0","64638148","wem/bandit_either_3","A1271V1YNO76YA","either","7","386","","","","","","","0","0","1","0.8674694879","","0.8","0.2","0.6","0.4","","","","","0.8618589195","0.6301273516","0.8674694879","0.5426256613","","","","","","","","75","K","2","","","46","main_expt",""
"","bandit","126","500363","0.0-87.0-0.0","64638148","wem/bandit_either_3","A1271V1YNO76YA","either","7","751","","","","","","","0","0","1","0.8886720039","","0.8","0.2","0.6","0.4","","","","","0.905897833","0.7885969413","0.8886720039","0.5024796093","","","","","","","","75","K","2","","","47","main_expt",""
"","bandit","127","502468","0.0-88.0-0.0","64638148","wem/bandit_either_3","A1271V1YNO76YA","either","7","561","","","","","","","1","0","0","0.9229902905","","0.8","0.2","0.6","0.4","","","","","0.8929468812","0.7983786211","0.9229902905","0.4689138593","","","","","","","","75","K","2","","","48","main_expt",""
"","bandit","128","504409","0.0-89.0-0.0","64638148","wem/bandit_either_3","A1271V1YNO76YA","either","7","408","","","","","","","0","1","0","","0.9141434128","0.8","0.2","0.6","0.4","0.854905512","0.8249867574","0.9141434128","0.4439560463","","","","","","","","","","","","75","K","2","","","49","main_expt",""
"","bandit","129","506363","0.0-90.0-0.0","64638148","wem/bandit_either_3","A1271V1YNO76YA","either","7","409","","","","","","","1","0","0","0.9181160336","","0.8","0.2","0.6","0.4","","","","","0.8363103738","0.7532301684","0.9181160336","0.4079842927","","","","","","","","75","K","2","","","50","main_expt",""
"","bandit","130","508260","0.0-91.0-0.0","64638148","wem/bandit_either_3","A1271V1YNO76YA","either","7","357","","","","","","","1","0","0","0.9266489825","","0.8","0.2","0.6","0.4","","","","","0.7168506975","0.6750909554","0.9266489825","0.4675199832","","","","","","","","75","K","2","","","51","main_expt",""
"","bandit","131","510148","0.0-92.0-0.0","64638148","wem/bandit_either_3","A1271V1YNO76YA","either","7","350","","","","","","","1","0","0","0.9285581488","","0.8","0.2","0.6","0.4","","","","","0.6507986152","0.6762079337","0.9285581488","0.4368052975","","","","","","","","75","K","2","","","52","main_expt",""
"","bandit","132","512277","0.0-93.0-0.0","64638148","wem/bandit_either_3","A1271V1YNO76YA","either","7","594","","","","","","","0","1","0","","0.9171724481","0.8","0.2","0.6","0.4","0.6531867096","0.7882030045","0.9171724481","0.4967902672","","","","","","","","","","","","75","K","2","","","53","main_expt",""
"","bandit","133","514374","0.0-94.0-0.0","64638148","wem/bandit_either_3","A1271V1YNO76YA","either","7","571","","","","","","","1","0","0","0.8709862684","","0.8","0.2","0.6","0.4","","","","","0.6178049746","0.8759533557","0.8709862684","0.5321533453","","","","","","","","75","K","2","","","54","main_expt",""
"","bandit","134","516734","0.0-95.0-0.0","64638148","wem/bandit_either_3","A1271V1YNO76YA","either","7","834","","","","","","","0","1","0","","0.9016108676","0.8","0.2","0.6","0.4","0.5501477499","0.9307112091","0.9016108676","0.593251847","","","","","","","","","","","","75","K","2","","","55","main_expt",""
"","bandit","135","519588","0.0-96.0-0.0","64638148","wem/bandit_either_3","A1271V1YNO76YA","either","7","1299","","","","","","","0","1","0","","0.9123335035","0.8","0.2","0.6","0.4","0.5181914202","0.9486344027","0.9123335035","0.602347159","","","","","","","","","","","","75","K","2","","","56","main_expt",""
"","bandit","136","522134","0.0-97.0-0.0","64638148","wem/bandit_either_3","A1271V1YNO76YA","either","7","1004","","","","","","","1","0","0","0.9338523698","","0.8","0.2","0.6","0.4","","","","","0.5052283364","0.9450559811","0.9338523698","0.736851976","","","","","","","","75","K","2","","","57","main_expt",""
"","bandit","137","524356","0.0-98.0-0.0","64638148","wem/bandit_either_3","A1271V1YNO76YA","either","7","657","","","","","","","0","1","0","","0.9023069914","0.8","0.2","0.6","0.4","0.4494585665","0.960587128","0.9023069914","0.7112026436","","","","","","","","","","","","75","K","2","","","58","main_expt",""
"","bandit","138","526495","0.0-99.0-0.0","64638148","wem/bandit_either_3","A1271V1YNO76YA","either","7","602","","","","","","","0","1","0","","0.903153386","0.8","0.2","0.6","0.4","0.4431029696","0.9272570312","0.903153386","0.7605469626","","","","","","","","","","","","75","K","2","","","59","main_expt",""
"","bandit","139","528525","0.0-100.0-0.0","64638148","wem/bandit_either_3","A1271V1YNO76YA","either","7","482","","","","","","","1","0","0","0.8975643475","","0.8","0.2","0.6","0.4","","","","","0.4213069188","0.9075075979","0.8975643475","0.6504737249","","","","","","","","75","K","2","","","60","main_expt",""
"","bandit","140","530583","0.0-101.0-0.0","64638148","wem/bandit_either_3","A1271V1YNO76YA","either","7","492","","","","","","","1","0","0","0.8455107238","","0.8","0.2","0.6","0.4","","","","","0.4735464544","0.9011961695","0.8455107238","0.7417300409","","","","","","","","75","K","2","","","61","main_expt",""
"","bandit","141","532456","0.0-102.0-0.0","64638148","wem/bandit_either_3","A1271V1YNO76YA","either","7","336","","","","","","","0","1","0","","0.8423106617","0.8","0.2","0.6","0.4","0.4260239588","0.9025442902","0.8423106617","0.6889655243","","","","","","","","","","","","75","K","2","","","62","main_expt",""
"","bandit","142","534340","0.0-103.0-0.0","64638148","wem/bandit_either_3","A1271V1YNO76YA","either","7","333","","","","","","","0","1","0","","0.6997676278","0.8","0.2","0.6","0.4","0.4048641732","0.900711875","0.6997676278","0.7532165261","","","","","","","","","","","","75","K","2","","","63","main_expt",""
"","bandit","143","536198","0.0-104.0-0.0","64638148","wem/bandit_either_3","A1271V1YNO76YA","either","7","325","","","","","","","0","1","0","","0.8033841581","0.8","0.2","0.6","0.4","0.261135461","0.8445511995","0.8033841581","0.7614619666","","","","","","","","","","","","75","K","2","","","64","main_expt",""
"","bandit","144","538081","0.0-105.0-0.0","64638148","wem/bandit_either_3","A1271V1YNO76YA","either","7","352","","","","","","","0","1","0","","0.8458775523","0.8","0.2","0.6","0.4","0.4398785507","0.7838665633","0.8458775523","0.7474824059","","","","","","","","","","","","75","K","2","","","65","main_expt",""
"","bandit","145","539957","0.0-106.0-0.0","64638148","wem/bandit_either_3","A1271V1YNO76YA","either","7","342","","","","","","","0","1","0","","0.8612648572","0.8","0.2","0.6","0.4","0.4549930047","0.8399866527","0.8612648572","0.7083026918","","","","","","","","","","","","75","K","2","","","66","main_expt",""
"","bandit","146","541795","0.0-107.0-0.0","64638148","wem/bandit_either_3","A1271V1YNO76YA","either","7","301","","","","","","","0","1","0","","0.8686018104","0.8","0.2","0.6","0.4","0.5565794079","0.9109535201","0.8686018104","0.6535093674","","","","","","","","","","","","75","K","2","","","67","main_expt",""
"","bandit","147","543623","0.0-108.0-0.0","64638148","wem/bandit_either_3","A1271V1YNO76YA","either","7","299","","","","","","","0","1","0","","0.8693437115","0.8","0.2","0.6","0.4","0.4211802827","0.9064065477","0.8693437115","0.4923739087","","","","","","","","","","","","75","K","2","","","68","main_expt",""
"","bandit","148","545462","0.0-109.0-0.0","64638148","wem/bandit_either_3","A1271V1YNO76YA","either","7","303","","","","","","","1","0","0","0.9168970181","","0.8","0.2","0.6","0.4","","","","","0.3687693293","0.9315833469","0.9168970181","0.4898097669","","","","","","","","75","K","2","","","69","main_expt",""
"","bandit","149","547341","0.0-110.0-0.0","64638148","wem/bandit_either_3","A1271V1YNO76YA","either","7","344","","","","","","","1","0","0","0.9293527272","","0.8","0.2","0.6","0.4","","","","","0.3460903474","0.9393923483","0.9293527272","0.4369614599","","","","","","","","75","K","2","","","70","main_expt",""
"","bandit","150","549154","0.0-111.0-0.0","64638148","wem/bandit_either_3","A1271V1YNO76YA","either","7","287","","","","","","","1","0","0","0.949087413","","0.8","0.2","0.6","0.4","","","","","0.3278112836","0.9568343035","0.949087413","0.5031037484","","","","","","","","75","K","2","","","71","main_expt",""
"","bandit","151","550965","0.0-112.0-0.0","64638148","wem/bandit_either_3","A1271V1YNO76YA","either","7","285","","","","","","","0","1","0","","0.906373323","0.8","0.2","0.6","0.4","0.2720469766","0.947758434","0.906373323","0.5397903688","","","","","","","","","","","","75","K","2","","","72","main_expt",""
"","bandit","152","553519","0.0-113.0-0.0","64638148","wem/bandit_either_3","A1271V1YNO76YA","either","7","1001","","","","","","","0","1","0","","0.93965919","0.8","0.2","0.6","0.4","0.2451019773","0.9052010222","0.93965919","0.5540652028","","","","","","","","","","","","75","K","2","","","73","main_expt",""
"","bandit","153","555720","0.0-114.0-0.0","64638148","wem/bandit_either_3","A1271V1YNO76YA","either","7","631","","","","","","","0","1","0","","0.9416319858","0.8","0.2","0.6","0.4","0.2645862521","0.927704936","0.9416319858","0.61733434","","","","","","","","","","","","75","K","2","","","74","main_expt",""
"","bandit","154","557566","0.0-115.0-0.0","64638148","wem/bandit_either_3","A1271V1YNO76YA","either","7","297","","","","","","","1","0","0","0.9535384208","","0.8","0.2","0.6","0.4","","","","","0.2298582","0.8769567517","0.9535384208","0.6341908543","","","","","","","","75","K","2","","","75","main_expt",""
"","bandit","155","559422","0.0-116.0-0.0","64638148","wem/bandit_either_3","A1271V1YNO76YA","either","7","322","","","","","","","0","1","0","","0.9585479729","0.8","0.2","0.6","0.4","0.3460043445","0.8456064169","0.9585479729","0.6355577018","","","","","","","","","","","","75","K","2","","","76","main_expt",""
"","bandit","156","561285","0.0-117.0-0.0","64638148","wem/bandit_either_3","A1271V1YNO76YA","either","7","331","","","","","","","1","0","0","0.9610253773","","0.8","0.2","0.6","0.4","","","","","0.2526488818","0.8325595713","0.9610253773","0.7055426269","","","","","","","","75","K","2","","","77","main_expt",""
"","bandit","157","563483","0.0-118.0-0.0","64638148","wem/bandit_either_3","A1271V1YNO76YA","either","7","646","","","","","","","0","1","0","","0.9580320452","0.8","0.2","0.6","0.4","0.2625396382","0.9128982172","0.9580320452","0.6137882531","","","","","","","","","","","","75","K","2","","","78","main_expt",""
"","bandit","158","565058","0.0-119.0-0.0","64638148","wem/bandit_either_3","A1271V1YNO76YA","either","7","21","","","","","","","0","1","0","","0.9403834825","0.8","0.2","0.6","0.4","0.2957535945","0.9213349282","0.9403834825","0.668392527","","","","","","","","","","","","75","K","2","","","79","main_expt",""
"","bandit","159","568679","0.0-120.0-0.0","64638148","wem/bandit_either_3","A1271V1YNO76YA","either","7","2081","","","","","","","1","0","0","0.946171157","","0.8","0.2","0.6","0.4","","","","","0.1831261498","0.8935563746","0.946171157","0.7457361895","","","","","","","","75","K","2","","","80","main_expt",""
"","bandit","160","571226","0.0-121.0-0.0","64638148","wem/bandit_either_3","A1271V1YNO76YA","either","7","997","","","","","","","1","0","0","0.9800092583","","0.8","0.2","0.6","0.4","","","","","0.1450659425","0.932831263","0.9800092583","0.8028050151","","","","","","","","75","K","2","","","81","main_expt",""
"","bandit","161","573049","0.0-122.0-0.0","64638148","wem/bandit_either_3","A1271V1YNO76YA","either","7","275","","","","","","","0","1","0","","0.9666397243","0.8","0.2","0.6","0.4","0.1486641529","0.9403650082","0.9666397243","0.8727424511","","","","","","","","","","","","75","K","2","","","82","main_expt",""
"","bandit","162","575670","0.0-123.0-0.0","64638148","wem/bandit_either_3","A1271V1YNO76YA","either","7","1070","","","","","","","1","0","0","0.9637330664","","0.8","0.2","0.6","0.4","","","","","0.1567811066","0.9066396881","0.9637330664","0.8283068274","","","","","","","","75","K","2","","","83","main_expt",""
"","bandit","163","579197","0.0-124.0-0.0","64638148","wem/bandit_either_3","A1271V1YNO76YA","either","7","1973","","","","","","","0","1","0","","0.9617949183","0.8","0.2","0.6","0.4","0.196091916","0.8962006295","0.9617949183","0.8030064341","","","","","","","","","","","","75","K","2","","","84","main_expt",""
"","bandit","164","581292","0.0-125.0-0.0","64638148","wem/bandit_either_3","A1271V1YNO76YA","either","7","544","","","","","","","1","0","0","0.9561985801","","0.8","0.2","0.6","0.4","","","","","0.1512390112","0.9093999993","0.9561985801","0.8622567251","","","","","","","","75","K","2","","","85","main_expt",""
"","bandit","165","583271","0.0-126.0-0.0","64638148","wem/bandit_either_3","A1271V1YNO76YA","either","7","427","","","","","","","0","1","0","","0.9422505668","0.8","0.2","0.6","0.4","0.1486491559","0.9326862648","0.9422505668","0.896584634","","","","","","","","","","","","75","K","2","","","86","main_expt",""
"","bandit","166","585910","0.0-127.0-0.0","64638148","wem/bandit_either_3","A1271V1YNO76YA","either","7","1104","","","","","","","1","0","0","0.926711091","","0.8","0.2","0.6","0.4","","","","","0.1047878604","0.9039434857","0.926711091","0.9208758521","","","","","","","","75","K","2","","","87","main_expt",""
"","bandit","167","588148","0.0-128.0-0.0","64638148","wem/bandit_either_3","A1271V1YNO76YA","either","7","712","","","","","","","1","0","0","0.9092576496","","0.8","0.2","0.6","0.4","","","","","0.07038149384","0.9195127861","0.9092576496","0.9266301883","","","","","","","","75","K","2","","","88","main_expt",""
"","bandit","168","591590","0.0-129.0-0.0","64638148","wem/bandit_either_3","A1271V1YNO76YA","either","7","1897","","","","","","","1","0","0","0.8948591238","","0.8","0.2","0.6","0.4","","","","","0.1311535074","0.9225053559","0.8948591238","0.9259215542","","","","","","","","75","K","2","","","89","main_expt",""
"","bandit","169","594465","0.0-130.0-0.0","64638148","wem/bandit_either_3","A1271V1YNO76YA","either","7","1341","","","","","","","0","0","1","","0.8716727139","0.8","0.2","0.6","0.4","0.1241310956","0.9014563988","0.8716727139","0.9400480964","","","","","","","","","","","","75","K","2","","","90","main_expt",""
"","bandit","170","597082","0.0-131.0-0.0","64638148","wem/bandit_either_3","A1271V1YNO76YA","either","7","1069","","","","","","","1","0","0","0.8969144331","","0.8","0.2","0.6","0.4","","","","","0.09664170694","0.9162570652","0.8969144331","0.8961855863","","","","","","","","75","K","2","","","91","main_expt",""
"","bandit","171","599171","0.0-132.0-0.0","64638148","wem/bandit_either_3","A1271V1YNO76YA","either","7","562","","","","","","","0","1","0","","0.9171199264","0.8","0.2","0.6","0.4","0.09586364307","0.9171553871","0.9171199264","0.9211437923","","","","","","","","","","","","75","K","2","","","92","main_expt",""
"","bandit","172","601153","0.0-133.0-0.0","64638148","wem/bandit_either_3","A1271V1YNO76YA","either","7","459","","","","","","","1","0","0","0.9593171332","","0.8","0.2","0.6","0.4","","","","","0.08304118766","0.9463284029","0.9593171332","0.8947860396","","","","","","","","75","K","2","","","93","main_expt",""
"","bandit","173","603235","0.0-134.0-0.0","64638148","wem/bandit_either_3","A1271V1YNO76YA","either","7","544","","","","","","","1","0","0","0.959226596","","0.8","0.2","0.6","0.4","","","","","0.1222865453","0.9477079066","0.959226596","0.822540961","","","","","","","","75","K","2","","","94","main_expt",""
"","bandit","174","605170","0.0-135.0-0.0","64638148","wem/bandit_either_3","A1271V1YNO76YA","either","7","377","","","","","","","0","1","0","","0.947105423","0.8","0.2","0.6","0.4","0.211460517","0.9474919074","0.947105423","0.8288041746","","","","","","","","","","","","75","K","2","","","95","main_expt",""
"","bandit","175","607303","0.0-136.0-0.0","64638148","wem/bandit_either_3","A1271V1YNO76YA","either","7","578","","","","","","","0","0","1","","0.937205139","0.8","0.2","0.6","0.4","0.2757920232","0.9722490369","0.937205139","0.8217366877","","","","","","","","","","","","75","K","2","","","96","main_expt",""
"","bandit","176","609342","0.0-137.0-0.0","64638148","wem/bandit_either_3","A1271V1YNO76YA","either","7","498","","","","","","","0","0","1","","0.9472767204","0.8","0.2","0.6","0.4","0.2646876298","0.980822097","0.9472767204","0.725285089","","","","","","","","","","","","75","K","2","","","97","main_expt",""
"","bandit","177","612376","0.0-138.0-0.0","64638148","wem/bandit_either_3","A1271V1YNO76YA","either","7","1480","","","","","","","0","1","0","","0.9761591307","0.8","0.2","0.6","0.4","0.3278454636","0.9761591307","0.962959595","0.7958966199","","","","","","","","","","","","74","J","1","","","98","main_expt",""
"","bandit","178","614583","0.0-139.0-0.0","64638148","wem/bandit_either_3","A1271V1YNO76YA","either","7","665","","","","","","","0","1","0","","0.9597391097","0.8","0.2","0.6","0.4","0.4641870332","0.9597391097","0.9720903607","0.7741840332","","","","","","","","","","","","74","J","1","","","99","main_expt",""
"","bandit","179","616698","0.0-140.0-0.0","64638148","wem/bandit_either_3","A1271V1YNO76YA","either","7","575","","","","","","","0","1","0","","0.9557148533","0.8","0.2","0.6","0.4","0.3972344865","0.9557148533","0.9737169538","0.7934767162","","","","","","","","","","","","74","J","1","","","100","main_expt",""
"","bandit","180","618714","0.0-141.0-0.0","64638148","wem/bandit_either_3","A1271V1YNO76YA","either","7","481","","","","","","","0","1","0","","0.9687934467","0.8","0.2","0.6","0.4","0.4395304924","0.9687934467","0.986468331","0.8307638242","","","","","","","","","","","","74","J","1","","","101","main_expt",""
"","bandit","181","620746","0.0-142.0-0.0","64638148","wem/bandit_either_3","A1271V1YNO76YA","either","7","499","","","","","","","0","1","0","","0.9713318577","0.8","0.2","0.6","0.4","0.5248298482","0.9713318577","0.9859557102","0.7737236933","","","","","","","","","","","","74","J","1","","","102","main_expt",""
"","bandit","182","622890","0.0-143.0-0.0","64638148","wem/bandit_either_3","A1271V1YNO76YA","either","7","612","","","","","","","0","1","0","","0.9768128314","0.8","0.2","0.6","0.4","0.6218364577","0.9768128314","0.9828698412","0.8168427084","","","","","","","","","","","","74","J","1","","","103","main_expt",""
"","bandit","183","625059","0.0-144.0-0.0","64638148","wem/bandit_either_3","A1271V1YNO76YA","either","7","627","","","","","","","0","1","0","","0.9566706727","0.8","0.2","0.6","0.4","0.5528563194","0.9566706727","0.9655029871","0.7020104164","","","","","","","","","","","","74","J","1","","","104","main_expt",""
"","bandit","184","627445","0.0-145.0-0.0","64638148","wem/bandit_either_3","A1271V1YNO76YA","either","7","837","","","","","","","1","0","0","0.9352711559","","0.8","0.2","0.6","0.4","","","","","0.515821512","0.9352711559","0.9587067199","0.6750414237","","","","","","","","74","J","1","","","105","main_expt",""
"","bandit","185","629025","0.0-146.0-0.0","64638148","wem/bandit_either_3","A1271V1YNO76YA","either","7","37","","","","","","","0","1","0","","0.8980036198","0.8","0.2","0.6","0.4","0.5380341879","0.8980036198","0.9358961366","0.5886413089","","","","","","","","","","","","74","J","1","","","106","main_expt",""
"","bandit","186","631123","0.0-147.0-0.0","64638148","wem/bandit_either_3","A1271V1YNO76YA","either","7","540","","","","","","","0","1","0","","0.9175797088","0.8","0.2","0.6","0.4","0.3291998873","0.9175797088","0.8829949032","0.5507707533","","","","","","","","","","","","74","J","1","","","107","main_expt",""
"","bandit","187","632990","0.0-148.0-0.0","64638148","wem/bandit_either_3","A1271V1YNO76YA","either","7","336","","","","","","","1","0","0","0.8966825343","","0.8","0.2","0.6","0.4","","","","","0.3608627265","0.8966825343","0.7668100276","0.4325904974","","","","","","","","74","J","1","","","108","main_expt",""
"","bandit","188","634897","0.0-149.0-0.0","64638148","wem/bandit_either_3","A1271V1YNO76YA","either","7","352","","","","","","","0","1","0","","0.8883819791","0.8","0.2","0.6","0.4","0.3837942066","0.8883819791","0.7652463225","0.3735159861","","","","","","","","","","","","74","J","1","","","109","main_expt",""
"","bandit","189","636867","0.0-150.0-0.0","64638148","wem/bandit_either_3","A1271V1YNO76YA","either","7","408","","","","","","","0","1","0","","0.9087011364","0.8","0.2","0.6","0.4","0.3019365294","0.9087011364","0.7974745759","0.3704440872","","","","","","","","","","","","74","J","1","","","110","main_expt",""
"","bandit","190","638759","0.0-151.0-0.0","64638148","wem/bandit_either_3","A1271V1YNO76YA","either","7","332","","","","","","","0","1","0","","0.9337026812","0.8","0.2","0.6","0.4","0.3483008865","0.9337026812","0.812352323","0.2749067499","","","","","","","","","","","","74","J","1","","","111","main_expt",""
"","bandit","191","640442","0.0-152.0-0.0","64638148","wem/bandit_either_3","A1271V1YNO76YA","either","7","154","","","","","","","0","1","0","","0.9113388615","0.8","0.2","0.6","0.4","0.4342302697","0.9113388615","0.7428975936","0.2734667401","","","","","","","","","","","","74","J","1","","","112","main_expt",""
"","bandit","192","642472","0.0-153.0-0.0","64638148","wem/bandit_either_3","A1271V1YNO76YA","either","7","485","","","","","","","0","1","0","","0.8980528729","0.8","0.2","0.6","0.4","0.5187246657","0.8980528729","0.7139653514","0.2291946885","","","","","","","","","","","","74","J","1","","","113","main_expt",""
"","bandit","193","644393","0.0-154.0-0.0","64638148","wem/bandit_either_3","A1271V1YNO76YA","either","7","362","","","","","","","0","1","0","","0.8036326458","0.8","0.2","0.6","0.4","0.5381742134","0.8036326458","0.7945657698","0.2413339081","","","","","","","","","","","","74","J","1","","","114","main_expt",""
"","bandit","194","646314","0.0-155.0-0.0","64638148","wem/bandit_either_3","A1271V1YNO76YA","either","7","355","","","","","","","0","1","0","","0.8700945717","0.8","0.2","0.6","0.4","0.4785029821","0.8700945717","0.8405588069","0.3092826039","","","","","","","","","","","","74","J","1","","","115","main_expt",""
"","bandit","195","649932","0.0-156.0-0.0","64638148","wem/bandit_either_3","A1271V1YNO76YA","either","7","2086","","","","","","","0","1","0","","0.8895114993","0.8","0.2","0.6","0.4","0.4654757386","0.8895114993","0.8641798474","0.2361366225","","","","","","","","","","","","74","J","1","","","116","main_expt",""
"","bandit","196","652396","0.0-157.0-0.0","64638148","wem/bandit_either_3","A1271V1YNO76YA","either","7","930","","","","","","","0","0","1","","0.8936856952","0.8","0.2","0.6","0.4","0.4578633225","0.8936856952","0.8756768431","0.218402711","","","","","","","","","","","","74","J","1","","","117","main_expt",""
"","bandit","197","654977","0.0-158.0-0.0","64638148","wem/bandit_either_3","A1271V1YNO76YA","either","7","1053","","","","","","","0","1","0","","0.4773941538","0.8","0.2","0.6","0.4","0.4773941538","0.8077127093","0.9015269718","0.2003641109","","","","","","","","","","","","72","H","0","img/none_selected.jpg","","118","main_expt",""
"","bandit","198","657014","0.0-159.0-0.0","64638148","wem/bandit_either_3","A1271V1YNO76YA","either","7","492","","","","","","","0","1","0","","0.508374463","0.8","0.2","0.6","0.4","0.508374463","0.8901108642","0.8709738884","0.1375137305","","","","","","","","","","","","72","H","0","img/none_selected.jpg","","119","main_expt",""
"","bandit","199","659158","0.0-160.0-0.0","64638148","wem/bandit_either_3","A1271V1YNO76YA","either","7","599","","","","","","","1","0","0","0.4294310012","","0.8","0.2","0.6","0.4","","","","","0.4294310012","0.8731124259","0.8268338002","0.08656631556","","","","","","","","72","H","0","img/none_selected.jpg","","120","main_expt",""
"","bandit","200","661356","0.0-161.0-0.0","64638148","wem/bandit_either_3","A1271V1YNO76YA","either","7","671","","","","","","","0","0","1","0.3933985885","","0.8","0.2","0.6","0.4","","","","","0.3933985885","0.8509174952","0.8432616236","0.07812634859","","","","","","","","72","H","0","img/none_selected.jpg","","121","main_expt",""
"","bandit","201","663391","0.0-162.0-0.0","64638148","wem/bandit_either_3","A1271V1YNO76YA","either","7","496","","","","","","","0","0","1","0.2641409089","","0.8","0.2","0.6","0.4","","","","","0.2641409089","0.8707856005","0.8128728295","0.09046411854","","","","","","","","72","H","0","img/none_selected.jpg","","122","main_expt",""
"","bandit","202","666018","0.0-163.0-0.0","64638148","wem/bandit_either_3","A1271V1YNO76YA","either","7","1085","","","","","","","0","1","0","","0.7592524618","0.8","0.2","0.6","0.4","0.2491349268","0.7592524618","0.752198112","0.1132512529","","","","","","","","","","","","74","J","1","","","123","main_expt",""
"","bandit","203","667954","0.0-164.0-0.0","64638148","wem/bandit_either_3","A1271V1YNO76YA","either","7","403","","","","","","","0","1","0","","0.7330206325","0.8","0.2","0.6","0.4","0.2587226179","0.7330206325","0.7117781612","0.09419269712","","","","","","","","","","","","74","J","1","","","124","main_expt",""
"","bandit","204","670011","0.0-165.0-0.0","64638148","wem/bandit_either_3","A1271V1YNO76YA","either","7","520","","","","","","","0","1","0","","0.6903693331","0.8","0.2","0.6","0.4","0.2925679814","0.6903693331","0.7177409252","0.110513045","","","","","","","","","","","","74","J","1","","","125","main_expt",""
"","bandit","205","671724","0.0-166.0-0.0","64638148","wem/bandit_either_3","A1271V1YNO76YA","either","7","185","","","","","","","0","1","0","","0.6370641568","0.8","0.2","0.6","0.4","0.3997536411","0.6370641568","0.7240917845","0.07088043536","","","","","","","","","","","","74","J","1","","","126","main_expt",""
"","bandit","206","674124","0.0-167.0-0.0","64638148","wem/bandit_either_3","A1271V1YNO76YA","either","7","848","","","","","","","0","1","0","","0.6192694325","0.8","0.2","0.6","0.4","0.4120812041","0.6192694325","0.6788578752","0.1041728595","","","","","","","","","","","","74","J","1","","","127","main_expt",""
"","bandit","207","676110","0.0-168.0-0.0","64638148","wem/bandit_either_3","A1271V1YNO76YA","either","7","413","","","","","","","0","1","0","","0.559348281","0.8","0.2","0.6","0.4","0.3731276689","0.559348281","0.6257789885","0.1006708935","","","","","","","","","","","","74","J","1","","","128","main_expt",""
"","bandit","208","678667","0.0-169.0-0.0","64638148","wem/bandit_either_3","A1271V1YNO76YA","either","7","1010","","","","","","","0","0","1","","0.610360397","0.8","0.2","0.6","0.4","0.3263017501","0.610360397","0.4761868647","0.1336488566","","","","","","","","","","","","74","J","1","","","129","main_expt",""
"","bandit","209","681446","0.0-170.0-0.0","64638148","wem/bandit_either_3","A1271V1YNO76YA","either","7","1239","","","","","","","1","0","0","0.5737783772","","0.8","0.2","0.6","0.4","","","","","0.3226142564","0.5737783772","0.4745188583","0.1271550391","","","","","","","","74","J","1","","","130","main_expt",""
"","bandit","210","684090","0.0-171.0-0.0","64638148","wem/bandit_either_3","A1271V1YNO76YA","either","7","1085","","","","","","","0","0","1","0.6252154127","","0.8","0.2","0.6","0.4","","","","","0.3907136596","0.6252154127","0.4674409752","0.1594360192","","","","","","","","74","J","1","","","131","main_expt",""
"","bandit","211","686516","0.0-172.0-0.0","64638148","wem/bandit_either_3","A1271V1YNO76YA","either","7","878","","","","","","","0","1","0","","0.6473056352","0.8","0.2","0.6","0.4","0.4983036492","0.6473056352","0.368649462","0.1027658661","","","","","","","","","","","","74","J","1","","","132","main_expt",""
"","bandit","212","689759","0.0-173.0-0.0","64638148","wem/bandit_either_3","A1271V1YNO76YA","either","7","1717","","","","","","","0","1","0","","0.4595123468","0.8","0.2","0.6","0.4","0.6347393695","0.4595123468","0.4313577514","0.1223548883","","","","","","","","","","","","74","J","1","","","133","main_expt",""
"","bandit","213","691364","0.0-174.0-0.0","64638148","wem/bandit_either_3","A1271V1YNO76YA","either","7","82","","","","","","","0","0","1","","0.3043385566","0.8","0.2","0.6","0.4","0.6037412299","0.3043385566","0.3692150919","0.1063029331","","","","","","","","","","","","74","J","1","","","134","main_expt",""
"","bandit","214","694150","0.0-175.0-0.0","64638148","wem/bandit_either_3","A1271V1YNO76YA","either","7","1240","","","","","","","0","0","1","","0.340857567","0.8","0.2","0.6","0.4","0.5511090861","0.340857567","0.3077662431","0.080644856","","","","","","","","","","","","74","J","1","","","135","main_expt",""
"","bandit","215","695848","0.0-176.0-0.0","64638148","wem/bandit_either_3","A1271V1YNO76YA","either","7","145","","","","","","","0","0","1","","0.314969588","0.8","0.2","0.6","0.4","0.585911414","0.2655810755","0.314969588","0.1359867045","","","","","","","","","","","","75","K","2","","","136","main_expt",""
"","bandit","216","697440","0.0-177.0-0.0","64638148","wem/bandit_either_3","A1271V1YNO76YA","either","7","38","","","","","","","0","0","1","","0.168344283","0.8","0.2","0.6","0.4","0.5805905743","0.3025530854","0.3590847215","0.168344283","","","","","","","","","","","","76","L","3","","","137","main_expt",""
"","bandit","217","699000","0.0-178.0-0.0","64638148","wem/bandit_either_3","A1271V1YNO76YA","either","7","0","","","","","","","1","0","0","0.3588584756","","0.8","0.2","0.6","0.4","","","","","0.6357737786","0.2888348812","0.3588584756","0.1867455324","","","","","","","","75","K","2","","","138","main_expt",""
"","bandit","218","700871","0.0-179.0-0.0","64638148","wem/bandit_either_3","A1271V1YNO76YA","either","7","319","","","","","","","0","0","1","0.4289761638","","0.8","0.2","0.6","0.4","","","","","0.66639317","0.2463208975","0.4289761638","0.2277874407","","","","","","","","75","K","2","","","139","main_expt",""
"","bandit","219","702604","0.0-180.0-0.0","64638148","wem/bandit_either_3","A1271V1YNO76YA","either","7","193","","","","","","","0","0","1","","0.273109751","0.8","0.2","0.6","0.4","0.6365789307","0.273109751","0.3801639999","0.2577820179","","","","","","","","","","","","74","J","1","","","140","main_expt",""
"","bandit","220","704478","0.0-181.0-0.0","64638148","wem/bandit_either_3","A1271V1YNO76YA","either","7","336","","","","","","","0","1","0","","0.6045632144","0.8","0.2","0.6","0.4","0.6045632144","0.3355442787","0.2445936549","0.3674069736","","","","","","","","","","","","72","H","0","img/none_selected.jpg","","141","main_expt",""
"","bandit","221","706758","0.0-182.0-0.0","64638148","wem/bandit_either_3","A1271V1YNO76YA","either","7","735","","","","","","","1","0","0","0.5148607161","","0.8","0.2","0.6","0.4","","","","","0.5148607161","0.2781999234","0.3394066497","0.4345417514","","","","","","","","72","H","0","img/none_selected.jpg","","142","main_expt",""
"","bandit","222","708522","0.0-183.0-0.0","64638148","wem/bandit_either_3","A1271V1YNO76YA","either","7","185","","","","","","","0","1","0","","0.4754154836","0.8","0.2","0.6","0.4","0.4754154836","0.2599467226","0.2899754881","0.3811672827","","","","","","","","","","","","72","H","0","img/none_selected.jpg","","143","main_expt",""
"","bandit","223","711146","0.0-184.0-0.0","64638148","wem/bandit_either_3","A1271V1YNO76YA","either","7","1076","","","","","","","0","0","1","","0.516029258","0.8","0.2","0.6","0.4","0.516029258","0.2353144144","0.3701332444","0.2754059391","","","","","","","","","","","","72","H","0","img/none_selected.jpg","","144","main_expt",""
"","bandit","224","714880","0.0-185.0-0.0","64638148","wem/bandit_either_3","A1271V1YNO76YA","either","7","2182","","","","","","","1","0","0","0.6646605279","","0.8","0.2","0.6","0.4","","","","","0.6646605279","0.2120114759","0.3322753171","0.2773400324","","","","","","","","72","H","0","img/none_selected.jpg","","145","main_expt",""
"","bandit","225","717297","0.0-186.0-0.0","64638148","wem/bandit_either_3","A1271V1YNO76YA","either","7","885","","","","","","","0","0","1","0.6331546467","","0.8","0.2","0.6","0.4","","","","","0.6331546467","0.176067728","0.3203507811","0.2780426824","","","","","","","","72","H","0","img/none_selected.jpg","","146","main_expt",""
"","bandit","226","720127","0.0-187.0-0.0","64638148","wem/bandit_either_3","A1271V1YNO76YA","either","7","1304","","","","","","","0","0","1","","0.1329453439","0.8","0.2","0.6","0.4","0.6356747602","0.1329453439","0.304761248","0.3373608721","","","","","","","","","","","","74","J","1","","","147","main_expt",""
"","bandit","227","722032","0.0-188.0-0.0","64638148","wem/bandit_either_3","A1271V1YNO76YA","either","7","379","","","","","","","1","0","0","0.3809280674","","0.8","0.2","0.6","0.4","","","","","0.6301772709","0.1465103875","0.3809280674","0.3529594122","","","","","","","","75","K","2","","","148","main_expt",""
"","bandit","228","724006","0.0-189.0-0.0","64638148","wem/bandit_either_3","A1271V1YNO76YA","either","7","409","","","","","","","0","0","1","0.3997986218","","0.8","0.2","0.6","0.4","","","","","0.6640591829","0.1190451538","0.3997986218","0.3878328211","","","","","","","","75","K","2","","","149","main_expt",""
"","bandit","229","726020","0.0-190.0-0.0","64638148","wem/bandit_either_3","A1271V1YNO76YA","either","7","444","","","","","","","0","1","0","","0.42943501","0.8","0.2","0.6","0.4","0.6592717552","0.1195570164","0.3159341416","0.42943501","","","","","","","","","","","","76","L","3","","","150","main_expt",""
"","bandit","230","728035","0.0-191.0-0.0","64638148","wem/bandit_either_3","A1271V1YNO76YA","either","7","465","","","","","","","0","0","1","","0.5142681232","0.8","0.2","0.6","0.4","0.5928743102","0.100492686","0.3052853957","0.5142681232","","","","","","","","","","","","76","L","3","","","151","main_expt",""
"","bandit","231","729587","0.0-192.0-0.0","64638148","wem/bandit_either_3","A1271V1YNO76YA","either","7","11","","","","","","","0","0","1","","0.1030367897","0.8","0.2","0.6","0.4","0.6822187145","0.1030367897","0.1896018403","0.6321073962","","","","","","","","","","","","74","J","1","","","152","main_expt",""
"","bandit","232","731807","0.0-193.0-0.0","64638148","wem/bandit_either_3","A1271V1YNO76YA","either","7","672","","","","","","","0","1","0","","0.6832005509","0.8","0.2","0.6","0.4","0.6832005509","0.2059045691","0.2439656658","0.6965670792","","","","","","","","","","","","72","H","0","img/none_selected.jpg","","153","main_expt",""
"","bandit","233","733751","0.0-194.0-0.0","64638148","wem/bandit_either_3","A1271V1YNO76YA","either","7","388","","","","","","","0","0","1","0.7109729062","","0.8","0.2","0.6","0.4","","","","","0.7109729062","0.2921647579","0.3068434149","0.6516005735","","","","","","","","72","H","0","img/none_selected.jpg","","154","main_expt",""
"","bandit","234","735707","0.0-195.0-0.0","64638148","wem/bandit_either_3","A1271V1YNO76YA","either","7","420","","","","","","","1","0","0","0.6975465092","","0.8","0.2","0.6","0.4","","","","","0.6975465092","0.1789694193","0.2314644909","0.7291318088","","","","","","","","72","H","0","img/none_selected.jpg","","155","main_expt",""
"","bandit","235","737566","0.0-196.0-0.0","64638148","wem/bandit_either_3","A1271V1YNO76YA","either","7","336","","","","","","","1","0","0","0.6580608271","","0.8","0.2","0.6","0.4","","","","","0.6580608271","0.2187195075","0.2154001061","0.6273572288","","","","","","","","72","H","0","img/none_selected.jpg","","156","main_expt",""
"","bandit","236","739439","0.0-197.0-0.0","64638148","wem/bandit_either_3","A1271V1YNO76YA","either","7","340","","","","","","","0","0","1","0.5695802138","","0.8","0.2","0.6","0.4","","","","","0.5695802138","0.2669834713","0.1648135251","0.566197257","","","","","","","","72","H","0","img/none_selected.jpg","","157","main_expt",""
"","bandit","237","741348","0.0-198.0-0.0","64638148","wem/bandit_either_3","A1271V1YNO76YA","either","7","373","","","","","","","0","0","1","","0.4733954301","0.8","0.2","0.6","0.4","0.4733954301","0.4240307821","0.2215973425","0.4523642269","","","","","","","","","","","","72","H","0","img/none_selected.jpg","","158","main_expt",""
"","bandit","238","743250","0.0-199.0-0.0","64638148","wem/bandit_either_3","A1271V1YNO76YA","either","7","365","","","","","","","1","0","0","0.5619817243","","0.8","0.2","0.6","0.4","","","","","0.5619817243","0.3840951437","0.2243274726","0.3991212054","","","","","","","","72","H","0","img/none_selected.jpg","","159","main_expt",""
"","bandit","239","745143","0.0-200.0-0.0","64638148","wem/bandit_either_3","A1271V1YNO76YA","either","7","365","","","","","","","1","0","0","0.4701658979","","0.8","0.2","0.6","0.4","","","","","0.4701658979","0.4098147986","0.2061161075","0.3566558104","","","","","","","","72","H","0","img/none_selected.jpg","","160","main_expt",""
"","bandit","240","746995","0.0-201.0-0.0","64638148","wem/bandit_either_3","A1271V1YNO76YA","either","7","309","","","","","","","0","0","1","0.5673671472","","0.8","0.2","0.6","0.4","","","","","0.5673671472","0.4027252302","0.209200141","0.4430908041","","","","","","","","72","H","0","img/none_selected.jpg","","161","main_expt",""
"","bandit","241","749741","0.0-202.0-0.0","64638148","wem/bandit_either_3","A1271V1YNO76YA","either","7","1214","","","","","","","0","0","1","","0.3824170733","0.8","0.2","0.6","0.4","0.4921809208","0.3824170733","0.1477343718","0.3966098285","","","","","","","","","","","","74","J","1","","","162","main_expt",""
"","bandit","242","751785","0.0-203.0-0.0","64638148","wem/bandit_either_3","A1271V1YNO76YA","either","7","523","","","","","","","0","1","0","","0.3352280924","0.8","0.2","0.6","0.4","0.4204505308","0.3352280924","0.1525050104","0.3455868331","","","","","","","","","","","","74","J","1","","","163","main_expt",""
"","bandit","243","753688","0.0-204.0-0.0","64638148","wem/bandit_either_3","A1271V1YNO76YA","either","7","369","","","","","","","0","0","1","","0.3379187571","0.8","0.2","0.6","0.4","0.534748173","0.3379187571","0.08831047354","0.3368969945","","","","","","","","","","","","74","J","1","","","164","main_expt",""
"","bandit","244","755543","0.0-205.0-0.0","64638148","wem/bandit_either_3","A1271V1YNO76YA","either","7","323","","","","","","","0","1","0","","0.3160546663","0.8","0.2","0.6","0.4","0.4724966102","0.3160546663","0.1035482763","0.3767562303","","","","","","","","","","","","74","J","1","","","165","main_expt",""
"","bandit","245","757418","0.0-206.0-0.0","64638148","wem/bandit_either_3","A1271V1YNO76YA","either","7","348","","","","","","","0","0","1","0.3058359067","","0.8","0.2","0.6","0.4","","","","","0.5280505203","0.3058359067","0.06888190676","0.4727650462","","","","","","","","74","J","1","","","166","main_expt",""
"","bandit","246","759593","0.0-207.0-0.0","64638148","wem/bandit_either_3","A1271V1YNO76YA","either","7","610","","","","","","","0","0","1","0.06051452263","","0.8","0.2","0.6","0.4","","","","","0.589670135","0.2561334246","0.06051452263","0.6140635231","","","","","","","","75","K","2","","","167","main_expt",""
"","bandit","247","761505","0.0-208.0-0.0","64638148","wem/bandit_either_3","A1271V1YNO76YA","either","7","352","","","","","","","0","0","1","0.07905307949","","0.8","0.2","0.6","0.4","","","","","0.5058201204","0.2459084815","0.07905307949","0.5629225295","","","","","","","","75","K","2","","","168","main_expt",""
"","bandit","248","763519","0.0-209.0-0.0","64638148","wem/bandit_either_3","A1271V1YNO76YA","either","7","480","","","","","","","0","0","1","0.07051596905","","0.8","0.2","0.6","0.4","","","","","0.4102709571","0.2138460752","0.07051596905","0.6456076899","","","","","","","","75","K","2","","","169","main_expt",""
"","bandit","249","765656","0.0-210.0-0.0","64638148","wem/bandit_either_3","A1271V1YNO76YA","either","7","577","","","","","","","0","1","0","","0.719827795","0.8","0.2","0.6","0.4","0.5061826445","0.1642406351","0.1056762318","0.719827795","","","","","","","","","","","","76","L","3","","","170","main_expt",""
"","bandit","250","767544","0.0-211.0-0.0","64638148","wem/bandit_either_3","A1271V1YNO76YA","either","7","313","","","","","","","0","1","0","","0.6716280274","0.8","0.2","0.6","0.4","0.6092158501","0.2337150112","0.1513980822","0.6716280274","","","","","","","","","","","","76","L","3","","","171","main_expt",""
"","bandit","251","769486","0.0-212.0-0.0","64638148","wem/bandit_either_3","A1271V1YNO76YA","either","7","356","","","","","","","0","1","0","","0.5683226388","0.8","0.2","0.6","0.4","0.691496366","0.3128682212","0.1552293495","0.5683226388","","","","","","","","","","","","76","L","3","","","172","main_expt",""
"","bandit","252","771380","0.0-213.0-0.0","64638148","wem/bandit_either_3","A1271V1YNO76YA","either","7","321","","","","","","","0","0","1","0.4581357746","","0.8","0.2","0.6","0.4","","","","","0.7402253768","0.2775517843","0.1325975083","0.4581357746","","","","","","","","76","L","3","","","173","main_expt",""
"","bandit","253","773964","0.0-214.0-0.0","64638148","wem/bandit_either_3","A1271V1YNO76YA","either","7","1040","","","","","","","0","1","0","","0.5903479164","0.8","0.2","0.6","0.4","0.6601004511","0.4159305855","0.09024892351","0.5903479164","","","","","","","","","","","","76","L","3","","","174","main_expt",""
"","bandit","254","776259","0.0-215.0-0.0","64638148","wem/bandit_either_3","A1271V1YNO76YA","either","7","745","","","","","","","0","0","1","","0.5658285383","0.8","0.2","0.6","0.4","0.6781732273","0.4471770837","0.06963745108","0.5658285383","","","","","","","","","","","","76","L","3","","","175","main_expt",""
"","bandit","255","778119","0.0-216.0-0.0","64638148","wem/bandit_either_3","A1271V1YNO76YA","either","7","331","","","","","","","0","0","1","","0.5313506173","0.8","0.2","0.6","0.4","0.6932650799","0.5162211083","0.07897043431","0.5313506173","","","","","","","","","","","","76","L","3","","","176","main_expt",""
"","bandit","256","780033","0.0-217.0-0.0","64638148","wem/bandit_either_3","A1271V1YNO76YA","either","7","370","","","","","","","0","0","1","","0.4231289234","0.8","0.2","0.6","0.4","0.6803850572","0.6372676231","0.09469685393","0.4231289234","","","","","","","","","","","","76","L","3","","","177","main_expt",""
"","bandit","257","781873","0.0-218.0-0.0","64638148","wem/bandit_either_3","A1271V1YNO76YA","either","7","246","","","","","","","0","0","1","","0.6295749113","0.8","0.2","0.6","0.4","0.5407017663","0.6295749113","0.1486386852","0.580807006","","","","","","","","","","","","74","J","1","","","178","main_expt",""
"","bandit","258","783774","0.0-219.0-0.0","64638148","wem/bandit_either_3","A1271V1YNO76YA","either","7","354","","","","","","","0","0","1","","0.1965095934","0.8","0.2","0.6","0.4","0.5931576708","0.4126066341","0.1965095934","0.5499948007","","","","","","","","","","","","75","K","2","","","179","main_expt",""
"","bandit","259","785772","0.0-220.0-0.0","64638148","wem/bandit_either_3","A1271V1YNO76YA","either","7","461","","","","","","","1","0","0","0.5390819372","","0.8","0.2","0.6","0.4","","","","","0.5390819372","0.516991344","0.1749048096","0.4918200669","","","","","","","","72","H","0","img/none_selected.jpg","","180","main_expt",""
"","bandit","260","787835","0.0-221.0-0.0","64638148","wem/bandit_either_3","A1271V1YNO76YA","either","7","519","","","","","","","0","0","1","0.4929910299","","0.8","0.2","0.6","0.4","","","","","0.4929910299","0.4239603033","0.232896561","0.5428702931","","","","","","","","72","H","0","img/none_selected.jpg","","181","main_expt",""
"","bandit","261","790408","0.0-222.0-0.0","64638148","wem/bandit_either_3","A1271V1YNO76YA","either","7","1031","","","","","","","0","0","1","0.458433212","","0.8","0.2","0.6","0.4","","","","","0.458433212","0.3961891141","0.2561822725","0.5870547156","","","","","","","","72","H","0","img/none_selected.jpg","","182","main_expt",""
"","bandit","262","791987","0.0-223.0-0.0","64638148","wem/bandit_either_3","A1271V1YNO76YA","either","7","43","","","","","","","0","1","0","","0.5725449786","0.8","0.2","0.6","0.4","0.5725449786","0.4364601233","0.2713883962","0.5031908535","","","","","","","","","","","","72","H","0","img/none_selected.jpg","","183","main_expt",""
"","bandit","263","793985","0.0-224.0-0.0","64638148","wem/bandit_either_3","A1271V1YNO76YA","either","7","472","","","","","","","0","0","1","","0.4878383732","0.8","0.2","0.6","0.4","0.4878383732","0.4826964198","0.3543557679","0.4239978994","","","","","","","","","","","","72","H","0","img/none_selected.jpg","","184","main_expt",""
"","bandit","264","796664","0.0-225.0-0.0","64638148","wem/bandit_either_3","A1271V1YNO76YA","either","7","1145","","","","","","","0","0","1","0.5189350158","","0.8","0.2","0.6","0.4","","","","","0.5189350158","0.4448789548","0.2974533566","0.3425545299","","","","","","","","72","H","0","img/none_selected.jpg","","185","main_expt",""
"","bandit","265","798930","0.0-226.0-0.0","64638148","wem/bandit_either_3","A1271V1YNO76YA","either","7","717","","","","","","","1","0","0","0.4310300585","","0.8","0.2","0.6","0.4","","","","","0.4310300585","0.4585835861","0.3295130888","0.2594221554","","","","","","","","72","H","0","img/none_selected.jpg","","186","main_expt",""
"","bandit","266","801306","0.0-227.0-0.0","64638148","wem/bandit_either_3","A1271V1YNO76YA","either","7","833","","","","","","","0","1","0","","0.4005994516","0.8","0.2","0.6","0.4","0.4005994516","0.5470412386","0.3440574025","0.350747246","","","","","","","","","","","","72","H","0","img/none_selected.jpg","","187","main_expt",""
"","bandit","267","803422","0.0-228.0-0.0","64638148","wem/bandit_either_3","A1271V1YNO76YA","either","7","575","","","","","","","0","0","1","0.5684333967","","0.8","0.2","0.6","0.4","","","","","0.5684333967","0.5485419855","0.3176863717","0.3667816541","","","","","","","","72","H","0","img/none_selected.jpg","","188","main_expt",""
"","bandit","268","806712","0.0-229.0-0.0","64638148","wem/bandit_either_3","A1271V1YNO76YA","either","7","1745","","","","","","","1","0","0","0.5768443477","","0.8","0.2","0.6","0.4","","","","","0.5768443477","0.6161015427","0.3194332301","0.3129240978","","","","","","","","72","H","0","img/none_selected.jpg","","189","main_expt",""
"","bandit","269","808731","0.0-230.0-0.0","64638148","wem/bandit_either_3","A1271V1YNO76YA","either","7","481","","","","","","","0","0","1","0.6091254975","","0.8","0.2","0.6","0.4","","","","","0.6091254975","0.5145576236","0.3585260795","0.3681084497","","","","","","","","72","H","0","img/none_selected.jpg","","190","main_expt",""
"","bandit","270","810295","0.0-231.0-0.0","64638148","wem/bandit_either_3","A1271V1YNO76YA","either","7","30","","","","","","","0","0","1","0.6355225437","","0.8","0.2","0.6","0.4","","","","","0.6355225437","0.4447609651","0.4438822556","0.3284994938","","","","","","","","72","H","0","img/none_selected.jpg","","191","main_expt",""
"","bandit","271","812572","0.0-232.0-0.0","64638148","wem/bandit_either_3","A1271V1YNO76YA","either","7","738","","","","","","","0","0","1","","0.7449996868","0.8","0.2","0.6","0.4","0.7449996868","0.4273979598","0.6336907385","0.2913335268","","","","","","","","","","","","72","H","0","img/none_selected.jpg","","192","main_expt",""
"","bandit","272","814704","0.0-233.0-0.0","64638148","wem/bandit_either_3","A1271V1YNO76YA","either","7","588","","","","","","","0","0","1","","0.5871300795","0.8","0.2","0.6","0.4","0.7645281636","0.4382354048","0.5871300795","0.3614904019","","","","","","","","","","","","75","K","2","","","193","main_expt",""
"","bandit","273","816372","0.0-234.0-0.0","64638148","wem/bandit_either_3","A1271V1YNO76YA","either","7","94","","","","","","","0","0","1","","0.4367950698","0.8","0.2","0.6","0.4","0.7417458559","0.4367950698","0.5919999684","0.4180963095","","","","","","","","","","","","74","J","1","","","194","main_expt",""
"","bandit","274","819220","0.0-235.0-0.0","64638148","wem/bandit_either_3","A1271V1YNO76YA","either","7","1314","","","","","","","0","0","1","","0.4129416526","0.8","0.2","0.6","0.4","0.7102393491","0.4306922929","0.5599221581","0.4129416526","","","","","","","","","","","","76","L","3","","","195","main_expt",""
"","bandit","275","821513","0.0-236.0-0.0","64638148","wem/bandit_either_3","A1271V1YNO76YA","either","7","733","","","","","","","1","0","0","0.6846894693","","0.8","0.2","0.6","0.4","","","","","0.6846894693","0.4436260943","0.4552797342","0.6027995291","","","","","","","","72","H","0","img/none_selected.jpg","","196","main_expt",""
"","bandit","276","825201","0.0-237.0-0.0","64638148","wem/bandit_either_3","A1271V1YNO76YA","either","7","2119","","","","","","","1","0","0","0.6573901597","","0.8","0.2","0.6","0.4","","","","","0.6573901597","0.4547077395","0.3045440077","0.6174547511","","","","","","","","72","H","0","img/none_selected.jpg","","197","main_expt",""
"","bandit","277","829124","0.0-238.0-0.0","64638148","wem/bandit_either_3","A1271V1YNO76YA","either","7","2353","","","","","","","0","0","1","0.7020762336","","0.8","0.2","0.6","0.4","","","","","0.7020762336","0.545148617","0.4061180554","0.5727893511","","","","","","","","72","H","0","img/none_selected.jpg","","198","main_expt",""
"","bandit","278","831557","0.0-239.0-0.0","64638148","wem/bandit_either_3","A1271V1YNO76YA","either","7","883","","","","","","","1","0","0","0.7749867965","","0.8","0.2","0.6","0.4","","","","","0.7749867965","0.5838562778","0.3406873398","0.5803616598","","","","","","","","72","H","0","img/none_selected.jpg","","199","main_expt",""
"","bandit","279","833420","0.0-240.0-0.0","64638148","wem/bandit_either_3","A1271V1YNO76YA","either","7","321","","","","","","","1","0","0","0.7971262248","","0.8","0.2","0.6","0.4","","","","","0.7971262248","0.6569131065","0.2810551981","0.5109940584","","","","","","","","72","H","0","img/none_selected.jpg","","200","main_expt",""
"","bandit","280","835556","0.0-241.0-0.0","64638148","wem/bandit_either_3","A1271V1YNO76YA","either","7","596","","","","","","","0","0","1","0.6431063495","","0.8","0.2","0.6","0.4","","","","","0.6431063495","0.6559739125","0.2295892347","0.444158281","","","","","","","","72","H","0","img/none_selected.jpg","","201","main_expt",""
"","bandit","281","838707","0.0-242.0-0.0","64638148","wem/bandit_either_3","A1271V1YNO76YA","either","7","1606","","","","","","","0","0","1","0.6153479028","","0.8","0.2","0.6","0.4","","","","","0.6153479028","0.5940698896","0.2134833186","0.3774362348","","","","","","","","72","H","0","img/none_selected.jpg","","202","main_expt",""
"","bandit","282","840988","0.0-243.0-0.0","64638148","wem/bandit_either_3","A1271V1YNO76YA","either","7","717","","","","","","","1","0","0","0.6107921693","","0.8","0.2","0.6","0.4","","","","","0.6107921693","0.6288005559","0.1538434825","0.2852638898","","","","","","","","72","H","0","img/none_selected.jpg","","203","main_expt",""
"","bandit","283","844540","0.0-244.0-0.0","64638148","wem/bandit_either_3","A1271V1YNO76YA","either","7","2000","","","","","","","0","0","1","0.6364312764","","0.8","0.2","0.6","0.4","","","","","0.6364312764","0.7483345684","0.08629221539","0.3900316507","","","","","","","","72","H","0","img/none_selected.jpg","","204","main_expt",""
"","bandit","284","849325","0.0-245.0-0.0","64638148","wem/bandit_either_3","A1271V1YNO76YA","either","7","3238","","","","","","","1","0","0","0.7823609999","","0.8","0.2","0.6","0.4","","","","","0.7098325313","0.7823609999","0.1303029892","0.3334674042","","","","","","","","74","J","1","","","205","main_expt",""
"","bandit","285","852190","0.0-246.0-0.0","64638148","wem/bandit_either_3","A1271V1YNO76YA","either","7","1301","","","","","","","0","0","1","","0.7053347691","0.8","0.2","0.6","0.4","0.6423198407","0.7053347691","0.1290793888","0.3997779834","","","","","","","","","","","","74","J","1","","","206","main_expt",""
"","bandit","286","854753","0.0-247.0-0.0","64638148","wem/bandit_either_3","A1271V1YNO76YA","either","7","1011","","","","","","","0","1","0","","0.692958529","0.8","0.2","0.6","0.4","0.7196337679","0.692958529","0.1471003053","0.2791746034","","","","","","","","","","","","74","J","1","","","207","main_expt",""
"","bandit","287","856784","0.0-248.0-0.0","64638148","wem/bandit_either_3","A1271V1YNO76YA","either","7","495","","","","","","","0","0","1","","0.5726600787","0.8","0.2","0.6","0.4","0.7273253538","0.5726600787","0.1204476287","0.3447420344","","","","","","","","","","","","74","J","1","","","208","main_expt",""
"","bandit","288","859722","0.0-249.0-0.0","64638148","wem/bandit_either_3","A1271V1YNO76YA","either","7","1373","","","","","","","0","0","1","0.1752658923","","0.8","0.2","0.6","0.4","","","","","0.7701678217","0.7193759884","0.1752658923","0.2106944101","","","","","","","","75","K","2","","","209","main_expt",""
"","bandit","289","864131","0.0-250.0-0.0","64638148","wem/bandit_either_3","A1271V1YNO76YA","either","7","2860","","","","","","","0","1","0","","0.2609791638","0.8","0.2","0.6","0.4","0.7673062315","0.5469619257","0.2071456167","0.2609791638","","","","","","","","","","","","76","L","3","","","210","main_expt",""
"","bandit","290","867196","0.0-251.0-0.0","64638148","wem/bandit_either_3","A1271V1YNO76YA","either","7","1509","","","","","","","0","0","1","","0.3702243554","0.8","0.2","0.6","0.4","0.7733207599","0.5432746348","0.1982577311","0.3702243554","","","","","","","","","","","","76","L","3","","","211","main_expt",""
"","bandit","291","869269","0.0-252.0-0.0","64638148","wem/bandit_either_3","A1271V1YNO76YA","either","7","522","","","","","","","0","0","1","","0.4070014152","0.8","0.2","0.6","0.4","0.7176010575","0.4857525371","0.2837026457","0.4070014152","","","","","","","","","","","","76","L","3","","","212","main_expt",""
"","bandit","292","871897","0.0-253.0-0.0","64638148","wem/bandit_either_3","A1271V1YNO76YA","either","7","1096","","","","","","","0","1","0","","0.5001351259","0.8","0.2","0.6","0.4","0.7241732444","0.4416723402","0.2192955177","0.5001351259","","","","","","","","","","","","76","L","3","","","213","main_expt",""
"","bandit","293","878214","0.0-254.0-0.0","64638148","wem/bandit_either_3","A1271V1YNO76YA","either","7","4775","","","","","","","0","0","1","0.5667049056","","0.8","0.2","0.6","0.4","","","","","0.6696022014","0.4231083207","0.2885853396","0.5667049056","","","","","","","","76","L","3","","","214","main_expt",""
"","bandit","294","884323","0.0-255.0-0.0","64638148","wem/bandit_either_3","A1271V1YNO76YA","either","7","4571","","","","","","","0","0","1","","0.5259574602","0.8","0.2","0.6","0.4","0.6255990046","0.329019478","0.2451296471","0.5259574602","","","","","","","","","","","","76","L","3","","","215","main_expt",""
"","bandit","295","887252","0.0-256.0-0.0","64638148","wem/bandit_either_3","A1271V1YNO76YA","either","7","1376","","","","","","","0","1","0","","0.5468860011","0.8","0.2","0.6","0.4","0.6771362935","0.3469743373","0.1946790852","0.5468860011","","","","","","","","","","","","76","L","3","","","216","main_expt",""
"","bandit","296","889901","0.0-257.0-0.0","64638148","wem/bandit_either_3","A1271V1YNO76YA","either","7","1097","","","","","","","0","1","0","","0.6182745027","0.8","0.2","0.6","0.4","0.6918953154","0.3618740044","0.2497229096","0.6182745027","","","","","","","","","","","","76","L","3","","","217","main_expt",""
"","bandit","297","896828","0.0-258.0-0.0","64638148","wem/bandit_either_3","A1271V1YNO76YA","either","7","5368","","","","","","","0","1","0","","0.5979125128","0.8","0.2","0.6","0.4","0.5726390237","0.3574217595","0.3076421025","0.5979125128","","","","","","","","","","","","76","L","3","","","218","main_expt",""
"","bandit","298","899020","0.0-259.0-0.0","64638148","wem/bandit_either_3","A1271V1YNO76YA","either","7","645","","","","","","","0","0","1","0.5321687475","","0.8","0.2","0.6","0.4","","","","","0.5179196303","0.3862686792","0.3488941347","0.5321687475","","","","","","","","76","L","3","","","219","main_expt",""
"","bandit","299","901272","0.0-260.0-0.0","64638148","wem/bandit_either_3","A1271V1YNO76YA","either","7","696","","","","","","","1","0","0","0.5578222379","","0.8","0.2","0.6","0.4","","","","","0.5578222379","0.4432846828","0.306784001","0.6053830099","","","","","","","","72","H","0","img/none_selected.jpg","","220","main_expt",""
"","bandit","300","905026","0.0-261.0-0.0","64638148","wem/bandit_either_3","A1271V1YNO76YA","either","7","2216","","","","","","","1","0","0","0.6640911266","","0.8","0.2","0.6","0.4","","","","","0.6640911266","0.432499938","0.3786925452","0.69383498","","","","","","","","72","H","0","img/none_selected.jpg","","221","main_expt",""
"","bandit","301","907704","0.0-262.0-0.0","64638148","wem/bandit_either_3","A1271V1YNO76YA","either","7","1142","","","","","","","0","0","1","0.7340686256","","0.8","0.2","0.6","0.4","","","","","0.7340686256","0.4050903391","0.5014801557","0.783375317","","","","","","","","72","H","0","img/none_selected.jpg","","222","main_expt",""
"","bandit","302","910260","0.0-263.0-0.0","64638148","wem/bandit_either_3","A1271V1YNO76YA","either","7","1009","","","","","","","1","0","0","0.852862777","","0.8","0.2","0.6","0.4","","","","","0.852862777","0.3282593462","0.4081704387","0.8374489269","","","","","","","","72","H","0","img/none_selected.jpg","","223","main_expt",""
"","bandit","303","912577","0.0-264.0-0.0","64638148","wem/bandit_either_3","A1271V1YNO76YA","either","7","788","","","","","","","1","0","0","0.7830506485","","0.8","0.2","0.6","0.4","","","","","0.7830506485","0.2465370002","0.422296693","0.7801262993","","","","","","","","72","H","0","img/none_selected.jpg","","224","main_expt",""
"","bandit","304","915039","0.0-265.0-0.0","64638148","wem/bandit_either_3","A1271V1YNO76YA","either","7","912","","","","","","","1","0","0","0.7447555501","","0.8","0.2","0.6","0.4","","","","","0.7447555501","0.2260872052","0.3998144739","0.7438235551","","","","","","","","72","H","0","img/none_selected.jpg","","225","main_expt",""
"","bandit","305","917494","0.0-266.0-0.0","64638148","wem/bandit_either_3","A1271V1YNO76YA","either","7","885","","","","","","","0","0","1","0.7331719472","","0.8","0.2","0.6","0.4","","","","","0.7331719472","0.2573895518","0.2692780115","0.7561714458","","","","","","","","72","H","0","img/none_selected.jpg","","226","main_expt",""
"","bandit","306","920261","0.0-267.0-0.0","64638148","wem/bandit_either_3","A1271V1YNO76YA","either","7","1199","","","","","","","1","0","0","0.7527106072","","0.8","0.2","0.6","0.4","","","","","0.6417259928","0.2134597582","0.268728261","0.7527106072","","","","","","","","76","L","3","","","227","main_expt",""
"","bandit","307","922325","0.0-268.0-0.0","64638148","wem/bandit_either_3","A1271V1YNO76YA","either","7","525","","","","","","","0","0","1","0.6315627418","","0.8","0.2","0.6","0.4","","","","","0.6050549784","0.348479141","0.2211951924","0.6315627418","","","","","","","","76","L","3","","","228","main_expt",""
"","bandit","308","924154","0.0-269.0-0.0","64638148","wem/bandit_either_3","A1271V1YNO76YA","either","7","265","","","","","","","0","0","1","0.219241791","","0.8","0.2","0.6","0.4","","","","","0.5962230341","0.3250735223","0.219241791","0.5564086662","","","","","","","","75","K","2","","","229","main_expt",""
"","bandit","309","926367","0.0-270.0-0.0","64638148","wem/bandit_either_3","A1271V1YNO76YA","either","7","657","","","","","","","0","0","1","","0.3395219718","0.8","0.2","0.6","0.4","0.5594933722","0.3395219718","0.291585141","0.5895813861","","","","","","","","","","","","74","J","1","","","230","main_expt",""
"","bandit","310","927921","0.0-271.0-0.0","64638148","wem/bandit_either_3","A1271V1YNO76YA","either","7","1","","","","","","","0","0","1","0.6411036761","","0.8","0.2","0.6","0.4","","","","","0.6411036761","0.3315483329","0.2754541949","0.6148213975","","","","","","","","72","H","0","img/none_selected.jpg","","231","main_expt",""
"","bandit","311","930188","0.0-272.0-0.0","64638148","wem/bandit_either_3","A1271V1YNO76YA","either","7","726","","","","","","","0","1","0","","0.5176988489","0.8","0.2","0.6","0.4","0.6653930637","0.3876030756","0.3055336503","0.5176988489","","","","","","","","","","","","76","L","3","","","232","main_expt",""
"","bandit","312","934182","0.0-273.0-0.0","64638148","wem/bandit_either_3","A1271V1YNO76YA","either","7","2452","","","","","","","0","0","1","0.4505666118","","0.8","0.2","0.6","0.4","","","","","0.5426719569","0.3696248546","0.3390100853","0.4505666118","","","","","","","","76","L","3","","","233","main_expt",""
"","bandit","313","937538","0.0-274.0-0.0","64638148","wem/bandit_either_3","A1271V1YNO76YA","either","7","1782","","","","","","","0","1","0","","0.4393496879","0.8","0.2","0.6","0.4","0.5581360181","0.3927474605","0.3165323161","0.4393496879","","","","","","","","","","","","76","L","3","","","234","main_expt",""
"","bandit","314","939703","0.0-275.0-0.0","64638148","wem/bandit_either_3","A1271V1YNO76YA","either","7","612","","","","","","","0","0","1","","0.3542725407","0.8","0.2","0.6","0.4","0.5299247183","0.4734072524","0.2944333127","0.3542725407","","","","","","","","","","","","76","L","3","","","235","main_expt",""
"","bandit","315","941901","0.0-276.0-0.0","64638148","wem/bandit_either_3","A1271V1YNO76YA","either","7","654","","","","","","","1","0","0","0.4127469632","","0.8","0.2","0.6","0.4","","","","","0.4709954077","0.5857320117","0.4127469632","0.452511288","","","","","","","","75","K","2","","","236","main_expt",""
"","bandit","316","944444","0.0-277.0-0.0","64638148","wem/bandit_either_3","A1271V1YNO76YA","either","7","985","","","","","","","0","0","1","","0.4353664578","0.8","0.2","0.6","0.4","0.4171051322","0.5208556897","0.4353664578","0.4743784035","","","","","","","","","","","","75","K","2","","","237","main_expt",""
"","bandit","317","946409","0.0-278.0-0.0","64638148","wem/bandit_either_3","A1271V1YNO76YA","either","7","428","","","","","","","0","0","1","0.3871798792","","0.8","0.2","0.6","0.4","","","","","0.40722148","0.4551370454","0.3871798792","0.4666998134","","","","","","","","75","K","2","","","238","main_expt",""
"","bandit","318","948480","0.0-279.0-0.0","64638148","wem/bandit_either_3","A1271V1YNO76YA","either","7","535","","","","","","","0","0","1","","0.2979137516","0.8","0.2","0.6","0.4","0.3113271407","0.2979137516","0.3244704863","0.4916456171","","","","","","","","","","","","74","J","1","","","239","main_expt",""
"","bandit","319","950638","0.0-280.0-0.0","64638148","wem/bandit_either_3","A1271V1YNO76YA","either","7","623","","","","","","","0","0","1","0.2505753432","","0.8","0.2","0.6","0.4","","","","","0.2505753432","0.2453134511","0.3606581002","0.7128417261","","","","","","","","72","H","0","img/none_selected.jpg","","240","main_expt",""
"","bandit","320","952239","0.0-281.0-0.0","64638148","wem/bandit_either_3","A1271V1YNO76YA","either","7","65","","","","","","","0","1","0","","0.7711562233","0.8","0.2","0.6","0.4","0.2015136922","0.1984184333","0.3524522155","0.7711562233","","","","","","","","","","","","76","L","3","","","241","main_expt",""
"","bandit","321","954276","0.0-282.0-0.0","64638148","wem/bandit_either_3","A1271V1YNO76YA","either","7","490","","","","","","","1","0","0","0.7503869254","","0.8","0.2","0.6","0.4","","","","","0.2405045743","0.35553679","0.3677191248","0.7503869254","","","","","","","","76","L","3","","","242","main_expt",""
"","bandit","322","956147","0.0-283.0-0.0","64638148","wem/bandit_either_3","A1271V1YNO76YA","either","7","319","","","","","","","1","0","0","0.6345316327","","0.8","0.2","0.6","0.4","","","","","0.2458255622","0.3153476176","0.2524844898","0.6345316327","","","","","","","","76","L","3","","","243","main_expt",""
"","bandit","323","958758","0.0-284.0-0.0","64638148","wem/bandit_either_3","A1271V1YNO76YA","either","7","1044","","","","","","","0","0","1","","0.6330191047","0.8","0.2","0.6","0.4","0.3958019263","0.2733658223","0.2870953983","0.6330191047","","","","","","","","","","","","76","L","3","","","244","main_expt",""
"","bandit","324","960955","0.0-285.0-0.0","64638148","wem/bandit_either_3","A1271V1YNO76YA","either","7","638","","","","","","","0","0","1","","0.6219736313","0.8","0.2","0.6","0.4","0.3463698993","0.3496419154","0.3392553197","0.6219736313","","","","","","","","","","","","76","L","3","","","245","main_expt",""
