"consent","trial_type","trial_index","time_elapsed","internal_node_id","subjID","study","MID","cond","drift","rt","responses","key_press","expt_phase","like","value","connected","gems","bombs","no_reward","GemPrChosen","BombPrChosen","GainOverPainPr_0","GainOverPainPr_1","GainOverPainPr_2","GainOverPainPr_3","LosePr_0","LosePr_1","LosePr_2","LosePr_3","WinPr_0","WinPr_1","WinPr_2","WinPr_3","Q0","Q1","Q2","gender","age","ethnicity","target","respCharCode","respKey","respChoiceNum","respChoice","practice","trial_counter","trial_label","button_pressed"
"INL_behavioral_consent_30min_online.html","consent","0","8624","0.0-0.0","65097383","wem/bandit_either_3","A2TH9DIRISH8FE","either","6","","","","","","","","","","","","","","","","","","","","","","","","","","","","","","","","","","","","","","",""
"","survey-text","1","12990","0.0-1.0","65097383","wem/bandit_either_3","A2TH9DIRISH8FE","either","6","3361","{""Q0"":""A2TH9DIRISH8FE""}","","","","","","","","","","","","","","","","","","","","","","","","","","","","","","","","","","","","",""
"","text","2","405305","0.0-2.0","65097383","wem/bandit_either_3","A2TH9DIRISH8FE","either","6","391312","","32","","","","","","","","","","","","","","","","","","","","","","","","","","","","","","","","","","","",""
"","text","3","406928","0.0-3.0","65097383","wem/bandit_either_3","A2TH9DIRISH8FE","either","6","1623","","32","","","","","","","","","","","","","","","","","","","","","","","","","","","","","","","","","","","",""
"","text","4","407800","0.0-4.0","65097383","wem/bandit_either_3","A2TH9DIRISH8FE","either","6","871","","32","","","","","","","","","","","","","","","","","","","","","","","","","","","","","","","","","","","",""
"","text","5","408553","0.0-5.0","65097383","wem/bandit_either_3","A2TH9DIRISH8FE","either","6","752","","32","","","","","","","","","","","","","","","","","","","","","","","","","","","","","","","","","","","",""
"","text","6","409968","0.0-6.0","65097383","wem/bandit_either_3","A2TH9DIRISH8FE","either","6","1415","","32","","","","","","","","","","","","","","","","","","","","","","","","","","","","","","","","","","","",""
"","text","7","410705","0.0-7.0","65097383","wem/bandit_either_3","A2TH9DIRISH8FE","either","6","736","","32","","","","","","","","","","","","","","","","","","","","","","","","","","","","","","","","","","","",""
"","text","8","411864","0.0-8.0","65097383","wem/bandit_either_3","A2TH9DIRISH8FE","either","6","1158","","32","","","","","","","","","","","","","","","","","","","","","","","","","","","","","","","","","","","",""
"","identification","9","420986","0.0-9.0-0.0","65097383","wem/bandit_either_3","A2TH9DIRISH8FE","either","6","9114","","","","3","3","0","","","","","","","","","","","","","","","","","","","","","","","","the village of Zur","","","","","","","",""
"","identification","10","433877","0.0-9.0-1.0","65097383","wem/bandit_either_3","A2TH9DIRISH8FE","either","6","11885","","","","3","3","0","","","","","","","","","","","","","","","","","","","","","","","","the village of Nyx","","","","","","","",""
"","text","11","437305","0.0-10.0","65097383","wem/bandit_either_3","A2TH9DIRISH8FE","either","6","2426","","32","","","","","","","","","","","","","","","","","","","","","","","","","","","","","","","","","","","",""
"","text","12","438400","0.0-11.0","65097383","wem/bandit_either_3","A2TH9DIRISH8FE","either","6","1093","","32","","","","","","","","","","","","","","","","","","","","","","","","","","","","","","","","","","","",""
"","text","13","439648","0.0-12.0","65097383","wem/bandit_either_3","A2TH9DIRISH8FE","either","6","1248","","32","","","","","","","","","","","","","","","","","","","","","","","","","","","","","","","","","","","",""
"","text","14","444120","0.0-13.0","65097383","wem/bandit_either_3","A2TH9DIRISH8FE","either","6","4470","","32","","","","","","","","","","","","","","","","","","","","","","","","","","","","","","","","","","","",""
"","bandit","15","448096","0.0-14.0-0.0","65097383","wem/bandit_either_3","A2TH9DIRISH8FE","either","6","2471","","","","","","","0","0","1","0","0","","","","","0","","","","0","","","","","","","","","","","74","J","0","img/none_selected_demo.jpg","true","0","",""
"","bandit","16","450678","0.0-15.0-0.0","65097383","wem/bandit_either_3","A2TH9DIRISH8FE","either","6","1080","","","","","","","0","0","1","0","0","","","","","0","","","","0","","","","","","","","","","","75","K","0","img/none_selected_demo.jpg","true","0","",""
"","text","17","451889","0.0-16.0","65097383","wem/bandit_either_3","A2TH9DIRISH8FE","either","6","1209","","32","","","","","","","","","","","","","","","","","","","","","","","","","","","","","","","","","","","",""
"","text","18","452609","0.0-17.0","65097383","wem/bandit_either_3","A2TH9DIRISH8FE","either","6","718","","32","","","","","","","","","","","","","","","","","","","","","","","","","","","","","","","","","","","",""
"","text","19","453329","0.0-18.0","65097383","wem/bandit_either_3","A2TH9DIRISH8FE","either","6","720","","32","","","","","","","","","","","","","","","","","","","","","","","","","","","","","","","","","","","",""
"","text","20","454000","0.0-19.0","65097383","wem/bandit_either_3","A2TH9DIRISH8FE","either","6","670","","32","","","","","","","","","","","","","","","","","","","","","","","","","","","","","","","","","","","",""
"","bandit","21","457222","0.0-20.0-0.0","65097383","wem/bandit_either_3","A2TH9DIRISH8FE","either","6","1719","","","","","","","0","0","1","","0.8","0.5","0.5","","","0.8","0.2","","","","","","","","","","","","","","74","J","0","img/none_selected_demo.jpg","true","0","80_20_practice",""
"","bandit","22","458998","0.0-20.0-1.0","65097383","wem/bandit_either_3","A2TH9DIRISH8FE","either","6","273","","","","","","","0","1","0","","0.8","0.5","0.5","","","0.8","0.2","","","","","","","","","","","","","","74","J","0","img/none_selected_demo.jpg","true","0","80_20_practice",""
"","bandit","23","460792","0.0-20.0-2.0","65097383","wem/bandit_either_3","A2TH9DIRISH8FE","either","6","290","","","","","","","1","0","0","0.8","","0.5","0.5","","","","","","","0.8","0.2","","","","","","","","","","74","J","0","img/none_selected_demo.jpg","true","0","80_20_practice",""
"","bandit","24","462694","0.0-20.0-3.0","65097383","wem/bandit_either_3","A2TH9DIRISH8FE","either","6","399","","","","","","","0","0","1","","0.2","0.5","0.5","","","0.8","0.2","","","","","","","","","","","","","","75","K","1","","true","0","80_20_practice",""
"","bandit","25","464638","0.0-20.0-4.0","65097383","wem/bandit_either_3","A2TH9DIRISH8FE","either","6","440","","","","","","","1","0","0","0.2","","0.5","0.5","","","","","","","0.8","0.2","","","","","","","","","","75","K","1","","true","0","80_20_practice",""
"","bandit","26","466181","0.0-20.0-5.0","65097383","wem/bandit_either_3","A2TH9DIRISH8FE","either","6","40","","","","","","","0","0","1","","0.2","0.5","0.5","","","0.8","0.2","","","","","","","","","","","","","","75","K","1","","true","0","80_20_practice",""
"","bandit","27","467749","0.0-20.0-6.0","65097383","wem/bandit_either_3","A2TH9DIRISH8FE","either","6","65","","","","","","","0","1","0","","0.2","0.5","0.5","","","0.8","0.2","","","","","","","","","","","","","","75","K","1","","true","0","80_20_practice",""
"","bandit","28","469366","0.0-20.0-7.0","65097383","wem/bandit_either_3","A2TH9DIRISH8FE","either","6","114","","","","","","","0","0","1","","0.8","0.5","0.5","","","0.8","0.2","","","","","","","","","","","","","","74","J","0","img/none_selected_demo.jpg","true","0","80_20_practice",""
"","bandit","29","470886","0.0-20.0-8.0","65097383","wem/bandit_either_3","A2TH9DIRISH8FE","either","6","17","","","","","","","1","0","0","0.8","","0.5","0.5","","","","","","","0.8","0.2","","","","","","","","","","74","J","0","img/none_selected_demo.jpg","true","0","80_20_practice",""
"","bandit","30","472517","0.0-20.0-9.0","65097383","wem/bandit_either_3","A2TH9DIRISH8FE","either","6","129","","","","","","","0","0","1","0.2","","0.5","0.5","","","","","","","0.8","0.2","","","","","","","","","","75","K","1","","true","0","80_20_practice",""
"","bandit","31","474093","0.0-20.0-10.0","65097383","wem/bandit_either_3","A2TH9DIRISH8FE","either","6","73","","","","","","","0","0","1","0.8","","0.5","0.5","","","","","","","0.8","0.2","","","","","","","","","","74","J","0","img/none_selected_demo.jpg","true","0","80_20_practice",""
"","bandit","32","475663","0.0-20.0-11.0","65097383","wem/bandit_either_3","A2TH9DIRISH8FE","either","6","66","","","","","","","0","0","1","","0.2","0.5","0.5","","","0.8","0.2","","","","","","","","","","","","","","75","K","1","","true","0","80_20_practice",""
"","bandit","33","477223","0.0-20.0-12.0","65097383","wem/bandit_either_3","A2TH9DIRISH8FE","either","6","55","","","","","","","0","0","1","","0.2","0.5","0.5","","","0.8","0.2","","","","","","","","","","","","","","75","K","1","","true","0","80_20_practice",""
"","bandit","34","478773","0.0-20.0-13.0","65097383","wem/bandit_either_3","A2TH9DIRISH8FE","either","6","48","","","","","","","0","0","1","0.2","","0.5","0.5","","","","","","","0.8","0.2","","","","","","","","","","75","K","1","","true","0","80_20_practice",""
"","bandit","35","480286","0.0-20.0-14.0","65097383","wem/bandit_either_3","A2TH9DIRISH8FE","either","6","8","","","","","","","0","0","1","0.8","","0.5","0.5","","","","","","","0.8","0.2","","","","","","","","","","74","J","0","img/none_selected_demo.jpg","true","0","80_20_practice",""
"","bandit","36","481855","0.0-20.0-15.0","65097383","wem/bandit_either_3","A2TH9DIRISH8FE","either","6","65","","","","","","","0","1","0","","0.2","0.5","0.5","","","0.8","0.2","","","","","","","","","","","","","","75","K","1","","true","0","80_20_practice",""
"","bandit","37","483470","0.0-20.0-16.0","65097383","wem/bandit_either_3","A2TH9DIRISH8FE","either","6","111","","","","","","","0","1","0","","0.2","0.5","0.5","","","0.8","0.2","","","","","","","","","","","","","","75","K","1","","true","0","80_20_practice",""
"","bandit","38","485005","0.0-20.0-17.0","65097383","wem/bandit_either_3","A2TH9DIRISH8FE","either","6","33","","","","","","","0","0","1","0.8","","0.5","0.5","","","","","","","0.8","0.2","","","","","","","","","","74","J","0","img/none_selected_demo.jpg","true","0","80_20_practice",""
"","bandit","39","486669","0.0-20.0-18.0","65097383","wem/bandit_either_3","A2TH9DIRISH8FE","either","6","162","","","","","","","0","1","0","","0.8","0.5","0.5","","","0.8","0.2","","","","","","","","","","","","","","74","J","0","img/none_selected_demo.jpg","true","0","80_20_practice",""
"","bandit","40","488206","0.0-20.0-19.0","65097383","wem/bandit_either_3","A2TH9DIRISH8FE","either","6","33","","","","","","","0","0","1","0.2","","0.5","0.5","","","","","","","0.8","0.2","","","","","","","","","","75","K","1","","true","0","80_20_practice",""
"","text","41","511754","0.0-21.0","65097383","wem/bandit_either_3","A2TH9DIRISH8FE","either","6","23546","","32","","","","","","","","","","","","","","","","","","","","","","","","","","","","","","","","","","","",""
"","bandit","42","514422","0.0-22.0-0.0","65097383","wem/bandit_either_3","A2TH9DIRISH8FE","either","6","1165","","","","","","","1","0","0","1","0","","","","","0","1","","","1","0","","","","","","","","","","74","J","0","img/none_selected_demo.jpg","true","0","",""
"","text","43","520064","0.0-23.0","65097383","wem/bandit_either_3","A2TH9DIRISH8FE","either","6","5641","","32","","","","","","","","","","","","","","","","","","","","","","","","","","","","","","","","","","","",""
"","text","44","521664","0.0-24.0","65097383","wem/bandit_either_3","A2TH9DIRISH8FE","either","6","1598","","32","","","","","","","","","","","","","","","","","","","","","","","","","","","","","","","","","","","",""
"","text","45","523193","0.0-25.0","65097383","wem/bandit_either_3","A2TH9DIRISH8FE","either","6","1529","","32","","","","","","","","","","","","","","","","","","","","","","","","","","","","","","","","","","","",""
"","text","46","523905","0.0-26.0","65097383","wem/bandit_either_3","A2TH9DIRISH8FE","either","6","710","","32","","","","","","","","","","","","","","","","","","","","","","","","","","","","","","","","","","","",""
"","text","47","524568","0.0-27.0","65097383","wem/bandit_either_3","A2TH9DIRISH8FE","either","6","663","","32","","","","","","","","","","","","","","","","","","","","","","","","","","","","","","","","","","","",""
"","text","48","525001","0.0-28.0","65097383","wem/bandit_either_3","A2TH9DIRISH8FE","either","6","431","","32","","","","","","","","","","","","","","","","","","","","","","","","","","","","","","","","","","","",""
"","text","49","525384","0.0-29.0","65097383","wem/bandit_either_3","A2TH9DIRISH8FE","either","6","383","","32","","","","","","","","","","","","","","","","","","","","","","","","","","","","","","","","","","","",""
"","text","50","525768","0.0-30.0","65097383","wem/bandit_either_3","A2TH9DIRISH8FE","either","6","383","","32","","","","","","","","","","","","","","","","","","","","","","","","","","","","","","","","","","","",""
"","text","51","526255","0.0-31.0","65097383","wem/bandit_either_3","A2TH9DIRISH8FE","either","6","487","","32","","","","","","","","","","","","","","","","","","","","","","","","","","","","","","","","","","","",""
"","text","52","526775","0.0-32.0","65097383","wem/bandit_either_3","A2TH9DIRISH8FE","either","6","519","","32","","","","","","","","","","","","","","","","","","","","","","","","","","","","","","","","","","","",""
"","text","53","528527","0.0-33.0","65097383","wem/bandit_either_3","A2TH9DIRISH8FE","either","6","1751","","32","","","","","","","","","","","","","","","","","","","","","","","","","","","","","","","","","","","",""
"","bandit","54","532557","0.0-34.0-0.0","65097383","wem/bandit_either_3","A2TH9DIRISH8FE","either","6","2526","","","","","","","0","0","1","","0.2","0.5","0.5","0.5","0.5","0.8","0.2","0.6","0.2","","","","","","","","","","","","76","L","3","","true","0","full_practice",""
"","bandit","55","534309","0.0-34.0-1.0","65097383","wem/bandit_either_3","A2TH9DIRISH8FE","either","6","249","","","","","","","0","1","0","","0.6","0.5","0.5","0.5","0.5","0.8","0.2","0.6","0.2","","","","","","","","","","","","75","K","2","","true","0","full_practice",""
"","bandit","56","536038","0.0-34.0-2.0","65097383","wem/bandit_either_3","A2TH9DIRISH8FE","either","6","226","","","","","","","0","0","1","0.2","","0.5","0.5","0.5","0.5","","","","","0.8","0.2","0.6","0.2","","","","","","","","74","J","1","","true","0","full_practice",""
"","bandit","57","538677","0.0-34.0-3.0","65097383","wem/bandit_either_3","A2TH9DIRISH8FE","either","6","1136","","","","","","","1","0","0","0.8","","0.5","0.5","0.5","0.5","","","","","0.8","0.2","0.6","0.2","","","","","","","","72","H","0","img/none_selected.jpg","true","0","full_practice",""
"","bandit","58","540445","0.0-34.0-4.0","65097383","wem/bandit_either_3","A2TH9DIRISH8FE","either","6","265","","","","","","","1","0","0","0.8","","0.5","0.5","0.5","0.5","","","","","0.8","0.2","0.6","0.2","","","","","","","","72","H","0","img/none_selected.jpg","true","0","full_practice",""
"","bandit","59","541982","0.0-34.0-5.0","65097383","wem/bandit_either_3","A2TH9DIRISH8FE","either","6","34","","","","","","","0","0","1","0.8","","0.5","0.5","0.5","0.5","","","","","0.8","0.2","0.6","0.2","","","","","","","","72","H","0","img/none_selected.jpg","true","0","full_practice",""
"","bandit","60","543628","0.0-34.0-6.0","65097383","wem/bandit_either_3","A2TH9DIRISH8FE","either","6","144","","","","","","","1","0","0","0.8","","0.5","0.5","0.5","0.5","","","","","0.8","0.2","0.6","0.2","","","","","","","","72","H","0","img/none_selected.jpg","true","0","full_practice",""
"","bandit","61","545310","0.0-34.0-7.0","65097383","wem/bandit_either_3","A2TH9DIRISH8FE","either","6","178","","","","","","","0","0","1","0.8","","0.5","0.5","0.5","0.5","","","","","0.8","0.2","0.6","0.2","","","","","","","","72","H","0","img/none_selected.jpg","true","0","full_practice",""
"","bandit","62","546877","0.0-34.0-8.0","65097383","wem/bandit_either_3","A2TH9DIRISH8FE","either","6","64","","","","","","","0","1","0","","0.8","0.5","0.5","0.5","0.5","0.8","0.2","0.6","0.2","","","","","","","","","","","","72","H","0","img/none_selected.jpg","true","0","full_practice",""
"","bandit","63","548485","0.0-34.0-9.0","65097383","wem/bandit_either_3","A2TH9DIRISH8FE","either","6","104","","","","","","","0","0","1","0.8","","0.5","0.5","0.5","0.5","","","","","0.8","0.2","0.6","0.2","","","","","","","","72","H","0","img/none_selected.jpg","true","0","full_practice",""
"","bandit","64","550004","0.0-34.0-10.0","65097383","wem/bandit_either_3","A2TH9DIRISH8FE","either","6","17","","","","","","","0","1","0","","0.8","0.5","0.5","0.5","0.5","0.8","0.2","0.6","0.2","","","","","","","","","","","","72","H","0","img/none_selected.jpg","true","0","full_practice",""
"","bandit","65","551949","0.0-34.0-11.0","65097383","wem/bandit_either_3","A2TH9DIRISH8FE","either","6","441","","","","","","","0","1","0","","0.8","0.5","0.5","0.5","0.5","0.8","0.2","0.6","0.2","","","","","","","","","","","","72","H","0","img/none_selected.jpg","true","0","full_practice",""
"","bandit","66","553565","0.0-34.0-12.0","65097383","wem/bandit_either_3","A2TH9DIRISH8FE","either","6","112","","","","","","","1","0","0","0.8","","0.5","0.5","0.5","0.5","","","","","0.8","0.2","0.6","0.2","","","","","","","","72","H","0","img/none_selected.jpg","true","0","full_practice",""
"","bandit","67","555125","0.0-34.0-13.0","65097383","wem/bandit_either_3","A2TH9DIRISH8FE","either","6","56","","","","","","","0","1","0","","0.8","0.5","0.5","0.5","0.5","0.8","0.2","0.6","0.2","","","","","","","","","","","","72","H","0","img/none_selected.jpg","true","0","full_practice",""
"","bandit","68","556638","0.0-34.0-14.0","65097383","wem/bandit_either_3","A2TH9DIRISH8FE","either","6","9","","","","","","","1","0","0","0.8","","0.5","0.5","0.5","0.5","","","","","0.8","0.2","0.6","0.2","","","","","","","","72","H","0","img/none_selected.jpg","true","0","full_practice",""
"","bandit","69","558150","0.0-34.0-15.0","65097383","wem/bandit_either_3","A2TH9DIRISH8FE","either","6","10","","","","","","","0","0","1","0.8","","0.5","0.5","0.5","0.5","","","","","0.8","0.2","0.6","0.2","","","","","","","","72","H","0","img/none_selected.jpg","true","0","full_practice",""
"","bandit","70","560364","0.0-34.0-16.0","65097383","wem/bandit_either_3","A2TH9DIRISH8FE","either","6","712","","","","","","","0","1","0","","0.8","0.5","0.5","0.5","0.5","0.8","0.2","0.6","0.2","","","","","","","","","","","","72","H","0","img/none_selected.jpg","true","0","full_practice",""
"","bandit","71","561956","0.0-34.0-17.0","65097383","wem/bandit_either_3","A2TH9DIRISH8FE","either","6","88","","","","","","","0","1","0","","0.8","0.5","0.5","0.5","0.5","0.8","0.2","0.6","0.2","","","","","","","","","","","","72","H","0","img/none_selected.jpg","true","0","full_practice",""
"","bandit","72","563676","0.0-34.0-18.0","65097383","wem/bandit_either_3","A2TH9DIRISH8FE","either","6","217","","","","","","","1","0","0","0.8","","0.5","0.5","0.5","0.5","","","","","0.8","0.2","0.6","0.2","","","","","","","","72","H","0","img/none_selected.jpg","true","0","full_practice",""
"","bandit","73","565309","0.0-34.0-19.0","65097383","wem/bandit_either_3","A2TH9DIRISH8FE","either","6","130","","","","","","","1","0","0","0.8","","0.5","0.5","0.5","0.5","","","","","0.8","0.2","0.6","0.2","","","","","","","","72","H","0","img/none_selected.jpg","true","0","full_practice",""
"","text","74","591432","0.0-35.0","65097383","wem/bandit_either_3","A2TH9DIRISH8FE","either","6","26120","","32","","","","","","","","","","","","","","","","","","","","","","","","","","","","","","","","","","","",""
"","text","75","593752","0.0-36.0","65097383","wem/bandit_either_3","A2TH9DIRISH8FE","either","6","1318","","32","","","","","","","","","","","","","","","","","","","","","","","","","","","","","","","","","","","",""
"","text","76","594337","0.0-37.0","65097383","wem/bandit_either_3","A2TH9DIRISH8FE","either","6","583","","32","","","","","","","","","","","","","","","","","","","","","","","","","","","","","","","","","","","",""
"","text","77","594896","0.0-38.0","65097383","wem/bandit_either_3","A2TH9DIRISH8FE","either","6","558","","32","","","","","","","","","","","","","","","","","","","","","","","","","","","","","","","","","","","",""
"","text","78","595361","0.0-39.0","65097383","wem/bandit_either_3","A2TH9DIRISH8FE","either","6","463","","32","","","","","","","","","","","","","","","","","","","","","","","","","","","","","","","","","","","",""
"","text","79","595753","0.0-40.0","65097383","wem/bandit_either_3","A2TH9DIRISH8FE","either","6","392","","32","","","","","","","","","","","","","","","","","","","","","","","","","","","","","","","","","","","",""
"","bandit","80","598254","0.0-41.0-0.0","65097383","wem/bandit_either_3","A2TH9DIRISH8FE","either","6","996","","","","","","","0","1","0","","0.7197236342","0.8","0.6","0.4","0.2","0.7197236342","0.2309914537","0.3049938501","0.1947351938","","","","","","","","","","","","72","H","0","img/none_selected.jpg","","1","main_expt",""
"","bandit","81","599822","0.0-42.0-0.0","65097383","wem/bandit_either_3","A2TH9DIRISH8FE","either","6","64","","","","","","","0","0","1","0.2351366282","","0.8","0.6","0.4","0.2","","","","","0.7453792406","0.2351366282","0.3105507028","0.1865171684","","","","","","","","74","J","1","","","2","main_expt",""
"","bandit","82","601390","0.0-43.0-0.0","65097383","wem/bandit_either_3","A2TH9DIRISH8FE","either","6","64","","","","","","","0","1","0","","0.7422746785","0.8","0.6","0.4","0.2","0.7422746785","0.3338792953","0.347932066","0.1578482069","","","","","","","","","","","","72","H","0","img/none_selected.jpg","","3","main_expt",""
"","bandit","83","603038","0.0-44.0-0.0","65097383","wem/bandit_either_3","A2TH9DIRISH8FE","either","6","145","","","","","","","0","0","1","","0.1733557992","0.8","0.6","0.4","0.2","0.8152876082","0.2578124611","0.294099503","0.1733557992","","","","","","","","","","","","76","L","3","","","4","main_expt",""
"","bandit","84","604773","0.0-45.0-0.0","65097383","wem/bandit_either_3","A2TH9DIRISH8FE","either","6","233","","","","","","","0","0","1","","0.1275681293","0.8","0.6","0.4","0.2","0.8494846052","0.152782507","0.256228135","0.1275681293","","","","","","","","","","","","76","L","3","","","5","main_expt",""
"","bandit","85","606422","0.0-46.0-0.0","65097383","wem/bandit_either_3","A2TH9DIRISH8FE","either","6","145","","","","","","","0","0","1","","0.200224935","0.8","0.6","0.4","0.2","0.8036792828","0.200224935","0.3142053347","0.1776351543","","","","","","","","","","","","74","J","1","","","6","main_expt",""
"","bandit","86","608022","0.0-47.0-0.0","65097383","wem/bandit_either_3","A2TH9DIRISH8FE","either","6","97","","","","","","","1","0","0","0.2200442108","","0.8","0.6","0.4","0.2","","","","","0.8659664865","0.2200442108","0.2382568898","0.1412615145","","","","","","","","74","J","1","","","7","main_expt",""
"","bandit","87","609582","0.0-48.0-0.0","65097383","wem/bandit_either_3","A2TH9DIRISH8FE","either","6","57","","","","","","","0","0","1","","0.1516915951","0.8","0.6","0.4","0.2","0.8475436228","0.1516915951","0.220471749","0.1508054742","","","","","","","","","","","","74","J","1","","","8","main_expt",""
"","bandit","88","612054","0.0-49.0-0.0","65097383","wem/bandit_either_3","A2TH9DIRISH8FE","either","6","968","","","","","","","0","0","1","","0.2842820234","0.8","0.6","0.4","0.2","0.8034999265","0.1468829212","0.2842820234","0.1882404854","","","","","","","","","","","","75","K","2","","","9","main_expt",""
"","bandit","89","613750","0.0-50.0-0.0","65097383","wem/bandit_either_3","A2TH9DIRISH8FE","either","6","193","","","","","","","0","0","1","","0.3392415315","0.8","0.6","0.4","0.2","0.7148412232","0.1507643719","0.3392415315","0.1731305678","","","","","","","","","","","","75","K","2","","","10","main_expt",""
"","bandit","90","615429","0.0-51.0-0.0","65097383","wem/bandit_either_3","A2TH9DIRISH8FE","either","6","176","","","","","","","0","0","1","","0.18301","0.8","0.6","0.4","0.2","0.7213030285","0.18301","0.4470346709","0.2475279461","","","","","","","","","","","","74","J","1","","","11","main_expt",""
"","bandit","91","617085","0.0-52.0-0.0","65097383","wem/bandit_either_3","A2TH9DIRISH8FE","either","6","153","","","","","","","0","0","1","0.209562337","","0.8","0.6","0.4","0.2","","","","","0.7396148754","0.209562337","0.5143820195","0.2068792089","","","","","","","","74","J","1","","","12","main_expt",""
"","bandit","92","618966","0.0-53.0-0.0","65097383","wem/bandit_either_3","A2TH9DIRISH8FE","either","6","377","","","","","","","0","0","1","","0.2133897639","0.8","0.6","0.4","0.2","0.6870781676","0.2133897639","0.4934308908","0.1594062408","","","","","","","","","","","","74","J","1","","","13","main_expt",""
"","bandit","93","620686","0.0-54.0-0.0","65097383","wem/bandit_either_3","A2TH9DIRISH8FE","either","6","216","","","","","","","0","0","1","0.1865122749","","0.8","0.6","0.4","0.2","","","","","0.6561171826","0.1865122749","0.5884397519","0.1808320347","","","","","","","","74","J","1","","","14","main_expt",""
"","bandit","94","622311","0.0-55.0-0.0","65097383","wem/bandit_either_3","A2TH9DIRISH8FE","either","6","120","","","","","","","0","0","1","","0.425765204","0.8","0.6","0.4","0.2","0.6255101569","0.3169691733","0.425765204","0.2401125286","","","","","","","","","","","","75","K","2","","","15","main_expt",""
"","bandit","95","623966","0.0-56.0-0.0","65097383","wem/bandit_either_3","A2TH9DIRISH8FE","either","6","152","","","","","","","0","0","1","","0.1823220599","0.8","0.6","0.4","0.2","0.6101220295","0.3927767979","0.4458974369","0.1823220599","","","","","","","","","","","","76","L","3","","","16","main_expt",""
"","bandit","96","625525","0.0-57.0-0.0","65097383","wem/bandit_either_3","A2TH9DIRISH8FE","either","6","57","","","","","","","0","1","0","","0.2076179308","0.8","0.6","0.4","0.2","0.6233337625","0.2882183284","0.4907358526","0.2076179308","","","","","","","","","","","","76","L","3","","","17","main_expt",""
"","bandit","97","627094","0.0-58.0-0.0","65097383","wem/bandit_either_3","A2TH9DIRISH8FE","either","6","64","","","","","","","0","0","1","","0.3212622409","0.8","0.6","0.4","0.2","0.598865074","0.3212622409","0.4895096529","0.2310064443","","","","","","","","","","","","74","J","1","","","18","main_expt",""
"","bandit","98","628679","0.0-59.0-0.0","65097383","wem/bandit_either_3","A2TH9DIRISH8FE","either","6","81","","","","","","","0","0","1","","0.5437378015","0.8","0.6","0.4","0.2","0.6318918302","0.3678238944","0.5437378015","0.1919199612","","","","","","","","","","","","75","K","2","","","19","main_expt",""
"","bandit","99","630326","0.0-60.0-0.0","65097383","wem/bandit_either_3","A2TH9DIRISH8FE","either","6","141","","","","","","","1","0","0","0.543071052","","0.8","0.6","0.4","0.2","","","","","0.5667690756","0.4357360734","0.543071052","0.2150176637","","","","","","","","75","K","2","","","20","main_expt",""
"","bandit","100","631950","0.0-61.0-0.0","65097383","wem/bandit_either_3","A2TH9DIRISH8FE","either","6","119","","","","","","","0","1","0","","0.2980309021","0.8","0.6","0.4","0.2","0.6364396753","0.4486518506","0.5457928974","0.2980309021","","","","","","","","","","","","76","L","3","","","21","main_expt",""
"","bandit","101","633502","0.0-62.0-0.0","65097383","wem/bandit_either_3","A2TH9DIRISH8FE","either","6","48","","","","","","","1","0","0","0.5145372488","","0.8","0.6","0.4","0.2","","","","","0.5563436533","0.5145372488","0.4531799458","0.3238742104","","","","","","","","74","J","1","","","22","main_expt",""
"","bandit","102","635006","0.0-63.0-0.0","65097383","wem/bandit_either_3","A2TH9DIRISH8FE","either","6","0","","","","","","","0","1","0","","0.6324996067","0.8","0.6","0.4","0.2","0.4555064456","0.6324996067","0.4321579995","0.4158928209","","","","","","","","","","","","74","J","1","","","23","main_expt",""
"","bandit","103","636510","0.0-64.0-0.0","65097383","wem/bandit_either_3","A2TH9DIRISH8FE","either","6","1","","","","","","","0","0","1","","0.3892872195","0.8","0.6","0.4","0.2","0.4398961724","0.6665025749","0.3892872195","0.2798670784","","","","","","","","","","","","75","K","2","","","24","main_expt",""
"","bandit","104","638127","0.0-65.0-0.0","65097383","wem/bandit_either_3","A2TH9DIRISH8FE","either","6","112","","","","","","","1","0","0","0.4322880781","","0.8","0.6","0.4","0.2","","","","","0.3810464824","0.5316582614","0.4322880781","0.3932164435","","","","","","","","75","K","2","","","25","main_expt",""
"","bandit","105","639654","0.0-66.0-0.0","65097383","wem/bandit_either_3","A2TH9DIRISH8FE","either","6","23","","","","","","","0","1","0","","0.3243459504","0.8","0.6","0.4","0.2","0.451695138","0.4282094451","0.4560392573","0.3243459504","","","","","","","","","","","","76","L","3","","","26","main_expt",""
"","bandit","106","641238","0.0-67.0-0.0","65097383","wem/bandit_either_3","A2TH9DIRISH8FE","either","6","81","","","","","","","0","0","1","","0.4266302179","0.8","0.6","0.4","0.2","0.4423729324","0.4711380508","0.5372901799","0.4266302179","","","","","","","","","","","","76","L","3","","","27","main_expt",""
"","bandit","107","643845","0.0-68.0-0.0","65097383","wem/bandit_either_3","A2TH9DIRISH8FE","either","6","1104","","","","","","","1","0","0","0.4539290932","","0.8","0.6","0.4","0.2","","","","","0.4221124674","0.4539290932","0.6619872032","0.4206607535","","","","","","","","74","J","1","","","28","main_expt",""
"","bandit","108","645430","0.0-69.0-0.0","65097383","wem/bandit_either_3","A2TH9DIRISH8FE","either","6","82","","","","","","","0","0","1","0.489207998","","0.8","0.6","0.4","0.2","","","","","0.489207998","0.4378511583","0.5939885142","0.440099583","","","","","","","","72","H","0","img/none_selected.jpg","","29","main_expt",""
"","bandit","109","646934","0.0-70.0-0.0","65097383","wem/bandit_either_3","A2TH9DIRISH8FE","either","6","1","","","","","","","1","0","0","0.3425428874","","0.8","0.6","0.4","0.2","","","","","0.4406356357","0.3425428874","0.5602145404","0.3982168329","","","","","","","","74","J","1","","","30","main_expt",""
"","bandit","110","648485","0.0-71.0-0.0","65097383","wem/bandit_either_3","A2TH9DIRISH8FE","either","6","47","","","","","","","0","0","1","0.2354865125","","0.8","0.6","0.4","0.2","","","","","0.484130952","0.2354865125","0.5376870091","0.3573437221","","","","","","","","74","J","1","","","31","main_expt",""
"","bandit","111","650044","0.0-72.0-0.0","65097383","wem/bandit_either_3","A2TH9DIRISH8FE","either","6","56","","","","","","","1","0","0","0.432294219","","0.8","0.6","0.4","0.2","","","","","0.432294219","0.2552437171","0.6346195819","0.3712986889","","","","","","","","72","H","0","img/none_selected.jpg","","32","main_expt",""
"","bandit","112","651605","0.0-73.0-0.0","65097383","wem/bandit_either_3","A2TH9DIRISH8FE","either","6","57","","","","","","","0","1","0","","0.7540961955","0.8","0.6","0.4","0.2","0.4821309474","0.2470382599","0.7540961955","0.45096985","","","","","","","","","","","","75","K","2","","","33","main_expt",""
"","bandit","113","653142","0.0-74.0-0.0","65097383","wem/bandit_either_3","A2TH9DIRISH8FE","either","6","32","","","","","","","1","0","0","0.4702474349","","0.8","0.6","0.4","0.2","","","","","0.4702474349","0.2951894024","0.699797925","0.5559331637","","","","","","","","72","H","0","img/none_selected.jpg","","34","main_expt",""
"","bandit","114","657574","0.0-75.0-0.0","65097383","wem/bandit_either_3","A2TH9DIRISH8FE","either","6","2927","","","","","","","0","0","1","0.2596626779","","0.8","0.6","0.4","0.2","","","","","0.5363697359","0.2596626779","0.7410295452","0.7354386419","","","","","","","","74","J","1","","","35","main_expt",""
"","bandit","115","661720","0.0-76.0-0.0","65097383","wem/bandit_either_3","A2TH9DIRISH8FE","either","6","2640","","","","","","","0","0","1","0.3164764808","","0.8","0.6","0.4","0.2","","","","","0.602250539","0.3164764808","0.7332281969","0.6934166837","","","","","","","","74","J","1","","","36","main_expt",""
"","bandit","116","663316","0.0-77.0-0.0","65097383","wem/bandit_either_3","A2TH9DIRISH8FE","either","6","79","","","","","","","0","1","0","","0.6311869688","0.8","0.6","0.4","0.2","0.5337433964","0.3672962009","0.736713329","0.6311869688","","","","","","","","","","","","76","L","3","","","37","main_expt",""
"","bandit","117","664958","0.0-78.0-0.0","65097383","wem/bandit_either_3","A2TH9DIRISH8FE","either","6","136","","","","","","","0","0","1","0.4056598401","","0.8","0.6","0.4","0.2","","","","","0.5970413872","0.4056598401","0.6860808007","0.6583504975","","","","","","","","74","J","1","","","38","main_expt",""
"","bandit","118","666519","0.0-79.0-0.0","65097383","wem/bandit_either_3","A2TH9DIRISH8FE","either","6","55","","","","","","","0","1","0","","0.5861321806","0.8","0.6","0.4","0.2","0.6529448079","0.4236995386","0.7498761973","0.5861321806","","","","","","","","","","","","76","L","3","","","39","main_expt",""
"","bandit","119","668207","0.0-80.0-0.0","65097383","wem/bandit_either_3","A2TH9DIRISH8FE","either","6","179","","","","","","","0","1","0","","0.7043283504","0.8","0.6","0.4","0.2","0.6612991154","0.4365163158","0.7043283504","0.4892836735","","","","","","","","","","","","75","K","2","","","40","main_expt",""
"","bandit","120","685205","0.0-81.0-0.0","65097383","wem/bandit_either_3","A2TH9DIRISH8FE","either","6","15494","","","","","","","0","1","0","","0.4854269132","0.8","0.6","0.4","0.2","0.7390431107","0.4854269132","0.6469690382","0.3479900608","","","","","","","","","","","","74","J","1","","","41","main_expt",""
"","bandit","121","687772","0.0-82.0-0.0","65097383","wem/bandit_either_3","A2TH9DIRISH8FE","either","6","1064","","","","","","","0","0","1","0.4753587859","","0.8","0.6","0.4","0.2","","","","","0.7609423287","0.4753587859","0.6388905256","0.376709287","","","","","","","","74","J","1","","","42","main_expt",""
"","bandit","122","689389","0.0-83.0-0.0","65097383","wem/bandit_either_3","A2TH9DIRISH8FE","either","6","112","","","","","","","0","1","0","","0.6383372244","0.8","0.6","0.4","0.2","0.8039673949","0.452202747","0.6383372244","0.4319300722","","","","","","","","","","","","75","K","2","","","43","main_expt",""
"","bandit","123","691014","0.0-84.0-0.0","65097383","wem/bandit_either_3","A2TH9DIRISH8FE","either","6","120","","","","","","","1","0","0","0.8216753652","","0.8","0.6","0.4","0.2","","","","","0.8216753652","0.5522191005","0.6247854939","0.4458636389","","","","","","","","72","H","0","img/none_selected.jpg","","44","main_expt",""
"","bandit","124","694374","0.0-85.0-0.0","65097383","wem/bandit_either_3","A2TH9DIRISH8FE","either","6","1855","","","","","","","1","0","0","0.6341880498","","0.8","0.6","0.4","0.2","","","","","0.7636866317","0.4878962787","0.6341880498","0.4323480181","","","","","","","","75","K","2","","","45","main_expt",""
"","bandit","125","695981","0.0-86.0-0.0","65097383","wem/bandit_either_3","A2TH9DIRISH8FE","either","6","103","","","","","","","1","0","0","0.487595293","","0.8","0.6","0.4","0.2","","","","","0.8203755575","0.487595293","0.5081310512","0.4348202433","","","","","","","","74","J","1","","","46","main_expt",""
"","bandit","126","697597","0.0-87.0-0.0","65097383","wem/bandit_either_3","A2TH9DIRISH8FE","either","6","112","","","","","","","0","0","1","","0.3430847618","0.8","0.6","0.4","0.2","0.8706375764","0.444754188","0.4202927251","0.3430847618","","","","","","","","","","","","76","L","3","","","47","main_expt",""
"","bandit","127","699158","0.0-88.0-0.0","65097383","wem/bandit_either_3","A2TH9DIRISH8FE","either","6","56","","","","","","","0","0","1","","0.2601977795","0.8","0.6","0.4","0.2","0.8019506245","0.5044276746","0.4767868938","0.2601977795","","","","","","","","","","","","76","L","3","","","48","main_expt",""
"","bandit","128","706581","0.0-89.0-0.0","65097383","wem/bandit_either_3","A2TH9DIRISH8FE","either","6","5918","","","","","","","0","0","1","","0.3749468019","0.8","0.6","0.4","0.2","0.7331224435","0.3766714482","0.3749468019","0.2368144698","","","","","","","","","","","","75","K","2","","","49","main_expt",""
"","bandit","129","708838","0.0-90.0-0.0","65097383","wem/bandit_either_3","A2TH9DIRISH8FE","either","6","753","","","","","","","1","0","0","0.7908344101","","0.8","0.6","0.4","0.2","","","","","0.7908344101","0.406992786","0.3532902347","0.2484527115","","","","","","","","72","H","0","img/none_selected.jpg","","50","main_expt",""
"","bandit","130","710838","0.0-91.0-0.0","65097383","wem/bandit_either_3","A2TH9DIRISH8FE","either","6","496","","","","","","","0","0","1","0.3854505747","","0.8","0.6","0.4","0.2","","","","","0.7922828235","0.3854505747","0.2413466802","0.230268934","","","","","","","","74","J","1","","","51","main_expt",""
"","bandit","131","712399","0.0-92.0-0.0","65097383","wem/bandit_either_3","A2TH9DIRISH8FE","either","6","56","","","","","","","0","1","0","","0.3956915145","0.8","0.6","0.4","0.2","0.7485378942","0.3956915145","0.2673723166","0.3429002399","","","","","","","","","","","","74","J","1","","","52","main_expt",""
"","bandit","132","714037","0.0-93.0-0.0","65097383","wem/bandit_either_3","A2TH9DIRISH8FE","either","6","135","","","","","","","1","0","0","0.6603794952","","0.8","0.6","0.4","0.2","","","","","0.6603794952","0.3062348001","0.2806035608","0.2871029552","","","","","","","","72","H","0","img/none_selected.jpg","","53","main_expt",""
"","bandit","133","715686","0.0-94.0-0.0","65097383","wem/bandit_either_3","A2TH9DIRISH8FE","either","6","145","","","","","","","1","0","0","0.6931449795","","0.8","0.6","0.4","0.2","","","","","0.6931449795","0.2996500993","0.2544312064","0.2594444468","","","","","","","","72","H","0","img/none_selected.jpg","","54","main_expt",""
"","bandit","134","717214","0.0-95.0-0.0","65097383","wem/bandit_either_3","A2TH9DIRISH8FE","either","6","24","","","","","","","1","0","0","0.3362815808","","0.8","0.6","0.4","0.2","","","","","0.7553272845","0.2518247787","0.3362815808","0.3333749245","","","","","","","","75","K","2","","","55","main_expt",""
"","bandit","135","718854","0.0-96.0-0.0","65097383","wem/bandit_either_3","A2TH9DIRISH8FE","either","6","136","","","","","","","0","0","1","","0.3014763065","0.8","0.6","0.4","0.2","0.7231548626","0.3014763065","0.3798256012","0.3049104067","","","","","","","","","","","","74","J","1","","","56","main_expt",""
"","bandit","136","720463","0.0-97.0-0.0","65097383","wem/bandit_either_3","A2TH9DIRISH8FE","either","6","104","","","","","","","0","1","0","","0.7485901337","0.8","0.6","0.4","0.2","0.7485901337","0.2730843718","0.3989549393","0.3623273811","","","","","","","","","","","","72","H","0","img/none_selected.jpg","","57","main_expt",""
"","bandit","137","721983","0.0-98.0-0.0","65097383","wem/bandit_either_3","A2TH9DIRISH8FE","either","6","15","","","","","","","1","0","0","0.797082508","","0.8","0.6","0.4","0.2","","","","","0.797082508","0.367239041","0.3373398956","0.3621169042","","","","","","","","72","H","0","img/none_selected.jpg","","58","main_expt",""
"","bandit","138","723542","0.0-99.0-0.0","65097383","wem/bandit_either_3","A2TH9DIRISH8FE","either","6","55","","","","","","","1","0","0","0.7466963627","","0.8","0.6","0.4","0.2","","","","","0.7466963627","0.4005220403","0.3381045731","0.3672848169","","","","","","","","72","H","0","img/none_selected.jpg","","59","main_expt",""
"","bandit","139","725103","0.0-100.0-0.0","65097383","wem/bandit_either_3","A2TH9DIRISH8FE","either","6","56","","","","","","","0","0","1","0.6359615323","","0.8","0.6","0.4","0.2","","","","","0.6359615323","0.4863912708","0.4838111383","0.5123874715","","","","","","","","72","H","0","img/none_selected.jpg","","60","main_expt",""
"","bandit","140","726767","0.0-101.0-0.0","65097383","wem/bandit_either_3","A2TH9DIRISH8FE","either","6","159","","","","","","","1","0","0","0.7125939799","","0.8","0.6","0.4","0.2","","","","","0.7125939799","0.5220595343","0.4290776342","0.5218319631","","","","","","","","72","H","0","img/none_selected.jpg","","61","main_expt",""
"","bandit","141","728421","0.0-102.0-0.0","65097383","wem/bandit_either_3","A2TH9DIRISH8FE","either","6","151","","","","","","","0","1","0","","0.4387439774","0.8","0.6","0.4","0.2","0.5978650666","0.5447889898","0.4387439774","0.6482151027","","","","","","","","","","","","75","K","2","","","62","main_expt",""
"","bandit","142","729960","0.0-103.0-0.0","65097383","wem/bandit_either_3","A2TH9DIRISH8FE","either","6","33","","","","","","","1","0","0","0.5517390004","","0.8","0.6","0.4","0.2","","","","","0.5166338879","0.5517390004","0.3670418014","0.6966290852","","","","","","","","74","J","1","","","63","main_expt",""
"","bandit","143","732079","0.0-104.0-0.0","65097383","wem/bandit_either_3","A2TH9DIRISH8FE","either","6","614","","","","","","","0","0","1","","0.3470393933","0.8","0.6","0.4","0.2","0.4901650138","0.6576188384","0.3470393933","0.6497033777","","","","","","","","","","","","75","K","2","","","64","main_expt",""
"","bandit","144","734174","0.0-105.0-0.0","65097383","wem/bandit_either_3","A2TH9DIRISH8FE","either","6","591","","","","","","","0","0","1","","0.3361574661","0.8","0.6","0.4","0.2","0.459365688","0.5156176703","0.3361574661","0.6925184903","","","","","","","","","","","","75","K","2","","","65","main_expt",""
"","bandit","145","735767","0.0-106.0-0.0","65097383","wem/bandit_either_3","A2TH9DIRISH8FE","either","6","88","","","","","","","1","0","0","0.34308242","","0.8","0.6","0.4","0.2","","","","","0.4666104807","0.3851410914","0.34308242","0.8298767513","","","","","","","","75","K","2","","","66","main_expt",""
"","bandit","146","737534","0.0-107.0-0.0","65097383","wem/bandit_either_3","A2TH9DIRISH8FE","either","6","262","","","","","","","0","0","1","","0.3925250542","0.8","0.6","0.4","0.2","0.5547259005","0.3925250542","0.3730603492","0.8506596021","","","","","","","","","","","","74","J","1","","","67","main_expt",""
"","bandit","147","743446","0.0-108.0-0.0","65097383","wem/bandit_either_3","A2TH9DIRISH8FE","either","6","4408","","","","","","","0","0","1","","0.4089949532","0.8","0.6","0.4","0.2","0.6038719492","0.3884113518","0.4089949532","0.8536910832","","","","","","","","","","","","75","K","2","","","68","main_expt",""
"","bandit","148","744982","0.0-109.0-0.0","65097383","wem/bandit_either_3","A2TH9DIRISH8FE","either","6","32","","","","","","","0","0","1","0.8642538991","","0.8","0.6","0.4","0.2","","","","","0.6148283845","0.3434478979","0.3749002533","0.8642538991","","","","","","","","76","L","3","","","69","main_expt",""
"","bandit","149","746549","0.0-110.0-0.0","65097383","wem/bandit_either_3","A2TH9DIRISH8FE","either","6","64","","","","","","","0","1","0","","0.8073802352","0.8","0.6","0.4","0.2","0.6683283761","0.4426642051","0.4133869845","0.8073802352","","","","","","","","","","","","76","L","3","","","70","main_expt",""
"","bandit","150","748175","0.0-111.0-0.0","65097383","wem/bandit_either_3","A2TH9DIRISH8FE","either","6","121","","","","","","","1","0","0","0.738459761","","0.8","0.6","0.4","0.2","","","","","0.738459761","0.4518046004","0.3302164541","0.8059201048","","","","","","","","72","H","0","img/none_selected.jpg","","71","main_expt",""
"","bandit","151","775718","0.0-112.0-0.0","65097383","wem/bandit_either_3","A2TH9DIRISH8FE","either","6","26037","","","","","","","0","1","0","","0.4903223245","0.8","0.6","0.4","0.2","0.6525166508","0.4903223245","0.2570952275","0.8262275011","","","","","","","","","","","","74","J","1","","","72","main_expt",""
"","bandit","152","777286","0.0-113.0-0.0","65097383","wem/bandit_either_3","A2TH9DIRISH8FE","either","6","63","","","","","","","1","0","0","0.7334390718","","0.8","0.6","0.4","0.2","","","","","0.5715134512","0.5296083002","0.2042885023","0.7334390718","","","","","","","","76","L","3","","","73","main_expt",""
"","bandit","153","779005","0.0-114.0-0.0","65097383","wem/bandit_either_3","A2TH9DIRISH8FE","either","6","214","","","","","","","0","0","1","0.2152837516","","0.8","0.6","0.4","0.2","","","","","0.6228045854","0.4883026933","0.2152837516","0.7490977197","","","","","","","","75","K","2","","","74","main_expt",""
"","bandit","154","780645","0.0-115.0-0.0","65097383","wem/bandit_either_3","A2TH9DIRISH8FE","either","6","137","","","","","","","0","0","1","0.4914171484","","0.8","0.6","0.4","0.2","","","","","0.613630376","0.4914171484","0.2044775694","0.7554087461","","","","","","","","74","J","1","","","75","main_expt",""
"","bandit","155","782253","0.0-116.0-0.0","65097383","wem/bandit_either_3","A2TH9DIRISH8FE","either","6","104","","","","","","","0","1","0","","0.804443878","0.8","0.6","0.4","0.2","0.7047266053","0.6059218973","0.2247613499","0.804443878","","","","","","","","","","","","76","L","3","","","76","main_expt",""
"","bandit","156","784790","0.0-117.0-0.0","65097383","wem/bandit_either_3","A2TH9DIRISH8FE","either","6","1033","","","","","","","0","1","0","","0.553792366","0.8","0.6","0.4","0.2","0.6910360943","0.553792366","0.2266335256","0.6656620098","","","","","","","","","","","","74","J","1","","","77","main_expt",""
"","bandit","157","786397","0.0-118.0-0.0","65097383","wem/bandit_either_3","A2TH9DIRISH8FE","either","6","103","","","","","","","0","0","1","","0.5898140708","0.8","0.6","0.4","0.2","0.5515992215","0.6884193839","0.1659731505","0.5898140708","","","","","","","","","","","","76","L","3","","","78","main_expt",""
"","bandit","158","788062","0.0-119.0-0.0","65097383","wem/bandit_either_3","A2TH9DIRISH8FE","either","6","160","","","","","","","0","1","0","","0.613215191","0.8","0.6","0.4","0.2","0.6448399581","0.7214277645","0.2343921172","0.613215191","","","","","","","","","","","","76","L","3","","","79","main_expt",""
"","bandit","159","789567","0.0-120.0-0.0","65097383","wem/bandit_either_3","A2TH9DIRISH8FE","either","6","1","","","","","","","1","0","0","0.7328142644","","0.8","0.6","0.4","0.2","","","","","0.739479497","0.7328142644","0.2164054515","0.4605925783","","","","","","","","74","J","1","","","80","main_expt",""
"","bandit","160","794005","0.0-121.0-0.0","65097383","wem/bandit_either_3","A2TH9DIRISH8FE","either","6","2933","","","","","","","0","1","0","","0.5390789087","0.8","0.6","0.4","0.2","0.6956071838","0.7101675561","0.1361232007","0.5390789087","","","","","","","","","","","","76","L","3","","","81","main_expt",""
"","bandit","161","795621","0.0-122.0-0.0","65097383","wem/bandit_either_3","A2TH9DIRISH8FE","either","6","111","","","","","","","1","0","0","0.6984384541","","0.8","0.6","0.4","0.2","","","","","0.5886517937","0.6984384541","0.2275447725","0.621290364","","","","","","","","74","J","1","","","82","main_expt",""
"","bandit","162","797237","0.0-123.0-0.0","65097383","wem/bandit_either_3","A2TH9DIRISH8FE","either","6","113","","","","","","","0","1","0","","0.7447883659","0.8","0.6","0.4","0.2","0.4764182235","0.7447883659","0.1900607051","0.6359424421","","","","","","","","","","","","74","J","1","","","83","main_expt",""
"","bandit","163","798814","0.0-124.0-0.0","65097383","wem/bandit_either_3","A2TH9DIRISH8FE","either","6","72","","","","","","","0","1","0","","0.6900592863","0.8","0.6","0.4","0.2","0.5149027494","0.6900592863","0.1306868958","0.6133664729","","","","","","","","","","","","74","J","1","","","84","main_expt",""
"","bandit","164","800349","0.0-125.0-0.0","65097383","wem/bandit_either_3","A2TH9DIRISH8FE","either","6","31","","","","","","","1","0","0","0.7010597455","","0.8","0.6","0.4","0.2","","","","","0.4908067213","0.7010597455","0.1683201849","0.7815463305","","","","","","","","74","J","1","","","85","main_expt",""
"","bandit","165","801855","0.0-126.0-0.0","65097383","wem/bandit_either_3","A2TH9DIRISH8FE","either","6","1","","","","","","","1","0","0","0.6171062652","","0.8","0.6","0.4","0.2","","","","","0.4139472458","0.6171062652","0.1290314955","0.7355789231","","","","","","","","74","J","1","","","86","main_expt",""
"","bandit","166","803446","0.0-127.0-0.0","65097383","wem/bandit_either_3","A2TH9DIRISH8FE","either","6","86","","","","","","","0","1","0","","0.4253818619","0.8","0.6","0.4","0.2","0.4253818619","0.5629375242","0.2297537383","0.7267399876","","","","","","","","","","","","72","H","0","img/none_selected.jpg","","87","main_expt",""
"","bandit","167","804973","0.0-128.0-0.0","65097383","wem/bandit_either_3","A2TH9DIRISH8FE","either","6","24","","","","","","","1","0","0","0.4448862761","","0.8","0.6","0.4","0.2","","","","","0.4448862761","0.6434443074","0.1878263516","0.7703195612","","","","","","","","72","H","0","img/none_selected.jpg","","88","main_expt",""
"","bandit","168","806573","0.0-129.0-0.0","65097383","wem/bandit_either_3","A2TH9DIRISH8FE","either","6","95","","","","","","","1","0","0","0.7296698787","","0.8","0.6","0.4","0.2","","","","","0.4295642349","0.7296698787","0.1896964823","0.81872988","","","","","","","","74","J","1","","","89","main_expt",""
"","bandit","169","808141","0.0-130.0-0.0","65097383","wem/bandit_either_3","A2TH9DIRISH8FE","either","6","63","","","","","","","0","0","1","","0.3655203192","0.8","0.6","0.4","0.2","0.3655203192","0.7042864347","0.1614970172","0.8032570632","","","","","","","","","","","","72","H","0","img/none_selected.jpg","","90","main_expt",""
"","bandit","170","809680","0.0-131.0-0.0","65097383","wem/bandit_either_3","A2TH9DIRISH8FE","either","6","34","","","","","","","1","0","0","0.402428746","","0.8","0.6","0.4","0.2","","","","","0.402428746","0.7606559624","0.2107705911","0.8257352781","","","","","","","","72","H","0","img/none_selected.jpg","","91","main_expt",""
"","bandit","171","811253","0.0-132.0-0.0","65097383","wem/bandit_either_3","A2TH9DIRISH8FE","either","6","70","","","","","","","0","0","1","0.452733603","","0.8","0.6","0.4","0.2","","","","","0.452733603","0.8466818248","0.1317951273","0.7762210657","","","","","","","","72","H","0","img/none_selected.jpg","","92","main_expt",""
"","bandit","172","812829","0.0-133.0-0.0","65097383","wem/bandit_either_3","A2TH9DIRISH8FE","either","6","72","","","","","","","0","1","0","","0.8181600593","0.8","0.6","0.4","0.2","0.5416456901","0.8181600593","0.09268613222","0.8293629201","","","","","","","","","","","","74","J","1","","","93","main_expt",""
"","bandit","173","814366","0.0-134.0-0.0","65097383","wem/bandit_either_3","A2TH9DIRISH8FE","either","6","31","","","","","","","0","0","1","","0.7259749053","0.8","0.6","0.4","0.2","0.5246039132","0.7259749053","0.06418168538","0.7849393417","","","","","","","","","","","","74","J","1","","","94","main_expt",""
"","bandit","174","815871","0.0-135.0-0.0","65097383","wem/bandit_either_3","A2TH9DIRISH8FE","either","6","0","","","","","","","1","0","0","0.6538641892","","0.8","0.6","0.4","0.2","","","","","0.606801291","0.6538641892","0.100072779","0.7850226125","","","","","","","","74","J","1","","","95","main_expt",""
"","bandit","175","817437","0.0-136.0-0.0","65097383","wem/bandit_either_3","A2TH9DIRISH8FE","either","6","62","","","","","","","0","1","0","","0.8013150942","0.8","0.6","0.4","0.2","0.7175242067","0.6384360591","0.09628221604","0.8013150942","","","","","","","","","","","","76","L","3","","","96","main_expt",""
"","bandit","176","818949","0.0-137.0-0.0","65097383","wem/bandit_either_3","A2TH9DIRISH8FE","either","6","7","","","","","","","0","0","1","","0.1335622201","0.8","0.6","0.4","0.2","0.7706560561","0.6836118029","0.1335622201","0.70340399","","","","","","","","","","","","75","K","2","","","97","main_expt",""
"","bandit","177","820473","0.0-138.0-0.0","65097383","wem/bandit_either_3","A2TH9DIRISH8FE","either","6","18","","","","","","","1","0","0","0.7562517051","","0.8","0.6","0.4","0.2","","","","","0.7234704616","0.659457158","0.167202632","0.7562517051","","","","","","","","76","L","3","","","98","main_expt",""
"","bandit","178","822077","0.0-139.0-0.0","65097383","wem/bandit_either_3","A2TH9DIRISH8FE","either","6","99","","","","","","","1","0","0","0.7726162223","","0.8","0.6","0.4","0.2","","","","","0.6582042781","0.7726162223","0.1216125457","0.6514659141","","","","","","","","74","J","1","","","99","main_expt",""
"","bandit","179","823653","0.0-140.0-0.0","65097383","wem/bandit_either_3","A2TH9DIRISH8FE","either","6","73","","","","","","","0","0","1","0.6530973887","","0.8","0.6","0.4","0.2","","","","","0.6530973887","0.8446518706","0.1163239148","0.7112237606","","","","","","","","72","H","0","img/none_selected.jpg","","100","main_expt",""
"","bandit","180","825158","0.0-141.0-0.0","65097383","wem/bandit_either_3","A2TH9DIRISH8FE","either","6","1","","","","","","","0","0","1","0.1037928869","","0.8","0.6","0.4","0.2","","","","","0.6690961394","0.8784151442","0.1037928869","0.6865981462","","","","","","","","75","K","2","","","101","main_expt",""
"","bandit","181","826750","0.0-142.0-0.0","65097383","wem/bandit_either_3","A2TH9DIRISH8FE","either","6","86","","","","","","","1","0","0","0.6268844929","","0.8","0.6","0.4","0.2","","","","","0.6268844929","0.8781202538","0.0991068806","0.6663704066","","","","","","","","72","H","0","img/none_selected.jpg","","102","main_expt",""
"","bandit","182","828325","0.0-143.0-0.0","65097383","wem/bandit_either_3","A2TH9DIRISH8FE","either","6","70","","","","","","","1","0","0","0.6657789595","","0.8","0.6","0.4","0.2","","","","","0.6657789595","0.8123732176","0.1226752409","0.6006744832","","","","","","","","72","H","0","img/none_selected.jpg","","103","main_expt",""
"","bandit","183","829982","0.0-144.0-0.0","65097383","wem/bandit_either_3","A2TH9DIRISH8FE","either","6","152","","","","","","","1","0","0","0.6951589836","","0.8","0.6","0.4","0.2","","","","","0.6951589836","0.8461937008","0.1552466415","0.518723913","","","","","","","","72","H","0","img/none_selected.jpg","","104","main_expt",""
"","bandit","184","831614","0.0-145.0-0.0","65097383","wem/bandit_either_3","A2TH9DIRISH8FE","either","6","127","","","","","","","1","0","0","0.8664825842","","0.8","0.6","0.4","0.2","","","","","0.6382729445","0.8664825842","0.1702138509","0.5343999165","","","","","","","","74","J","1","","","105","main_expt",""
"","bandit","185","833197","0.0-146.0-0.0","65097383","wem/bandit_either_3","A2TH9DIRISH8FE","either","6","79","","","","","","","1","0","0","0.7139624249","","0.8","0.6","0.4","0.2","","","","","0.7139624249","0.8703997655","0.2021425125","0.4959998489","","","","","","","","72","H","0","img/none_selected.jpg","","106","main_expt",""
"","bandit","186","834837","0.0-147.0-0.0","65097383","wem/bandit_either_3","A2TH9DIRISH8FE","either","6","136","","","","","","","0","0","1","","0.8964314806","0.8","0.6","0.4","0.2","0.7718136471","0.8964314806","0.2196373816","0.5052663648","","","","","","","","","","","","74","J","1","","","107","main_expt",""
"","bandit","187","836453","0.0-148.0-0.0","65097383","wem/bandit_either_3","A2TH9DIRISH8FE","either","6","111","","","","","","","1","0","0","0.9080126319","","0.8","0.6","0.4","0.2","","","","","0.8818715302","0.9080126319","0.2393661099","0.4859582203","","","","","","","","74","J","1","","","108","main_expt",""
"","bandit","188","838006","0.0-149.0-0.0","65097383","wem/bandit_either_3","A2TH9DIRISH8FE","either","6","49","","","","","","","0","1","0","","0.8880845243","0.8","0.6","0.4","0.2","0.8757741924","0.8880845243","0.2516352594","0.523617738","","","","","","","","","","","","74","J","1","","","109","main_expt",""
"","bandit","189","839525","0.0-150.0-0.0","65097383","wem/bandit_either_3","A2TH9DIRISH8FE","either","6","15","","","","","","","0","1","0","","0.8657151097","0.8","0.6","0.4","0.2","0.8657151097","0.899251136","0.2424291788","0.5492010791","","","","","","","","","","","","72","H","0","img/none_selected.jpg","","110","main_expt",""
"","bandit","190","841031","0.0-151.0-0.0","65097383","wem/bandit_either_3","A2TH9DIRISH8FE","either","6","0","","","","","","","0","1","0","","0.9019514556","0.8","0.6","0.4","0.2","0.8457624762","0.9019514556","0.2033086481","0.5467154696","","","","","","","","","","","","74","J","1","","","111","main_expt",""
"","bandit","191","842557","0.0-152.0-0.0","65097383","wem/bandit_either_3","A2TH9DIRISH8FE","either","6","22","","","","","","","1","0","0","0.9315537639","","0.8","0.6","0.4","0.2","","","","","0.8756116827","0.9315537639","0.208613213","0.5396215981","","","","","","","","74","J","1","","","112","main_expt",""
"","bandit","192","844222","0.0-153.0-0.0","65097383","wem/bandit_either_3","A2TH9DIRISH8FE","either","6","159","","","","","","","1","0","0","0.9254394702","","0.8","0.6","0.4","0.2","","","","","0.8773181328","0.9254394702","0.2743958833","0.5542875214","","","","","","","","74","J","1","","","113","main_expt",""
"","bandit","193","845893","0.0-154.0-0.0","65097383","wem/bandit_either_3","A2TH9DIRISH8FE","either","6","168","","","","","","","1","0","0","0.8842236373","","0.8","0.6","0.4","0.2","","","","","0.8842236373","0.9394904604","0.2657329006","0.6411428718","","","","","","","","72","H","0","img/none_selected.jpg","","114","main_expt",""
"","bandit","194","847478","0.0-155.0-0.0","65097383","wem/bandit_either_3","A2TH9DIRISH8FE","either","6","79","","","","","","","0","0","1","","0.3234316928","0.8","0.6","0.4","0.2","0.8499121835","0.9533355239","0.3234316928","0.7261400339","","","","","","","","","","","","75","K","2","","","115","main_expt",""
"","bandit","195","849469","0.0-156.0-0.0","65097383","wem/bandit_either_3","A2TH9DIRISH8FE","either","6","487","","","","","","","0","0","1","","0.3625587123","0.8","0.6","0.4","0.2","0.7890056153","0.960842596","0.3625587123","0.7395407697","","","","","","","","","","","","75","K","2","","","116","main_expt",""
"","bandit","196","851029","0.0-157.0-0.0","65097383","wem/bandit_either_3","A2TH9DIRISH8FE","either","6","55","","","","","","","0","1","0","","0.8231731708","0.8","0.6","0.4","0.2","0.7709890197","0.937733065","0.4946904956","0.8231731708","","","","","","","","","","","","76","L","3","","","117","main_expt",""
"","bandit","197","852534","0.0-158.0-0.0","65097383","wem/bandit_either_3","A2TH9DIRISH8FE","either","6","1","","","","","","","0","0","1","0.6246330079","","0.8","0.6","0.4","0.2","","","","","0.7459937787","0.9561499645","0.6246330079","0.8278750807","","","","","","","","75","K","2","","","118","main_expt",""
"","bandit","198","854101","0.0-159.0-0.0","65097383","wem/bandit_either_3","A2TH9DIRISH8FE","either","6","63","","","","","","","0","0","1","","0.8715827524","0.8","0.6","0.4","0.2","0.716881491","0.9595118281","0.5818097722","0.8715827524","","","","","","","","","","","","76","L","3","","","119","main_expt",""
"","bandit","199","855670","0.0-160.0-0.0","65097383","wem/bandit_either_3","A2TH9DIRISH8FE","either","6","65","","","","","","","0","1","0","","0.8522670476","0.8","0.6","0.4","0.2","0.6595649419","0.9548463758","0.5990025551","0.8522670476","","","","","","","","","","","","76","L","3","","","120","main_expt",""
"","bandit","200","857177","0.0-161.0-0.0","65097383","wem/bandit_either_3","A2TH9DIRISH8FE","either","6","1","","","","","","","0","1","0","","0.8266542562","0.8","0.6","0.4","0.2","0.6576447048","0.958085665","0.6534424477","0.8266542562","","","","","","","","","","","","76","L","3","","","121","main_expt",""
"","bandit","201","858749","0.0-162.0-0.0","65097383","wem/bandit_either_3","A2TH9DIRISH8FE","either","6","69","","","","","","","0","0","1","","0.5952731017","0.8","0.6","0.4","0.2","0.6391957719","0.9630601427","0.5952731017","0.81688531","","","","","","","","","","","","75","K","2","","","122","main_expt",""
"","bandit","202","860285","0.0-163.0-0.0","65097383","wem/bandit_either_3","A2TH9DIRISH8FE","either","6","31","","","","","","","0","0","1","","0.6469086187","0.8","0.6","0.4","0.2","0.5873908865","0.9790283764","0.6469086187","0.8307363081","","","","","","","","","","","","75","K","2","","","123","main_expt",""
"","bandit","203","861863","0.0-164.0-0.0","65097383","wem/bandit_either_3","A2TH9DIRISH8FE","either","6","73","","","","","","","1","0","0","0.9718765302","","0.8","0.6","0.4","0.2","","","","","0.6592760984","0.9718765302","0.6911454426","0.6943824695","","","","","","","","74","J","1","","","124","main_expt",""
"","bandit","204","863374","0.0-165.0-0.0","65097383","wem/bandit_either_3","A2TH9DIRISH8FE","either","6","6","","","","","","","0","1","0","","0.7137568944","0.8","0.6","0.4","0.2","0.6012083746","0.9845173964","0.750572215","0.7137568944","","","","","","","","","","","","76","L","3","","","125","main_expt",""
"","bandit","205","864942","0.0-166.0-0.0","65097383","wem/bandit_either_3","A2TH9DIRISH8FE","either","6","64","","","","","","","1","0","0","0.6878742658","","0.8","0.6","0.4","0.2","","","","","0.6043440275","0.9804670004","0.8108432581","0.6878742658","","","","","","","","76","L","3","","","126","main_expt",""
"","bandit","206","866478","0.0-167.0-0.0","65097383","wem/bandit_either_3","A2TH9DIRISH8FE","either","6","31","","","","","","","0","1","0","","0.6175454059","0.8","0.6","0.4","0.2","0.5043142332","0.9792667249","0.8338196277","0.6175454059","","","","","","","","","","","","76","L","3","","","127","main_expt",""
"","bandit","207","867997","0.0-168.0-0.0","65097383","wem/bandit_either_3","A2TH9DIRISH8FE","either","6","15","","","","","","","0","1","0","","0.8624128669","0.8","0.6","0.4","0.2","0.5778209799","0.9853815399","0.8624128669","0.5556505876","","","","","","","","","","","","75","K","2","","","128","main_expt",""
"","bandit","208","869622","0.0-169.0-0.0","65097383","wem/bandit_either_3","A2TH9DIRISH8FE","either","6","119","","","","","","","1","0","0","0.9026068167","","0.8","0.6","0.4","0.2","","","","","0.5806273004","0.9838319732","0.9026068167","0.5948532478","","","","","","","","75","K","2","","","129","main_expt",""
"","bandit","209","871127","0.0-170.0-0.0","65097383","wem/bandit_either_3","A2TH9DIRISH8FE","either","6","0","","","","","","","1","0","0","0.9798768453","","0.8","0.6","0.4","0.2","","","","","0.4152233618","0.9798768453","0.8983636673","0.6646968067","","","","","","","","74","J","1","","","130","main_expt",""
"","bandit","210","872749","0.0-171.0-0.0","65097383","wem/bandit_either_3","A2TH9DIRISH8FE","either","6","117","","","","","","","0","0","1","","0.6676177377","0.8","0.6","0.4","0.2","0.4527057242","0.9628017066","0.888478962","0.6676177377","","","","","","","","","","","","76","L","3","","","131","main_expt",""
"","bandit","211","874333","0.0-172.0-0.0","65097383","wem/bandit_either_3","A2TH9DIRISH8FE","either","6","81","","","","","","","0","0","1","","0.7638630926","0.8","0.6","0.4","0.2","0.5185753891","0.9723970119","0.8470567254","0.7638630926","","","","","","","","","","","","76","L","3","","","132","main_expt",""
"","bandit","212","875838","0.0-173.0-0.0","65097383","wem/bandit_either_3","A2TH9DIRISH8FE","either","6","0","","","","","","","1","0","0","0.726350598","","0.8","0.6","0.4","0.2","","","","","0.4567386081","0.9754432393","0.8852081265","0.726350598","","","","","","","","76","L","3","","","133","main_expt",""
"","bandit","213","877430","0.0-174.0-0.0","65097383","wem/bandit_either_3","A2TH9DIRISH8FE","either","6","87","","","","","","","1","0","0","0.9635376407","","0.8","0.6","0.4","0.2","","","","","0.4494056808","0.9635376407","0.8317422298","0.7638059904","","","","","","","","74","J","1","","","134","main_expt",""
"","bandit","214","879038","0.0-175.0-0.0","65097383","wem/bandit_either_3","A2TH9DIRISH8FE","either","6","104","","","","","","","0","1","0","","0.7337835984","0.8","0.6","0.4","0.2","0.4608562393","0.9304273523","0.8121858422","0.7337835984","","","","","","","","","","","","76","L","3","","","135","main_expt",""
"","bandit","215","880597","0.0-176.0-0.0","65097383","wem/bandit_either_3","A2TH9DIRISH8FE","either","6","55","","","","","","","0","0","1","0.8473276522","","0.8","0.6","0.4","0.2","","","","","0.6684020244","0.9295592062","0.8473276522","0.7869055623","","","","","","","","75","K","2","","","136","main_expt",""
"","bandit","216","882126","0.0-177.0-0.0","65097383","wem/bandit_either_3","A2TH9DIRISH8FE","either","6","23","","","","","","","0","1","0","","0.8033651193","0.8","0.6","0.4","0.2","0.614137061","0.9343332129","0.8251243182","0.8033651193","","","","","","","","","","","","76","L","3","","","137","main_expt",""
"","bandit","217","883662","0.0-178.0-0.0","65097383","wem/bandit_either_3","A2TH9DIRISH8FE","either","6","32","","","","","","","1","0","0","0.7620089345","","0.8","0.6","0.4","0.2","","","","","0.711021659","0.9325781127","0.7892590299","0.7620089345","","","","","","","","76","L","3","","","138","main_expt",""
"","bandit","218","885181","0.0-179.0-0.0","65097383","wem/bandit_either_3","A2TH9DIRISH8FE","either","6","15","","","","","","","0","1","0","","0.8098853196","0.8","0.6","0.4","0.2","0.5731932267","0.9687763229","0.753698647","0.8098853196","","","","","","","","","","","","76","L","3","","","139","main_expt",""
"","bandit","219","886743","0.0-180.0-0.0","65097383","wem/bandit_either_3","A2TH9DIRISH8FE","either","6","56","","","","","","","0","1","0","","0.8737133651","0.8","0.6","0.4","0.2","0.6553783698","0.9520204639","0.7281837229","0.8737133651","","","","","","","","","","","","76","L","3","","","140","main_expt",""
"","bandit","220","888269","0.0-181.0-0.0","65097383","wem/bandit_either_3","A2TH9DIRISH8FE","either","6","22","","","","","","","1","0","0","0.7913145473","","0.8","0.6","0.4","0.2","","","","","0.5665224918","0.9615613541","0.7913145473","0.8464817719","","","","","","","","75","K","2","","","141","main_expt",""
"","bandit","221","889909","0.0-182.0-0.0","65097383","wem/bandit_either_3","A2TH9DIRISH8FE","either","6","135","","","","","","","0","1","0","","0.8457688645","0.8","0.6","0.4","0.2","0.5230460729","0.9438722422","0.7498898283","0.8457688645","","","","","","","","","","","","76","L","3","","","142","main_expt",""
"","bandit","222","891414","0.0-183.0-0.0","65097383","wem/bandit_either_3","A2TH9DIRISH8FE","either","6","0","","","","","","","0","1","0","","0.723110339","0.8","0.6","0.4","0.2","0.5401897842","0.9419241064","0.723110339","0.8801682128","","","","","","","","","","","","75","K","2","","","143","main_expt",""
"","bandit","223","893053","0.0-184.0-0.0","65097383","wem/bandit_either_3","A2TH9DIRISH8FE","either","6","135","","","","","","","0","0","1","0.9383966058","","0.8","0.6","0.4","0.2","","","","","0.5495292383","0.9383966058","0.7697142539","0.7806105972","","","","","","","","74","J","1","","","144","main_expt",""
"","bandit","224","894709","0.0-185.0-0.0","65097383","wem/bandit_either_3","A2TH9DIRISH8FE","either","6","151","","","","","","","1","0","0","0.9442204223","","0.8","0.6","0.4","0.2","","","","","0.4718854897","0.9442204223","0.8279494337","0.7384744451","","","","","","","","74","J","1","","","145","main_expt",""
"","bandit","225","896238","0.0-186.0-0.0","65097383","wem/bandit_either_3","A2TH9DIRISH8FE","either","6","24","","","","","","","0","1","0","","0.9461270134","0.8","0.6","0.4","0.2","0.3790577705","0.9461270134","0.747104877","0.7078417075","","","","","","","","","","","","74","J","1","","","146","main_expt",""
"","bandit","226","897759","0.0-187.0-0.0","65097383","wem/bandit_either_3","A2TH9DIRISH8FE","either","6","15","","","","","","","0","1","0","","0.9677113618","0.8","0.6","0.4","0.2","0.3671333747","0.9677113618","0.7635883185","0.7671729372","","","","","","","","","","","","74","J","1","","","147","main_expt",""
"","bandit","227","899662","0.0-188.0-0.0","65097383","wem/bandit_either_3","A2TH9DIRISH8FE","either","6","398","","","","","","","1","0","0","0.7515071201","","0.8","0.6","0.4","0.2","","","","","0.4462771912","0.9603287673","0.6650729927","0.7515071201","","","","","","","","76","L","3","","","148","main_expt",""
"","bandit","228","901169","0.0-189.0-0.0","65097383","wem/bandit_either_3","A2TH9DIRISH8FE","either","6","1","","","","","","","1","0","0","0.594527628","","0.8","0.6","0.4","0.2","","","","","0.3929125452","0.9256305183","0.594527628","0.7582160768","","","","","","","","75","K","2","","","149","main_expt",""
"","bandit","229","902734","0.0-190.0-0.0","65097383","wem/bandit_either_3","A2TH9DIRISH8FE","either","6","58","","","","","","","0","0","1","0.3825194633","","0.8","0.6","0.4","0.2","","","","","0.3825194633","0.9222609783","0.5101412162","0.6843302658","","","","","","","","72","H","0","img/none_selected.jpg","","150","main_expt",""
"","bandit","230","904285","0.0-191.0-0.0","65097383","wem/bandit_either_3","A2TH9DIRISH8FE","either","6","46","","","","","","","0","0","1","","0.4980827124","0.8","0.6","0.4","0.2","0.3889652011","0.9522131909","0.5755011036","0.4980827124","","","","","","","","","","","","76","L","3","","","151","main_expt",""
"","bandit","231","905919","0.0-192.0-0.0","65097383","wem/bandit_either_3","A2TH9DIRISH8FE","either","6","128","","","","","","","0","1","0","","0.5415628766","0.8","0.6","0.4","0.2","0.372169082","0.9351777179","0.5415628766","0.5418861514","","","","","","","","","","","","75","K","2","","","152","main_expt",""
"","bandit","232","907454","0.0-193.0-0.0","65097383","wem/bandit_either_3","A2TH9DIRISH8FE","either","6","30","","","","","","","0","0","1","0.6424708626","","0.8","0.6","0.4","0.2","","","","","0.4275919172","0.9526549669","0.6392888902","0.6424708626","","","","","","","","76","L","3","","","153","main_expt",""
"","bandit","233","908989","0.0-194.0-0.0","65097383","wem/bandit_either_3","A2TH9DIRISH8FE","either","6","30","","","","","","","0","0","1","","0.6200403258","0.8","0.6","0.4","0.2","0.3978897223","0.944677936","0.6798835142","0.6200403258","","","","","","","","","","","","76","L","3","","","154","main_expt",""
"","bandit","234","910509","0.0-195.0-0.0","65097383","wem/bandit_either_3","A2TH9DIRISH8FE","either","6","15","","","","","","","0","1","0","","0.9443948233","0.8","0.6","0.4","0.2","0.4922143253","0.9443948233","0.7376683638","0.5087788092","","","","","","","","","","","","74","J","1","","","155","main_expt",""
"","bandit","235","912149","0.0-196.0-0.0","65097383","wem/bandit_either_3","A2TH9DIRISH8FE","either","6","135","","","","","","","0","1","0","","0.4397360723","0.8","0.6","0.4","0.2","0.5060601407","0.9312029685","0.7740838489","0.4397360723","","","","","","","","","","","","76","L","3","","","156","main_expt",""
"","bandit","236","913686","0.0-197.0-0.0","65097383","wem/bandit_either_3","A2TH9DIRISH8FE","either","6","32","","","","","","","0","0","1","0.56460533","","0.8","0.6","0.4","0.2","","","","","0.56460533","0.9009413449","0.7526352547","0.4529934193","","","","","","","","72","H","0","img/none_selected.jpg","","157","main_expt",""
"","bandit","237","915209","0.0-198.0-0.0","65097383","wem/bandit_either_3","A2TH9DIRISH8FE","either","6","14","","","","","","","0","1","0","","0.522014142","0.8","0.6","0.4","0.2","0.5551408743","0.8799225656","0.807066173","0.522014142","","","","","","","","","","","","76","L","3","","","158","main_expt",""
"","bandit","238","916798","0.0-199.0-0.0","65097383","wem/bandit_either_3","A2TH9DIRISH8FE","either","6","83","","","","","","","0","1","0","","0.447178695","0.8","0.6","0.4","0.2","0.6362487126","0.9103166083","0.8348587906","0.447178695","","","","","","","","","","","","76","L","3","","","159","main_expt",""
"","bandit","239","918316","0.0-200.0-0.0","65097383","wem/bandit_either_3","A2TH9DIRISH8FE","either","6","11","","","","","","","0","1","0","","0.4293784973","0.8","0.6","0.4","0.2","0.5818198138","0.9575168601","0.8054329593","0.4293784973","","","","","","","","","","","","76","L","3","","","160","main_expt",""
"","bandit","240","919847","0.0-201.0-0.0","65097383","wem/bandit_either_3","A2TH9DIRISH8FE","either","6","25","","","","","","","0","1","0","","0.8263011938","0.8","0.6","0.4","0.2","0.5079421761","0.9323430526","0.8263011938","0.4263694152","","","","","","","","","","","","75","K","2","","","161","main_expt",""
"","bandit","241","921413","0.0-202.0-0.0","65097383","wem/bandit_either_3","A2TH9DIRISH8FE","either","6","62","","","","","","","0","1","0","","0.4394756583","0.8","0.6","0.4","0.2","0.3944353318","0.8731035433","0.8468561623","0.4394756583","","","","","","","","","","","","76","L","3","","","162","main_expt",""
"","bandit","242","922973","0.0-203.0-0.0","65097383","wem/bandit_either_3","A2TH9DIRISH8FE","either","6","55","","","","","","","0","1","0","","0.866861138","0.8","0.6","0.4","0.2","0.4560534757","0.860239847","0.866861138","0.4632532181","","","","","","","","","","","","75","K","2","","","163","main_expt",""
"","bandit","243","924557","0.0-204.0-0.0","65097383","wem/bandit_either_3","A2TH9DIRISH8FE","either","6","79","","","","","","","1","0","0","0.4338988853","","0.8","0.6","0.4","0.2","","","","","0.4338988853","0.8327160304","0.8621839131","0.469091439","","","","","","","","72","H","0","img/none_selected.jpg","","164","main_expt",""
"","bandit","244","926095","0.0-205.0-0.0","65097383","wem/bandit_either_3","A2TH9DIRISH8FE","either","6","33","","","","","","","1","0","0","0.3640020004","","0.8","0.6","0.4","0.2","","","","","0.3640020004","0.8780399083","0.8368369455","0.4691854483","","","","","","","","72","H","0","img/none_selected.jpg","","165","main_expt",""
"","bandit","245","927622","0.0-206.0-0.0","65097383","wem/bandit_either_3","A2TH9DIRISH8FE","either","6","22","","","","","","","0","0","1","","0.4433911144","0.8","0.6","0.4","0.2","0.4433911144","0.8659509199","0.8543831227","0.424594696","","","","","","","","","","","","72","H","0","img/none_selected.jpg","","166","main_expt",""
"","bandit","246","929142","0.0-207.0-0.0","65097383","wem/bandit_either_3","A2TH9DIRISH8FE","either","6","13","","","","","","","1","0","0","0.8458676595","","0.8","0.6","0.4","0.2","","","","","0.4852122499","0.8458676595","0.8444257961","0.4691217736","","","","","","","","74","J","1","","","167","main_expt",""
"","bandit","247","930718","0.0-208.0-0.0","65097383","wem/bandit_either_3","A2TH9DIRISH8FE","either","6","70","","","","","","","1","0","0","0.7368025647","","0.8","0.6","0.4","0.2","","","","","0.4829488348","0.7368025647","0.8895061166","0.4605946041","","","","","","","","74","J","1","","","168","main_expt",""
"","bandit","248","932270","0.0-209.0-0.0","65097383","wem/bandit_either_3","A2TH9DIRISH8FE","either","6","47","","","","","","","1","0","0","0.6811301937","","0.8","0.6","0.4","0.2","","","","","0.467087579","0.6811301937","0.8980662015","0.4302520818","","","","","","","","74","J","1","","","169","main_expt",""
"","bandit","249","933791","0.0-210.0-0.0","65097383","wem/bandit_either_3","A2TH9DIRISH8FE","either","6","14","","","","","","","0","0","1","","0.3575164989","0.8","0.6","0.4","0.2","0.3575164989","0.6781719117","0.9399190154","0.3846086554","","","","","","","","","","","","72","H","0","img/none_selected.jpg","","170","main_expt",""
"","bandit","250","935325","0.0-211.0-0.0","65097383","wem/bandit_either_3","A2TH9DIRISH8FE","either","6","28","","","","","","","0","1","0","","0.9199626721","0.8","0.6","0.4","0.2","0.3433755155","0.5779776893","0.9199626721","0.4938912128","","","","","","","","","","","","75","K","2","","","171","main_expt",""
"","bandit","251","937997","0.0-212.0-0.0","65097383","wem/bandit_either_3","A2TH9DIRISH8FE","either","6","1168","","","","","","","1","0","0","0.5461867433","","0.8","0.6","0.4","0.2","","","","","0.2921203137","0.5461867433","0.8885959212","0.5409242696","","","","","","","","74","J","1","","","172","main_expt",""
"","bandit","252","939573","0.0-213.0-0.0","65097383","wem/bandit_either_3","A2TH9DIRISH8FE","either","6","71","","","","","","","0","0","1","","0.5898781272","0.8","0.6","0.4","0.2","0.3237382503","0.5898781272","0.8502068985","0.4899310385","","","","","","","","","","","","74","J","1","","","173","main_expt",""
"","bandit","253","941080","0.0-214.0-0.0","65097383","wem/bandit_either_3","A2TH9DIRISH8FE","either","6","1","","","","","","","0","1","0","","0.9054067092","0.8","0.6","0.4","0.2","0.2935635685","0.5990225055","0.9054067092","0.4464532747","","","","","","","","","","","","75","K","2","","","174","main_expt",""
"","bandit","254","942646","0.0-215.0-0.0","65097383","wem/bandit_either_3","A2TH9DIRISH8FE","either","6","60","","","","","","","0","1","0","","0.9096893241","0.8","0.6","0.4","0.2","0.2797951809","0.6129624105","0.9096893241","0.4363040476","","","","","","","","","","","","75","K","2","","","175","main_expt",""
"","bandit","255","944173","0.0-216.0-0.0","65097383","wem/bandit_either_3","A2TH9DIRISH8FE","either","6","23","","","","","","","0","0","1","0.4198776974","","0.8","0.6","0.4","0.2","","","","","0.2067270565","0.5434192492","0.9081003197","0.4198776974","","","","","","","","76","L","3","","","176","main_expt",""
"","bandit","256","945885","0.0-217.0-0.0","65097383","wem/bandit_either_3","A2TH9DIRISH8FE","either","6","207","","","","","","","0","1","0","","0.4001478854","0.8","0.6","0.4","0.2","0.19266164","0.5893108522","0.8417535431","0.4001478854","","","","","","","","","","","","76","L","3","","","177","main_expt",""
"","bandit","257","950966","0.0-218.0-0.0","65097383","wem/bandit_either_3","A2TH9DIRISH8FE","either","6","3575","","","","","","","0","0","1","","0.3015477047","0.8","0.6","0.4","0.2","0.1393448617","0.4862463398","0.8045518304","0.3015477047","","","","","","","","","","","","76","L","3","","","178","main_expt",""
"","bandit","258","952518","0.0-219.0-0.0","65097383","wem/bandit_either_3","A2TH9DIRISH8FE","either","6","46","","","","","","","0","0","1","","0.2700131006","0.8","0.6","0.4","0.2","0.1149816072","0.4227787996","0.8250115846","0.2700131006","","","","","","","","","","","","76","L","3","","","179","main_expt",""
"","bandit","259","954117","0.0-220.0-0.0","65097383","wem/bandit_either_3","A2TH9DIRISH8FE","either","6","95","","","","","","","1","0","0","0.3583368423","","0.8","0.6","0.4","0.2","","","","","0.1231561222","0.3583368423","0.7418096358","0.3473069","","","","","","","","74","J","1","","","180","main_expt",""
"","bandit","260","955701","0.0-221.0-0.0","65097383","wem/bandit_either_3","A2TH9DIRISH8FE","either","6","78","","","","","","","1","0","0","0.7180260456","","0.8","0.6","0.4","0.2","","","","","0.1134989143","0.3820052134","0.7180260456","0.3478804011","","","","","","","","75","K","2","","","181","main_expt",""
"","bandit","261","957269","0.0-222.0-0.0","65097383","wem/bandit_either_3","A2TH9DIRISH8FE","either","6","64","","","","","","","0","1","0","","0.437769555","0.8","0.6","0.4","0.2","0.07317944644","0.437769555","0.6777378447","0.3304981007","","","","","","","","","","","","74","J","1","","","182","main_expt",""
"","bandit","262","958798","0.0-223.0-0.0","65097383","wem/bandit_either_3","A2TH9DIRISH8FE","either","6","22","","","","","","","1","0","0","0.05085611098","","0.8","0.6","0.4","0.2","","","","","0.05085611098","0.3951330089","0.6331465848","0.2578466268","","","","","","","","72","H","0","img/none_selected.jpg","","183","main_expt",""
"","bandit","263","960422","0.0-224.0-0.0","65097383","wem/bandit_either_3","A2TH9DIRISH8FE","either","6","120","","","","","","","0","1","0","","0.6578519513","0.8","0.6","0.4","0.2","0.07152820202","0.4062376343","0.6578519513","0.3550464129","","","","","","","","","","","","75","K","2","","","184","main_expt",""
"","bandit","264","961949","0.0-225.0-0.0","65097383","wem/bandit_either_3","A2TH9DIRISH8FE","either","6","22","","","","","","","0","1","0","","0.2993299556","0.8","0.6","0.4","0.2","0.08814522307","0.4035727276","0.7160298793","0.2993299556","","","","","","","","","","","","76","L","3","","","185","main_expt",""
"","bandit","265","963477","0.0-226.0-0.0","65097383","wem/bandit_either_3","A2TH9DIRISH8FE","either","6","24","","","","","","","0","1","0","","0.7081703269","0.8","0.6","0.4","0.2","0.0931487442","0.4595565904","0.7081703269","0.3985972224","","","","","","","","","","","","75","K","2","","","186","main_expt",""
"","bandit","266","965005","0.0-227.0-0.0","65097383","wem/bandit_either_3","A2TH9DIRISH8FE","either","6","22","","","","","","","0","1","0","","0.7670757258","0.8","0.6","0.4","0.2","0.05847154344","0.4956959756","0.7670757258","0.4563810555","","","","","","","","","","","","75","K","2","","","187","main_expt",""
"","bandit","267","966557","0.0-228.0-0.0","65097383","wem/bandit_either_3","A2TH9DIRISH8FE","either","6","47","","","","","","","0","1","0","","0.7986884496","0.8","0.6","0.4","0.2","0.05005107021","0.4295585103","0.7986884496","0.4621092719","","","","","","","","","","","","75","K","2","","","188","main_expt",""
"","bandit","268","968221","0.0-229.0-0.0","65097383","wem/bandit_either_3","A2TH9DIRISH8FE","either","6","156","","","","","","","0","1","0","","0.4214675273","0.8","0.6","0.4","0.2","0.05158958255","0.4121259827","0.8113194514","0.4214675273","","","","","","","","","","","","76","L","3","","","189","main_expt",""
"","bandit","269","969783","0.0-230.0-0.0","65097383","wem/bandit_either_3","A2TH9DIRISH8FE","either","6","55","","","","","","","0","0","1","","0.40505342","0.8","0.6","0.4","0.2","0.0530996007","0.40505342","0.8311477635","0.4445162903","","","","","","","","","","","","74","J","1","","","190","main_expt",""
"","bandit","270","971383","0.0-231.0-0.0","65097383","wem/bandit_either_3","A2TH9DIRISH8FE","either","6","93","","","","","","","1","0","0","0.7941336253","","0.8","0.6","0.4","0.2","","","","","0.05342003941","0.3671493273","0.7941336253","0.4077799102","","","","","","","","75","K","2","","","191","main_expt",""
"","bandit","271","973055","0.0-232.0-0.0","65097383","wem/bandit_either_3","A2TH9DIRISH8FE","either","6","163","","","","","","","1","0","0","0.841847859","","0.8","0.6","0.4","0.2","","","","","0.05264216412","0.3367263454","0.841847859","0.413117206","","","","","","","","75","K","2","","","192","main_expt",""
"","bandit","272","974598","0.0-233.0-0.0","65097383","wem/bandit_either_3","A2TH9DIRISH8FE","either","6","36","","","","","","","0","1","0","","0.865127625","0.8","0.6","0.4","0.2","0.07418965368","0.2587514209","0.865127625","0.374663265","","","","","","","","","","","","75","K","2","","","193","main_expt",""
"","bandit","273","976278","0.0-234.0-0.0","65097383","wem/bandit_either_3","A2TH9DIRISH8FE","either","6","173","","","","","","","0","0","1","","0.8369883383","0.8","0.6","0.4","0.2","0.1148515542","0.2123696513","0.8369883383","0.2792309937","","","","","","","","","","","","75","K","2","","","194","main_expt",""
"","bandit","274","977966","0.0-235.0-0.0","65097383","wem/bandit_either_3","A2TH9DIRISH8FE","either","6","182","","","","","","","0","1","0","","0.8226177272","0.8","0.6","0.4","0.2","0.1102075851","0.2551117677","0.8226177272","0.3090424304","","","","","","","","","","","","75","K","2","","","195","main_expt",""
"","bandit","275","979493","0.0-236.0-0.0","65097383","wem/bandit_either_3","A2TH9DIRISH8FE","either","6","22","","","","","","","0","1","0","","0.8759919892","0.8","0.6","0.4","0.2","0.09307195637","0.2948177706","0.8759919892","0.2254203465","","","","","","","","","","","","75","K","2","","","196","main_expt",""
"","bandit","276","981047","0.0-237.0-0.0","65097383","wem/bandit_either_3","A2TH9DIRISH8FE","either","6","47","","","","","","","0","0","1","0.08341332984","","0.8","0.6","0.4","0.2","","","","","0.08341332984","0.2864074111","0.9413038234","0.2104085952","","","","","","","","72","H","0","img/none_selected.jpg","","197","main_expt",""
"","bandit","277","982573","0.0-238.0-0.0","65097383","wem/bandit_either_3","A2TH9DIRISH8FE","either","6","21","","","","","","","0","1","0","","0.9384937307","0.8","0.6","0.4","0.2","0.06206278739","0.3044962429","0.9384937307","0.1686499416","","","","","","","","","","","","75","K","2","","","198","main_expt",""
"","bandit","278","984117","0.0-239.0-0.0","65097383","wem/bandit_either_3","A2TH9DIRISH8FE","either","6","38","","","","","","","0","1","0","","0.927250614","0.8","0.6","0.4","0.2","0.1015706687","0.2804127106","0.927250614","0.1696058054","","","","","","","","","","","","75","K","2","","","199","main_expt",""
"","bandit","279","985661","0.0-240.0-0.0","65097383","wem/bandit_either_3","A2TH9DIRISH8FE","either","6","38","","","","","","","0","0","1","","0.1940139532","0.8","0.6","0.4","0.2","0.07348353789","0.3151112274","0.8840406778","0.1940139532","","","","","","","","","","","","76","L","3","","","200","main_expt",""
"","bandit","280","987230","0.0-241.0-0.0","65097383","wem/bandit_either_3","A2TH9DIRISH8FE","either","6","62","","","","","","","0","0","1","","0.8866639954","0.8","0.6","0.4","0.2","0.09218994405","0.3124471347","0.8866639954","0.2384341862","","","","","","","","","","","","75","K","2","","","201","main_expt",""
"","bandit","281","988782","0.0-242.0-0.0","65097383","wem/bandit_either_3","A2TH9DIRISH8FE","either","6","46","","","","","","","1","0","0","0.8188103646","","0.8","0.6","0.4","0.2","","","","","0.1662378481","0.3418115628","0.8188103646","0.2069173963","","","","","","","","75","K","2","","","202","main_expt",""
"","bandit","282","990317","0.0-243.0-0.0","65097383","wem/bandit_either_3","A2TH9DIRISH8FE","either","6","28","","","","","","","0","0","1","0.8026106274","","0.8","0.6","0.4","0.2","","","","","0.1808123801","0.2676578736","0.8026106274","0.2502389624","","","","","","","","75","K","2","","","203","main_expt",""
"","bandit","283","991885","0.0-244.0-0.0","65097383","wem/bandit_either_3","A2TH9DIRISH8FE","either","6","62","","","","","","","0","0","1","","0.6613987003","0.8","0.6","0.4","0.2","0.2011980288","0.2513587973","0.6613987003","0.2226806","","","","","","","","","","","","75","K","2","","","204","main_expt",""
"","bandit","284","993446","0.0-245.0-0.0","65097383","wem/bandit_either_3","A2TH9DIRISH8FE","either","6","53","","","","","","","1","0","0","0.7402115251","","0.8","0.6","0.4","0.2","","","","","0.1877492959","0.2733703365","0.7402115251","0.2327973494","","","","","","","","75","K","2","","","205","main_expt",""
"","bandit","285","994952","0.0-246.0-0.0","65097383","wem/bandit_either_3","A2TH9DIRISH8FE","either","6","0","","","","","","","0","1","0","","0.3134624789","0.8","0.6","0.4","0.2","0.1891298069","0.3212331514","0.6792505986","0.3134624789","","","","","","","","","","","","76","L","3","","","206","main_expt",""
"","bandit","286","996485","0.0-247.0-0.0","65097383","wem/bandit_either_3","A2TH9DIRISH8FE","either","6","26","","","","","","","0","0","1","","0.3808856429","0.8","0.6","0.4","0.2","0.2092890992","0.3381772831","0.6510378203","0.3808856429","","","","","","","","","","","","76","L","3","","","207","main_expt",""
"","bandit","287","998166","0.0-248.0-0.0","65097383","wem/bandit_either_3","A2TH9DIRISH8FE","either","6","174","","","","","","","0","1","0","","0.5971377862","0.8","0.6","0.4","0.2","0.2563161799","0.2370260631","0.5971377862","0.318509643","","","","","","","","","","","","75","K","2","","","208","main_expt",""
"","bandit","288","1001862","0.0-249.0-0.0","65097383","wem/bandit_either_3","A2TH9DIRISH8FE","either","6","2189","","","","","","","0","0","1","0.2157004535","","0.8","0.6","0.4","0.2","","","","","0.2643940457","0.2157004535","0.6040603887","0.2932847295","","","","","","","","74","J","1","","","209","main_expt",""
"","bandit","289","1003374","0.0-250.0-0.0","65097383","wem/bandit_either_3","A2TH9DIRISH8FE","either","6","7","","","","","","","0","0","1","0.2710870001","","0.8","0.6","0.4","0.2","","","","","0.2710870001","0.2655169153","0.7794442159","0.2230023122","","","","","","","","72","H","0","img/none_selected.jpg","","210","main_expt",""
"","bandit","290","1004959","0.0-251.0-0.0","65097383","wem/bandit_either_3","A2TH9DIRISH8FE","either","6","78","","","","","","","0","1","0","","0.2359505063","0.8","0.6","0.4","0.2","0.2056380183","0.2359505063","0.8397026392","0.1899351836","","","","","","","","","","","","74","J","1","","","211","main_expt",""
"","bandit","291","1006509","0.0-252.0-0.0","65097383","wem/bandit_either_3","A2TH9DIRISH8FE","either","6","45","","","","","","","0","0","1","0.2487045614","","0.8","0.6","0.4","0.2","","","","","0.2487045614","0.2431981852","0.7883870126","0.2593929449","","","","","","","","72","H","0","img/none_selected.jpg","","212","main_expt",""
"","bandit","292","1008021","0.0-253.0-0.0","65097383","wem/bandit_either_3","A2TH9DIRISH8FE","either","6","7","","","","","","","0","0","1","","0.3520378668","0.8","0.6","0.4","0.2","0.3520378668","0.3385658967","0.7160446845","0.2304425673","","","","","","","","","","","","72","H","0","img/none_selected.jpg","","213","main_expt",""
"","bandit","293","1009582","0.0-254.0-0.0","65097383","wem/bandit_either_3","A2TH9DIRISH8FE","either","6","55","","","","","","","0","1","0","","0.445002088","0.8","0.6","0.4","0.2","0.3455661114","0.445002088","0.7501162241","0.2849244028","","","","","","","","","","","","74","J","1","","","214","main_expt",""
"","bandit","294","1011087","0.0-255.0-0.0","65097383","wem/bandit_either_3","A2TH9DIRISH8FE","either","6","0","","","","","","","0","0","1","0.3290646698","","0.8","0.6","0.4","0.2","","","","","0.3290646698","0.4340580748","0.7574589115","0.3184819088","","","","","","","","72","H","0","img/none_selected.jpg","","215","main_expt",""
"","bandit","295","1012596","0.0-256.0-0.0","65097383","wem/bandit_either_3","A2TH9DIRISH8FE","either","6","0","","","","","","","0","0","1","0.2989728513","","0.8","0.6","0.4","0.2","","","","","0.2737258078","0.3996931216","0.7376674805","0.2989728513","","","","","","","","76","L","3","","","216","main_expt",""
"","bandit","296","1014215","0.0-257.0-0.0","65097383","wem/bandit_either_3","A2TH9DIRISH8FE","either","6","112","","","","","","","0","0","1","","0.453570069","0.8","0.6","0.4","0.2","0.2401291484","0.453570069","0.67262171","0.5538830624","","","","","","","","","","","","74","J","1","","","217","main_expt",""
"","bandit","297","1015870","0.0-258.0-0.0","65097383","wem/bandit_either_3","A2TH9DIRISH8FE","either","6","149","","","","","","","0","1","0","","0.3566620654","0.8","0.6","0.4","0.2","0.2395298113","0.3566620654","0.6309662891","0.5331458927","","","","","","","","","","","","74","J","1","","","218","main_expt",""
"","bandit","298","1017410","0.0-259.0-0.0","65097383","wem/bandit_either_3","A2TH9DIRISH8FE","either","6","33","","","","","","","0","0","1","","0.3114207129","0.8","0.6","0.4","0.2","0.2333127667","0.3114207129","0.610488243","0.409279481","","","","","","","","","","","","74","J","1","","","219","main_expt",""
"","bandit","299","1019102","0.0-260.0-0.0","65097383","wem/bandit_either_3","A2TH9DIRISH8FE","either","6","187","","","","","","","1","0","0","0.348491043","","0.8","0.6","0.4","0.2","","","","","0.2097963002","0.348491043","0.6741838821","0.3910907299","","","","","","","","74","J","1","","","220","main_expt",""
"","bandit","300","1020615","0.0-261.0-0.0","65097383","wem/bandit_either_3","A2TH9DIRISH8FE","either","6","6","","","","","","","0","0","1","0.1761429423","","0.8","0.6","0.4","0.2","","","","","0.1761429423","0.325682353","0.6938787555","0.37386253","","","","","","","","72","H","0","img/none_selected.jpg","","221","main_expt",""
"","bandit","301","1022222","0.0-262.0-0.0","65097383","wem/bandit_either_3","A2TH9DIRISH8FE","either","6","101","","","","","","","0","0","1","","0.1770547834","0.8","0.6","0.4","0.2","0.1770547834","0.3582518194","0.622086605","0.5460784034","","","","","","","","","","","","72","H","0","img/none_selected.jpg","","222","main_expt",""
"","bandit","302","1023799","0.0-263.0-0.0","65097383","wem/bandit_either_3","A2TH9DIRISH8FE","either","6","71","","","","","","","1","0","0","0.1494166006","","0.8","0.6","0.4","0.2","","","","","0.1494166006","0.3596631187","0.6190419158","0.5484594206","","","","","","","","72","H","0","img/none_selected.jpg","","223","main_expt",""
"","bandit","303","1025311","0.0-264.0-0.0","65097383","wem/bandit_either_3","A2TH9DIRISH8FE","either","6","6","","","","","","","0","0","1","","0.1444184755","0.8","0.6","0.4","0.2","0.1444184755","0.4757784632","0.6525227655","0.5156266917","","","","","","","","","","","","72","H","0","img/none_selected.jpg","","224","main_expt",""
"","bandit","304","1026950","0.0-265.0-0.0","65097383","wem/bandit_either_3","A2TH9DIRISH8FE","either","6","133","","","","","","","0","0","1","0.2381889698","","0.8","0.6","0.4","0.2","","","","","0.2381889698","0.5384710229","0.5739960468","0.5120039273","","","","","","","","72","H","0","img/none_selected.jpg","","225","main_expt",""
"","bandit","305","1028462","0.0-266.0-0.0","65097383","wem/bandit_either_3","A2TH9DIRISH8FE","either","6","0","","","","","","","0","1","0","","0.5308581489","0.8","0.6","0.4","0.2","0.1429230379","0.5308581489","0.6038380469","0.5568413113","","","","","","","","","","","","74","J","1","","","226","main_expt",""
"","bandit","306","1029976","0.0-267.0-0.0","65097383","wem/bandit_either_3","A2TH9DIRISH8FE","either","6","6","","","","","","","0","0","1","0.124100867","","0.8","0.6","0.4","0.2","","","","","0.124100867","0.488482713","0.5203417309","0.5277183188","","","","","","","","72","H","0","img/none_selected.jpg","","227","main_expt",""
"","bandit","307","1031484","0.0-268.0-0.0","65097383","wem/bandit_either_3","A2TH9DIRISH8FE","either","6","2","","","","","","","1","0","0","0.1762219884","","0.8","0.6","0.4","0.2","","","","","0.1762219884","0.4406219513","0.4263922038","0.5041270258","","","","","","","","72","H","0","img/none_selected.jpg","","228","main_expt",""
"","bandit","308","1032991","0.0-269.0-0.0","65097383","wem/bandit_either_3","A2TH9DIRISH8FE","either","6","0","","","","","","","1","0","0","0.4892119921","","0.8","0.6","0.4","0.2","","","","","0.1910325121","0.4892119921","0.3475105047","0.4541369304","","","","","","","","74","J","1","","","229","main_expt",""
"","bandit","309","1034529","0.0-270.0-0.0","65097383","wem/bandit_either_3","A2TH9DIRISH8FE","either","6","32","","","","","","","0","1","0","","0.2571549068","0.8","0.6","0.4","0.2","0.2571549068","0.5129573662","0.3353007417","0.4504381994","","","","","","","","","","","","72","H","0","img/none_selected.jpg","","230","main_expt",""
"","bandit","310","1036064","0.0-271.0-0.0","65097383","wem/bandit_either_3","A2TH9DIRISH8FE","either","6","28","","","","","","","0","0","1","0.4382888871","","0.8","0.6","0.4","0.2","","","","","0.1781345747","0.4382888871","0.2870546929","0.4698668598","","","","","","","","74","J","1","","","231","main_expt",""
"","bandit","311","1037703","0.0-272.0-0.0","65097383","wem/bandit_either_3","A2TH9DIRISH8FE","either","6","133","","","","","","","0","0","1","0.1748933913","","0.8","0.6","0.4","0.2","","","","","0.1748933913","0.42174841","0.3092655517","0.5460008395","","","","","","","","72","H","0","img/none_selected.jpg","","232","main_expt",""
"","bandit","312","1039238","0.0-273.0-0.0","65097383","wem/bandit_either_3","A2TH9DIRISH8FE","either","6","29","","","","","","","0","0","1","0.4297142637","","0.8","0.6","0.4","0.2","","","","","0.2196371411","0.4297142637","0.4231157335","0.5345299581","","","","","","","","74","J","1","","","233","main_expt",""
"","bandit","313","1040919","0.0-274.0-0.0","65097383","wem/bandit_either_3","A2TH9DIRISH8FE","either","6","175","","","","","","","0","0","1","0.3016140143","","0.8","0.6","0.4","0.2","","","","","0.2052749597","0.3016140143","0.5525929145","0.508060833","","","","","","","","74","J","1","","","234","main_expt",""
"","bandit","314","1042454","0.0-275.0-0.0","65097383","wem/bandit_either_3","A2TH9DIRISH8FE","either","6","30","","","","","","","0","0","1","0.3158924645","","0.8","0.6","0.4","0.2","","","","","0.3158924645","0.2735586703","0.7239072418","0.4956589368","","","","","","","","72","H","0","img/none_selected.jpg","","235","main_expt",""
"","bandit","315","1043999","0.0-276.0-0.0","65097383","wem/bandit_either_3","A2TH9DIRISH8FE","either","6","38","","","","","","","0","0","1","","0.2536827631","0.8","0.6","0.4","0.2","0.3668106878","0.2536827631","0.8076920848","0.5514737959","","","","","","","","","","","","74","J","1","","","236","main_expt",""
"","bandit","316","1045527","0.0-277.0-0.0","65097383","wem/bandit_either_3","A2TH9DIRISH8FE","either","6","22","","","","","","","1","0","0","0.3866395083","","0.8","0.6","0.4","0.2","","","","","0.3866395083","0.2478783488","0.7703095863","0.5183580196","","","","","","","","72","H","0","img/none_selected.jpg","","237","main_expt",""
"","bandit","317","1047143","0.0-278.0-0.0","65097383","wem/bandit_either_3","A2TH9DIRISH8FE","either","6","110","","","","","","","0","0","1","0.4108821033","","0.8","0.6","0.4","0.2","","","","","0.4108821033","0.1688186905","0.6485929649","0.5320509842","","","","","","","","72","H","0","img/none_selected.jpg","","238","main_expt",""
"","bandit","318","1048710","0.0-279.0-0.0","65097383","wem/bandit_either_3","A2TH9DIRISH8FE","either","6","62","","","","","","","0","1","0","","0.1232648298","0.8","0.6","0.4","0.2","0.4384900471","0.1232648298","0.7028133827","0.46832295","","","","","","","","","","","","74","J","1","","","239","main_expt",""
"","bandit","319","1050255","0.0-280.0-0.0","65097383","wem/bandit_either_3","A2TH9DIRISH8FE","either","6","39","","","","","","","1","0","0","0.1720424997","","0.8","0.6","0.4","0.2","","","","","0.4246438665","0.1720424997","0.6620055833","0.5024711131","","","","","","","","74","J","1","","","240","main_expt",""
"","bandit","320","1051886","0.0-281.0-0.0","65097383","wem/bandit_either_3","A2TH9DIRISH8FE","either","6","126","","","","","","","0","0","1","0.1045812876","","0.8","0.6","0.4","0.2","","","","","0.3783755671","0.1045812876","0.6925250702","0.6092933485","","","","","","","","74","J","1","","","241","main_expt",""
"","bandit","321","1053550","0.0-282.0-0.0","65097383","wem/bandit_either_3","A2TH9DIRISH8FE","either","6","159","","","","","","","1","0","0","0.3619864671","","0.8","0.6","0.4","0.2","","","","","0.3619864671","0.08136382084","0.7076428944","0.5812412386","","","","","","","","72","H","0","img/none_selected.jpg","","242","main_expt",""
"","bandit","322","1055078","0.0-283.0-0.0","65097383","wem/bandit_either_3","A2TH9DIRISH8FE","either","6","22","","","","","","","0","0","1","0.4143237557","","0.8","0.6","0.4","0.2","","","","","0.4143237557","0.08711917736","0.6671697692","0.5582769518","","","","","","","","72","H","0","img/none_selected.jpg","","243","main_expt",""
"","bandit","323","1056671","0.0-284.0-0.0","65097383","wem/bandit_either_3","A2TH9DIRISH8FE","either","6","87","","","","","","","0","0","1","0.3883911391","","0.8","0.6","0.4","0.2","","","","","0.3883911391","0.07033008343","0.6829807443","0.5728611736","","","","","","","","72","H","0","img/none_selected.jpg","","244","main_expt",""
"","bandit","324","1058207","0.0-285.0-0.0","65097383","wem/bandit_either_3","A2TH9DIRISH8FE","either","6","29","","","","","","","0","0","1","0.04273118291","","0.8","0.6","0.4","0.2","","","","","0.3724790504","0.04273118291","0.6068076256","0.4821733131","","","","","","","","74","J","1","","","245","main_expt",""
