"consent","trial_type","trial_index","time_elapsed","internal_node_id","subjID","study","MID","cond","drift","rt","responses","key_press","expt_phase","like","value","connected","gems","bombs","no_reward","GemPrChosen","BombPrChosen","GainOverPainPr_0","GainOverPainPr_1","GainOverPainPr_2","GainOverPainPr_3","LosePr_0","LosePr_1","LosePr_2","LosePr_3","WinPr_0","WinPr_1","WinPr_2","WinPr_3","Q0","Q1","Q2","gender","age","ethnicity","target","respCharCode","respKey","respChoiceNum","respChoice","practice","trial_counter","trial_label","button_pressed"
"INL_behavioral_consent_30min_online.html","consent","0","22457","0.0-0.0","67925048","wem/bandit_either_3","A3HHDPKL3O3O7Y","either","2","","","","","","","","","","","","","","","","","","","","","","","","","","","","","","","","","","","","","","",""
"","survey-text","1","29668","0.0-1.0","67925048","wem/bandit_either_3","A3HHDPKL3O3O7Y","either","2","6196","{""Q0"":""A3HHDPKL3O3O7Y""}","","","","","","","","","","","","","","","","","","","","","","","","","","","","","","","","","","","","",""
"","text","2","39768","0.0-2.0","67925048","wem/bandit_either_3","A3HHDPKL3O3O7Y","either","2","9092","","32","","","","","","","","","","","","","","","","","","","","","","","","","","","","","","","","","","","",""
"","text","3","48769","0.0-3.0","67925048","wem/bandit_either_3","A3HHDPKL3O3O7Y","either","2","9000","","32","","","","","","","","","","","","","","","","","","","","","","","","","","","","","","","","","","","",""
"","text","4","64127","0.0-4.0","67925048","wem/bandit_either_3","A3HHDPKL3O3O7Y","either","2","15357","","32","","","","","","","","","","","","","","","","","","","","","","","","","","","","","","","","","","","",""
"","text","5","77183","0.0-5.0","67925048","wem/bandit_either_3","A3HHDPKL3O3O7Y","either","2","13054","","32","","","","","","","","","","","","","","","","","","","","","","","","","","","","","","","","","","","",""
"","text","6","111645","0.0-6.0","67925048","wem/bandit_either_3","A3HHDPKL3O3O7Y","either","2","34461","","32","","","","","","","","","","","","","","","","","","","","","","","","","","","","","","","","","","","",""
"","text","7","118095","0.0-7.0","67925048","wem/bandit_either_3","A3HHDPKL3O3O7Y","either","2","6448","","32","","","","","","","","","","","","","","","","","","","","","","","","","","","","","","","","","","","",""
"","text","8","121896","0.0-8.0","67925048","wem/bandit_either_3","A3HHDPKL3O3O7Y","either","2","3800","","32","","","","","","","","","","","","","","","","","","","","","","","","","","","","","","","","","","","",""
"","identification","9","134081","0.0-9.0-0.0","67925048","wem/bandit_either_3","A3HHDPKL3O3O7Y","either","2","12172","","","","4","5","4","","","","","","","","","","","","","","","","","","","","","","","","the village of Zur","","","","","","","",""
"","identification","10","143930","0.0-9.0-1.0","67925048","wem/bandit_either_3","A3HHDPKL3O3O7Y","either","2","8833","","","","3","1","0","","","","","","","","","","","","","","","","","","","","","","","","the village of Nyx","","","","","","","",""
"","text","11","149621","0.0-10.0","67925048","wem/bandit_either_3","A3HHDPKL3O3O7Y","either","2","4689","","32","","","","","","","","","","","","","","","","","","","","","","","","","","","","","","","","","","","",""
"","text","12","151931","0.0-11.0","67925048","wem/bandit_either_3","A3HHDPKL3O3O7Y","either","2","2308","","32","","","","","","","","","","","","","","","","","","","","","","","","","","","","","","","","","","","",""
"","text","13","153613","0.0-12.0","67925048","wem/bandit_either_3","A3HHDPKL3O3O7Y","either","2","1680","","32","","","","","","","","","","","","","","","","","","","","","","","","","","","","","","","","","","","",""
"","text","14","157286","0.0-13.0","67925048","wem/bandit_either_3","A3HHDPKL3O3O7Y","either","2","3671","","32","","","","","","","","","","","","","","","","","","","","","","","","","","","","","","","","","","","",""
"","bandit","15","161308","0.0-14.0-0.0","67925048","wem/bandit_either_3","A3HHDPKL3O3O7Y","either","2","2511","","","","","","","0","0","1","0","0","","","","","0","","","","0","","","","","","","","","","","74","J","0","img/none_selected_demo.jpg","true","0","",""
"","bandit","16","163967","0.0-15.0-0.0","67925048","wem/bandit_either_3","A3HHDPKL3O3O7Y","either","2","1148","","","","","","","0","0","1","0","0","","","","","0","","","","0","","","","","","","","","","","75","K","0","img/none_selected_demo.jpg","true","0","",""
"","text","17","170169","0.0-16.0","67925048","wem/bandit_either_3","A3HHDPKL3O3O7Y","either","2","6201","","32","","","","","","","","","","","","","","","","","","","","","","","","","","","","","","","","","","","",""
"","text","18","177969","0.0-17.0","67925048","wem/bandit_either_3","A3HHDPKL3O3O7Y","either","2","7798","","32","","","","","","","","","","","","","","","","","","","","","","","","","","","","","","","","","","","",""
"","text","19","185354","0.0-18.0","67925048","wem/bandit_either_3","A3HHDPKL3O3O7Y","either","2","7384","","32","","","","","","","","","","","","","","","","","","","","","","","","","","","","","","","","","","","",""
"","text","20","187941","0.0-19.0","67925048","wem/bandit_either_3","A3HHDPKL3O3O7Y","either","2","2585","","32","","","","","","","","","","","","","","","","","","","","","","","","","","","","","","","","","","","",""
"","bandit","21","190918","0.0-20.0-0.0","67925048","wem/bandit_either_3","A3HHDPKL3O3O7Y","either","2","1468","","","","","","","0","0","1","","0.2","0.5","0.5","","","0.8","0.2","","","","","","","","","","","","","","75","K","1","","true","0","80_20_practice",""
"","bandit","22","193241","0.0-20.0-1.0","67925048","wem/bandit_either_3","A3HHDPKL3O3O7Y","either","2","811","","","","","","","0","0","1","","0.2","0.5","0.5","","","0.8","0.2","","","","","","","","","","","","","","75","K","1","","true","0","80_20_practice",""
"","bandit","23","195181","0.0-20.0-2.0","67925048","wem/bandit_either_3","A3HHDPKL3O3O7Y","either","2","429","","","","","","","0","0","1","0.2","","0.5","0.5","","","","","","","0.8","0.2","","","","","","","","","","75","K","1","","true","0","80_20_practice",""
"","bandit","24","198351","0.0-20.0-3.0","67925048","wem/bandit_either_3","A3HHDPKL3O3O7Y","either","2","1660","","","","","","","0","0","1","0.8","","0.5","0.5","","","","","","","0.8","0.2","","","","","","","","","","74","J","0","img/none_selected_demo.jpg","true","0","80_20_practice",""
"","bandit","25","200307","0.0-20.0-4.0","67925048","wem/bandit_either_3","A3HHDPKL3O3O7Y","either","2","447","","","","","","","1","0","0","0.8","","0.5","0.5","","","","","","","0.8","0.2","","","","","","","","","","74","J","0","img/none_selected_demo.jpg","true","0","80_20_practice",""
"","bandit","26","202354","0.0-20.0-5.0","67925048","wem/bandit_either_3","A3HHDPKL3O3O7Y","either","2","532","","","","","","","0","1","0","","0.8","0.5","0.5","","","0.8","0.2","","","","","","","","","","","","","","74","J","0","img/none_selected_demo.jpg","true","0","80_20_practice",""
"","bandit","27","204369","0.0-20.0-6.0","67925048","wem/bandit_either_3","A3HHDPKL3O3O7Y","either","2","503","","","","","","","0","1","0","","0.8","0.5","0.5","","","0.8","0.2","","","","","","","","","","","","","","74","J","0","img/none_selected_demo.jpg","true","0","80_20_practice",""
"","bandit","28","206695","0.0-20.0-7.0","67925048","wem/bandit_either_3","A3HHDPKL3O3O7Y","either","2","813","","","","","","","0","0","1","","0.8","0.5","0.5","","","0.8","0.2","","","","","","","","","","","","","","74","J","0","img/none_selected_demo.jpg","true","0","80_20_practice",""
"","bandit","29","208655","0.0-20.0-8.0","67925048","wem/bandit_either_3","A3HHDPKL3O3O7Y","either","2","450","","","","","","","1","0","0","0.8","","0.5","0.5","","","","","","","0.8","0.2","","","","","","","","","","74","J","0","img/none_selected_demo.jpg","true","0","80_20_practice",""
"","bandit","30","210599","0.0-20.0-9.0","67925048","wem/bandit_either_3","A3HHDPKL3O3O7Y","either","2","432","","","","","","","1","0","0","0.8","","0.5","0.5","","","","","","","0.8","0.2","","","","","","","","","","74","J","0","img/none_selected_demo.jpg","true","0","80_20_practice",""
"","bandit","31","212678","0.0-20.0-10.0","67925048","wem/bandit_either_3","A3HHDPKL3O3O7Y","either","2","566","","","","","","","1","0","0","0.8","","0.5","0.5","","","","","","","0.8","0.2","","","","","","","","","","74","J","0","img/none_selected_demo.jpg","true","0","80_20_practice",""
"","bandit","32","214878","0.0-20.0-11.0","67925048","wem/bandit_either_3","A3HHDPKL3O3O7Y","either","2","687","","","","","","","0","1","0","","0.8","0.5","0.5","","","0.8","0.2","","","","","","","","","","","","","","74","J","0","img/none_selected_demo.jpg","true","0","80_20_practice",""
"","bandit","33","216735","0.0-20.0-12.0","67925048","wem/bandit_either_3","A3HHDPKL3O3O7Y","either","2","347","","","","","","","0","1","0","","0.8","0.5","0.5","","","0.8","0.2","","","","","","","","","","","","","","74","J","0","img/none_selected_demo.jpg","true","0","80_20_practice",""
"","bandit","34","218702","0.0-20.0-13.0","67925048","wem/bandit_either_3","A3HHDPKL3O3O7Y","either","2","459","","","","","","","0","1","0","","0.8","0.5","0.5","","","0.8","0.2","","","","","","","","","","","","","","74","J","0","img/none_selected_demo.jpg","true","0","80_20_practice",""
"","bandit","35","220526","0.0-20.0-14.0","67925048","wem/bandit_either_3","A3HHDPKL3O3O7Y","either","2","315","","","","","","","0","0","1","0.8","","0.5","0.5","","","","","","","0.8","0.2","","","","","","","","","","74","J","0","img/none_selected_demo.jpg","true","0","80_20_practice",""
"","bandit","36","222459","0.0-20.0-15.0","67925048","wem/bandit_either_3","A3HHDPKL3O3O7Y","either","2","423","","","","","","","1","0","0","0.8","","0.5","0.5","","","","","","","0.8","0.2","","","","","","","","","","74","J","0","img/none_selected_demo.jpg","true","0","80_20_practice",""
"","bandit","37","224535","0.0-20.0-16.0","67925048","wem/bandit_either_3","A3HHDPKL3O3O7Y","either","2","561","","","","","","","0","0","1","0.2","","0.5","0.5","","","","","","","0.8","0.2","","","","","","","","","","75","K","1","","true","0","80_20_practice",""
"","bandit","38","226413","0.0-20.0-17.0","67925048","wem/bandit_either_3","A3HHDPKL3O3O7Y","either","2","367","","","","","","","0","0","1","","0.2","0.5","0.5","","","0.8","0.2","","","","","","","","","","","","","","75","K","1","","true","0","80_20_practice",""
"","bandit","39","228311","0.0-20.0-18.0","67925048","wem/bandit_either_3","A3HHDPKL3O3O7Y","either","2","386","","","","","","","1","0","0","0.8","","0.5","0.5","","","","","","","0.8","0.2","","","","","","","","","","74","J","0","img/none_selected_demo.jpg","true","0","80_20_practice",""
"","bandit","40","230337","0.0-20.0-19.0","67925048","wem/bandit_either_3","A3HHDPKL3O3O7Y","either","2","517","","","","","","","1","0","0","0.8","","0.5","0.5","","","","","","","0.8","0.2","","","","","","","","","","74","J","0","img/none_selected_demo.jpg","true","0","80_20_practice",""
"","text","41","232804","0.0-21.0","67925048","wem/bandit_either_3","A3HHDPKL3O3O7Y","either","2","2466","","32","","","","","","","","","","","","","","","","","","","","","","","","","","","","","","","","","","","",""
"","bandit","42","235817","0.0-22.0-0.0","67925048","wem/bandit_either_3","A3HHDPKL3O3O7Y","either","2","1499","","","","","","","1","0","0","1","0","","","","","0","1","","","1","0","","","","","","","","","","74","J","0","img/none_selected_demo.jpg","true","0","",""
"","text","43","241271","0.0-23.0","67925048","wem/bandit_either_3","A3HHDPKL3O3O7Y","either","2","5453","","32","","","","","","","","","","","","","","","","","","","","","","","","","","","","","","","","","","","",""
"","text","44","244222","0.0-24.0","67925048","wem/bandit_either_3","A3HHDPKL3O3O7Y","either","2","2949","","32","","","","","","","","","","","","","","","","","","","","","","","","","","","","","","","","","","","",""
"","text","45","246384","0.0-25.0","67925048","wem/bandit_either_3","A3HHDPKL3O3O7Y","either","2","2160","","32","","","","","","","","","","","","","","","","","","","","","","","","","","","","","","","","","","","",""
"","text","46","248563","0.0-26.0","67925048","wem/bandit_either_3","A3HHDPKL3O3O7Y","either","2","2177","","32","","","","","","","","","","","","","","","","","","","","","","","","","","","","","","","","","","","",""
"","text","47","259053","0.0-27.0","67925048","wem/bandit_either_3","A3HHDPKL3O3O7Y","either","2","10488","","32","","","","","","","","","","","","","","","","","","","","","","","","","","","","","","","","","","","",""
"","text","48","261716","0.0-28.0","67925048","wem/bandit_either_3","A3HHDPKL3O3O7Y","either","2","2660","","32","","","","","","","","","","","","","","","","","","","","","","","","","","","","","","","","","","","",""
"","text","49","264518","0.0-29.0","67925048","wem/bandit_either_3","A3HHDPKL3O3O7Y","either","2","2801","","32","","","","","","","","","","","","","","","","","","","","","","","","","","","","","","","","","","","",""
"","text","50","267923","0.0-30.0","67925048","wem/bandit_either_3","A3HHDPKL3O3O7Y","either","2","3402","","32","","","","","","","","","","","","","","","","","","","","","","","","","","","","","","","","","","","",""
"","text","51","273565","0.0-31.0","67925048","wem/bandit_either_3","A3HHDPKL3O3O7Y","either","2","5640","","32","","","","","","","","","","","","","","","","","","","","","","","","","","","","","","","","","","","",""
"","text","52","275072","0.0-32.0","67925048","wem/bandit_either_3","A3HHDPKL3O3O7Y","either","2","1505","","32","","","","","","","","","","","","","","","","","","","","","","","","","","","","","","","","","","","",""
"","text","53","279194","0.0-33.0","67925048","wem/bandit_either_3","A3HHDPKL3O3O7Y","either","2","4121","","32","","","","","","","","","","","","","","","","","","","","","","","","","","","","","","","","","","","",""
"","bandit","54","281945","0.0-34.0-0.0","67925048","wem/bandit_either_3","A3HHDPKL3O3O7Y","either","2","1236","","","","","","","0","1","0","","0.8","0.5","0.5","0.5","0.5","0.8","0.2","0.6","0.2","","","","","","","","","","","","72","H","0","img/none_selected.jpg","true","0","full_practice",""
"","bandit","55","284238","0.0-34.0-1.0","67925048","wem/bandit_either_3","A3HHDPKL3O3O7Y","either","2","782","","","","","","","1","0","0","0.8","","0.5","0.5","0.5","0.5","","","","","0.8","0.2","0.6","0.2","","","","","","","","72","H","0","img/none_selected.jpg","true","0","full_practice",""
"","bandit","56","288011","0.0-34.0-2.0","67925048","wem/bandit_either_3","A3HHDPKL3O3O7Y","either","2","2264","","","","","","","0","1","0","","0.8","0.5","0.5","0.5","0.5","0.8","0.2","0.6","0.2","","","","","","","","","","","","72","H","0","img/none_selected.jpg","true","0","full_practice",""
"","bandit","57","290182","0.0-34.0-3.0","67925048","wem/bandit_either_3","A3HHDPKL3O3O7Y","either","2","661","","","","","","","0","0","1","0.8","","0.5","0.5","0.5","0.5","","","","","0.8","0.2","0.6","0.2","","","","","","","","72","H","0","img/none_selected.jpg","true","0","full_practice",""
"","bandit","58","293143","0.0-34.0-4.0","67925048","wem/bandit_either_3","A3HHDPKL3O3O7Y","either","2","1451","","","","","","","0","0","1","0.8","","0.5","0.5","0.5","0.5","","","","","0.8","0.2","0.6","0.2","","","","","","","","72","H","0","img/none_selected.jpg","true","0","full_practice",""
"","bandit","59","295285","0.0-34.0-5.0","67925048","wem/bandit_either_3","A3HHDPKL3O3O7Y","either","2","630","","","","","","","1","0","0","0.8","","0.5","0.5","0.5","0.5","","","","","0.8","0.2","0.6","0.2","","","","","","","","72","H","0","img/none_selected.jpg","true","0","full_practice",""
"","bandit","60","298042","0.0-34.0-6.0","67925048","wem/bandit_either_3","A3HHDPKL3O3O7Y","either","2","1247","","","","","","","1","0","0","0.8","","0.5","0.5","0.5","0.5","","","","","0.8","0.2","0.6","0.2","","","","","","","","72","H","0","img/none_selected.jpg","true","0","full_practice",""
"","bandit","61","300150","0.0-34.0-7.0","67925048","wem/bandit_either_3","A3HHDPKL3O3O7Y","either","2","596","","","","","","","1","0","0","0.8","","0.5","0.5","0.5","0.5","","","","","0.8","0.2","0.6","0.2","","","","","","","","72","H","0","img/none_selected.jpg","true","0","full_practice",""
"","bandit","62","302397","0.0-34.0-8.0","67925048","wem/bandit_either_3","A3HHDPKL3O3O7Y","either","2","738","","","","","","","0","0","1","","0.2","0.5","0.5","0.5","0.5","0.8","0.2","0.6","0.2","","","","","","","","","","","","74","J","1","","true","0","full_practice",""
"","bandit","63","304417","0.0-34.0-9.0","67925048","wem/bandit_either_3","A3HHDPKL3O3O7Y","either","2","507","","","","","","","1","0","0","0.6","","0.5","0.5","0.5","0.5","","","","","0.8","0.2","0.6","0.2","","","","","","","","75","K","2","","true","0","full_practice",""
"","bandit","64","306495","0.0-34.0-10.0","67925048","wem/bandit_either_3","A3HHDPKL3O3O7Y","either","2","567","","","","","","","0","1","0","","0.2","0.5","0.5","0.5","0.5","0.8","0.2","0.6","0.2","","","","","","","","","","","","76","L","3","","true","0","full_practice",""
"","bandit","65","308422","0.0-34.0-11.0","67925048","wem/bandit_either_3","A3HHDPKL3O3O7Y","either","2","416","","","","","","","1","0","0","0.2","","0.5","0.5","0.5","0.5","","","","","0.8","0.2","0.6","0.2","","","","","","","","76","L","3","","true","0","full_practice",""
"","bandit","66","310367","0.0-34.0-12.0","67925048","wem/bandit_either_3","A3HHDPKL3O3O7Y","either","2","434","","","","","","","0","0","1","0.2","","0.5","0.5","0.5","0.5","","","","","0.8","0.2","0.6","0.2","","","","","","","","76","L","3","","true","0","full_practice",""
"","bandit","67","312584","0.0-34.0-13.0","67925048","wem/bandit_either_3","A3HHDPKL3O3O7Y","either","2","706","","","","","","","0","0","1","","0.2","0.5","0.5","0.5","0.5","0.8","0.2","0.6","0.2","","","","","","","","","","","","76","L","3","","true","0","full_practice",""
"","bandit","68","314413","0.0-34.0-14.0","67925048","wem/bandit_either_3","A3HHDPKL3O3O7Y","either","2","316","","","","","","","0","0","1","","0.6","0.5","0.5","0.5","0.5","0.8","0.2","0.6","0.2","","","","","","","","","","","","75","K","2","","true","0","full_practice",""
"","bandit","69","317304","0.0-34.0-15.0","67925048","wem/bandit_either_3","A3HHDPKL3O3O7Y","either","2","1383","","","","","","","1","0","0","0.6","","0.5","0.5","0.5","0.5","","","","","0.8","0.2","0.6","0.2","","","","","","","","75","K","2","","true","0","full_practice",""
"","bandit","70","319614","0.0-34.0-16.0","67925048","wem/bandit_either_3","A3HHDPKL3O3O7Y","either","2","798","","","","","","","0","0","1","","0.6","0.5","0.5","0.5","0.5","0.8","0.2","0.6","0.2","","","","","","","","","","","","75","K","2","","true","0","full_practice",""
"","bandit","71","321640","0.0-34.0-17.0","67925048","wem/bandit_either_3","A3HHDPKL3O3O7Y","either","2","511","","","","","","","1","0","0","0.6","","0.5","0.5","0.5","0.5","","","","","0.8","0.2","0.6","0.2","","","","","","","","75","K","2","","true","0","full_practice",""
"","bandit","72","323603","0.0-34.0-18.0","67925048","wem/bandit_either_3","A3HHDPKL3O3O7Y","either","2","451","","","","","","","0","1","0","","0.2","0.5","0.5","0.5","0.5","0.8","0.2","0.6","0.2","","","","","","","","","","","","74","J","1","","true","0","full_practice",""
"","bandit","73","326975","0.0-34.0-19.0","67925048","wem/bandit_either_3","A3HHDPKL3O3O7Y","either","2","1859","","","","","","","0","0","1","0.2","","0.5","0.5","0.5","0.5","","","","","0.8","0.2","0.6","0.2","","","","","","","","74","J","1","","true","0","full_practice",""
"","text","74","332686","0.0-35.0","67925048","wem/bandit_either_3","A3HHDPKL3O3O7Y","either","2","5706","","32","","","","","","","","","","","","","","","","","","","","","","","","","","","","","","","","","","","",""
"","text","75","351898","0.0-36.0","67925048","wem/bandit_either_3","A3HHDPKL3O3O7Y","either","2","18205","","32","","","","","","","","","","","","","","","","","","","","","","","","","","","","","","","","","","","",""
"","text","76","360955","0.0-37.0","67925048","wem/bandit_either_3","A3HHDPKL3O3O7Y","either","2","9055","","32","","","","","","","","","","","","","","","","","","","","","","","","","","","","","","","","","","","",""
"","text","77","365606","0.0-38.0","67925048","wem/bandit_either_3","A3HHDPKL3O3O7Y","either","2","4649","","32","","","","","","","","","","","","","","","","","","","","","","","","","","","","","","","","","","","",""
"","text","78","370829","0.0-39.0","67925048","wem/bandit_either_3","A3HHDPKL3O3O7Y","either","2","5221","","32","","","","","","","","","","","","","","","","","","","","","","","","","","","","","","","","","","","",""
"","text","79","374764","0.0-40.0","67925048","wem/bandit_either_3","A3HHDPKL3O3O7Y","either","2","3932","","32","","","","","","","","","","","","","","","","","","","","","","","","","","","","","","","","","","","",""
"","bandit","80","377852","0.0-41.0-0.0","67925048","wem/bandit_either_3","A3HHDPKL3O3O7Y","either","2","1579","","","","","","","1","0","0","0.7092854079","","0.2","0.8","0.6","0.4","","","","","0.9925337928","0.7092854079","0.4841938304","0.7961415707","","","","","","","","74","J","1","","","1","main_expt",""
"","bandit","81","381056","0.0-42.0-0.0","67925048","wem/bandit_either_3","A3HHDPKL3O3O7Y","either","2","1692","","","","","","","0","1","0","","0.5300888233","0.2","0.8","0.6","0.4","0.9909612399","0.7343230146","0.5300888233","0.7739630809","","","","","","","","","","","","75","K","2","","","2","main_expt",""
"","bandit","82","383535","0.0-43.0-0.0","67925048","wem/bandit_either_3","A3HHDPKL3O3O7Y","either","2","966","","","","","","","0","0","1","0.7616266478","","0.2","0.8","0.6","0.4","","","","","0.9875934203","0.7616266478","0.4747636274","0.807852523","","","","","","","","74","J","1","","","3","main_expt",""
"","bandit","83","385938","0.0-44.0-0.0","67925048","wem/bandit_either_3","A3HHDPKL3O3O7Y","either","2","890","","","","","","","0","0","1","0.7555889459","","0.2","0.8","0.6","0.4","","","","","0.9782241123","0.7555889459","0.4841015375","0.7922386472","","","","","","","","74","J","1","","","4","main_expt",""
"","bandit","84","388144","0.0-45.0-0.0","67925048","wem/bandit_either_3","A3HHDPKL3O3O7Y","either","2","694","","","","","","","0","0","1","0.5545204825","","0.2","0.8","0.6","0.4","","","","","0.9756627961","0.733520678","0.5545204825","0.865094385","","","","","","","","75","K","2","","","5","main_expt",""
"","bandit","85","390371","0.0-46.0-0.0","67925048","wem/bandit_either_3","A3HHDPKL3O3O7Y","either","2","712","","","","","","","1","0","0","0.6032406034","","0.2","0.8","0.6","0.4","","","","","0.967089612","0.6705264102","0.6032406034","0.800956518","","","","","","","","75","K","2","","","6","main_expt",""
"","bandit","86","392405","0.0-47.0-0.0","67925048","wem/bandit_either_3","A3HHDPKL3O3O7Y","either","2","521","","","","","","","0","0","1","0.6629125932","","0.2","0.8","0.6","0.4","","","","","0.9581374084","0.6395389268","0.6629125932","0.826484282","","","","","","","","75","K","2","","","7","main_expt",""
"","bandit","87","394483","0.0-48.0-0.0","67925048","wem/bandit_either_3","A3HHDPKL3O3O7Y","either","2","568","","","","","","","0","0","1","0.8721258401","","0.2","0.8","0.6","0.4","","","","","0.9470057872","0.6463283336","0.6179372523","0.8721258401","","","","","","","","76","L","3","","","8","main_expt",""
"","bandit","88","397009","0.0-49.0-0.0","67925048","wem/bandit_either_3","A3HHDPKL3O3O7Y","either","2","1014","","","","","","","1","0","0","0.9776699295","","0.2","0.8","0.6","0.4","","","","","0.9776699295","0.5257156782","0.7126464358","0.9123847657","","","","","","","","72","H","0","img/none_selected.jpg","","9","main_expt",""
"","bandit","89","399244","0.0-50.0-0.0","67925048","wem/bandit_either_3","A3HHDPKL3O3O7Y","either","2","725","","","","","","","0","1","0","","0.9728878591","0.2","0.8","0.6","0.4","0.9728878591","0.4763364632","0.7356985298","0.8996742502","","","","","","","","","","","","72","H","0","img/none_selected.jpg","","10","main_expt",""
"","bandit","90","401364","0.0-51.0-0.0","67925048","wem/bandit_either_3","A3HHDPKL3O3O7Y","either","2","605","","","","","","","0","1","0","","0.9593139104","0.2","0.8","0.6","0.4","0.9593139104","0.4284616273","0.768711937","0.9131723876","","","","","","","","","","","","72","H","0","img/none_selected.jpg","","11","main_expt",""
"","bandit","91","403570","0.0-52.0-0.0","67925048","wem/bandit_either_3","A3HHDPKL3O3O7Y","either","2","691","","","","","","","0","1","0","","0.9498917819","0.2","0.8","0.6","0.4","0.9498917819","0.3846657661","0.775032537","0.8766857583","","","","","","","","","","","","72","H","0","img/none_selected.jpg","","12","main_expt",""
"","bandit","92","405651","0.0-53.0-0.0","67925048","wem/bandit_either_3","A3HHDPKL3O3O7Y","either","2","564","","","","","","","0","1","0","","0.9541602679","0.2","0.8","0.6","0.4","0.9541602679","0.4534267517","0.8005481332","0.8395211377","","","","","","","","","","","","72","H","0","img/none_selected.jpg","","13","main_expt",""
"","bandit","93","407748","0.0-54.0-0.0","67925048","wem/bandit_either_3","A3HHDPKL3O3O7Y","either","2","587","","","","","","","0","1","0","","0.9457654821","0.2","0.8","0.6","0.4","0.9457654821","0.5781166702","0.8437703121","0.8716273459","","","","","","","","","","","","72","H","0","img/none_selected.jpg","","14","main_expt",""
"","bandit","94","409716","0.0-55.0-0.0","67925048","wem/bandit_either_3","A3HHDPKL3O3O7Y","either","2","457","","","","","","","0","1","0","","0.961431504","0.2","0.8","0.6","0.4","0.961431504","0.6683268695","0.7878475566","0.8884181174","","","","","","","","","","","","72","H","0","img/none_selected.jpg","","15","main_expt",""
"","bandit","95","412050","0.0-56.0-0.0","67925048","wem/bandit_either_3","A3HHDPKL3O3O7Y","either","2","819","","","","","","","1","0","0","0.9614480804","","0.2","0.8","0.6","0.4","","","","","0.9614480804","0.6948649322","0.7873795395","0.9144873871","","","","","","","","72","H","0","img/none_selected.jpg","","16","main_expt",""
"","bandit","96","414181","0.0-57.0-0.0","67925048","wem/bandit_either_3","A3HHDPKL3O3O7Y","either","2","622","","","","","","","0","1","0","","0.981184269","0.2","0.8","0.6","0.4","0.981184269","0.7674725463","0.8084550093","0.915766025","","","","","","","","","","","","72","H","0","img/none_selected.jpg","","17","main_expt",""
"","bandit","97","416475","0.0-58.0-0.0","67925048","wem/bandit_either_3","A3HHDPKL3O3O7Y","either","2","777","","","","","","","0","1","0","","0.9861919244","0.2","0.8","0.6","0.4","0.9861919244","0.7706733977","0.8436933745","0.9357816117","","","","","","","","","","","","72","H","0","img/none_selected.jpg","","18","main_expt",""
"","bandit","98","418609","0.0-59.0-0.0","67925048","wem/bandit_either_3","A3HHDPKL3O3O7Y","either","2","621","","","","","","","0","1","0","","0.986789567","0.2","0.8","0.6","0.4","0.986789567","0.7396491891","0.8059530903","0.9482019282","","","","","","","","","","","","72","H","0","img/none_selected.jpg","","19","main_expt",""
"","bandit","99","421332","0.0-60.0-0.0","67925048","wem/bandit_either_3","A3HHDPKL3O3O7Y","either","2","1208","","","","","","","0","1","0","","0.986183881","0.2","0.8","0.6","0.4","0.986183881","0.6712916173","0.7839513496","0.9433726768","","","","","","","","","","","","72","H","0","img/none_selected.jpg","","20","main_expt",""
"","bandit","100","423828","0.0-61.0-0.0","67925048","wem/bandit_either_3","A3HHDPKL3O3O7Y","either","2","982","","","","","","","0","1","0","","0.9887099493","0.2","0.8","0.6","0.4","0.9887099493","0.6728887443","0.7841815244","0.9488284628","","","","","","","","","","","","72","H","0","img/none_selected.jpg","","21","main_expt",""
"","bandit","101","426719","0.0-62.0-0.0","67925048","wem/bandit_either_3","A3HHDPKL3O3O7Y","either","2","1377","","","","","","","1","0","0","0.992558567","","0.2","0.8","0.6","0.4","","","","","0.992558567","0.7838502077","0.8256278583","0.9500515088","","","","","","","","72","H","0","img/none_selected.jpg","","22","main_expt",""
"","bandit","102","428922","0.0-63.0-0.0","67925048","wem/bandit_either_3","A3HHDPKL3O3O7Y","either","2","692","","","","","","","0","1","0","","0.9906074595","0.2","0.8","0.6","0.4","0.9906074595","0.8711917965","0.7043778873","0.9645760881","","","","","","","","","","","","72","H","0","img/none_selected.jpg","","23","main_expt",""
"","bandit","103","431341","0.0-64.0-0.0","67925048","wem/bandit_either_3","A3HHDPKL3O3O7Y","either","2","905","","","","","","","0","1","0","","0.9828703082","0.2","0.8","0.6","0.4","0.9828703082","0.861124964","0.7662705475","0.946785539","","","","","","","","","","","","72","H","0","img/none_selected.jpg","","24","main_expt",""
"","bandit","104","433706","0.0-65.0-0.0","67925048","wem/bandit_either_3","A3HHDPKL3O3O7Y","either","2","850","","","","","","","0","1","0","","0.984618899","0.2","0.8","0.6","0.4","0.984618899","0.8551403996","0.6915147264","0.9229473608","","","","","","","","","","","","72","H","0","img/none_selected.jpg","","25","main_expt",""
"","bandit","105","436704","0.0-66.0-0.0","67925048","wem/bandit_either_3","A3HHDPKL3O3O7Y","either","2","1483","","","","","","","1","0","0","0.9780938917","","0.2","0.8","0.6","0.4","","","","","0.9780938917","0.8959771014","0.6844606422","0.8729820127","","","","","","","","72","H","0","img/none_selected.jpg","","26","main_expt",""
"","bandit","106","439753","0.0-67.0-0.0","67925048","wem/bandit_either_3","A3HHDPKL3O3O7Y","either","2","1534","","","","","","","0","0","1","","0.9634866904","0.2","0.8","0.6","0.4","0.9634866904","0.8786292531","0.7953701942","0.859067388","","","","","","","","","","","","72","H","0","img/none_selected.jpg","","27","main_expt",""
"","bandit","107","441982","0.0-68.0-0.0","67925048","wem/bandit_either_3","A3HHDPKL3O3O7Y","either","2","717","","","","","","","1","0","0","0.946494378","","0.2","0.8","0.6","0.4","","","","","0.946494378","0.8920593834","0.622657036","0.836267867","","","","","","","","72","H","0","img/none_selected.jpg","","28","main_expt",""
"","bandit","108","444350","0.0-69.0-0.0","67925048","wem/bandit_either_3","A3HHDPKL3O3O7Y","either","2","853","","","","","","","0","1","0","","0.9338647731","0.2","0.8","0.6","0.4","0.9338647731","0.8234517222","0.5757463716","0.7158546556","","","","","","","","","","","","72","H","0","img/none_selected.jpg","","29","main_expt",""
"","bandit","109","446759","0.0-70.0-0.0","67925048","wem/bandit_either_3","A3HHDPKL3O3O7Y","either","2","895","","","","","","","0","1","0","","0.9354801528","0.2","0.8","0.6","0.4","0.9354801528","0.7963444676","0.6048158844","0.7262950886","","","","","","","","","","","","72","H","0","img/none_selected.jpg","","30","main_expt",""
"","bandit","110","449098","0.0-71.0-0.0","67925048","wem/bandit_either_3","A3HHDPKL3O3O7Y","either","2","828","","","","","","","0","1","0","","0.9323861487","0.2","0.8","0.6","0.4","0.9323861487","0.6847131082","0.4831208743","0.7049485024","","","","","","","","","","","","72","H","0","img/none_selected.jpg","","31","main_expt",""
"","bandit","111","451602","0.0-72.0-0.0","67925048","wem/bandit_either_3","A3HHDPKL3O3O7Y","either","2","988","","","","","","","0","1","0","","0.9159531952","0.2","0.8","0.6","0.4","0.9159531952","0.7745616343","0.4413454117","0.6294605358","","","","","","","","","","","","72","H","0","img/none_selected.jpg","","32","main_expt",""
"","bandit","112","453708","0.0-73.0-0.0","67925048","wem/bandit_either_3","A3HHDPKL3O3O7Y","either","2","591","","","","","","","1","0","0","0.9501333659","","0.2","0.8","0.6","0.4","","","","","0.9501333659","0.8111568365","0.589686364","0.7097184707","","","","","","","","72","H","0","img/none_selected.jpg","","33","main_expt",""
"","bandit","113","456235","0.0-74.0-0.0","67925048","wem/bandit_either_3","A3HHDPKL3O3O7Y","either","2","1010","","","","","","","0","1","0","","0.9485118263","0.2","0.8","0.6","0.4","0.9485118263","0.7291364049","0.5789977489","0.6324728327","","","","","","","","","","","","72","H","0","img/none_selected.jpg","","34","main_expt",""
"","bandit","114","458717","0.0-75.0-0.0","67925048","wem/bandit_either_3","A3HHDPKL3O3O7Y","either","2","973","","","","","","","0","1","0","","0.959491173","0.2","0.8","0.6","0.4","0.959491173","0.7920219322","0.5605822786","0.6809104991","","","","","","","","","","","","72","H","0","img/none_selected.jpg","","35","main_expt",""
"","bandit","115","460886","0.0-76.0-0.0","67925048","wem/bandit_either_3","A3HHDPKL3O3O7Y","either","2","653","","","","","","","0","1","0","","0.9523687656","0.2","0.8","0.6","0.4","0.9523687656","0.7889809596","0.3330948712","0.5745256001","","","","","","","","","","","","72","H","0","img/none_selected.jpg","","36","main_expt",""
"","bandit","116","462839","0.0-77.0-0.0","67925048","wem/bandit_either_3","A3HHDPKL3O3O7Y","either","2","441","","","","","","","1","0","0","0.9504344127","","0.2","0.8","0.6","0.4","","","","","0.9504344127","0.8060385269","0.2430176499","0.6249275122","","","","","","","","72","H","0","img/none_selected.jpg","","37","main_expt",""
"","bandit","117","464772","0.0-78.0-0.0","67925048","wem/bandit_either_3","A3HHDPKL3O3O7Y","either","2","422","","","","","","","0","1","0","","0.9321408283","0.2","0.8","0.6","0.4","0.9321408283","0.7188782676","0.3106083343","0.5582777804","","","","","","","","","","","","72","H","0","img/none_selected.jpg","","38","main_expt",""
"","bandit","118","466861","0.0-79.0-0.0","67925048","wem/bandit_either_3","A3HHDPKL3O3O7Y","either","2","570","","","","","","","1","0","0","0.9135525369","","0.2","0.8","0.6","0.4","","","","","0.9135525369","0.7387945131","0.3239447463","0.6619895395","","","","","","","","72","H","0","img/none_selected.jpg","","39","main_expt",""
"","bandit","119","469236","0.0-80.0-0.0","67925048","wem/bandit_either_3","A3HHDPKL3O3O7Y","either","2","859","","","","","","","0","1","0","","0.8840916364","0.2","0.8","0.6","0.4","0.8840916364","0.7478035428","0.2946631509","0.6522152691","","","","","","","","","","","","72","H","0","img/none_selected.jpg","","40","main_expt",""
"","bandit","120","471558","0.0-81.0-0.0","67925048","wem/bandit_either_3","A3HHDPKL3O3O7Y","either","2","812","","","","","","","0","1","0","","0.8747037504","0.2","0.8","0.6","0.4","0.8747037504","0.7802386085","0.193597671","0.6714070371","","","","","","","","","","","","72","H","0","img/none_selected.jpg","","41","main_expt",""
"","bandit","121","474070","0.0-82.0-0.0","67925048","wem/bandit_either_3","A3HHDPKL3O3O7Y","either","2","995","","","","","","","0","1","0","","0.826315498","0.2","0.8","0.6","0.4","0.826315498","0.7994277013","0.1834529884","0.6390104416","","","","","","","","","","","","72","H","0","img/none_selected.jpg","","42","main_expt",""
"","bandit","122","476158","0.0-83.0-0.0","67925048","wem/bandit_either_3","A3HHDPKL3O3O7Y","either","2","573","","","","","","","0","1","0","","0.7681371561","0.2","0.8","0.6","0.4","0.7681371561","0.8718069658","0.1558663495","0.6318841448","","","","","","","","","","","","72","H","0","img/none_selected.jpg","","43","main_expt",""
"","bandit","123","478451","0.0-84.0-0.0","67925048","wem/bandit_either_3","A3HHDPKL3O3O7Y","either","2","779","","","","","","","0","1","0","","0.7584360225","0.2","0.8","0.6","0.4","0.7584360225","0.7725207311","0.1573065196","0.5708139437","","","","","","","","","","","","72","H","0","img/none_selected.jpg","","44","main_expt",""
"","bandit","124","480882","0.0-85.0-0.0","67925048","wem/bandit_either_3","A3HHDPKL3O3O7Y","either","2","921","","","","","","","0","1","0","","0.816959585","0.2","0.8","0.6","0.4","0.816959585","0.8399140445","0.1743203636","0.5703812278","","","","","","","","","","","","72","H","0","img/none_selected.jpg","","45","main_expt",""
"","bandit","125","483250","0.0-86.0-0.0","67925048","wem/bandit_either_3","A3HHDPKL3O3O7Y","either","2","855","","","","","","","0","0","1","","0.7571269921","0.2","0.8","0.6","0.4","0.7571269921","0.7830678696","0.1234040722","0.4520700595","","","","","","","","","","","","72","H","0","img/none_selected.jpg","","46","main_expt",""
"","bandit","126","485595","0.0-87.0-0.0","67925048","wem/bandit_either_3","A3HHDPKL3O3O7Y","either","2","833","","","","","","","0","1","0","","0.7086567283","0.2","0.8","0.6","0.4","0.7086567283","0.8255209912","0.1592846429","0.4953600952","","","","","","","","","","","","72","H","0","img/none_selected.jpg","","47","main_expt",""
"","bandit","127","487813","0.0-88.0-0.0","67925048","wem/bandit_either_3","A3HHDPKL3O3O7Y","either","2","703","","","","","","","0","1","0","","0.6428227569","0.2","0.8","0.6","0.4","0.6428227569","0.7728754614","0.1880090658","0.4912921637","","","","","","","","","","","","72","H","0","img/none_selected.jpg","","48","main_expt",""
"","bandit","128","489758","0.0-89.0-0.0","67925048","wem/bandit_either_3","A3HHDPKL3O3O7Y","either","2","435","","","","","","","0","0","1","","0.7004196772","0.2","0.8","0.6","0.4","0.7004196772","0.8607162984","0.3190576765","0.4694413912","","","","","","","","","","","","72","H","0","img/none_selected.jpg","","49","main_expt",""
"","bandit","129","491900","0.0-90.0-0.0","67925048","wem/bandit_either_3","A3HHDPKL3O3O7Y","either","2","627","","","","","","","0","0","1","0.6418514465","","0.2","0.8","0.6","0.4","","","","","0.6418514465","0.8526113732","0.277770718","0.5835687148","","","","","","","","72","H","0","img/none_selected.jpg","","50","main_expt",""
"","bandit","130","493775","0.0-91.0-0.0","67925048","wem/bandit_either_3","A3HHDPKL3O3O7Y","either","2","363","","","","","","","0","0","1","0.8630835666","","0.2","0.8","0.6","0.4","","","","","0.6322169777","0.8630835666","0.3304163056","0.581499138","","","","","","","","74","J","1","","","51","main_expt",""
"","bandit","131","495783","0.0-92.0-0.0","67925048","wem/bandit_either_3","A3HHDPKL3O3O7Y","either","2","494","","","","","","","0","0","1","","0.8689990829","0.2","0.8","0.6","0.4","0.6160259873","0.8689990829","0.3074301744","0.6521379128","","","","","","","","","","","","74","J","1","","","52","main_expt",""
"","bandit","132","497832","0.0-93.0-0.0","67925048","wem/bandit_either_3","A3HHDPKL3O3O7Y","either","2","538","","","","","","","1","0","0","0.3292402402","","0.2","0.8","0.6","0.4","","","","","0.6635838846","0.8829627288","0.3292402402","0.5743957808","","","","","","","","75","K","2","","","53","main_expt",""
"","bandit","133","499947","0.0-94.0-0.0","67925048","wem/bandit_either_3","A3HHDPKL3O3O7Y","either","2","603","","","","","","","1","0","0","0.3701383524","","0.2","0.8","0.6","0.4","","","","","0.7334380463","0.8577096669","0.3701383524","0.4765250731","","","","","","","","75","K","2","","","54","main_expt",""
"","bandit","134","502258","0.0-95.0-0.0","67925048","wem/bandit_either_3","A3HHDPKL3O3O7Y","either","2","795","","","","","","","1","0","0","0.4023440482","","0.2","0.8","0.6","0.4","","","","","0.6625049704","0.7951355038","0.4023440482","0.472038817","","","","","","","","75","K","2","","","55","main_expt",""
"","bandit","135","504810","0.0-96.0-0.0","67925048","wem/bandit_either_3","A3HHDPKL3O3O7Y","either","2","1038","","","","","","","0","0","1","0.3320470731","","0.2","0.8","0.6","0.4","","","","","0.6244126183","0.7832403428","0.3320470731","0.6060805283","","","","","","","","75","K","2","","","56","main_expt",""
"","bandit","136","506801","0.0-97.0-0.0","67925048","wem/bandit_either_3","A3HHDPKL3O3O7Y","either","2","476","","","","","","","0","0","1","0.3398704556","","0.2","0.8","0.6","0.4","","","","","0.693445159","0.7165346004","0.3398704556","0.5733746242","","","","","","","","75","K","2","","","57","main_expt",""
"","bandit","137","508881","0.0-98.0-0.0","67925048","wem/bandit_either_3","A3HHDPKL3O3O7Y","either","2","562","","","","","","","0","0","1","","0.5268086549","0.2","0.8","0.6","0.4","0.6603141298","0.7840704931","0.3171476707","0.5268086549","","","","","","","","","","","","76","L","3","","","58","main_expt",""
"","bandit","138","510830","0.0-99.0-0.0","67925048","wem/bandit_either_3","A3HHDPKL3O3O7Y","either","2","436","","","","","","","0","0","1","","0.5298916697","0.2","0.8","0.6","0.4","0.6435133917","0.7166558068","0.1868584885","0.5298916697","","","","","","","","","","","","76","L","3","","","59","main_expt",""
"","bandit","139","512792","0.0-100.0-0.0","67925048","wem/bandit_either_3","A3HHDPKL3O3O7Y","either","2","450","","","","","","","1","0","0","0.6505055492","","0.2","0.8","0.6","0.4","","","","","0.6720075741","0.6505055492","0.2163153633","0.5547432704","","","","","","","","74","J","1","","","60","main_expt",""
"","bandit","140","515236","0.0-101.0-0.0","67925048","wem/bandit_either_3","A3HHDPKL3O3O7Y","either","2","929","","","","","","","1","0","0","0.6465946667","","0.2","0.8","0.6","0.4","","","","","0.6703611074","0.6465946667","0.2086512551","0.5407031957","","","","","","","","74","J","1","","","61","main_expt",""
"","bandit","141","517632","0.0-102.0-0.0","67925048","wem/bandit_either_3","A3HHDPKL3O3O7Y","either","2","879","","","","","","","0","1","0","","0.709990362","0.2","0.8","0.6","0.4","0.64477312","0.709990362","0.2250062338","0.6993449034","","","","","","","","","","","","74","J","1","","","62","main_expt",""
"","bandit","142","520234","0.0-103.0-0.0","67925048","wem/bandit_either_3","A3HHDPKL3O3O7Y","either","2","1089","","","","","","","0","1","0","","0.7542168012","0.2","0.8","0.6","0.4","0.509049177","0.7542168012","0.2739380208","0.6342967703","","","","","","","","","","","","74","J","1","","","63","main_expt",""
"","bandit","143","522381","0.0-104.0-0.0","67925048","wem/bandit_either_3","A3HHDPKL3O3O7Y","either","2","633","","","","","","","0","0","1","0.7660604158","","0.2","0.8","0.6","0.4","","","","","0.5535424332","0.7660604158","0.3449536465","0.5961490325","","","","","","","","74","J","1","","","64","main_expt",""
"","bandit","144","524751","0.0-105.0-0.0","67925048","wem/bandit_either_3","A3HHDPKL3O3O7Y","either","2","855","","","","","","","0","1","0","","0.7572602099","0.2","0.8","0.6","0.4","0.6608621899","0.7572602099","0.34640195","0.5771190674","","","","","","","","","","","","74","J","1","","","65","main_expt",""
"","bandit","145","527018","0.0-106.0-0.0","67925048","wem/bandit_either_3","A3HHDPKL3O3O7Y","either","2","750","","","","","","","1","0","0","0.686926195","","0.2","0.8","0.6","0.4","","","","","0.6535341977","0.686926195","0.5266288285","0.4765921407","","","","","","","","74","J","1","","","66","main_expt",""
"","bandit","146","529198","0.0-107.0-0.0","67925048","wem/bandit_either_3","A3HHDPKL3O3O7Y","either","2","665","","","","","","","0","1","0","","0.7334195653","0.2","0.8","0.6","0.4","0.6592628399","0.7334195653","0.5588671697","0.5714361875","","","","","","","","","","","","74","J","1","","","67","main_expt",""
"","bandit","147","531241","0.0-108.0-0.0","67925048","wem/bandit_either_3","A3HHDPKL3O3O7Y","either","2","531","","","","","","","0","1","0","","0.6114245881","0.2","0.8","0.6","0.4","0.6735013879","0.6114245881","0.6097536784","0.6231829193","","","","","","","","","","","","74","J","1","","","68","main_expt",""
"","bandit","148","533691","0.0-109.0-0.0","67925048","wem/bandit_either_3","A3HHDPKL3O3O7Y","either","2","937","","","","","","","0","0","1","","0.6460921668","0.2","0.8","0.6","0.4","0.7209687993","0.6460921668","0.533457584","0.5130256365","","","","","","","","","","","","74","J","1","","","69","main_expt",""
"","bandit","149","535867","0.0-110.0-0.0","67925048","wem/bandit_either_3","A3HHDPKL3O3O7Y","either","2","662","","","","","","","0","1","0","","0.4124750721","0.2","0.8","0.6","0.4","0.690528825","0.6700702736","0.4124750721","0.5167166","","","","","","","","","","","","75","K","2","","","70","main_expt",""
"","bandit","150","538100","0.0-111.0-0.0","67925048","wem/bandit_either_3","A3HHDPKL3O3O7Y","either","2","717","","","","","","","0","0","1","","0.4486526525","0.2","0.8","0.6","0.4","0.6453310316","0.6388012411","0.4486526525","0.6448170737","","","","","","","","","","","","75","K","2","","","71","main_expt",""
"","bandit","151","540071","0.0-112.0-0.0","67925048","wem/bandit_either_3","A3HHDPKL3O3O7Y","either","2","457","","","","","","","0","0","1","","0.4313602212","0.2","0.8","0.6","0.4","0.8140348339","0.6046900378","0.4313602212","0.5640434706","","","","","","","","","","","","75","K","2","","","72","main_expt",""
"","bandit","152","542381","0.0-113.0-0.0","67925048","wem/bandit_either_3","A3HHDPKL3O3O7Y","either","2","799","","","","","","","0","0","1","","0.820931829","0.2","0.8","0.6","0.4","0.820931829","0.6062428704","0.3639072561","0.6296110197","","","","","","","","","","","","72","H","0","img/none_selected.jpg","","73","main_expt",""
"","bandit","153","544320","0.0-114.0-0.0","67925048","wem/bandit_either_3","A3HHDPKL3O3O7Y","either","2","426","","","","","","","0","1","0","","0.8096233945","0.2","0.8","0.6","0.4","0.8096233945","0.6237194739","0.2882181569","0.6730210969","","","","","","","","","","","","72","H","0","img/none_selected.jpg","","74","main_expt",""
"","bandit","154","546619","0.0-115.0-0.0","67925048","wem/bandit_either_3","A3HHDPKL3O3O7Y","either","2","785","","","","","","","0","1","0","","0.7615001707","0.2","0.8","0.6","0.4","0.7615001707","0.5971007372","0.3561187133","0.5720403827","","","","","","","","","","","","72","H","0","img/none_selected.jpg","","75","main_expt",""
"","bandit","155","548828","0.0-116.0-0.0","67925048","wem/bandit_either_3","A3HHDPKL3O3O7Y","either","2","693","","","","","","","0","0","1","0.8147365981","","0.2","0.8","0.6","0.4","","","","","0.8147365981","0.5810032438","0.4480894403","0.6303512149","","","","","","","","72","H","0","img/none_selected.jpg","","76","main_expt",""
"","bandit","156","550828","0.0-117.0-0.0","67925048","wem/bandit_either_3","A3HHDPKL3O3O7Y","either","2","485","","","","","","","0","1","0","","0.8926338818","0.2","0.8","0.6","0.4","0.8926338818","0.5792233978","0.3220850356","0.5531797874","","","","","","","","","","","","72","H","0","img/none_selected.jpg","","77","main_expt",""
"","bandit","157","552921","0.0-118.0-0.0","67925048","wem/bandit_either_3","A3HHDPKL3O3O7Y","either","2","578","","","","","","","0","0","1","","0.8669072201","0.2","0.8","0.6","0.4","0.8669072201","0.692511921","0.3281133775","0.5449672882","","","","","","","","","","","","72","H","0","img/none_selected.jpg","","78","main_expt",""
"","bandit","158","554851","0.0-119.0-0.0","67925048","wem/bandit_either_3","A3HHDPKL3O3O7Y","either","2","417","","","","","","","0","1","0","","0.9114006046","0.2","0.8","0.6","0.4","0.9114006046","0.7019625083","0.3814329202","0.4484013318","","","","","","","","","","","","72","H","0","img/none_selected.jpg","","79","main_expt",""
"","bandit","159","557208","0.0-120.0-0.0","67925048","wem/bandit_either_3","A3HHDPKL3O3O7Y","either","2","843","","","","","","","0","1","0","","0.9268398106","0.2","0.8","0.6","0.4","0.9268398106","0.6785675641","0.3512572076","0.5041425745","","","","","","","","","","","","72","H","0","img/none_selected.jpg","","80","main_expt",""
"","bandit","160","559779","0.0-121.0-0.0","67925048","wem/bandit_either_3","A3HHDPKL3O3O7Y","either","2","1059","","","","","","","0","1","0","","0.9582858862","0.2","0.8","0.6","0.4","0.9582858862","0.7101061672","0.3624285329","0.3462078978","","","","","","","","","","","","72","H","0","img/none_selected.jpg","","81","main_expt",""
"","bandit","161","562101","0.0-122.0-0.0","67925048","wem/bandit_either_3","A3HHDPKL3O3O7Y","either","2","808","","","","","","","0","1","0","","0.9590071975","0.2","0.8","0.6","0.4","0.9590071975","0.7217376576","0.3111883408","0.3226795418","","","","","","","","","","","","72","H","0","img/none_selected.jpg","","82","main_expt",""
"","bandit","162","564435","0.0-123.0-0.0","67925048","wem/bandit_either_3","A3HHDPKL3O3O7Y","either","2","821","","","","","","","0","1","0","","0.9379973093","0.2","0.8","0.6","0.4","0.9379973093","0.6437777395","0.243162563","0.3023868023","","","","","","","","","","","","72","H","0","img/none_selected.jpg","","83","main_expt",""
"","bandit","163","567096","0.0-124.0-0.0","67925048","wem/bandit_either_3","A3HHDPKL3O3O7Y","either","2","1143","","","","","","","0","1","0","","0.9411979228","0.2","0.8","0.6","0.4","0.9411979228","0.6533183273","0.347146949","0.4040419094","","","","","","","","","","","","72","H","0","img/none_selected.jpg","","84","main_expt",""
"","bandit","164","569524","0.0-125.0-0.0","67925048","wem/bandit_either_3","A3HHDPKL3O3O7Y","either","2","910","","","","","","","0","1","0","","0.9441700551","0.2","0.8","0.6","0.4","0.9441700551","0.7469548387","0.4416309426","0.4716136817","","","","","","","","","","","","72","H","0","img/none_selected.jpg","","85","main_expt",""
"","bandit","165","571786","0.0-126.0-0.0","67925048","wem/bandit_either_3","A3HHDPKL3O3O7Y","either","2","744","","","","","","","0","1","0","","0.9323605113","0.2","0.8","0.6","0.4","0.9323605113","0.7366570046","0.4523797492","0.4455883603","","","","","","","","","","","","72","H","0","img/none_selected.jpg","","86","main_expt",""
"","bandit","166","574095","0.0-127.0-0.0","67925048","wem/bandit_either_3","A3HHDPKL3O3O7Y","either","2","797","","","","","","","0","1","0","","0.8871332711","0.2","0.8","0.6","0.4","0.8871332711","0.7142428019","0.4621103264","0.5952575165","","","","","","","","","","","","72","H","0","img/none_selected.jpg","","87","main_expt",""
"","bandit","167","576149","0.0-128.0-0.0","67925048","wem/bandit_either_3","A3HHDPKL3O3O7Y","either","2","537","","","","","","","1","0","0","0.8520973281","","0.2","0.8","0.6","0.4","","","","","0.8520973281","0.7057172343","0.3800084876","0.5333825583","","","","","","","","72","H","0","img/none_selected.jpg","","88","main_expt",""
"","bandit","168","578367","0.0-129.0-0.0","67925048","wem/bandit_either_3","A3HHDPKL3O3O7Y","either","2","703","","","","","","","0","1","0","","0.7882210871","0.2","0.8","0.6","0.4","0.7882210871","0.7289934888","0.2354372355","0.4583166828","","","","","","","","","","","","72","H","0","img/none_selected.jpg","","89","main_expt",""
"","bandit","169","581131","0.0-130.0-0.0","67925048","wem/bandit_either_3","A3HHDPKL3O3O7Y","either","2","1250","","","","","","","0","1","0","","0.720110267","0.2","0.8","0.6","0.4","0.720110267","0.7475354559","0.2978482647","0.4782349553","","","","","","","","","","","","72","H","0","img/none_selected.jpg","","90","main_expt",""
"","bandit","170","583459","0.0-131.0-0.0","67925048","wem/bandit_either_3","A3HHDPKL3O3O7Y","either","2","814","","","","","","","0","1","0","","0.7390342074","0.2","0.8","0.6","0.4","0.7390342074","0.6316706059","0.3723871884","0.464138054","","","","","","","","","","","","72","H","0","img/none_selected.jpg","","91","main_expt",""
"","bandit","171","585649","0.0-132.0-0.0","67925048","wem/bandit_either_3","A3HHDPKL3O3O7Y","either","2","672","","","","","","","0","1","0","","0.8135224625","0.2","0.8","0.6","0.4","0.8135224625","0.6957908828","0.5400298203","0.5084128334","","","","","","","","","","","","72","H","0","img/none_selected.jpg","","92","main_expt",""
"","bandit","172","587934","0.0-133.0-0.0","67925048","wem/bandit_either_3","A3HHDPKL3O3O7Y","either","2","772","","","","","","","0","1","0","","0.7814404678","0.2","0.8","0.6","0.4","0.7814404678","0.6812665662","0.5134744583","0.5211356389","","","","","","","","","","","","72","H","0","img/none_selected.jpg","","93","main_expt",""
"","bandit","173","590354","0.0-134.0-0.0","67925048","wem/bandit_either_3","A3HHDPKL3O3O7Y","either","2","903","","","","","","","0","1","0","","0.7672416568","0.2","0.8","0.6","0.4","0.7672416568","0.6412933588","0.4101580275","0.4554037602","","","","","","","","","","","","72","H","0","img/none_selected.jpg","","94","main_expt",""
"","bandit","174","592576","0.0-135.0-0.0","67925048","wem/bandit_either_3","A3HHDPKL3O3O7Y","either","2","710","","","","","","","0","1","0","","0.7573973965","0.2","0.8","0.6","0.4","0.7573973965","0.5696630174","0.2995167601","0.4195046205","","","","","","","","","","","","72","H","0","img/none_selected.jpg","","95","main_expt",""
"","bandit","175","594806","0.0-136.0-0.0","67925048","wem/bandit_either_3","A3HHDPKL3O3O7Y","either","2","711","","","","","","","1","0","0","0.8177369732","","0.2","0.8","0.6","0.4","","","","","0.8177369732","0.6076398096","0.2934894425","0.3638478563","","","","","","","","72","H","0","img/none_selected.jpg","","96","main_expt",""
"","bandit","176","597184","0.0-137.0-0.0","67925048","wem/bandit_either_3","A3HHDPKL3O3O7Y","either","2","859","","","","","","","0","0","1","","0.8124666872","0.2","0.8","0.6","0.4","0.8124666872","0.5551612935","0.2802715202","0.2839735208","","","","","","","","","","","","72","H","0","img/none_selected.jpg","","97","main_expt",""
"","bandit","177","599411","0.0-138.0-0.0","67925048","wem/bandit_either_3","A3HHDPKL3O3O7Y","either","2","714","","","","","","","0","1","0","","0.881496875","0.2","0.8","0.6","0.4","0.881496875","0.6354974245","0.2703087955","0.2109275999","","","","","","","","","","","","72","H","0","img/none_selected.jpg","","98","main_expt",""
"","bandit","178","601565","0.0-139.0-0.0","67925048","wem/bandit_either_3","A3HHDPKL3O3O7Y","either","2","641","","","","","","","1","0","0","0.5945745664","","0.2","0.8","0.6","0.4","","","","","0.8785981907","0.5945745664","0.3027543159","0.1531506719","","","","","","","","74","J","1","","","99","main_expt",""
"","bandit","179","603713","0.0-140.0-0.0","67925048","wem/bandit_either_3","A3HHDPKL3O3O7Y","either","2","634","","","","","","","1","0","0","0.5679097985","","0.2","0.8","0.6","0.4","","","","","0.8494581726","0.5679097985","0.3645318829","0.1262108991","","","","","","","","74","J","1","","","100","main_expt",""
"","bandit","180","606251","0.0-141.0-0.0","67925048","wem/bandit_either_3","A3HHDPKL3O3O7Y","either","2","1021","","","","","","","0","0","1","0.6430580454","","0.2","0.8","0.6","0.4","","","","","0.7754784616","0.6430580454","0.4315832637","0.1340220502","","","","","","","","74","J","1","","","101","main_expt",""
"","bandit","181","608525","0.0-142.0-0.0","67925048","wem/bandit_either_3","A3HHDPKL3O3O7Y","either","2","757","","","","","","","0","0","1","0.6340200926","","0.2","0.8","0.6","0.4","","","","","0.7626736499","0.6340200926","0.3608531129","0.2167126086","","","","","","","","74","J","1","","","102","main_expt",""
"","bandit","182","610646","0.0-143.0-0.0","67925048","wem/bandit_either_3","A3HHDPKL3O3O7Y","either","2","604","","","","","","","0","0","1","","0.3688981903","0.2","0.8","0.6","0.4","0.7329996306","0.6377668076","0.3688981903","0.2796352144","","","","","","","","","","","","75","K","2","","","103","main_expt",""
"","bandit","183","612647","0.0-144.0-0.0","67925048","wem/bandit_either_3","A3HHDPKL3O3O7Y","either","2","486","","","","","","","0","0","1","0.3758155051","","0.2","0.8","0.6","0.4","","","","","0.7467689404","0.6578341575","0.3758155051","0.3556406549","","","","","","","","75","K","2","","","104","main_expt",""
"","bandit","184","614650","0.0-145.0-0.0","67925048","wem/bandit_either_3","A3HHDPKL3O3O7Y","either","2","490","","","","","","","0","1","0","","0.3233911601","0.2","0.8","0.6","0.4","0.737018723","0.6727034752","0.4508947075","0.3233911601","","","","","","","","","","","","76","L","3","","","105","main_expt",""
"","bandit","185","617026","0.0-146.0-0.0","67925048","wem/bandit_either_3","A3HHDPKL3O3O7Y","either","2","860","","","","","","","0","1","0","","0.2024631506","0.2","0.8","0.6","0.4","0.655194185","0.6386482702","0.4132181144","0.2024631506","","","","","","","","","","","","76","L","3","","","106","main_expt",""
"","bandit","186","619752","0.0-147.0-0.0","67925048","wem/bandit_either_3","A3HHDPKL3O3O7Y","either","2","1212","","","","","","","1","0","0","0.2290393164","","0.2","0.8","0.6","0.4","","","","","0.7122819559","0.6788938686","0.4393512677","0.2290393164","","","","","","","","76","L","3","","","107","main_expt",""
"","bandit","187","622070","0.0-148.0-0.0","67925048","wem/bandit_either_3","A3HHDPKL3O3O7Y","either","2","802","","","","","","","0","0","1","","0.2217712157","0.2","0.8","0.6","0.4","0.7326995505","0.7076498576","0.4964319729","0.2217712157","","","","","","","","","","","","76","L","3","","","108","main_expt",""
"","bandit","188","624123","0.0-149.0-0.0","67925048","wem/bandit_either_3","A3HHDPKL3O3O7Y","either","2","542","","","","","","","0","0","1","","0.1566860935","0.2","0.8","0.6","0.4","0.7165499475","0.6932550908","0.4790921069","0.1566860935","","","","","","","","","","","","76","L","3","","","109","main_expt",""
"","bandit","189","626312","0.0-150.0-0.0","67925048","wem/bandit_either_3","A3HHDPKL3O3O7Y","either","2","675","","","","","","","0","1","0","","0.6058017554","0.2","0.8","0.6","0.4","0.6058017554","0.7436061547","0.5856434505","0.1083987113","","","","","","","","","","","","72","H","0","img/none_selected.jpg","","110","main_expt",""
"","bandit","190","628797","0.0-151.0-0.0","67925048","wem/bandit_either_3","A3HHDPKL3O3O7Y","either","2","969","","","","","","","0","0","1","","0.5476823758","0.2","0.8","0.6","0.4","0.5476823758","0.657194241","0.6444230696","0.217828795","","","","","","","","","","","","72","H","0","img/none_selected.jpg","","111","main_expt",""
"","bandit","191","631039","0.0-152.0-0.0","67925048","wem/bandit_either_3","A3HHDPKL3O3O7Y","either","2","726","","","","","","","0","1","0","","0.5688313193","0.2","0.8","0.6","0.4","0.5688313193","0.6317228327","0.603417252","0.2212119155","","","","","","","","","","","","72","H","0","img/none_selected.jpg","","112","main_expt",""
"","bandit","192","633371","0.0-153.0-0.0","67925048","wem/bandit_either_3","A3HHDPKL3O3O7Y","either","2","820","","","","","","","0","0","1","","0.50852785","0.2","0.8","0.6","0.4","0.50852785","0.4985892417","0.420613871","0.2374112476","","","","","","","","","","","","72","H","0","img/none_selected.jpg","","113","main_expt",""
"","bandit","193","635486","0.0-154.0-0.0","67925048","wem/bandit_either_3","A3HHDPKL3O3O7Y","either","2","598","","","","","","","0","0","1","","0.5711084253","0.2","0.8","0.6","0.4","0.5711084253","0.579071345","0.2851569533","0.2703699348","","","","","","","","","","","","72","H","0","img/none_selected.jpg","","114","main_expt",""
"","bandit","194","637539","0.0-155.0-0.0","67925048","wem/bandit_either_3","A3HHDPKL3O3O7Y","either","2","536","","","","","","","1","0","0","0.4595939904","","0.2","0.8","0.6","0.4","","","","","0.4177754351","0.4595939904","0.3166589884","0.1928485376","","","","","","","","74","J","1","","","115","main_expt",""
"","bandit","195","640114","0.0-156.0-0.0","67925048","wem/bandit_either_3","A3HHDPKL3O3O7Y","either","2","1064","","","","","","","0","0","1","0.3744567546","","0.2","0.8","0.6","0.4","","","","","0.387840809","0.3744567546","0.3928451607","0.136356343","","","","","","","","74","J","1","","","116","main_expt",""
"","bandit","196","642624","0.0-157.0-0.0","67925048","wem/bandit_either_3","A3HHDPKL3O3O7Y","either","2","995","","","","","","","0","0","1","0.302145019","","0.2","0.8","0.6","0.4","","","","","0.4456731606","0.302145019","0.560845346","0.2193113504","","","","","","","","74","J","1","","","117","main_expt",""
"","bandit","197","644668","0.0-158.0-0.0","67925048","wem/bandit_either_3","A3HHDPKL3O3O7Y","either","2","526","","","","","","","0","0","1","","0.5536818424","0.2","0.8","0.6","0.4","0.3045880574","0.3522466686","0.5536818424","0.2686792008","","","","","","","","","","","","75","K","2","","","118","main_expt",""
"","bandit","198","646734","0.0-159.0-0.0","67925048","wem/bandit_either_3","A3HHDPKL3O3O7Y","either","2","550","","","","","","","0","0","1","0.3617659687","","0.2","0.8","0.6","0.4","","","","","0.3994134075","0.4425542362","0.3617659687","0.2668270476","","","","","","","","75","K","2","","","119","main_expt",""
"","bandit","199","648790","0.0-160.0-0.0","67925048","wem/bandit_either_3","A3HHDPKL3O3O7Y","either","2","542","","","","","","","0","0","1","","0.3723992114","0.2","0.8","0.6","0.4","0.351449483","0.3377532805","0.3454740543","0.3723992114","","","","","","","","","","","","76","L","3","","","120","main_expt",""
"","bandit","200","650897","0.0-161.0-0.0","67925048","wem/bandit_either_3","A3HHDPKL3O3O7Y","either","2","594","","","","","","","0","0","1","","0.4001238515","0.2","0.8","0.6","0.4","0.3641911367","0.2929504356","0.2798257893","0.4001238515","","","","","","","","","","","","76","L","3","","","121","main_expt",""
"","bandit","201","653405","0.0-162.0-0.0","67925048","wem/bandit_either_3","A3HHDPKL3O3O7Y","either","2","993","","","","","","","0","0","1","","0.4090120715","0.2","0.8","0.6","0.4","0.2673706252","0.2504028886","0.2261540995","0.4090120715","","","","","","","","","","","","76","L","3","","","122","main_expt",""
"","bandit","202","655280","0.0-163.0-0.0","67925048","wem/bandit_either_3","A3HHDPKL3O3O7Y","either","2","359","","","","","","","0","0","1","","0.2766663047","0.2","0.8","0.6","0.4","0.3455372181","0.2414849785","0.2766663047","0.4746108064","","","","","","","","","","","","75","K","2","","","123","main_expt",""
"","bandit","203","657339","0.0-164.0-0.0","67925048","wem/bandit_either_3","A3HHDPKL3O3O7Y","either","2","548","","","","","","","0","0","1","","0.1791255979","0.2","0.8","0.6","0.4","0.3524137631","0.1791255979","0.3126864395","0.453231646","","","","","","","","","","","","74","J","1","","","124","main_expt",""
"","bandit","204","659384","0.0-165.0-0.0","67925048","wem/bandit_either_3","A3HHDPKL3O3O7Y","either","2","531","","","","","","","0","0","1","0.3680881866","","0.2","0.8","0.6","0.4","","","","","0.3680881866","0.1952456852","0.2772507379","0.4888945922","","","","","","","","72","H","0","img/none_selected.jpg","","125","main_expt",""
"","bandit","205","661422","0.0-166.0-0.0","67925048","wem/bandit_either_3","A3HHDPKL3O3O7Y","either","2","526","","","","","","","0","1","0","","0.2884444508","0.2","0.8","0.6","0.4","0.2884444508","0.2614303707","0.2441417391","0.396932523","","","","","","","","","","","","72","H","0","img/none_selected.jpg","","126","main_expt",""
"","bandit","206","663755","0.0-167.0-0.0","67925048","wem/bandit_either_3","A3HHDPKL3O3O7Y","either","2","823","","","","","","","0","0","1","","0.2931854252","0.2","0.8","0.6","0.4","0.2931854252","0.267511235","0.2304038214","0.4026562496","","","","","","","","","","","","72","H","0","img/none_selected.jpg","","127","main_expt",""
"","bandit","207","665965","0.0-168.0-0.0","67925048","wem/bandit_either_3","A3HHDPKL3O3O7Y","either","2","692","","","","","","","0","0","1","","0.3115494401","0.2","0.8","0.6","0.4","0.3115494401","0.2582460394","0.2463692943","0.3072143153","","","","","","","","","","","","72","H","0","img/none_selected.jpg","","128","main_expt",""
"","bandit","208","668227","0.0-169.0-0.0","67925048","wem/bandit_either_3","A3HHDPKL3O3O7Y","either","2","746","","","","","","","0","0","1","","0.3024431642","0.2","0.8","0.6","0.4","0.287093163","0.249100023","0.262841392","0.3024431642","","","","","","","","","","","","76","L","3","","","129","main_expt",""
"","bandit","209","670408","0.0-170.0-0.0","67925048","wem/bandit_either_3","A3HHDPKL3O3O7Y","either","2","670","","","","","","","1","0","0","0.383823705","","0.2","0.8","0.6","0.4","","","","","0.242368994","0.2014680341","0.3044503748","0.383823705","","","","","","","","76","L","3","","","130","main_expt",""
"","bandit","210","673111","0.0-171.0-0.0","67925048","wem/bandit_either_3","A3HHDPKL3O3O7Y","either","2","1186","","","","","","","0","0","1","","0.5448185218","0.2","0.8","0.6","0.4","0.3141093292","0.2514612397","0.2231782293","0.5448185218","","","","","","","","","","","","76","L","3","","","131","main_expt",""
"","bandit","211","675203","0.0-172.0-0.0","67925048","wem/bandit_either_3","A3HHDPKL3O3O7Y","either","2","578","","","","","","","0","0","1","","0.5741986762","0.2","0.8","0.6","0.4","0.3186943837","0.1719215191","0.265126842","0.5741986762","","","","","","","","","","","","76","L","3","","","132","main_expt",""
"","bandit","212","677258","0.0-173.0-0.0","67925048","wem/bandit_either_3","A3HHDPKL3O3O7Y","either","2","543","","","","","","","0","0","1","0.1996467811","","0.2","0.8","0.6","0.4","","","","","0.3218599317","0.151851594","0.1996467811","0.54298015","","","","","","","","75","K","2","","","133","main_expt",""
"","bandit","213","679229","0.0-174.0-0.0","67925048","wem/bandit_either_3","A3HHDPKL3O3O7Y","either","2","462","","","","","","","0","0","1","0.1900899503","","0.2","0.8","0.6","0.4","","","","","0.3372263261","0.1693242304","0.1900899503","0.5504084981","","","","","","","","75","K","2","","","134","main_expt",""
"","bandit","214","681136","0.0-175.0-0.0","67925048","wem/bandit_either_3","A3HHDPKL3O3O7Y","either","2","393","","","","","","","0","0","1","","0.1541174352","0.2","0.8","0.6","0.4","0.3515125386","0.1541174352","0.172295534","0.4874659601","","","","","","","","","","","","74","J","1","","","135","main_expt",""
"","bandit","215","683034","0.0-176.0-0.0","67925048","wem/bandit_either_3","A3HHDPKL3O3O7Y","either","2","384","","","","","","","0","0","1","0.1374012581","","0.2","0.8","0.6","0.4","","","","","0.2312583875","0.1374012581","0.1171098277","0.3677382912","","","","","","","","74","J","1","","","136","main_expt",""
"","bandit","216","684770","0.0-177.0-0.0","67925048","wem/bandit_either_3","A3HHDPKL3O3O7Y","either","2","223","","","","","","","0","0","1","0.2889288236","","0.2","0.8","0.6","0.4","","","","","0.3496768842","0.2889288236","0.1390909791","0.2944012193","","","","","","","","74","J","1","","","137","main_expt",""
"","bandit","217","686879","0.0-178.0-0.0","67925048","wem/bandit_either_3","A3HHDPKL3O3O7Y","either","2","591","","","","","","","1","0","0","0.4217982028","","0.2","0.8","0.6","0.4","","","","","0.4217982028","0.2177367931","0.1209370274","0.3020033879","","","","","","","","72","H","0","img/none_selected.jpg","","138","main_expt",""
"","bandit","218","689077","0.0-179.0-0.0","67925048","wem/bandit_either_3","A3HHDPKL3O3O7Y","either","2","686","","","","","","","1","0","0","0.5123523738","","0.2","0.8","0.6","0.4","","","","","0.5123523738","0.1704259453","0.1441291996","0.2908104057","","","","","","","","72","H","0","img/none_selected.jpg","","139","main_expt",""
"","bandit","219","691646","0.0-180.0-0.0","67925048","wem/bandit_either_3","A3HHDPKL3O3O7Y","either","2","1051","","","","","","","0","1","0","","0.3892042576","0.2","0.8","0.6","0.4","0.3892042576","0.1827322183","0.1380406349","0.2738290205","","","","","","","","","","","","72","H","0","img/none_selected.jpg","","140","main_expt",""
"","bandit","220","693948","0.0-181.0-0.0","67925048","wem/bandit_either_3","A3HHDPKL3O3O7Y","either","2","789","","","","","","","0","0","1","","0.4680147771","0.2","0.8","0.6","0.4","0.4680147771","0.2030288612","0.1312769784","0.3865798498","","","","","","","","","","","","72","H","0","img/none_selected.jpg","","141","main_expt",""
"","bandit","221","696281","0.0-182.0-0.0","67925048","wem/bandit_either_3","A3HHDPKL3O3O7Y","either","2","819","","","","","","","0","1","0","","0.3970866904","0.2","0.8","0.6","0.4","0.3970866904","0.1760536641","0.1880730553","0.3507917403","","","","","","","","","","","","72","H","0","img/none_selected.jpg","","142","main_expt",""
"","bandit","222","698830","0.0-183.0-0.0","67925048","wem/bandit_either_3","A3HHDPKL3O3O7Y","either","2","1036","","","","","","","0","1","0","","0.3609481858","0.2","0.8","0.6","0.4","0.3609481858","0.1428921374","0.1798266991","0.2787839286","","","","","","","","","","","","72","H","0","img/none_selected.jpg","","143","main_expt",""
"","bandit","223","700964","0.0-184.0-0.0","67925048","wem/bandit_either_3","A3HHDPKL3O3O7Y","either","2","617","","","","","","","0","1","0","","0.3701270871","0.2","0.8","0.6","0.4","0.3701270871","0.1260474704","0.1881666754","0.2106619402","","","","","","","","","","","","72","H","0","img/none_selected.jpg","","144","main_expt",""
"","bandit","224","703137","0.0-185.0-0.0","67925048","wem/bandit_either_3","A3HHDPKL3O3O7Y","either","2","659","","","","","","","0","0","1","","0.3110645609","0.2","0.8","0.6","0.4","0.3110645609","0.151337539","0.1683386122","0.3211677341","","","","","","","","","","","","72","H","0","img/none_selected.jpg","","145","main_expt",""
"","bandit","225","705088","0.0-186.0-0.0","67925048","wem/bandit_either_3","A3HHDPKL3O3O7Y","either","2","436","","","","","","","0","0","1","","0.356964637","0.2","0.8","0.6","0.4","0.356964637","0.1600114734","0.2609121533","0.4417580917","","","","","","","","","","","","72","H","0","img/none_selected.jpg","","146","main_expt",""
"","bandit","226","706844","0.0-187.0-0.0","67925048","wem/bandit_either_3","A3HHDPKL3O3O7Y","either","2","245","","","","","","","0","0","1","0.5143633813","","0.2","0.8","0.6","0.4","","","","","0.5143633813","0.1262446547","0.280259565","0.278611551","","","","","","","","72","H","0","img/none_selected.jpg","","147","main_expt",""
"","bandit","227","708861","0.0-188.0-0.0","67925048","wem/bandit_either_3","A3HHDPKL3O3O7Y","either","2","502","","","","","","","0","0","1","","0.1030311585","0.2","0.8","0.6","0.4","0.5086187798","0.1030311585","0.2972918914","0.2811332351","","","","","","","","","","","","74","J","1","","","148","main_expt",""
"","bandit","228","710847","0.0-189.0-0.0","67925048","wem/bandit_either_3","A3HHDPKL3O3O7Y","either","2","472","","","","","","","0","0","1","0.123834606","","0.2","0.8","0.6","0.4","","","","","0.4676315778","0.123834606","0.3284309668","0.2606345315","","","","","","","","74","J","1","","","149","main_expt",""
"","bandit","229","713140","0.0-190.0-0.0","67925048","wem/bandit_either_3","A3HHDPKL3O3O7Y","either","2","780","","","","","","","0","0","1","0.3186890608","","0.2","0.8","0.6","0.4","","","","","0.4737351686","0.06566206942","0.3186890608","0.260677327","","","","","","","","75","K","2","","","150","main_expt",""
"","bandit","230","715021","0.0-191.0-0.0","67925048","wem/bandit_either_3","A3HHDPKL3O3O7Y","either","2","367","","","","","","","0","0","1","0.3331747037","","0.2","0.8","0.6","0.4","","","","","0.5387476985","0.06342121736","0.3331747037","0.2579624968","","","","","","","","75","K","2","","","151","main_expt",""
"","bandit","231","717081","0.0-192.0-0.0","67925048","wem/bandit_either_3","A3HHDPKL3O3O7Y","either","2","545","","","","","","","0","0","1","","0.2536911072","0.2","0.8","0.6","0.4","0.5065138565","0.1162046696","0.364096089","0.2536911072","","","","","","","","","","","","76","L","3","","","152","main_expt",""
"","bandit","232","718991","0.0-193.0-0.0","67925048","wem/bandit_either_3","A3HHDPKL3O3O7Y","either","2","398","","","","","","","0","0","1","","0.1427943183","0.2","0.8","0.6","0.4","0.5190676077","0.1388943584","0.3189440566","0.1427943183","","","","","","","","","","","","76","L","3","","","153","main_expt",""
"","bandit","233","721158","0.0-194.0-0.0","67925048","wem/bandit_either_3","A3HHDPKL3O3O7Y","either","2","649","","","","","","","0","0","1","0.08934943386","","0.2","0.8","0.6","0.4","","","","","0.4944482457","0.1188489222","0.486858514","0.08934943386","","","","","","","","76","L","3","","","154","main_expt",""
"","bandit","234","723561","0.0-195.0-0.0","67925048","wem/bandit_either_3","A3HHDPKL3O3O7Y","either","2","888","","","","","","","0","0","1","","0.398958755","0.2","0.8","0.6","0.4","0.4987902374","0.1255079792","0.398958755","0.1048919666","","","","","","","","","","","","75","K","2","","","155","main_expt",""
"","bandit","235","725737","0.0-196.0-0.0","67925048","wem/bandit_either_3","A3HHDPKL3O3O7Y","either","2","658","","","","","","","0","0","1","","0.3508932217","0.2","0.8","0.6","0.4","0.4151199053","0.1705129017","0.3508932217","0.1348874752","","","","","","","","","","","","75","K","2","","","156","main_expt",""
"","bandit","236","727898","0.0-197.0-0.0","67925048","wem/bandit_either_3","A3HHDPKL3O3O7Y","either","2","643","","","","","","","0","0","1","0.1892203872","","0.2","0.8","0.6","0.4","","","","","0.4215128153","0.1892203872","0.3736640956","0.1197456909","","","","","","","","74","J","1","","","157","main_expt",""
"","bandit","237","730098","0.0-198.0-0.0","67925048","wem/bandit_either_3","A3HHDPKL3O3O7Y","either","2","681","","","","","","","0","0","1","0.1589595026","","0.2","0.8","0.6","0.4","","","","","0.3666899102","0.1589595026","0.3215678611","0.1343935597","","","","","","","","74","J","1","","","158","main_expt",""
"","bandit","238","732114","0.0-199.0-0.0","67925048","wem/bandit_either_3","A3HHDPKL3O3O7Y","either","2","503","","","","","","","0","0","1","0.1426383857","","0.2","0.8","0.6","0.4","","","","","0.3906786657","0.1426383857","0.2732838962","0.04604274909","","","","","","","","74","J","1","","","159","main_expt",""
"","bandit","239","733783","0.0-200.0-0.0","67925048","wem/bandit_either_3","A3HHDPKL3O3O7Y","either","2","153","","","","","","","0","1","0","","0.4769972016","0.2","0.8","0.6","0.4","0.4769972016","0.2747613825","0.2323229575","0.08927965808","","","","","","","","","","","","72","H","0","img/none_selected.jpg","","160","main_expt",""
"","bandit","240","736018","0.0-201.0-0.0","67925048","wem/bandit_either_3","A3HHDPKL3O3O7Y","either","2","720","","","","","","","0","0","1","","0.4405879513","0.2","0.8","0.6","0.4","0.4405879513","0.2046882866","0.399022808","0.1038156196","","","","","","","","","","","","72","H","0","img/none_selected.jpg","","161","main_expt",""
"","bandit","241","738214","0.0-202.0-0.0","67925048","wem/bandit_either_3","A3HHDPKL3O3O7Y","either","2","678","","","","","","","0","1","0","","0.44055992","0.2","0.8","0.6","0.4","0.44055992","0.1715152701","0.4967313539","0.1470739062","","","","","","","","","","","","72","H","0","img/none_selected.jpg","","162","main_expt",""
"","bandit","242","740571","0.0-203.0-0.0","67925048","wem/bandit_either_3","A3HHDPKL3O3O7Y","either","2","840","","","","","","","0","0","1","","0.3434222481","0.2","0.8","0.6","0.4","0.3434222481","0.2396687428","0.5245029489","0.1214264794","","","","","","","","","","","","72","H","0","img/none_selected.jpg","","163","main_expt",""
"","bandit","243","742850","0.0-204.0-0.0","67925048","wem/bandit_either_3","A3HHDPKL3O3O7Y","either","2","765","","","","","","","0","0","1","","0.3862652833","0.2","0.8","0.6","0.4","0.3862652833","0.3359744524","0.5808119749","0.1563758897","","","","","","","","","","","","72","H","0","img/none_selected.jpg","","164","main_expt",""
"","bandit","244","745149","0.0-205.0-0.0","67925048","wem/bandit_either_3","A3HHDPKL3O3O7Y","either","2","787","","","","","","","0","1","0","","0.4270444342","0.2","0.8","0.6","0.4","0.4270444342","0.4940159592","0.6473032069","0.1311500467","","","","","","","","","","","","72","H","0","img/none_selected.jpg","","165","main_expt",""
"","bandit","245","747317","0.0-206.0-0.0","67925048","wem/bandit_either_3","A3HHDPKL3O3O7Y","either","2","649","","","","","","","0","0","1","","0.5073102058","0.2","0.8","0.6","0.4","0.5073102058","0.5922229292","0.6790689848","0.1419689761","","","","","","","","","","","","72","H","0","img/none_selected.jpg","","166","main_expt",""
"","bandit","246","749487","0.0-207.0-0.0","67925048","wem/bandit_either_3","A3HHDPKL3O3O7Y","either","2","651","","","","","","","0","1","0","","0.5417092253","0.2","0.8","0.6","0.4","0.5417092253","0.5562626425","0.5959653185","0.150246256","","","","","","","","","","","","72","H","0","img/none_selected.jpg","","167","main_expt",""
"","bandit","247","751772","0.0-208.0-0.0","67925048","wem/bandit_either_3","A3HHDPKL3O3O7Y","either","2","770","","","","","","","1","0","0","0.6505471885","","0.2","0.8","0.6","0.4","","","","","0.6505471885","0.6489587791","0.361841396","0.2070971521","","","","","","","","72","H","0","img/none_selected.jpg","","168","main_expt",""
"","bandit","248","754235","0.0-209.0-0.0","67925048","wem/bandit_either_3","A3HHDPKL3O3O7Y","either","2","947","","","","","","","0","1","0","","0.6226729341","0.2","0.8","0.6","0.4","0.6226729341","0.5652428614","0.2594844845","0.2564452127","","","","","","","","","","","","72","H","0","img/none_selected.jpg","","169","main_expt",""
"","bandit","249","756377","0.0-210.0-0.0","67925048","wem/bandit_either_3","A3HHDPKL3O3O7Y","either","2","626","","","","","","","0","1","0","","0.7574543886","0.2","0.8","0.6","0.4","0.7574543886","0.5344749526","0.1987556041","0.2845729388","","","","","","","","","","","","72","H","0","img/none_selected.jpg","","170","main_expt",""
"","bandit","250","759801","0.0-211.0-0.0","67925048","wem/bandit_either_3","A3HHDPKL3O3O7Y","either","2","1909","","","","","","","0","1","0","","0.774201251","0.2","0.8","0.6","0.4","0.774201251","0.6364900983","0.1583585206","0.2360657399","","","","","","","","","","","","72","H","0","img/none_selected.jpg","","171","main_expt",""
"","bandit","251","762159","0.0-212.0-0.0","67925048","wem/bandit_either_3","A3HHDPKL3O3O7Y","either","2","840","","","","","","","0","0","1","","0.7739789177","0.2","0.8","0.6","0.4","0.7739789177","0.5516193693","0.1494938987","0.3453554921","","","","","","","","","","","","72","H","0","img/none_selected.jpg","","172","main_expt",""
"","bandit","252","763935","0.0-213.0-0.0","67925048","wem/bandit_either_3","A3HHDPKL3O3O7Y","either","2","263","","","","","","","0","1","0","","0.7146420849","0.2","0.8","0.6","0.4","0.7146420849","0.5081608063","0.1996494969","0.2909261263","","","","","","","","","","","","72","H","0","img/none_selected.jpg","","173","main_expt",""
"","bandit","253","766414","0.0-214.0-0.0","67925048","wem/bandit_either_3","A3HHDPKL3O3O7Y","either","2","963","","","","","","","0","0","1","0.683245412","","0.2","0.8","0.6","0.4","","","","","0.683245412","0.5247340446","0.2200767262","0.3807546558","","","","","","","","72","H","0","img/none_selected.jpg","","174","main_expt",""
"","bandit","254","768213","0.0-215.0-0.0","67925048","wem/bandit_either_3","A3HHDPKL3O3O7Y","either","2","285","","","","","","","0","1","0","","0.7163731774","0.2","0.8","0.6","0.4","0.7163731774","0.5823110366","0.1929710708","0.3889518003","","","","","","","","","","","","72","H","0","img/none_selected.jpg","","175","main_expt",""
"","bandit","255","770355","0.0-216.0-0.0","67925048","wem/bandit_either_3","A3HHDPKL3O3O7Y","either","2","632","","","","","","","0","0","1","","0.6676116703","0.2","0.8","0.6","0.4","0.6676116703","0.7693722391","0.1756556012","0.3662842853","","","","","","","","","","","","72","H","0","img/none_selected.jpg","","176","main_expt",""
"","bandit","256","772681","0.0-217.0-0.0","67925048","wem/bandit_either_3","A3HHDPKL3O3O7Y","either","2","811","","","","","","","0","0","1","","0.711116056","0.2","0.8","0.6","0.4","0.711116056","0.8048595062","0.2404611203","0.3102656016","","","","","","","","","","","","72","H","0","img/none_selected.jpg","","177","main_expt",""
"","bandit","257","776648","0.0-218.0-0.0","67925048","wem/bandit_either_3","A3HHDPKL3O3O7Y","either","2","2451","","","","","","","0","1","0","","0.6541247318","0.2","0.8","0.6","0.4","0.6541247318","0.8147320782","0.1651874793","0.3272385177","","","","","","","","","","","","72","H","0","img/none_selected.jpg","","178","main_expt",""
"","bandit","258","779208","0.0-219.0-0.0","67925048","wem/bandit_either_3","A3HHDPKL3O3O7Y","either","2","1045","","","","","","","0","1","0","","0.600925469","0.2","0.8","0.6","0.4","0.600925469","0.7755432213","0.1297692321","0.3185807274","","","","","","","","","","","","72","H","0","img/none_selected.jpg","","179","main_expt",""
"","bandit","259","781879","0.0-220.0-0.0","67925048","wem/bandit_either_3","A3HHDPKL3O3O7Y","either","2","1155","","","","","","","0","0","1","","0.6321701674","0.2","0.8","0.6","0.4","0.6321701674","0.7309951384","0.1311169289","0.3896265469","","","","","","","","","","","","72","H","0","img/none_selected.jpg","","180","main_expt",""
"","bandit","260","783918","0.0-221.0-0.0","67925048","wem/bandit_either_3","A3HHDPKL3O3O7Y","either","2","517","","","","","","","0","0","1","0.8068071681","","0.2","0.8","0.6","0.4","","","","","0.7040606398","0.8068071681","0.2184653543","0.4381139349","","","","","","","","74","J","1","","","181","main_expt",""
"","bandit","261","785878","0.0-222.0-0.0","67925048","wem/bandit_either_3","A3HHDPKL3O3O7Y","either","2","446","","","","","","","0","0","1","0.156745214","","0.2","0.8","0.6","0.4","","","","","0.6551517927","0.8096694819","0.156745214","0.4339703771","","","","","","","","75","K","2","","","182","main_expt",""
"","bandit","262","787881","0.0-223.0-0.0","67925048","wem/bandit_either_3","A3HHDPKL3O3O7Y","either","2","487","","","","","","","1","0","0","0.5270594011","","0.2","0.8","0.6","0.4","","","","","0.7709035389","0.8522040983","0.07710569088","0.5270594011","","","","","","","","76","L","3","","","183","main_expt",""
"","bandit","263","790087","0.0-224.0-0.0","67925048","wem/bandit_either_3","A3HHDPKL3O3O7Y","either","2","690","","","","","","","0","1","0","","0.4791569234","0.2","0.8","0.6","0.4","0.7869666122","0.8636776132","0.07901501252","0.4791569234","","","","","","","","","","","","76","L","3","","","184","main_expt",""
"","bandit","264","792810","0.0-225.0-0.0","67925048","wem/bandit_either_3","A3HHDPKL3O3O7Y","either","2","1204","","","","","","","0","0","1","","0.464074867","0.2","0.8","0.6","0.4","0.804571828","0.8605951951","0.05695362571","0.464074867","","","","","","","","","","","","76","L","3","","","185","main_expt",""
"","bandit","265","795643","0.0-226.0-0.0","67925048","wem/bandit_either_3","A3HHDPKL3O3O7Y","either","2","1320","","","","","","","0","0","1","0.4654947356","","0.2","0.8","0.6","0.4","","","","","0.7866627628","0.8578427848","0.03796608352","0.4654947356","","","","","","","","76","L","3","","","186","main_expt",""
"","bandit","266","797727","0.0-227.0-0.0","67925048","wem/bandit_either_3","A3HHDPKL3O3O7Y","either","2","567","","","","","","","0","0","1","0.4338668179","","0.2","0.8","0.6","0.4","","","","","0.8006736442","0.8253306036","0.05986429342","0.4338668179","","","","","","","","76","L","3","","","187","main_expt",""
"","bandit","267","799695","0.0-228.0-0.0","67925048","wem/bandit_either_3","A3HHDPKL3O3O7Y","either","2","455","","","","","","","0","0","1","","0.05827831728","0.2","0.8","0.6","0.4","0.7687627789","0.8118593573","0.05827831728","0.4679469354","","","","","","","","","","","","75","K","2","","","188","main_expt",""
"","bandit","268","801744","0.0-229.0-0.0","67925048","wem/bandit_either_3","A3HHDPKL3O3O7Y","either","2","536","","","","","","","1","0","0","0.8319104568","","0.2","0.8","0.6","0.4","","","","","0.7009429779","0.8319104568","0.06499387038","0.4645116859","","","","","","","","74","J","1","","","189","main_expt",""
"","bandit","269","803912","0.0-230.0-0.0","67925048","wem/bandit_either_3","A3HHDPKL3O3O7Y","either","2","650","","","","","","","1","0","0","0.8949986836","","0.2","0.8","0.6","0.4","","","","","0.7531121838","0.8949986836","0.0878029059","0.4260553166","","","","","","","","74","J","1","","","190","main_expt",""
"","bandit","270","806434","0.0-231.0-0.0","67925048","wem/bandit_either_3","A3HHDPKL3O3O7Y","either","2","1002","","","","","","","0","0","1","0.9258368343","","0.2","0.8","0.6","0.4","","","","","0.6174616994","0.9258368343","0.1101088583","0.5323747461","","","","","","","","74","J","1","","","191","main_expt",""
"","bandit","271","808707","0.0-232.0-0.0","67925048","wem/bandit_either_3","A3HHDPKL3O3O7Y","either","2","755","","","","","","","1","0","0","0.9221438833","","0.2","0.8","0.6","0.4","","","","","0.6331996982","0.9221438833","0.1559643099","0.6013900654","","","","","","","","74","J","1","","","192","main_expt",""
"","bandit","272","810949","0.0-233.0-0.0","67925048","wem/bandit_either_3","A3HHDPKL3O3O7Y","either","2","725","","","","","","","1","0","0","0.878376231","","0.2","0.8","0.6","0.4","","","","","0.5596167322","0.878376231","0.1348882638","0.5332063066","","","","","","","","74","J","1","","","193","main_expt",""
"","bandit","273","813128","0.0-234.0-0.0","67925048","wem/bandit_either_3","A3HHDPKL3O3O7Y","either","2","661","","","","","","","0","1","0","","0.7914694382","0.2","0.8","0.6","0.4","0.5887018809","0.7914694382","0.243093686","0.5499496643","","","","","","","","","","","","74","J","1","","","194","main_expt",""
"","bandit","274","815543","0.0-235.0-0.0","67925048","wem/bandit_either_3","A3HHDPKL3O3O7Y","either","2","899","","","","","","","1","0","0","0.7843027812","","0.2","0.8","0.6","0.4","","","","","0.561552955","0.7843027812","0.2792315856","0.4170732774","","","","","","","","74","J","1","","","195","main_expt",""
"","bandit","275","817777","0.0-236.0-0.0","67925048","wem/bandit_either_3","A3HHDPKL3O3O7Y","either","2","719","","","","","","","0","0","1","0.7888241066","","0.2","0.8","0.6","0.4","","","","","0.6199522587","0.7888241066","0.2075419965","0.4050854298","","","","","","","","74","J","1","","","196","main_expt",""
"","bandit","276","820042","0.0-237.0-0.0","67925048","wem/bandit_either_3","A3HHDPKL3O3O7Y","either","2","749","","","","","","","1","0","0","0.8145025162","","0.2","0.8","0.6","0.4","","","","","0.6886125155","0.8145025162","0.1899284635","0.4522405917","","","","","","","","74","J","1","","","197","main_expt",""
"","bandit","277","822402","0.0-238.0-0.0","67925048","wem/bandit_either_3","A3HHDPKL3O3O7Y","either","2","845","","","","","","","1","0","0","0.8795467387","","0.2","0.8","0.6","0.4","","","","","0.6468609917","0.8795467387","0.1632143895","0.4547961131","","","","","","","","74","J","1","","","198","main_expt",""
"","bandit","278","824622","0.0-239.0-0.0","67925048","wem/bandit_either_3","A3HHDPKL3O3O7Y","either","2","704","","","","","","","1","0","0","0.8716255916","","0.2","0.8","0.6","0.4","","","","","0.7134983028","0.8716255916","0.1580048483","0.456709553","","","","","","","","74","J","1","","","199","main_expt",""
"","bandit","279","826956","0.0-240.0-0.0","67925048","wem/bandit_either_3","A3HHDPKL3O3O7Y","either","2","821","","","","","","","1","0","0","0.8596876402","","0.2","0.8","0.6","0.4","","","","","0.6545285445","0.8596876402","0.1815025648","0.4197111003","","","","","","","","74","J","1","","","200","main_expt",""
"","bandit","280","829992","0.0-241.0-0.0","67925048","wem/bandit_either_3","A3HHDPKL3O3O7Y","either","2","1521","","","","","","","1","0","0","0.8714244785","","0.2","0.8","0.6","0.4","","","","","0.6827561938","0.8714244785","0.1453003075","0.4468864226","","","","","","","","74","J","1","","","201","main_expt",""
"","bandit","281","832358","0.0-242.0-0.0","67925048","wem/bandit_either_3","A3HHDPKL3O3O7Y","either","2","847","","","","","","","1","0","0","0.8679491409","","0.2","0.8","0.6","0.4","","","","","0.6590680519","0.8679491409","0.1061510446","0.3852152277","","","","","","","","74","J","1","","","202","main_expt",""
"","bandit","282","834926","0.0-243.0-0.0","67925048","wem/bandit_either_3","A3HHDPKL3O3O7Y","either","2","1052","","","","","","","1","0","0","0.8421855008","","0.2","0.8","0.6","0.4","","","","","0.67998256","0.8421855008","0.09667757311","0.3481501846","","","","","","","","74","J","1","","","203","main_expt",""
"","bandit","283","837527","0.0-244.0-0.0","67925048","wem/bandit_either_3","A3HHDPKL3O3O7Y","either","2","1086","","","","","","","0","0","1","0.8741547355","","0.2","0.8","0.6","0.4","","","","","0.7157802034","0.8741547355","0.109576977","0.3688904748","","","","","","","","74","J","1","","","204","main_expt",""
"","bandit","284","839651","0.0-245.0-0.0","67925048","wem/bandit_either_3","A3HHDPKL3O3O7Y","either","2","612","","","","","","","0","1","0","","0.6750594522","0.2","0.8","0.6","0.4","0.6750594522","0.8589537271","0.1370524017","0.4196025605","","","","","","","","","","","","72","H","0","img/none_selected.jpg","","205","main_expt",""
"","bandit","285","841718","0.0-246.0-0.0","67925048","wem/bandit_either_3","A3HHDPKL3O3O7Y","either","2","554","","","","","","","0","1","0","","0.7170784861","0.2","0.8","0.6","0.4","0.7170784861","0.8009191088","0.1005848846","0.3558717694","","","","","","","","","","","","72","H","0","img/none_selected.jpg","","206","main_expt",""
"","bandit","286","843897","0.0-247.0-0.0","67925048","wem/bandit_either_3","A3HHDPKL3O3O7Y","either","2","658","","","","","","","0","1","0","","0.6886550294","0.2","0.8","0.6","0.4","0.6886550294","0.8146279372","0.1100528349","0.3978287694","","","","","","","","","","","","72","H","0","img/none_selected.jpg","","207","main_expt",""
"","bandit","287","846107","0.0-248.0-0.0","67925048","wem/bandit_either_3","A3HHDPKL3O3O7Y","either","2","696","","","","","","","1","0","0","0.7340041914","","0.2","0.8","0.6","0.4","","","","","0.7340041914","0.7498886323","0.1165568201","0.3647175361","","","","","","","","72","H","0","img/none_selected.jpg","","208","main_expt",""
"","bandit","288","848394","0.0-249.0-0.0","67925048","wem/bandit_either_3","A3HHDPKL3O3O7Y","either","2","769","","","","","","","0","1","0","","0.7108339061","0.2","0.8","0.6","0.4","0.7108339061","0.781298432","0.1607141963","0.2942091963","","","","","","","","","","","","72","H","0","img/none_selected.jpg","","209","main_expt",""
"","bandit","289","850292","0.0-250.0-0.0","67925048","wem/bandit_either_3","A3HHDPKL3O3O7Y","either","2","387","","","","","","","0","1","0","","0.7322658343","0.2","0.8","0.6","0.4","0.7322658343","0.8374694261","0.2005879304","0.3228874634","","","","","","","","","","","","72","H","0","img/none_selected.jpg","","210","main_expt",""
"","bandit","290","852504","0.0-251.0-0.0","67925048","wem/bandit_either_3","A3HHDPKL3O3O7Y","either","2","697","","","","","","","0","0","1","0.6220956771","","0.2","0.8","0.6","0.4","","","","","0.6220956771","0.7461264045","0.1999716741","0.3300931135","","","","","","","","72","H","0","img/none_selected.jpg","","211","main_expt",""
"","bandit","291","854954","0.0-252.0-0.0","67925048","wem/bandit_either_3","A3HHDPKL3O3O7Y","either","2","933","","","","","","","0","1","0","","0.5400145011","0.2","0.8","0.6","0.4","0.5400145011","0.7267359419","0.2135957141","0.4044608811","","","","","","","","","","","","72","H","0","img/none_selected.jpg","","212","main_expt",""
"","bandit","292","857102","0.0-253.0-0.0","67925048","wem/bandit_either_3","A3HHDPKL3O3O7Y","either","2","634","","","","","","","0","1","0","","0.5419994818","0.2","0.8","0.6","0.4","0.5419994818","0.6529835343","0.2041793084","0.4916994921","","","","","","","","","","","","72","H","0","img/none_selected.jpg","","213","main_expt",""
"","bandit","293","859279","0.0-254.0-0.0","67925048","wem/bandit_either_3","A3HHDPKL3O3O7Y","either","2","662","","","","","","","0","1","0","","0.6195319152","0.2","0.8","0.6","0.4","0.6195319152","0.5734554779","0.2563089198","0.5387088508","","","","","","","","","","","","72","H","0","img/none_selected.jpg","","214","main_expt",""
"","bandit","294","861525","0.0-255.0-0.0","67925048","wem/bandit_either_3","A3HHDPKL3O3O7Y","either","2","732","","","","","","","0","1","0","","0.7405966814","0.2","0.8","0.6","0.4","0.7405966814","0.7056003711","0.2870699064","0.567041903","","","","","","","","","","","","72","H","0","img/none_selected.jpg","","215","main_expt",""
"","bandit","295","863588","0.0-256.0-0.0","67925048","wem/bandit_either_3","A3HHDPKL3O3O7Y","either","2","542","","","","","","","1","0","0","0.8005734678","","0.2","0.8","0.6","0.4","","","","","0.8005734678","0.7717913507","0.2715554895","0.539749723","","","","","","","","72","H","0","img/none_selected.jpg","","216","main_expt",""
"","bandit","296","865647","0.0-257.0-0.0","67925048","wem/bandit_either_3","A3HHDPKL3O3O7Y","either","2","545","","","","","","","1","0","0","0.8392159132","","0.2","0.8","0.6","0.4","","","","","0.8392159132","0.834894728","0.2027777883","0.3803352486","","","","","","","","72","H","0","img/none_selected.jpg","","217","main_expt",""
"","bandit","297","867466","0.0-258.0-0.0","67925048","wem/bandit_either_3","A3HHDPKL3O3O7Y","either","2","303","","","","","","","0","1","0","","0.7445585264","0.2","0.8","0.6","0.4","0.7445585264","0.868580258","0.2169787163","0.3236333655","","","","","","","","","","","","72","H","0","img/none_selected.jpg","","218","main_expt",""
"","bandit","298","869809","0.0-259.0-0.0","67925048","wem/bandit_either_3","A3HHDPKL3O3O7Y","either","2","824","","","","","","","0","1","0","","0.7174829008","0.2","0.8","0.6","0.4","0.7174829008","0.8236231074","0.2292932202","0.2612589469","","","","","","","","","","","","72","H","0","img/none_selected.jpg","","219","main_expt",""
"","bandit","299","871934","0.0-260.0-0.0","67925048","wem/bandit_either_3","A3HHDPKL3O3O7Y","either","2","609","","","","","","","0","0","1","","0.6601767392","0.2","0.8","0.6","0.4","0.6601767392","0.7719294443","0.2829053382","0.2228319794","","","","","","","","","","","","72","H","0","img/none_selected.jpg","","220","main_expt",""
"","bandit","300","874242","0.0-261.0-0.0","67925048","wem/bandit_either_3","A3HHDPKL3O3O7Y","either","2","790","","","","","","","0","1","0","","0.703996204","0.2","0.8","0.6","0.4","0.703996204","0.7609360252","0.2691731019","0.2204856404","","","","","","","","","","","","72","H","0","img/none_selected.jpg","","221","main_expt",""
"","bandit","301","876561","0.0-262.0-0.0","67925048","wem/bandit_either_3","A3HHDPKL3O3O7Y","either","2","803","","","","","","","0","0","1","","0.6188024556","0.2","0.8","0.6","0.4","0.6188024556","0.7319851961","0.1974112065","0.2269951902","","","","","","","","","","","","72","H","0","img/none_selected.jpg","","222","main_expt",""
"","bandit","302","878592","0.0-263.0-0.0","67925048","wem/bandit_either_3","A3HHDPKL3O3O7Y","either","2","514","","","","","","","0","0","1","","0.5695888615","0.2","0.8","0.6","0.4","0.5695888615","0.6994646324","0.08486155027","0.3417830843","","","","","","","","","","","","72","H","0","img/none_selected.jpg","","223","main_expt",""
"","bandit","303","880624","0.0-264.0-0.0","67925048","wem/bandit_either_3","A3HHDPKL3O3O7Y","either","2","517","","","","","","","0","0","1","","0.6817307813","0.2","0.8","0.6","0.4","0.6590173842","0.6817307813","0.1930609847","0.4057490183","","","","","","","","","","","","74","J","1","","","224","main_expt",""
"","bandit","304","882679","0.0-265.0-0.0","67925048","wem/bandit_either_3","A3HHDPKL3O3O7Y","either","2","542","","","","","","","1","0","0","0.67394888","","0.2","0.8","0.6","0.4","","","","","0.6779124893","0.67394888","0.2026087193","0.4266979185","","","","","","","","74","J","1","","","225","main_expt",""
"","bandit","305","884958","0.0-266.0-0.0","67925048","wem/bandit_either_3","A3HHDPKL3O3O7Y","either","2","758","","","","","","","0","0","1","0.6520670614","","0.2","0.8","0.6","0.4","","","","","0.6433757785","0.6520670614","0.1295559036","0.4723095555","","","","","","","","74","J","1","","","226","main_expt",""
"","bandit","306","887381","0.0-267.0-0.0","67925048","wem/bandit_either_3","A3HHDPKL3O3O7Y","either","2","908","","","","","","","1","0","0","0.6598054912","","0.2","0.8","0.6","0.4","","","","","0.6050090536","0.6598054912","0.1014701128","0.4396274322","","","","","","","","74","J","1","","","227","main_expt",""
"","bandit","307","889544","0.0-268.0-0.0","67925048","wem/bandit_either_3","A3HHDPKL3O3O7Y","either","2","643","","","","","","","0","1","0","","0.7313296172","0.2","0.8","0.6","0.4","0.5614220587","0.7313296172","0.1374428951","0.4581465293","","","","","","","","","","","","74","J","1","","","228","main_expt",""
"","bandit","308","891601","0.0-269.0-0.0","67925048","wem/bandit_either_3","A3HHDPKL3O3O7Y","either","2","540","","","","","","","0","0","1","0.5771612872","","0.2","0.8","0.6","0.4","","","","","0.536938762","0.5771612872","0.2147377822","0.3635076811","","","","","","","","74","J","1","","","229","main_expt",""
"","bandit","309","893557","0.0-270.0-0.0","67925048","wem/bandit_either_3","A3HHDPKL3O3O7Y","either","2","440","","","","","","","0","0","1","0.6474737632","","0.2","0.8","0.6","0.4","","","","","0.4691369301","0.6474737632","0.2128984172","0.4109812081","","","","","","","","74","J","1","","","230","main_expt",""
"","bandit","310","895694","0.0-271.0-0.0","67925048","wem/bandit_either_3","A3HHDPKL3O3O7Y","either","2","618","","","","","","","0","0","1","0.2566260117","","0.2","0.8","0.6","0.4","","","","","0.3801843724","0.77083729","0.2566260117","0.3769467169","","","","","","","","75","K","2","","","231","main_expt",""
"","bandit","311","897616","0.0-272.0-0.0","67925048","wem/bandit_either_3","A3HHDPKL3O3O7Y","either","2","408","","","","","","","0","1","0","","0.307190163","0.2","0.8","0.6","0.4","0.4401380948","0.7372448464","0.307190163","0.4489681289","","","","","","","","","","","","75","K","2","","","232","main_expt",""
"","bandit","312","899986","0.0-273.0-0.0","67925048","wem/bandit_either_3","A3HHDPKL3O3O7Y","either","2","852","","","","","","","0","0","1","0.3235632008","","0.2","0.8","0.6","0.4","","","","","0.4589823784","0.8061851957","0.3235632008","0.5191563331","","","","","","","","75","K","2","","","233","main_expt",""
"","bandit","313","902289","0.0-274.0-0.0","67925048","wem/bandit_either_3","A3HHDPKL3O3O7Y","either","2","788","","","","","","","0","0","1","","0.5635532962","0.2","0.8","0.6","0.4","0.412850409","0.7628128465","0.2229472669","0.5635532962","","","","","","","","","","","","76","L","3","","","234","main_expt",""
"","bandit","314","904251","0.0-275.0-0.0","67925048","wem/bandit_either_3","A3HHDPKL3O3O7Y","either","2","449","","","","","","","0","1","0","","0.6059211115","0.2","0.8","0.6","0.4","0.3071086281","0.7139354314","0.3245092944","0.6059211115","","","","","","","","","","","","76","L","3","","","235","main_expt",""
"","bandit","315","906573","0.0-276.0-0.0","67925048","wem/bandit_either_3","A3HHDPKL3O3O7Y","either","2","808","","","","","","","1","0","0","0.5767319418","","0.2","0.8","0.6","0.4","","","","","0.3088172556","0.8459685894","0.3817813951","0.5767319418","","","","","","","","76","L","3","","","236","main_expt",""
"","bandit","316","909184","0.0-277.0-0.0","67925048","wem/bandit_either_3","A3HHDPKL3O3O7Y","either","2","1096","","","","","","","0","0","1","0.6195352853","","0.2","0.8","0.6","0.4","","","","","0.2725525041","0.8258062243","0.5108794425","0.6195352853","","","","","","","","76","L","3","","","237","main_expt",""
"","bandit","317","911595","0.0-278.0-0.0","67925048","wem/bandit_either_3","A3HHDPKL3O3O7Y","either","2","896","","","","","","","0","0","1","","0.7504070514","0.2","0.8","0.6","0.4","0.2929581335","0.7390020401","0.545868674","0.7504070514","","","","","","","","","","","","76","L","3","","","238","main_expt",""
"","bandit","318","913737","0.0-279.0-0.0","67925048","wem/bandit_either_3","A3HHDPKL3O3O7Y","either","2","628","","","","","","","0","0","1","","0.5696008367","0.2","0.8","0.6","0.4","0.3009301418","0.7159327665","0.5696008367","0.7863609923","","","","","","","","","","","","75","K","2","","","239","main_expt",""
"","bandit","319","915972","0.0-280.0-0.0","67925048","wem/bandit_either_3","A3HHDPKL3O3O7Y","either","2","721","","","","","","","0","1","0","","0.7704913736","0.2","0.8","0.6","0.4","0.1757133805","0.7704913736","0.7175907516","0.7472107855","","","","","","","","","","","","74","J","1","","","240","main_expt",""
